Timestamp (us),Gyroscope X (deg/s),Gyroscope Y (deg/s),Gyroscope Z (deg/s),Accelerometer X (g),Accelerometer Y (g),Accelerometer Z (g)
756532824,0.116625,0.307349,-0.101606,0.952805,0.023973,0.310427
756552868,0.359084,0.245627,-0.110830,0.952991,0.024809,0.312970
756572910,0.335279,0.108356,-0.110216,0.949520,0.023560,0.309678
756592953,0.546913,0.145841,-0.149648,0.952799,0.023328,0.309521
756612996,0.545431,0.008882,-0.111082,0.956715,0.023085,0.309279
756633039,0.636273,0.373281,-0.028113,0.954483,0.026686,0.310872
756653082,0.444602,0.395156,-0.064688,0.947385,0.027711,0.311904
756673125,0.525824,-0.213415,-0.087445,0.947929,0.028085,0.314272
756693168,0.395092,-0.265731,-0.154698,0.952607,0.029452,0.311381
756713211,-0.068523,0.099800,-0.135883,0.950333,0.029854,0.311726
756733254,-0.068580,-0.341013,0.001920,0.949511,0.024149,0.315317
756753297,-0.130238,-0.810585,-0.042892,0.953582,0.027335,0.310587
756773342,-0.501347,-0.162976,-0.200240,0.950175,0.024830,0.310127
756793385,0.054073,-0.504847,-0.120021,0.949989,0.018742,0.312543
756813428,0.501652,-0.830193,-0.031563,0.956335,0.021714,0.308013
756833471,0.583468,-0.175298,-0.451414,0.959677,0.031765,0.305496
756853514,-0.148117,0.379528,-0.970063,0.951319,0.029404,0.314650
756873557,-0.101869,-0.365460,-0.571546,0.953076,0.025386,0.317336
756893599,0.066409,-0.303481,-0.358420,0.955538,0.024310,0.312356
756913642,0.006614,-0.014377,-0.174697,0.944563,0.028499,0.314153
756933685,0.119797,-0.773625,-0.037370,0.945056,0.024380,0.312825
756953728,0.529840,-0.900800,0.126984,0.948078,0.024581,0.309203
756973771,0.353590,-0.610066,-0.092965,0.951297,0.026820,0.310301
756993814,0.498408,-0.449083,0.195158,0.953013,0.025700,0.310232
757013857,0.815391,-0.425530,0.002018,0.952580,0.027725,0.312033
757033901,0.494768,-0.674752,0.233009,0.953221,0.027049,0.308037
757053944,0.674674,-0.809767,0.025726,0.955948,0.026553,0.308152
757073987,0.712495,-0.291621,0.123581,0.952785,0.027763,0.305115
757094032,0.678259,-0.662894,-0.172726,0.952527,0.028862,0.305195
757114074,0.684637,-0.494328,-0.180075,0.957261,0.028237,0.304233
757134118,0.729296,-0.242311,-0.066138,0.955191,0.030091,0.304294
757154161,0.295462,0.130474,-0.009628,0.950898,0.030084,0.306994
757174204,0.188528,-0.363055,0.265529,0.952718,0.030252,0.308735
757194247,-0.008802,-0.278364,0.380483,0.952980,0.029426,0.308471
757214311,0.005669,-0.277884,0.166229,0.949753,0.027207,0.310196
757234332,0.141510,-0.656935,0.134795,0.952397,0.026882,0.308488
757254374,0.308153,-0.647729,0.102619,0.952996,0.030519,0.308462
757274418,0.026590,-0.342196,0.035935,0.950422,0.029291,0.309728
757294461,0.041967,-0.683143,0.226120,0.950196,0.025724,0.307662
757314504,0.117126,-0.939448,0.217703,0.954380,0.025207,0.307879
757334547,0.010811,-0.792732,0.202568,0.950238,0.028921,0.308637
757354590,0.040370,-0.927595,0.057396,0.952779,0.027590,0.306300
757374633,0.299161,-0.781067,0.146443,0.953019,0.025591,0.307775
757394676,0.306179,-0.513468,0.100143,0.954881,0.027637,0.304585
757414721,0.214352,-0.512105,0.115812,0.953043,0.027230,0.307488
757434764,0.426474,-0.617268,0.159550,0.950773,0.027528,0.306285
757454807,0.243525,-0.600316,0.252030,0.954672,0.025726,0.304690
757474850,0.440725,-0.401584,0.234298,0.954108,0.024926,0.306331
757494894,0.713156,-0.461503,0.323063,0.954839,0.024627,0.304336
757514937,0.672839,-0.202245,0.071050,0.955978,0.027141,0.301410
757534980,0.330069,-0.095237,0.157248,0.953490,0.025831,0.304134
757555021,0.434907,-0.231773,0.072364,0.955453,0.028606,0.301121
757575064,0.434404,0.186529,0.018505,0.956365,0.028403,0.300128
757595107,0.037080,0.284773,-0.351463,0.953513,0.027567,0.304757
757615150,0.332145,-0.255337,-0.443565,0.954434,0.028471,0.305576
757635194,0.605571,-0.338171,-0.109664,0.955332,0.026793,0.302319
757655237,0.497845,-0.079135,-0.177398,0.953808,0.028642,0.302657
757675280,0.391189,0.012227,-0.001082,0.951949,0.026777,0.305663
757695323,0.699890,-0.838600,-0.071266,0.952064,0.027379,0.300924
757715366,0.697511,-0.980305,-0.131716,0.954622,0.033046,0.295707
757735409,0.181233,-0.256330,0.054509,0.954922,0.028577,0.296019
757755453,0.204860,-0.255376,0.335683,0.959813,0.026312,0.295618
757775497,0.258666,0.754970,0.196493,0.964817,0.032261,0.296516
757795540,-0.114045,1.368065,-0.098541,0.961213,0.030171,0.302607
757815583,-0.008374,1.068258,-0.220420,0.951339,0.029546,0.309095
757835626,-0.539754,0.565139,0.119422,0.953531,0.029502,0.307564
757855669,-0.756815,1.171573,0.242031,0.948654,0.025729,0.305283
757875711,-0.496879,0.773400,0.414777,0.943908,0.025630,0.306888
757895754,-0.504024,0.285697,0.406688,0.947794,0.023575,0.308117
757915797,-0.031623,0.481987,0.386544,0.951845,0.025960,0.305942
757935840,0.059436,0.556509,0.331612,0.950794,0.029080,0.306637
757955884,-0.245690,0.388219,0.127764,0.954703,0.028761,0.308307
757975927,-0.541691,0.417989,-0.014830,0.957611,0.027512,0.305607
757995970,-0.683649,0.606812,0.123055,0.957404,0.025312,0.303530
758016013,-0.363493,0.468356,0.074806,0.957504,0.025947,0.303343
758036056,-0.499330,0.634266,-0.038632,0.955411,0.026255,0.303780
758056099,-0.141539,0.609563,-0.147769,0.952336,0.028508,0.306289
758076143,0.123946,0.235770,-0.110995,0.952870,0.027776,0.307027
758096186,0.041211,0.812445,-0.103064,0.953863,0.027312,0.307949
758116229,-0.261645,0.848509,0.158184,0.950490,0.027743,0.310196
758136272,-0.337987,0.269332,0.143736,0.951553,0.026009,0.312039
758156316,-0.315285,0.101732,-0.016568,0.954098,0.025138,0.310335
758176359,-0.390348,0.329321,-0.092143,0.953131,0.027048,0.307763
758196402,-0.283091,0.313058,-0.107972,0.953061,0.028695,0.308387
758216443,-0.297652,0.365559,-0.145637,0.952963,0.027677,0.306209
758236486,-0.364989,0.319091,-0.060948,0.951408,0.027901,0.308745
758256530,-0.045258,0.188936,-0.040365,0.950322,0.028467,0.309006
758276573,-0.303734,0.036880,-0.053382,0.955131,0.026746,0.307962
758296616,-0.120357,-0.039282,0.036827,0.952316,0.027707,0.308935
758316659,-0.333004,0.120496,-0.068402,0.951499,0.027712,0.308019
758336702,-0.385056,0.271994,-0.113582,0.951659,0.026537,0.309669
758356745,-0.239831,0.081407,0.007564,0.951762,0.027073,0.308390
758376788,0.019147,0.134161,-0.002114,0.952324,0.028159,0.308386
758396831,-0.193125,0.278261,0.060209,0.951860,0.027527,0.308296
758416876,-0.055465,0.262252,0.150387,0.950286,0.025819,0.308390
758436919,-0.216120,0.132627,-0.084564,0.951580,0.027075,0.308298
758456962,-0.207705,0.094297,-0.023527,0.951735,0.025160,0.308497
758477005,0.012420,-0.111133,-0.085866,0.951634,0.024993,0.310501
758497048,-0.125001,-0.156264,-0.229068,0.953460,0.024395,0.307150
758517091,-0.147089,0.178159,-0.281898,0.954310,0.026950,0.309229
758537133,-0.184226,0.003119,-0.105784,0.952213,0.027078,0.310032
758557176,0.013355,-0.126022,-0.152496,0.952499,0.027608,0.308209
758577219,-0.078120,-0.080157,-0.174288,0.952785,0.028705,0.309204
758597262,-0.487719,0.003965,-0.163155,0.950835,0.026181,0.309119
758617305,-0.425361,-0.337812,0.042554,0.950196,0.025722,0.307480
758637348,-0.325931,-0.511563,0.087529,0.957164,0.027969,0.304872
758657392,-0.689262,-0.168164,0.028889,0.954178,0.029942,0.306746
758677435,-0.580532,0.211517,-0.025681,0.948053,0.022850,0.309309
758697478,-0.238072,-0.244833,0.010284,0.954723,0.023368,0.306440
758717521,0.005000,-0.115154,-0.174447,0.960956,0.031550,0.303595
758737565,-0.813921,1.123213,-0.404666,0.952677,0.027898,0.310940
758757609,-0.166940,0.178024,-0.194636,0.952085,0.025658,0.315051
758777652,-0.005942,0.307237,0.116479,0.955504,0.027757,0.309869
758797695,-0.004483,0.784453,0.229830,0.944992,0.026483,0.313626
758817738,0.077075,-0.181878,0.176310,0.945366,0.026832,0.312261
758837781,0.213854,-0.257178,0.273807,0.949102,0.025552,0.306927
758857825,0.343244,-0.249077,0.500414,0.950274,0.025564,0.310941
758877866,0.387274,-0.301671,0.369556,0.952860,0.027706,0.309941
758897909,0.227409,-0.103334,0.384750,0.956315,0.027295,0.310698
758917952,0.219189,-0.103122,0.391512,0.952839,0.026248,0.309953
758937995,0.324786,-0.254749,0.397462,0.956658,0.025173,0.307987
758958038,0.278427,0.019171,0.289966,0.953766,0.026762,0.307315
758978081,0.299095,-0.155545,-0.022792,0.953948,0.026384,0.305863
758998125,0.381742,0.254635,-0.236756,0.957305,0.024860,0.303806
759018168,0.677915,0.762494,-0.246527,0.955213,0.025636,0.305878
759038211,1.033831,0.722211,-0.043192,0.956561,0.024341,0.306172
759058254,1.144845,0.925458,-0.203944,0.961350,0.028296,0.308268
759078298,0.906128,1.317849,-0.536939,0.957851,0.025608,0.307537
759098341,1.617713,1.845203,-0.792535,0.949401,0.026994,0.305187
759118384,1.506705,1.126978,-0.568349,0.954094,0.030586,0.307286
759138428,1.055212,1.686804,-0.723867,0.965720,0.033490,0.304433
759158471,0.608001,3.081594,-0.598514,0.955544,0.030865,0.311118
759178514,0.964231,1.933373,-0.318202,0.949409,0.029331,0.313180
759198556,1.437449,1.758405,0.249707,0.949475,0.027222,0.311559
759218598,2.031225,1.340034,0.649320,0.955175,0.030693,0.311754
759238642,1.088543,1.135681,0.763397,0.956868,0.034502,0.312463
759258685,0.176580,1.531663,0.670977,0.950305,0.042211,0.318543
759278728,0.409925,1.477991,0.082630,0.950644,0.031833,0.308798
759298771,0.848143,2.434769,-1.094852,0.943614,0.025306,0.311896
759318815,2.107592,2.456169,-1.790175,0.953469,0.009185,0.321752
759338858,3.704511,3.176740,-2.046886,0.959743,0.013809,0.318664
759358900,4.240935,4.742183,-1.686801,0.945556,0.027941,0.314711
759378944,4.225898,4.483848,-1.518839,0.938162,0.029967,0.327295
759398988,4.237600,3.373962,-1.906412,0.948872,0.031482,0.319531
759419031,3.891787,4.400595,-1.371451,0.947429,0.025371,0.316203
759439074,6.273810,4.109153,-2.608366,0.954342,0.011404,0.315367
759459117,10.006653,5.777708,-3.438485,0.961353,-0.002110,0.314255
759479160,12.577136,6.786252,-3.725787,0.954880,0.004563,0.315974
759499204,13.642843,6.299147,-3.146889,0.952986,0.014224,0.324256
759519247,15.123438,6.366930,-1.695592,0.946124,0.019266,0.326349
759539289,17.572390,5.650606,-1.127082,0.945277,0.023839,0.326670
759559332,19.108141,5.238929,-0.932774,0.947783,0.025767,0.321209
759579375,21.947330,5.882794,-0.360924,0.947233,0.007676,0.327091
759599418,25.221199,5.492070,-0.941791,0.961086,0.000800,0.325245
759619461,27.808475,7.085913,-1.092646,0.954807,0.013071,0.319818
759639504,30.169523,8.193832,-0.525188,0.943009,0.024414,0.325829
759659547,30.792648,8.034578,1.466179,0.935874,0.040902,0.321908
759679590,32.119568,8.817512,4.144524,0.928778,0.044655,0.334480
759699634,34.887226,8.503591,4.359768,0.928603,0.046995,0.342472
759719677,37.512974,7.512877,3.571124,0.929183,0.030968,0.346068
759739721,42.174843,4.695564,1.290647,0.947357,0.016641,0.356607
759759764,46.295643,4.783205,1.274206,0.955455,0.050314,0.340091
759779808,44.387218,12.129124,5.700505,0.919661,0.137410,0.320993
759799851,36.568554,12.586563,10.673820,0.883774,0.200358,0.365733
759819893,26.735483,2.509891,12.800443,0.897749,0.207677,0.360495
759839937,22.065334,-2.077947,10.471296,0.924073,0.171258,0.346056
759859981,19.301878,-5.185806,7.013861,0.947959,0.187901,0.389613
759880022,15.295347,-5.175632,5.048577,0.956479,0.180908,0.373344
759900064,12.940058,0.649263,6.660970,0.935301,0.090916,0.353265
759920107,17.376888,0.408584,3.945539,0.887552,0.052023,0.347502
759940150,14.549126,-7.145978,-0.291883,0.898604,0.087660,0.356484
759960194,9.280993,-12.591681,-1.518598,0.950645,0.139771,0.333309
759980237,4.173663,-3.847253,-3.255152,0.942149,0.179245,0.315713
760000280,-0.863392,2.137976,-5.180092,0.915145,0.216810,0.348437
760020323,-9.516441,-4.444861,-6.303596,0.905657,0.243350,0.355432
760040366,-20.614229,-8.874658,-7.577995,0.929431,0.273698,0.352715
760060410,-30.135853,-6.070334,-9.694094,0.935179,0.253792,0.347732
760080454,-37.191257,-4.126486,-10.632215,0.925611,0.223536,0.354649
760100497,-43.677792,-6.081604,-10.054972,0.922189,0.211954,0.347072
760120540,-51.246193,-6.174287,-10.964379,0.917752,0.223399,0.332105
760140583,-59.197437,-6.722903,-12.365610,0.906102,0.236208,0.326998
760160626,-66.822205,-9.294102,-14.910176,0.896205,0.224735,0.321011
760180669,-74.447647,-12.534096,-17.309359,0.903735,0.213609,0.311052
760200711,-80.898033,-14.763931,-19.086185,0.923323,0.220059,0.285558
760220754,-88.040924,-14.127503,-20.410934,0.939754,0.225469,0.273616
760240797,-96.280594,-15.070965,-21.497231,0.960752,0.226192,0.265842
760260840,-104.042938,-15.969438,-23.036707,0.983962,0.219878,0.247764
760280883,-111.500809,-13.113299,-24.284956,0.989734,0.217176,0.226524
760320969,-125.098770,-9.538998,-29.090261,0.961550,0.170237,0.195204
760341012,-130.669724,-11.557114,-31.620621,0.960867,0.134960,0.194398
760361056,-131.885086,-13.373912,-34.458828,0.988763,0.134797,0.191872
760381099,-133.210236,-9.953462,-36.691681,1.007439,0.127301,0.189885
760401143,-132.544128,-6.663991,-39.031097,0.997146,0.069260,0.185737
760421186,-129.625290,-9.632015,-41.762779,1.018225,0.063060,0.178931
760441229,-134.009659,-8.868039,-41.493725,1.048744,0.103333,0.163435
760461273,-142.145935,-0.811070,-39.709606,1.004356,0.120364,0.182454
760481316,-149.330917,-5.456429,-39.573944,0.995139,0.127858,0.190974
760501359,-155.923889,-16.213860,-40.770245,1.006615,0.131535,0.181286
760521404,-155.210297,-14.239746,-43.984882,1.000704,0.135409,0.137691
760541444,-156.200272,-13.959719,-48.533298,1.019762,0.129041,0.078613
760561487,-166.338776,-11.175983,-46.926918,1.063836,0.018819,0.056355
760581530,-157.025208,-7.366580,-42.720444,1.099989,-0.104136,0.059546
760601573,-138.284729,1.964032,-47.283947,1.140676,-0.138121,0.095996
760621616,-130.815811,17.765770,-50.075882,1.068952,-0.162290,0.184986
760641659,-116.213409,20.215857,-49.915897,0.949922,-0.213414,0.268481
760661702,-99.081375,7.613782,-51.079048,0.870775,-0.152608,0.293167
760681746,-91.600204,-4.644148,-49.189770,0.867136,-0.058074,0.284895
760701789,-89.759865,-10.382967,-46.318737,0.895180,-0.051450,0.238157
760721832,-80.890274,-3.175861,-42.538700,0.922807,-0.108766,0.236191
760741876,-65.701675,5.856391,-41.338104,0.928961,-0.092558,0.321229
760761919,-51.963398,7.267359,-38.008923,0.934558,-0.037913,0.325280
760781962,-42.287952,12.229344,-39.146740,0.915917,0.043415,0.275309
760802006,-54.333900,-1.363835,-35.460934,0.946646,0.105662,0.348492
760822048,-69.647919,-29.037807,-30.723522,0.969175,0.082765,0.355219
760842092,-70.997482,-41.469154,-25.787621,1.030915,0.103743,0.295772
760862133,-74.394043,-22.545650,-20.393333,1.051860,0.148176,0.243571
760882176,-77.904839,-5.502641,-22.127117,0.977486,0.088479,0.205555
760902220,-73.672821,-9.340140,-28.981932,0.892954,0.044532,0.193647
760922263,-72.283485,-21.144705,-27.838678,0.938404,0.088217,0.226849
760942306,-82.401840,-28.943186,-13.888427,1.025125,0.180659,0.254853
760962349,-91.189186,-18.624809,-4.483157,1.044650,0.231360,0.246656
760982392,-99.788177,-1.157887,-2.940555,0.984304,0.207824,0.258154
761002435,-104.471832,1.718559,-4.408169,0.888680,0.138694,0.295810
761022478,-109.146271,-7.476609,-9.643114,0.858193,0.043787,0.257768
761042522,-111.039841,-15.062486,-14.116219,0.876763,-0.035304,0.226508
761062566,-108.569633,-15.559541,-16.054502,0.921729,-0.002450,0.248689
761082609,-104.292030,-17.432926,-15.879832,1.000741,0.101536,0.231019
761102652,-109.251846,-15.446523,-19.561413,1.044820,0.132793,0.182192
761122696,-119.487488,-8.060178,-25.698828,1.033994,0.082618,0.180342
761142739,-123.858612,-3.481716,-27.764675,0.992448,0.056687,0.202194
761162782,-124.430443,-4.560481,-27.675468,0.958711,0.093267,0.198368
761182825,-131.810822,-7.997154,-27.524212,0.956812,0.114546,0.174507
761202867,-142.097839,-11.834346,-27.799774,0.973106,0.078481,0.163088
761222910,-147.425888,-9.877509,-30.335758,0.984187,0.037852,0.165143
761242953,-145.231689,-7.417668,-32.305191,1.008442,0.022710,0.151333
761262996,-145.433075,-3.413231,-35.194763,1.012831,0.028709,0.145307
761283039,-147.736343,0.403526,-36.925304,0.976770,0.010072,0.165956
761303082,-144.814911,-8.545549,-38.104843,0.993147,0.016173,0.173581
761323125,-146.504929,-14.085861,-40.021694,1.018351,0.037334,0.139176
761343168,-149.708221,-9.013027,-39.125828,1.024063,0.051631,0.098676
761363211,-156.017899,-6.021074,-40.390625,0.994196,0.050142,0.083175
761383255,-161.395264,-14.043094,-41.118877,1.028309,0.065027,0.056534
761403299,-167.130585,-19.747166,-43.118832,1.114989,0.048070,0.009509
761423342,-166.100983,-4.128016,-41.770199,1.130331,-0.072727,0.003334
761443386,-150.609406,14.122394,-43.285141,1.062935,-0.197752,0.085177
761463429,-132.343155,11.033522,-48.633186,1.001447,-0.242890,0.157572
761483472,-122.299789,1.872902,-50.202335,0.952077,-0.178455,0.178530
761503515,-114.567513,-2.077654,-48.246655,0.908692,-0.100360,0.184579
761523556,-107.746170,-8.589937,-48.681328,0.915301,-0.052794,0.182596
761543600,-103.368713,-12.529333,-45.260082,0.956024,-0.059787,0.157276
761563643,-94.962654,-6.903303,-42.655827,0.975908,-0.066793,0.150014
761583686,-89.067352,-3.008806,-41.699093,0.980343,-0.012159,0.175179
761603729,-90.860924,-7.908567,-39.174294,0.994819,0.051466,0.178583
761623772,-94.659157,-10.830549,-36.948334,1.015100,0.037996,0.160907
761643815,-88.810204,-9.779046,-36.818954,1.022554,-0.010320,0.151436
761663858,-81.572052,-8.455423,-37.370892,1.009033,-0.001770,0.171023
761683901,-83.867241,-9.898060,-38.448967,1.000237,0.027271,0.172267
761703945,-90.432251,-14.930117,-35.049442,1.015241,0.076663,0.175338
761723989,-98.428513,-16.372610,-29.882511,0.982842,0.062592,0.154459
761744032,-96.874023,-15.545241,-29.354315,0.959774,0.028802,0.149016
761764075,-92.115471,-18.383888,-28.199659,0.971830,0.027332,0.134822
761784119,-91.635101,-19.226732,-25.437103,0.980428,0.007206,0.092806
761804162,-92.201874,-15.949746,-24.110271,0.998296,0.011091,0.137334
761824205,-89.607620,-17.683468,-20.837420,1.019499,0.023699,0.147036
761844272,-89.459778,-17.051573,-18.256548,1.050467,0.042388,0.123163
761864290,-93.581940,-10.858058,-11.633353,1.047356,0.089039,0.163270
761884333,-98.216393,-7.179731,-4.569610,0.991965,0.128811,0.190124
761904376,-103.798615,-8.571548,-0.381141,0.937987,0.130047,0.173695
761924419,-110.670677,-13.917949,-3.584028,0.920199,0.080225,0.155950
761944462,-116.520943,-17.995829,-6.597873,0.961008,0.001354,0.125580
761964505,-110.580383,-17.401203,-8.144787,1.034854,-0.021307,0.132679
761984549,-102.955963,-5.500207,-14.149150,1.080261,0.041291,0.121478
762004592,-103.982590,7.018092,-16.217672,1.039725,0.081753,0.123397
762024635,-110.841934,2.189023,-18.324112,0.997095,0.044653,0.149157
762044679,-112.566101,-6.969751,-21.479061,0.987407,-0.011459,0.135620
762064723,-109.178299,-7.420479,-20.064753,0.987272,0.010215,0.132071
762084765,-111.574608,-7.280898,-18.515236,0.999331,0.023196,0.124131
762104809,-114.898689,-7.437805,-18.878132,1.008274,0.021525,0.113376
762124852,-114.279526,-3.220470,-20.021994,1.011334,0.019496,0.116420
762144895,-113.701469,-1.132998,-24.942200,1.012738,0.044372,0.130155
762164938,-116.297462,-2.743965,-29.065126,1.004672,0.031464,0.143768
762184980,-115.069466,-7.275393,-29.847324,1.000411,-0.017405,0.146963
762205023,-110.554558,-10.129072,-28.782209,1.013625,-0.025683,0.139206
762225066,-110.332314,-6.321030,-28.147575,1.051673,0.103470,0.075507
762245109,-128.884888,0.915678,-28.095976,1.053524,0.183574,0.024875
762265152,-148.726196,-0.024444,-27.143038,1.021944,0.060474,0.031579
762285196,-139.901703,-4.470185,-25.621887,1.025193,-0.132300,0.094376
762305238,-116.155518,-2.577206,-29.805347,1.020368,-0.199864,0.133228
762325282,-107.209015,-3.318271,-37.941017,0.987970,-0.124506,0.111611
762345325,-101.797119,-3.490276,-38.195656,0.997609,-0.066066,0.094174
762385413,-83.443489,6.809456,-35.009304,0.942544,-0.010717,0.145119
762405456,-77.770744,5.626831,-34.160336,0.940479,-0.000987,0.150031
762425499,-74.519463,5.952262,-31.039219,0.953399,0.023448,0.151927
762445542,-74.631744,8.697626,-27.902216,0.950553,0.033690,0.175402
762465585,-73.094833,7.641967,-23.105858,0.962519,0.006344,0.188006
762485629,-67.164978,4.695975,-21.777243,0.989825,-0.003647,0.211868
762505672,-61.441643,4.106623,-19.908377,1.015348,0.009682,0.241808
762525713,-54.098137,1.099464,-16.678349,0.992749,-0.006203,0.254884
762545756,-50.432999,-8.585725,-13.878523,0.991095,0.036638,0.250603
762565799,-63.197113,-10.124799,-12.895481,0.985956,0.045274,0.186399
762585842,-67.020889,-9.687401,-11.000094,0.991592,-0.015790,0.175473
762605886,-61.092106,-8.680210,-7.854438,0.982398,-0.059047,0.150452
762625929,-56.539715,-7.732657,-4.759118,1.002620,-0.023846,0.168427
762645972,-56.575695,-4.022247,-2.012145,0.992321,0.043773,0.156140
762666015,-55.906441,3.389877,2.470511,0.997670,0.103353,0.173805
762686058,-58.681995,1.367760,13.265974,0.984871,0.160721,0.213389
762706102,-69.695351,-2.271713,11.822579,0.980684,0.253665,0.198479
762726146,-87.754135,7.948251,4.363553,0.933178,0.230027,0.184762
762746189,-103.452736,8.391486,-3.530950,0.920401,0.080154,0.234341
762766232,-103.509476,-11.326225,-6.978199,0.973114,-0.043059,0.273709
762786275,-91.281296,-13.535265,-11.138035,1.016886,-0.111889,0.188651
762806319,-78.073090,0.589628,-13.340073,1.012440,-0.045253,0.165944
762826362,-80.223785,3.060384,-16.281820,1.013202,0.051436,0.187276
762846403,-88.710068,2.930740,-16.635637,1.007070,0.084789,0.172753
762866447,-96.280945,7.034244,-16.215790,0.979243,0.091666,0.183509
762886489,-104.624908,4.411735,-15.936025,0.950775,0.087494,0.203092
762906533,-111.762260,-0.195431,-15.290337,0.962442,0.057172,0.182032
762926576,-115.245163,4.124641,-15.580067,0.981620,0.018877,0.170653
762946619,-116.665108,10.296506,-18.073816,0.959649,-0.004883,0.180248
762966663,-117.638451,9.680004,-21.813974,0.935138,-0.008545,0.190387
762986705,-120.161346,3.258426,-24.401634,0.958691,-0.011329,0.194497
763006749,-118.200493,0.435607,-27.209915,1.002828,-0.033565,0.173790
763026792,-114.249191,7.288088,-27.063850,0.985853,-0.050086,0.136110
763046836,-112.184448,10.730096,-25.566895,0.990328,0.032213,0.129545
763066879,-128.962662,2.260569,-29.201302,1.023366,0.119807,0.107395
763086922,-142.089706,-3.016690,-25.903599,1.048624,0.047219,0.094158
763106965,-132.606033,4.445351,-28.680243,1.056940,-0.138909,0.141095
763127009,-111.871605,13.590304,-36.610909,1.020343,-0.231876,0.168999
763147052,-102.922966,6.231612,-39.026611,0.982080,-0.162968,0.213673
763167119,-99.344933,3.531418,-36.491745,0.941112,-0.111394,0.200839
763187137,-92.988068,5.388709,-35.140472,0.912813,-0.112924,0.207929
763207180,-82.188438,2.217714,-34.648907,0.903755,-0.118356,0.194524
763227223,-72.104126,0.598366,-33.079144,0.938686,-0.099147,0.187610
763247266,-67.599579,1.485804,-28.543543,0.972834,-0.067766,0.223017
763267309,-63.397209,0.754233,-24.720211,0.981955,-0.066133,0.228078
763287352,-59.325184,-0.798952,-22.784445,0.976870,-0.059270,0.196118
763307395,-63.739075,-2.382951,-21.156881,0.959186,-0.054095,0.219436
763327438,-69.798409,-11.499273,-22.754974,0.989886,-0.069624,0.240728
763347481,-74.244125,-15.425721,-24.362728,1.055448,-0.085448,0.218213
763367526,-74.929611,-4.070488,-26.135654,1.046673,-0.071549,0.230962
763387569,-68.535751,2.589252,-27.348951,1.016509,-0.057014,0.236904
763407613,-52.870930,1.577919,-32.031460,1.005916,-0.039120,0.181051
763427656,-54.272911,9.056235,-36.415920,0.958060,0.008512,0.138518
763447699,-68.999878,9.132397,-30.574120,0.908270,0.023165,0.182919
763467742,-78.668076,-14.013272,-18.829733,0.940860,0.008790,0.216507
763487785,-81.179237,-24.551258,-14.374286,1.030655,-0.038651,0.171121
763507826,-75.305916,-7.250113,-15.631747,1.036802,-0.091467,0.179614
763527870,-64.556313,-1.696973,-18.477242,1.003239,-0.106460,0.204985
763547913,-60.184433,-6.390230,-18.148264,1.004420,-0.051676,0.193890
763567956,-61.642162,-1.957586,-17.752743,0.999282,-0.023286,0.188428
763587999,-58.686024,-2.135076,-18.019028,0.983077,-0.049898,0.206374
763608042,-51.761024,-5.395384,-20.743061,0.967608,-0.089017,0.223427
763628085,-44.904701,-8.700356,-21.516245,0.982514,-0.072551,0.224220
763648128,-37.288536,-7.717471,-18.474920,0.983442,-0.045313,0.198327
763668172,-32.698795,-7.217474,-13.345378,0.969764,-0.020198,0.226244
763688215,-29.020992,-8.548913,-9.227964,0.970745,-0.037257,0.214283
763708259,-22.099752,-7.027159,-9.244377,0.967205,-0.050189,0.208901
763728302,-17.073345,-4.546493,-10.176601,0.949719,-0.023388,0.210191
763748345,-20.284319,-9.407423,-8.532309,0.971584,-0.026411,0.228220
763768389,-16.364029,-11.188412,-6.404704,0.984391,-0.007129,0.185728
763788432,-14.696348,-8.155712,-3.167345,1.003100,0.088784,0.149747
763808475,-29.107136,-7.633651,-2.348847,1.027907,0.108167,0.145854
763828517,-35.925873,-3.029322,-2.308539,1.022127,0.039470,0.164861
763848560,-29.984959,-1.835229,-6.042473,1.008299,-0.007659,0.174617
763868603,-26.699104,-7.638672,-8.865711,1.024504,-0.050743,0.188020
763888646,-18.366226,-3.328676,-8.872729,1.038215,-0.103769,0.195750
763908689,-2.958416,7.702688,-6.967209,0.982513,-0.094046,0.214473
763928733,2.976808,8.466566,-4.011828,0.940575,-0.053809,0.282938
763948776,7.116909,-0.049253,-2.824211,0.947395,-0.066077,0.289917
763968819,12.804450,-2.555074,-3.444440,0.968182,-0.035662,0.252854
763988862,11.203316,3.253247,-3.430037,0.953075,0.044649,0.233234
764008905,6.237091,7.243748,4.207327,0.927373,0.056230,0.255894
764028950,10.726272,8.779799,14.372354,0.896390,0.054671,0.303661
764048993,13.011861,-3.694359,15.608405,0.969713,0.119650,0.238472
764069036,-0.442639,-13.940777,5.192766,1.108123,0.181901,0.157940
764089079,-11.813135,13.270939,2.991584,1.084618,0.074280,0.216288
764109122,-2.937750,25.711777,-0.196491,0.960719,-0.064484,0.348361
764129165,8.025295,7.550350,-3.508770,0.935114,-0.050022,0.353608
764149208,9.052150,5.968016,-4.619800,0.963847,0.031352,0.282405
764169250,7.116296,13.540483,-3.507465,0.921241,0.084451,0.275373
764189294,5.284449,8.990282,-1.218865,0.915457,0.096647,0.285700
764209337,3.041857,7.655711,1.473613,0.950298,0.095581,0.273582
764229380,-0.446977,13.845353,0.725062,0.963403,0.092908,0.296460
764249423,-4.064394,15.983990,0.095602,0.931797,0.081927,0.326092
764269466,-6.105260,11.850573,-0.791419,0.919862,0.053021,0.338170
764289509,-7.019653,10.179326,-0.531425,0.951955,0.023233,0.344841
764309552,-4.156564,10.975281,0.253410,0.965192,-0.000758,0.345136
764329595,-0.806844,12.127977,0.881811,0.939005,0.010404,0.346765
764349638,-0.327329,9.406265,0.332191,0.917833,0.028524,0.350193
764369683,-0.128213,6.494028,-1.883507,0.917459,0.034274,0.350325
764389726,1.768607,6.371246,-0.846609,0.924937,0.034337,0.349378
764409769,4.152223,4.621872,1.026107,0.934290,0.035568,0.337327
764429812,2.588298,6.340876,0.792687,0.926490,0.053447,0.347775
764449856,0.551660,5.689222,1.342199,0.921679,0.050015,0.354869
764469899,-0.087933,3.493534,2.141481,0.931850,0.046084,0.349149
764489941,-0.038669,5.082126,2.337677,0.929208,0.032888,0.346963
764509984,1.540876,4.723390,2.028792,0.936028,0.006352,0.347596
764530027,8.023311,3.244153,4.014574,0.973839,-0.013368,0.321268
764550070,17.172024,1.436482,7.549593,1.008889,-0.003196,0.350665
764570113,25.235031,0.013877,3.314291,0.903319,0.081073,0.250233
764590156,6.601492,7.547333,3.922369,0.945336,0.164345,0.279260
764610199,-10.471231,-13.588425,8.872778,0.995711,0.080818,0.342774
764630242,-11.099555,-12.487498,5.067407,1.039317,0.017981,0.279060
764650285,-8.441847,10.828218,3.021373,0.973070,0.015957,0.265392
764670328,-10.344479,11.459453,0.216595,0.895071,0.038380,0.329825
764690373,-14.094747,-3.914044,-0.951425,0.881981,0.045260,0.321205
764710416,-15.425387,-9.742288,-0.196738,0.935051,0.019775,0.285932
764730460,-11.536931,0.811648,-0.358423,0.972858,0.003079,0.274237
764750503,-10.817389,9.703398,-1.339869,0.987600,0.051223,0.268120
764770546,-16.043520,13.105229,-1.767732,0.992600,0.083836,0.275080
764790589,-15.208870,19.875971,-3.448940,0.974929,0.045820,0.301394
764810632,-8.017463,20.969727,-8.175127,0.940112,0.016783,0.286084
764830673,-2.471970,14.511004,-10.260860,0.978569,0.025198,0.268724
764850717,-7.954851,16.228075,-5.436156,0.982867,0.043135,0.287090
764870760,-11.133444,17.742954,-6.327413,0.937327,0.049816,0.334591
764890803,-16.129335,6.405778,-9.104777,0.981176,0.033153,0.314928
764910846,-14.092691,7.312700,0.195926,1.019035,-0.041051,0.230873
764930890,-0.771521,19.928759,6.412667,0.969265,-0.092495,0.287655
764950933,9.044008,10.943139,4.822246,0.962504,-0.081191,0.286146
764970976,15.312655,9.471579,6.565874,1.015762,-0.071230,0.236287
764991019,22.103403,20.784481,9.512339,0.998342,-0.051695,0.241371
765011062,26.209709,22.757685,10.774100,0.959267,-0.028968,0.277315
765031107,30.403038,20.011303,13.190020,0.956024,-0.004400,0.289289
765051150,33.045406,21.484636,15.583366,0.961994,0.017746,0.288057
765071193,34.511272,24.281448,17.847353,0.981354,0.010249,0.299914
765091236,36.959167,28.171825,19.919939,0.962447,0.002747,0.307486
765111279,40.054585,28.831299,21.883957,0.962052,0.001129,0.309863
765131322,45.224686,29.633261,23.550056,0.974919,-0.010457,0.310144
765151364,50.580505,33.725834,24.495501,0.965731,-0.012874,0.322479
765171407,55.454136,34.899506,23.999928,0.957907,0.014432,0.325383
765191451,57.874863,37.101501,23.743118,0.941596,0.044252,0.342953
765211494,56.480598,38.417892,24.331554,0.932711,0.058266,0.333668
765231537,56.582073,40.136406,26.195633,0.929723,0.043361,0.346516
765251580,59.142563,39.594463,26.024149,0.956553,0.030413,0.363844
765271623,60.250969,41.501579,26.684258,0.971419,0.043582,0.362478
765291666,59.659275,48.365990,27.733629,0.938239,0.060070,0.380036
765311709,61.087242,48.312302,29.398758,0.926005,0.062190,0.395588
765331753,64.861687,48.940182,30.009159,0.915217,0.047883,0.399269
765351797,68.819458,54.052338,30.690102,0.896077,0.036546,0.405596
765371840,72.215683,57.112457,30.638315,0.898851,0.064479,0.403656
765391883,72.624084,61.550606,29.945341,0.894257,0.105938,0.428773
765411926,73.917656,67.637367,29.312586,0.876660,0.095464,0.469155
765431970,73.937836,67.090805,30.882317,0.830952,0.060037,0.467747
765452013,75.980370,62.415306,32.432827,0.785079,0.101358,0.489195
765472062,75.971649,61.245834,34.696632,0.784732,0.184137,0.538584
765492098,73.287117,59.971416,35.106953,0.775984,0.194606,0.556096
765512141,75.362930,56.100834,35.033752,0.751943,0.130833,0.550165
765532184,80.194878,54.213493,39.028572,0.732133,0.158811,0.570547
765552227,76.996964,55.820892,41.001854,0.697952,0.272488,0.649479
765572270,70.871925,49.112946,36.971748,0.665468,0.347558,0.738483
765592313,70.420990,35.583141,34.847256,0.646597,0.262668,0.760259
765612356,75.410385,24.626133,34.628899,0.641560,0.187100,0.801270
765632400,72.955353,13.281142,36.243061,0.658615,0.274216,0.843557
765652443,62.032120,2.078602,34.143330,0.657603,0.403763,0.853861
765672487,46.093948,-6.734963,27.668800,0.675070,0.471620,0.881288
765692530,32.382584,-11.231585,24.898464,0.654558,0.410536,0.838669
765712573,29.172920,-18.145004,25.874277,0.616904,0.346015,0.839746
765732617,37.256348,-33.124622,27.502487,0.633500,0.270177,0.812998
765752660,53.622818,-39.207973,35.793354,0.711663,0.240564,0.750720
765772703,47.987961,-15.850456,26.291605,0.453713,0.062065,0.558660
765792746,29.360994,-37.076046,14.470909,0.467564,0.007163,0.684583
765812788,36.188980,-96.574448,27.182127,0.711511,0.063348,0.551610
765832831,36.655487,-101.233650,28.135241,0.944021,0.339532,0.472093
765852874,-1.381244,-38.605110,20.078957,0.963421,0.586741,0.494685
765872917,-27.940319,7.391397,13.336928,0.807450,0.571197,0.630787
765892960,-50.705170,-9.581184,2.953321,0.634432,0.503697,0.708015
765913003,-77.318604,-49.443481,-6.861094,0.599930,0.338739,0.644392
765933046,-94.804237,-71.207672,-14.195237,0.682392,0.142737,0.576963
765953090,-85.204750,-66.882645,-28.968622,0.771538,-0.064953,0.533351
765973133,-56.886578,-57.669609,-39.928631,0.799258,-0.158140,0.400487
765993176,-35.133064,-51.020187,-34.616531,0.739602,-0.020939,0.314521
766013220,-59.895023,-70.749603,-27.094461,0.823425,0.188814,0.346360
766033263,-75.066597,-105.268478,-31.569809,1.079795,0.305685,0.247210
766053307,-90.622688,-103.527061,-42.590130,1.298695,0.294144,0.064083
766073350,-80.348480,-20.400948,-45.733871,1.398613,0.108147,0.054422
766093393,-68.221634,43.338093,-40.241951,1.148044,-0.082628,0.232704
766113436,-43.170727,34.447437,-38.041088,0.938267,-0.234945,0.367540
766133496,-11.112951,17.602682,-30.797405,0.838826,-0.146746,0.419073
766153521,-4.560244,4.121997,-28.564651,0.887865,-0.082877,0.389315
766173564,-7.018989,-7.666873,-33.692238,1.005293,-0.084892,0.341753
766193607,0.241503,12.895279,-31.611366,1.065397,-0.063150,0.170849
766213651,12.796297,57.438999,-16.353165,0.927776,0.063432,0.219147
766233694,13.514309,77.666161,-11.197351,0.787643,0.269931,0.495288
766253737,-8.459204,48.207321,0.517839,0.759979,0.414154,0.525670
766273780,-25.142332,-5.410106,-2.427058,0.971226,0.527028,0.410746
766293823,-52.252327,-22.502790,-17.782457,1.241032,0.311622,0.442809
766313866,-63.186646,56.015102,-15.883519,1.079570,-0.262204,0.407946
766333909,-22.991695,101.680611,-22.032398,0.695685,-0.215232,0.497437
766353954,24.636885,49.945774,-41.874355,0.668924,0.272619,0.720462
766373997,-33.179977,19.227789,-42.537151,0.756372,0.725082,0.700523
766394040,-100.689789,35.748268,-27.766090,0.629004,0.564456,0.539770
766414092,-134.661636,44.827354,-16.856211,0.515361,0.240747,0.772592
766434126,-144.790329,26.635658,-26.566099,0.430319,0.044562,0.811282
766454169,-124.948418,4.122870,-38.071064,0.379635,-0.047671,0.773344
766474211,-101.022881,-11.304716,-38.765583,0.340352,-0.110048,0.865253
766494254,-49.284290,-43.993431,-36.632557,0.395849,0.070545,0.903226
766514297,-6.296136,-71.637665,-22.857412,0.644648,0.313828,0.770930
766534341,-8.491699,-71.208725,-36.592007,0.652147,0.623636,0.351261
766554384,-90.398117,-45.569695,-71.253342,1.126793,0.704570,-0.015035
766574427,-238.431946,-119.725449,-75.693390,1.522455,0.355650,0.194675
766594470,-390.978546,-187.195557,-78.482468,1.628720,-0.312474,0.693973
766614513,-157.791489,31.806995,-45.105656,1.797994,-1.146815,-0.370955
766634556,-47.802952,70.163239,-29.773487,0.822369,-1.145419,0.317761
766654599,50.493614,-4.700991,-71.633247,0.516166,-0.753895,0.734739
766674644,126.394547,-80.970146,-86.335976,0.675304,-0.158464,0.426443
766694687,45.134521,-68.074669,-63.007374,0.802171,0.213138,0.600928
766714730,-33.787991,-10.542555,-40.195999,0.649328,0.117688,0.261368
766734773,-2.547057,-1.627510,-32.200958,0.523660,0.018574,0.438896
766754817,22.618933,-33.246513,-34.801872,0.567281,0.169819,0.553775
766774859,-13.221514,-60.325996,-32.063622,0.826621,0.309173,0.480864
766794903,-41.457455,-76.409729,-20.175930,1.176352,0.151579,0.403599
766814944,-48.519562,-56.343327,-15.592632,1.322967,-0.002768,0.241699
766834988,-31.631254,8.107970,-5.894503,1.241040,0.073821,0.237191
766855031,-33.026371,38.422745,-1.463382,0.973961,0.097561,0.406390
766875074,-42.853012,18.718832,6.957386,0.801658,0.047669,0.424207
766895117,-47.579105,-12.862020,14.839851,0.868130,0.145168,0.479152
766915160,-41.975048,-25.425797,9.102659,1.088984,0.215873,0.364555
766935203,-32.155041,3.782858,-7.600515,1.151557,0.101692,0.212271
766955247,-52.441383,56.376675,-19.379242,0.886110,-0.171498,0.372280
766975290,-38.735401,53.624470,-28.509407,0.742490,-0.182464,0.599206
766995333,-34.017593,3.288241,-29.267439,0.795401,0.221777,0.533799
767015378,-72.603409,-14.661608,-29.106991,0.819057,0.533026,0.395564
767035421,-99.680832,-0.858909,-30.763680,0.802042,0.513136,0.383404
767055464,-125.030716,11.823239,-19.473833,0.727237,0.168690,0.464818
767075514,-123.445251,-11.916691,-22.990816,0.723817,0.039134,0.444103
767095550,-131.362534,-25.470501,-25.218025,0.841523,0.027167,0.407551
767115593,-126.785454,-17.080570,-19.204504,0.893786,-0.010790,0.398049
767135635,-99.239532,-5.225106,-20.607748,0.976631,-0.000429,0.388827
767155678,-55.877243,-3.854090,-32.269917,1.011610,0.190558,0.221805
767175721,-121.165268,30.437965,-27.535517,1.113882,0.204447,0.111090
767195764,-264.540649,-43.276806,-22.755470,1.222936,-0.134246,0.409485
767215808,-335.081116,-109.057137,-31.660069,1.325150,-0.833878,0.216254
767235851,-81.458496,56.040890,-10.540154,1.469759,-1.381054,-0.211727
767255894,16.072376,51.531624,-13.713912,0.627567,-0.958724,0.415947
767275937,99.084595,-10.903285,-46.295815,0.630652,-0.356100,0.624495
767295980,67.762894,-29.267550,-41.040699,0.785927,-0.013208,0.369877
767316023,-9.056652,-1.891147,-22.528891,0.764343,0.122552,0.427414
767336068,-44.097458,1.931582,-6.311128,0.733248,-0.063682,0.428633
767356111,-35.441860,-18.442326,-15.545895,0.734064,-0.261478,0.460316
767376154,-6.699837,-20.392883,-21.660982,0.886335,-0.215794,0.474435
767396197,-19.113981,0.046532,-9.197775,0.967750,-0.024354,0.465346
767416241,-37.581844,4.838198,-3.705047,0.977171,-0.038422,0.505864
767436284,-40.764828,-2.153478,-7.658401,0.987380,-0.110469,0.498339
767456346,-36.303169,1.885228,-9.898115,0.981930,-0.210034,0.448045
767476369,-33.036308,7.568923,-7.246896,0.897098,-0.267832,0.411394
767496412,-34.166626,5.350371,-7.525628,0.824148,-0.271591,0.433653
767516455,-29.476528,-6.586990,-8.007399,0.850616,-0.244700,0.400120
767536498,-28.215389,-13.140372,-9.100288,0.958376,-0.247820,0.406213
767556541,-19.191679,2.775361,-8.948355,1.007935,-0.328873,0.394589
767576584,-0.398715,15.990758,-11.573266,1.013390,-0.306862,0.411382
767596627,6.046453,37.023636,-12.191085,1.002054,-0.171121,0.399708
767616671,10.455149,60.656376,-15.766885,0.883048,-0.230618,0.297269
767636714,3.599635,50.267052,-10.219325,0.837633,-0.277601,0.550065
767656758,1.788995,25.173300,11.454243,0.869341,-0.174462,0.556820
767676802,41.966599,19.505148,25.329201,0.876853,-0.053310,0.458366
767696845,44.940029,31.512272,9.807058,0.903202,-0.007631,0.488135
767716888,9.630858,39.003906,3.732273,0.801564,0.026817,0.502677
767736931,6.901871,31.034904,7.653680,0.650223,0.008255,0.659505
767756974,12.964529,-3.995383,5.331972,0.681578,-0.040408,0.726780
767777017,13.988165,-36.276974,4.112862,0.773966,-0.002745,0.705567
767797059,13.783822,-26.019262,13.406670,0.743997,-0.029661,0.665966
767817102,31.722055,-23.766247,21.167175,0.626805,-0.080074,0.662976
767837145,44.910542,-41.569096,25.090115,0.564217,-0.056261,0.674523
767857189,38.617722,-61.232445,29.118467,0.615536,-0.053204,0.686617
767877232,26.232573,-80.507271,40.278179,0.766575,-0.136760,0.652812
767897275,34.349197,-76.557747,49.529388,0.780189,-0.388328,0.237002
767917318,68.869644,-41.100418,31.571981,0.822139,-0.556213,0.279300
767937361,109.941437,-74.833496,40.164284,0.990403,-0.409297,0.218681
767957404,179.105515,-113.335739,61.016861,1.289043,-0.034319,0.220954
767977447,168.173416,-90.049408,52.043362,1.476315,0.706701,0.396018
767997492,36.296947,12.519153,29.203661,1.226102,0.687389,-0.192159
768017535,1.950710,53.089729,26.548927,0.979613,0.763233,0.351772
768037578,-24.163578,23.235647,47.148697,0.692145,0.177851,0.336023
768057621,-33.281418,-49.792240,45.657333,0.686652,-0.054557,0.333986
768077665,-33.740913,-89.169731,31.726131,0.900294,-0.169285,0.279591
768097708,-12.663572,-65.497391,13.060162,1.088555,-0.281873,0.191488
768117750,35.226673,-2.131695,0.771384,1.109339,-0.225337,0.185983
768137793,79.075195,14.605548,1.607821,1.097271,0.016883,0.335121
768157836,63.717358,12.141491,2.725898,1.083703,0.232304,0.294003
768177879,47.767548,28.258652,-2.781734,0.967693,0.148491,0.313878
768197922,64.668442,27.772011,-4.564026,0.884369,0.035104,0.383763
768217965,82.678131,6.635836,-0.766322,0.900852,0.054636,0.333010
768238008,74.662918,-0.357095,0.094046,0.891678,0.036925,0.273273
768258051,76.131210,2.879847,0.788230,0.907010,-0.035175,0.344176
768278095,94.230858,5.196826,-0.990667,0.973292,-0.033607,0.345193
768298138,110.115219,15.628965,4.553312,1.117785,-0.076225,0.260928
768318182,121.950584,39.003983,16.728779,1.091213,0.017120,0.179844
768338226,159.874710,63.665237,15.287188,0.890340,0.299050,0.348488
768358269,157.213577,48.498898,20.502369,0.846109,0.374721,0.408176
768378312,107.688660,15.687302,28.120016,0.783903,0.320478,0.380491
768398355,60.411716,-20.143353,36.538437,0.790197,0.141555,0.436095
768418398,86.015358,-50.420296,44.392815,0.904111,-0.051250,0.409202
768438441,141.040573,-15.623874,32.754375,0.996412,0.022239,0.262233
768458483,149.681992,27.591337,27.253510,0.957543,0.259821,0.420499
768478526,135.877899,11.139108,41.781097,0.977723,0.147270,0.392259
768498569,166.403366,4.614697,42.993084,0.699466,-0.105023,-0.160240
768518612,169.769669,11.058685,29.484413,1.004372,0.009205,0.053542
768538655,163.000259,-61.121933,57.281830,1.333413,0.488340,0.274868
768558699,112.330399,-34.407795,73.102600,1.381881,0.956143,0.115401
768578742,68.321983,51.733368,44.896614,1.115680,1.036573,0.121442
768598785,35.895691,98.443718,42.358482,0.732009,0.705383,0.423914
768618828,30.570354,40.588203,51.215054,0.546907,0.347766,0.535405
768638871,18.536224,-44.859943,42.543259,0.680322,0.270633,0.370769
768658916,0.783802,-64.240097,45.851673,0.850389,0.168650,0.261869
768678959,14.546200,-46.559418,41.737446,0.974753,0.010416,0.284205
768699002,51.102661,-13.305951,28.421295,1.019151,-0.032467,0.232988
768719046,68.849739,10.166763,15.769030,1.028081,0.082473,0.261056
768739088,70.313347,2.718885,20.351061,1.052981,0.221256,0.303521
768759132,67.806236,-0.127482,24.182123,1.062769,0.286907,0.300137
768779173,72.825089,16.383749,22.528189,1.077636,0.299885,0.297589
768799217,74.318062,24.894636,21.190731,1.020196,0.278872,0.323564
768819260,67.394051,24.199953,18.090502,0.938830,0.180893,0.334886
768839303,68.591675,22.571394,15.926880,0.913538,0.072627,0.350890
768859346,78.142838,19.973015,19.710964,0.941715,0.053864,0.348702
768879389,81.494186,23.387321,29.654392,0.946773,0.052009,0.354763
768899432,85.961060,26.319878,35.292999,0.967607,0.021210,0.286977
768919475,91.572701,35.020538,41.305916,0.999200,0.037540,0.228349
768939519,103.649826,46.107895,43.008366,0.939925,0.198112,0.410683
768959562,105.010818,40.518723,39.727352,0.938996,0.486686,0.475849
768979606,90.779518,42.450600,49.060402,0.999837,0.481441,0.381469
768999649,68.230499,47.949989,48.633858,0.838075,0.186878,0.373614
769019693,53.238785,37.521942,53.878159,0.773737,-0.137067,0.550168
769039736,105.125839,-10.823167,58.576965,1.019468,-0.265233,0.519335
769059779,134.565796,0.205174,63.795517,0.901992,-0.145905,0.025760
769079822,132.205444,55.451923,36.434555,0.788474,0.051491,0.233250
769099865,136.551041,13.909965,35.541553,0.992660,0.312126,0.389187
769119907,111.000412,-14.603048,47.801323,1.050398,0.541181,0.313699
769139950,53.202915,11.216007,37.120190,1.064715,0.688983,0.371125
769159993,20.911158,43.122490,23.114254,0.927012,0.577066,0.493316
769180036,1.983071,36.505600,11.068745,0.781129,0.346448,0.535943
769200079,-16.028206,6.571843,5.376671,0.743776,0.190097,0.546612
769220122,-19.069616,-11.982059,-1.774140,0.798319,0.151392,0.476588
769240165,-28.495676,-7.090262,-9.736178,0.822915,0.197004,0.456088
769260209,-37.152897,-0.472234,-14.285128,0.786022,0.190888,0.479176
769280252,-40.927216,-5.958587,-18.517250,0.762393,0.214287,0.476443
769300295,-53.915897,-12.157970,-20.362087,0.786905,0.242932,0.491955
769320339,-65.477295,-11.730654,-21.927017,0.796072,0.233767,0.491551
769340383,-73.622551,-9.354832,-27.755756,0.807967,0.219840,0.443955
769360426,-89.509560,7.514818,-33.104599,0.753698,0.150576,0.460609
769380469,-97.657806,9.518833,-37.546429,0.699823,0.036573,0.581426
769400512,-36.878803,-21.399017,-52.023724,0.660207,-0.008151,0.430099
769420555,-4.904729,-25.094248,-61.064514,0.852175,0.263956,0.270656
769440597,-108.811142,-31.329956,-47.920315,1.120386,0.391659,0.193535
769460640,-216.345352,-105.075974,-60.624763,1.445580,-0.146416,0.560980
769480683,-242.662628,-103.408348,-70.473083,1.694626,-0.986328,0.285217
769500727,-42.806499,98.899628,-41.159752,1.348483,-1.292562,-0.114924
769520770,39.448624,103.785477,-55.279415,0.477247,-0.982285,0.714762
769540813,145.686722,-4.668046,-85.931320,0.463490,-0.389160,0.535507
769560856,97.363754,-66.216217,-72.353462,0.680324,0.187160,0.651329
769580899,-26.664343,-49.909225,-49.309643,0.653011,0.348610,0.281157
769600942,-26.557199,-50.420570,-36.915012,0.675460,0.289806,0.352093
769620985,-33.701736,-65.867928,-22.995567,0.810141,0.264622,0.363299
769641030,-59.716236,-73.157295,-22.918728,1.018247,0.121082,0.372286
769661073,-69.854370,-57.195858,-25.530111,1.269633,-0.001485,0.308217
769681116,-68.559929,4.432982,-34.572655,1.237042,-0.062130,0.225993
769701160,-73.085350,55.269951,-35.439270,0.916587,-0.085656,0.429971
769721203,-58.162239,15.191119,-24.530212,0.712438,-0.076761,0.492866
769741246,-31.141438,-52.416435,-21.938499,0.806579,0.090994,0.474780
769761309,-57.022224,-57.391678,-13.819951,1.014514,0.284169,0.413431
769781330,-61.740021,-33.204296,-18.491899,1.174974,0.180891,0.282075
769801374,-83.276718,2.149634,-52.848228,1.095108,0.018035,0.276008
769821417,-102.429306,48.349983,-65.307625,0.854232,-0.123773,0.463062
769841460,-59.134102,19.903427,-60.348442,0.721377,-0.110445,0.455153
769861503,-15.460646,-25.940214,-69.492409,0.746026,0.177740,0.444305
769881546,-46.990379,-17.716831,-63.727558,0.838654,0.480023,0.330866
769901589,-93.128983,-16.983364,-59.397758,0.900399,0.405037,0.326200
769921632,-123.381477,-31.235991,-52.851997,0.754557,0.187721,0.330024
769941676,-105.002502,-52.892700,-39.686127,0.876969,0.172107,0.202856
769961720,-109.247040,-79.338997,-55.520348,1.210247,0.234077,0.234369
769981763,-183.231369,-85.782410,-74.823135,1.404642,-0.051266,0.222302
770001806,-207.460571,-24.158464,-76.181190,1.406254,-0.596005,0.198040
770021850,-69.781746,67.706230,-76.241852,0.922209,-0.623421,0.182167
770041893,13.050733,25.485783,-99.836670,0.587972,-0.151070,0.548654
770061936,21.728468,-26.928539,-99.891724,0.636477,0.314698,0.510384
770081979,-59.788689,-39.345627,-82.037628,0.714830,0.610547,0.272618
770102021,-107.480560,-53.022896,-63.436085,0.792465,0.608923,0.271924
770122064,-120.222588,-66.319107,-43.053535,0.915969,0.410648,0.327451
770142107,-126.935715,-56.255257,-37.869232,1.087628,0.131971,0.357772
770162151,-118.252380,-25.168606,-38.536572,1.196856,-0.044856,0.299576
770182194,-88.886536,14.525461,-42.547455,1.061152,-0.059333,0.260739
770202236,-60.803677,11.012135,-43.330818,0.932872,0.165900,0.392051
770222280,-50.668491,-19.016399,-36.752216,0.946668,0.392295,0.449462
770242323,-76.724464,-16.822920,-26.170782,0.959313,0.383041,0.331364
770282409,-82.782967,-26.166620,-9.492372,0.907555,0.038362,0.415589
770302454,-75.791855,-29.325371,-22.844532,0.993179,-0.054559,0.388484
770322497,-70.187668,-17.416580,-32.284500,0.982953,0.139406,0.374791
770342540,-63.115879,1.758369,-39.152370,0.876602,0.264993,0.388273
770362583,-87.154678,5.289128,-42.529140,0.746646,0.292184,0.361971
770382626,-90.675018,-16.144794,-32.334316,0.663599,0.285426,0.364789
770402669,-77.792023,-42.732052,-24.568729,0.805081,0.449955,0.264042
770422720,-85.821533,-46.141716,-33.165947,0.924601,0.748797,0.133984
770442754,-134.305969,-9.038939,-33.385422,0.918548,0.899531,-0.036374
770462798,-206.962891,-39.116020,-40.189667,1.219460,0.432016,0.230526
770482841,-342.153961,-130.951874,-55.674194,1.544903,-0.306184,0.371011
770502884,-206.494614,3.800467,-49.581478,1.812458,-1.250416,-0.396124
770522927,-42.747402,120.055130,-51.739166,0.747150,-0.844329,0.383920
770542970,51.521767,27.794086,-98.686333,0.401857,-0.258104,0.866379
770563013,62.228611,-66.513962,-108.819214,0.612265,0.240234,0.425605
770583056,-76.699532,-64.743919,-90.416458,0.718173,0.614053,0.410546
770603100,-121.620041,-57.269558,-68.938347,0.664983,0.468391,0.291636
770623143,-103.219231,-66.845200,-47.853420,0.757581,0.376527,0.311280
770643187,-109.694145,-66.337761,-47.400490,0.952105,0.220109,0.376722
770663230,-125.155884,-61.632824,-43.065849,1.144884,-0.041482,0.405600
770683273,-109.395760,-33.300617,-36.798870,1.179465,-0.165280,0.327301
770703327,-73.272560,-6.836715,-38.860676,1.073042,-0.082896,0.454763
770723360,-54.744812,-14.235020,-43.353409,0.930466,0.092463,0.418041
770743403,-57.017483,-33.054951,-32.203091,0.796039,0.367564,0.386383
770763445,-64.689186,-53.108994,-20.743580,0.884889,0.470115,0.392376
770783488,-95.879196,-53.407429,-17.510166,0.924979,0.313971,0.215237
770803531,-96.172241,-42.511021,-7.858221,0.919160,0.195446,0.252227
770823574,-69.975250,-37.379936,-6.898328,1.020641,0.188162,0.236913
770843617,-87.109825,-26.945288,-25.304518,1.092676,0.237156,0.302678
770863660,-106.670715,-5.997780,-29.074917,0.977536,0.122650,0.341112
770883704,-90.184776,-10.800850,-29.943367,0.915871,0.145529,0.288759
770903747,-86.295822,-12.778596,-25.971706,0.891179,0.313403,0.293020
770923790,-94.016907,-4.490765,-17.098358,0.812131,0.370963,0.272757
770943833,-93.730286,-21.328587,-21.602287,0.913977,0.543686,0.289374
770963878,-118.496063,-38.429691,-34.286392,0.924316,0.638301,0.158111
770983921,-152.683289,-17.658859,-19.652950,0.953919,0.573179,0.102326
771003964,-204.485306,-67.816292,-18.713163,1.300333,0.122592,0.296218
771024007,-282.048737,-121.361244,-44.914726,1.472822,-0.410312,0.245520
771044050,-154.442307,3.799760,-52.593651,1.600135,-0.999798,-0.206729
771064094,-45.020607,54.756527,-58.364098,0.839158,-0.629129,0.304153
771084137,35.198784,-15.580196,-89.842934,0.687578,-0.160206,0.512948
771104178,-6.604165,-52.273373,-79.020187,0.837295,0.259394,0.427363
771124221,-100.924278,-39.501423,-51.256538,0.762392,0.161633,0.243986
771144265,-86.145073,-30.227709,-37.901852,0.721920,-0.115158,0.322180
771164308,-31.642546,-17.614952,-44.403442,0.676391,-0.066921,0.267459
771184351,-36.406433,-11.028799,-44.761673,0.657198,0.142599,0.418454
771204394,-68.467224,-33.600693,-33.927944,0.770521,0.198559,0.486739
771224437,-85.657394,-67.855408,-29.573692,1.067168,0.200935,0.421695
771244480,-85.741699,-58.728062,-32.126190,1.316902,0.116565,0.303855
771264523,-74.063339,-18.253822,-25.443239,1.285551,0.081886,0.234445
771284567,-75.287376,-4.495279,-8.099998,1.112777,0.118125,0.298436
771304611,-77.177727,-26.393795,3.103621,1.074019,0.242844,0.319247
771324654,-80.454468,-28.556692,4.151641,1.099362,0.311573,0.282265
771344698,-82.654785,-4.502353,-4.188647,1.098160,0.128552,0.185348
771364741,-102.159714,7.124493,-12.750187,1.008164,-0.023449,0.146796
771384784,-99.830276,12.108215,-30.302460,0.906957,0.070248,0.261092
771404827,-99.565170,17.888950,-37.318794,0.840481,0.293021,0.294366
771424887,-118.198685,26.036133,-40.985157,0.706732,0.367118,0.266648
771444912,-139.274475,24.590305,-34.552338,0.598074,0.278979,0.333681
771464955,-148.828110,-5.332458,-33.384239,0.619719,0.250949,0.422566
771484998,-151.095673,-27.667946,-31.174520,0.742909,0.306960,0.455415
771505041,-122.104553,-51.811775,-35.114559,0.987197,0.559320,0.320917
771525085,-136.039383,-31.740416,-66.383591,1.088721,0.873006,-0.098825
771545128,-232.562683,11.949685,-62.965111,1.404144,0.447124,-0.219558
771565171,-388.295837,-64.281693,-49.860180,1.568164,-0.459946,0.448927
771585214,-396.457336,-52.551048,-42.495132,1.943392,-1.837921,0.044966
771605257,-90.898346,130.902252,-57.604385,1.170728,-1.615402,-0.658824
771625300,40.866440,12.851894,-100.517937,0.433133,-1.078311,0.657784
771645345,192.700943,-111.624084,-94.906006,0.703100,-0.294959,0.643912
771665388,10.648404,-92.058891,-87.403557,0.933719,0.405274,0.452447
771685431,-136.486755,-10.085280,-82.421921,0.629772,0.164231,0.002274
771705474,-87.817352,-15.809520,-58.677750,0.606005,0.062415,0.506873
771725517,-64.793015,-45.118488,-49.806522,0.568761,0.038675,0.249778
771745560,-87.563637,-50.550983,-55.264336,0.751180,0.201088,0.305762
771765602,-122.092316,-72.643837,-31.902893,1.017357,0.104277,0.291207
771785645,-124.377785,-88.494026,-25.531961,1.235474,-0.031168,0.255497
771805688,-113.073929,-40.179298,-27.111784,1.290810,-0.242585,0.193824
771825732,-84.308685,-4.087561,-31.388916,1.328179,-0.359459,0.271084
771845775,-60.910126,12.265669,-27.980322,1.119541,-0.167436,0.245943
771865818,-62.178360,15.368746,-9.148720,0.916839,0.189958,0.382722
771885861,-76.833679,-19.353142,-7.738891,0.975254,0.315592,0.403598
771905904,-84.902733,-33.801674,-5.469295,1.054373,0.204411,0.221548
771925947,-97.020065,-7.247535,-17.788845,1.077023,0.045692,0.155742
771945991,-111.820847,21.592670,-39.094810,0.924541,-0.119370,0.273347
771966036,-90.442581,26.975254,-45.853630,0.829695,-0.080707,0.404987
771986079,-76.936783,5.417961,-40.657326,0.850992,0.146498,0.401082
772006121,-95.820625,-1.562492,-32.948586,0.881243,0.237762,0.326530
772026165,-112.933754,-5.690915,-34.771378,0.896321,0.103998,0.316819
772046208,-106.695946,-15.154505,-41.278191,0.940486,0.095848,0.264949
772066251,-97.405922,-21.752773,-42.257378,0.981185,0.285407,0.126569
772086310,-121.026390,-18.144064,-23.689119,1.104597,0.241672,0.045800
772106336,-171.494324,-54.095993,-20.624638,1.366412,-0.095724,0.122878
772126379,-211.753052,-67.624077,-44.597923,1.534302,-0.612115,0.214768
772146422,-152.298996,2.570779,-60.158646,1.496543,-0.901010,-0.036773
772166465,-29.485292,81.590508,-54.508980,1.025808,-0.623981,0.218253
772186509,-8.733530,92.921120,-52.957062,0.822984,-0.142111,0.547201
772206551,-52.087692,52.503922,-44.404396,0.682646,-0.040091,0.396840
772226595,-75.760674,9.096412,-39.039501,0.662773,-0.052702,0.426935
772246638,-91.099136,6.082999,-42.545361,0.683998,-0.136171,0.400830
772266681,-92.334145,20.361393,-52.255100,0.762692,-0.234414,0.492440
772286726,-88.299553,21.980211,-61.658070,0.846404,-0.283226,0.546807
772306769,-52.694294,23.051502,-61.787323,0.813266,-0.034806,0.615165
772326812,-26.282650,10.955554,-52.112701,0.952070,0.149276,0.640243
772346855,-65.423859,-11.829960,-39.769382,0.951285,0.056356,0.472845
772366898,-119.813622,-34.277039,-30.890072,0.955612,-0.202375,0.644537
772386941,-95.951256,-51.049385,-13.611274,0.912921,-0.542756,0.536416
772406985,8.444755,-22.074169,-12.915429,0.885303,-0.371854,0.274234
772427027,57.450569,0.370719,-20.107906,0.820486,-0.017802,0.486249
772447070,19.504972,4.713030,-20.232468,0.717757,0.165003,0.590148
772467112,-6.297121,-27.860430,-12.164612,0.638589,0.024484,0.523083
772487156,1.399361,-63.327568,-2.514854,0.717617,0.007520,0.559490
772507199,26.455887,-71.513947,10.792775,0.945806,0.066425,0.492114
772527242,52.489891,-58.299030,20.972031,0.965798,0.120358,0.240077
772547285,67.920601,4.245914,14.197145,0.769601,0.141226,0.122936
772567328,84.545563,-12.547428,21.627666,0.780524,0.243591,0.268661
772587372,80.471893,-88.147232,40.242840,1.154809,0.370403,0.249864
772607415,34.907131,-104.435707,53.672966,1.376514,0.595939,0.216299
772627459,14.220652,-5.353705,46.302437,1.301533,0.642049,0.184507
772647503,23.212099,79.789322,46.731995,0.972343,0.519089,0.311854
772667546,15.894863,68.378761,45.328552,0.707590,0.409005,0.411888
772687589,-2.297377,5.482844,43.843857,0.631606,0.252629,0.389681
772707632,-18.576685,-47.943058,45.024796,0.752635,0.081833,0.345087
772727675,-1.383168,-55.826096,41.776924,0.990068,-0.070730,0.377306
772747717,44.968117,-22.492704,39.035973,1.211220,-0.039176,0.307828
772767760,72.955475,36.391281,45.157467,1.204496,0.196420,0.296912
772787803,83.068558,77.525391,45.772400,1.049082,0.251434,0.345852
772807847,92.211548,86.211754,26.831184,0.805133,0.203396,0.345741
772827890,58.811382,64.979988,6.774110,0.647893,0.230377,0.384703
772847932,-4.449106,4.941054,18.141499,0.800393,0.072769,0.588508
772867976,-62.050072,-67.745834,56.309097,1.299098,-0.290418,0.578306
772888019,17.053511,-1.000841,63.379681,1.065984,-0.234324,0.051905
772908062,157.182495,111.313248,42.117271,0.935407,0.104584,0.352516
772928105,126.228989,101.458183,40.162228,0.712394,0.144616,0.608759
772968193,-1.088112,-33.600986,60.669884,0.623725,-0.214688,0.599332
772988236,68.435081,-33.330750,51.466957,0.678299,-0.300373,0.537982
773008279,151.611938,4.674785,29.942020,0.653028,-0.074653,0.497240
773028322,160.491379,15.680775,30.495853,0.616040,0.234418,0.698996
773048366,107.074287,-14.501238,46.939987,0.789087,0.292997,0.573589
773068409,92.867249,-37.986744,54.864635,0.626525,-0.008439,0.133323
773088450,79.063057,-33.612679,53.412205,0.862315,-0.252262,0.186859
773108494,101.357826,-122.273193,82.792671,1.425906,-0.130090,0.346109
773128537,120.143547,-119.801422,105.348816,1.555666,0.626651,0.420839
773148580,56.503563,34.825943,81.929092,1.348330,0.746977,0.042226
773168623,17.900425,100.923698,63.238731,0.878755,0.611297,0.487673
773188666,5.946907,43.634117,50.265839,0.496533,0.186524,0.548841
773208709,-5.824652,-60.336266,43.552212,0.541569,0.020242,0.404325
773228752,-26.116316,-119.531960,51.983902,0.787799,-0.128262,0.298278
773248795,-22.285696,-117.732620,54.802074,1.089221,-0.346630,0.264134
773268839,37.654362,-53.522308,33.979034,1.294838,-0.472979,0.074757
773288883,117.516663,33.412930,15.023472,1.235077,-0.153814,0.175932
773308927,119.291191,72.776260,16.930552,1.084494,0.118184,0.335921
773328970,103.574265,63.341263,14.942090,0.862554,0.025481,0.294277
773349013,93.800819,22.017897,-0.195734,0.722796,0.024122,0.383584
773369056,62.154266,-9.049257,-0.281783,0.759108,0.026983,0.413051
773389099,20.712950,-54.368958,11.810977,1.130843,-0.221715,0.514964
773409142,47.122978,-50.603580,35.404480,1.395572,-0.271181,0.225781
773429184,177.629608,72.743668,39.490547,1.086064,0.014875,0.098795
773449227,185.410034,113.314026,32.764618,0.789188,0.032329,0.407764
773469270,119.632927,54.497093,35.549091,0.579459,-0.026600,0.459706
773489313,83.974365,-29.770908,53.546139,0.640500,-0.076813,0.500353
773509356,94.209969,-69.037575,52.994358,0.822333,-0.048051,0.429883
773529400,128.228561,-32.805630,32.655537,1.052004,0.065146,0.397304
773549443,151.322372,6.689605,30.795584,0.987575,-0.010157,0.089269
773569486,149.946503,58.553066,19.992445,0.764988,-0.178413,-0.000465
773589529,152.779846,-24.826996,41.304596,1.257331,-0.061487,0.268380
773609572,170.071487,-111.454704,85.531471,1.501117,0.739921,0.539593
773629617,76.580620,-4.372442,66.301369,1.342261,0.992741,0.014205
773649660,40.253334,105.923370,35.118710,0.876606,0.769568,0.383835
773669703,37.232159,89.546066,34.227928,0.439703,0.324156,0.578063
773689746,36.460609,-16.771770,34.303886,0.434864,0.269548,0.480514
773709789,-1.078820,-90.531700,40.504669,0.687320,0.176734,0.272812
773729832,-26.539339,-108.016495,35.223625,0.951237,-0.047943,0.309279
773749878,11.714766,-69.135536,31.762444,1.187067,-0.342063,0.241322
773769918,88.172653,16.801556,17.702017,1.231035,-0.266258,0.112554
773789961,111.357376,58.743568,14.589650,1.152117,0.301856,0.471284
773810004,83.105141,48.742973,15.303290,0.992261,0.380685,0.363581
773830047,68.119949,14.557857,9.698691,0.933116,0.224690,0.378275
773850090,74.588440,6.302624,3.295623,0.890148,0.177362,0.350765
773870133,72.182007,20.367384,-10.457866,0.821636,0.224204,0.407692
773890176,55.572220,-5.028843,-13.658555,0.896825,0.117327,0.445723
773910219,54.648235,-35.311657,-2.218252,1.134099,-0.001595,0.364859
773970350,92.615196,58.194164,24.470049,0.722906,0.080334,0.541447
773990394,77.493423,-4.083607,34.381054,0.793069,0.077524,0.562832
774010437,79.659645,-24.792969,44.143059,0.942730,-0.038668,0.501335
774030483,100.265831,-3.194236,44.475075,1.064974,-0.076589,0.327736
774050523,121.406082,43.843189,27.134972,0.730318,-0.051274,0.148365
774070566,143.145950,21.536310,20.795704,0.837921,-0.011120,0.337919
774090608,173.617401,-37.279037,42.847866,1.086192,0.169565,0.234177
774110651,139.004532,-24.293758,51.260170,1.287816,0.750407,0.451547
774130694,73.003441,57.103436,45.830784,1.065764,0.889429,0.281529
774150737,45.629021,96.595642,41.714230,0.687069,0.607056,0.499965
774170780,29.033716,46.487595,34.201981,0.535533,0.278884,0.592702
774190824,14.562070,-25.347691,37.740524,0.680590,0.150675,0.549116
774210867,22.494673,-38.826023,30.995964,0.907437,0.150390,0.438335
774230910,25.119595,2.403513,9.780850,0.968352,0.093969,0.377335
774250954,28.630163,25.474583,6.212469,0.891443,0.121566,0.465860
774270996,31.025805,6.537063,1.519135,0.862063,0.256452,0.449965
774291041,20.940495,-3.695130,-4.610394,0.911482,0.350582,0.407760
774311084,12.680467,7.688282,-8.961202,0.913256,0.254789,0.452083
774331127,10.555217,11.403772,-15.797269,0.898069,0.215386,0.493449
774371213,-4.328131,8.252158,-21.508175,0.852045,0.244087,0.534119
774391256,-17.140774,3.263712,-17.641783,0.829940,0.231849,0.523225
774411317,-26.073744,7.967675,-19.817518,0.757207,0.180511,0.522298
774431341,-29.922760,-0.459291,-22.294079,0.729186,0.201076,0.597126
774451384,-35.520401,-13.847828,-24.386862,0.740663,0.251187,0.566478
774471427,-47.884628,-13.882996,-24.924349,0.748782,0.261923,0.555160
774491470,-55.911713,-11.156331,-27.844135,0.721995,0.247834,0.518298
774511514,-57.414593,-15.004361,-35.325378,0.702745,0.276337,0.536860
774531557,-55.844650,-27.973755,-38.098209,0.749463,0.309565,0.526183
774551600,-33.966953,-39.785450,-47.213898,0.764364,0.371811,0.278501
774571643,-53.197651,-36.842697,-47.488243,0.983361,0.594951,0.311035
774591686,-138.806381,-64.630676,-42.554585,1.220067,0.349148,0.269726
774611729,-254.826660,-94.679375,-52.614601,1.340673,-0.277410,0.547092
774631774,-189.870483,-19.700729,-51.118958,1.500395,-1.040120,0.047709
774651818,-17.688726,83.685410,-38.336346,0.962469,-1.002710,0.209991
774671861,71.758667,35.276775,-68.809631,0.519703,-0.542458,0.769984
774691904,110.106583,-33.210571,-74.044113,0.617308,-0.060463,0.557225
774711946,31.719879,-54.278309,-52.541454,0.704732,0.217575,0.508953
774731990,-33.882092,-53.309895,-36.429497,0.706658,0.138303,0.380976
774752031,-29.266598,-68.701881,-28.900599,0.789601,0.047443,0.318236
774772075,7.027146,-78.706100,-30.594032,0.981463,0.205173,0.251418
774792118,-22.339697,-51.506622,-26.958736,1.116816,0.434160,0.301319
774812161,-62.206963,-15.593660,-19.777225,1.080793,0.191175,0.336293
774832204,-66.222389,-15.066896,-22.329540,1.054156,-0.077947,0.369366
774852247,-55.753876,-16.976660,-23.543123,1.093828,-0.069716,0.341911
774872291,-52.650352,-4.688780,-23.022400,1.098021,0.016024,0.381475
774892334,-48.370792,9.930710,-24.249870,0.998592,0.015700,0.320298
774912377,-36.990891,16.131840,-21.615633,0.775540,0.056946,0.254688
774932420,-10.251981,-8.636476,-15.755919,0.777965,0.284833,0.368451
774952465,-29.095501,-28.379099,-9.307683,0.969452,0.433861,0.407769
774972508,-66.552505,-11.650017,3.114872,1.041965,0.246357,0.297589
774992551,-70.490555,-2.744101,-9.075482,1.077489,0.007921,0.353350
775012594,-78.838158,24.217880,-19.923519,0.942948,-0.087548,0.387115
775032637,-54.219013,26.847952,-22.819260,0.822041,-0.035241,0.435693
775052680,-30.743988,1.780424,-29.382530,0.767267,0.172410,0.419467
775072723,-47.903469,-3.583091,-22.831293,0.787950,0.409762,0.368130
775092765,-82.991585,-12.778201,-18.774899,0.825574,0.372369,0.293238
775112809,-108.565292,-32.814281,-18.620823,0.923310,0.306670,0.248243
775132852,-114.832771,-33.418926,-23.051758,1.016961,0.287832,0.207658
775152898,-123.494843,12.222878,-23.622723,0.923454,0.235829,0.060094
775172938,-143.415741,-2.670359,-18.915400,1.049717,-0.026375,0.306269
775192981,-207.736374,-78.049164,-46.950062,1.285705,-0.372710,0.467358
775213024,-196.963409,-72.286812,-57.726578,1.444725,-0.860439,0.157440
775253111,37.638458,52.356441,-64.747398,0.675280,-0.391163,0.621104
775273154,44.937454,-5.629803,-68.809090,0.691059,0.028428,0.521522
775293198,-23.880402,-32.164982,-51.473270,0.728194,0.242977,0.439903
775313241,-79.626930,-44.467869,-34.403477,0.715624,0.105212,0.337158
775333285,-65.313210,-58.008614,-32.512047,0.776582,-0.029624,0.312222
775353328,-29.927240,-49.588707,-35.846252,0.946213,0.041637,0.256334
775373371,-51.428444,-25.259428,-27.697575,1.030482,0.134050,0.337945
775393414,-74.191147,-23.451294,-22.580484,1.017134,-0.041754,0.393379
775413457,-64.403305,-33.194672,-19.103807,1.012529,-0.147343,0.393944
775433499,-50.769489,-23.857565,-19.049564,1.047741,-0.033215,0.351925
775453542,-55.511986,-20.897245,-20.036854,1.077684,0.106219,0.331418
775473585,-58.253429,-20.164993,-19.559431,1.012272,0.195601,0.264741
775493628,-58.144142,-6.399266,-17.424923,0.853406,0.158670,0.299848
775513671,-55.025429,-18.357784,-17.269928,0.818413,0.058346,0.334927
775533715,-56.635471,-39.818619,-12.521564,0.891267,0.032145,0.379650
775553758,-50.102325,-37.267097,-5.146230,1.002872,0.057016,0.306423
775573801,-34.960091,-17.218962,-15.398380,1.043813,0.197903,0.245105
775593845,-60.390503,6.298474,-28.420525,1.004524,0.219201,0.284702
775613888,-76.633560,-1.303070,-27.702190,0.911563,0.122976,0.337805
775633932,-66.102959,-15.368124,-32.736763,0.859780,0.113140,0.270135
775653975,-56.872169,-17.922556,-33.239361,0.897496,0.232898,0.267783
775674018,-57.725712,-33.990959,-36.051636,1.040136,0.363990,0.197366
775694061,-81.726440,-33.187389,-36.112164,0.948998,0.449443,0.064071
775714104,-100.648277,-18.438911,-14.870730,0.976512,0.433575,0.082430
775734148,-129.702530,-52.812622,-27.398972,1.185152,0.208938,0.160829
775754210,-198.570709,-78.216141,-45.732689,1.370933,-0.272846,0.284520
775774233,-171.550735,-12.513399,-39.374050,1.336382,-0.773237,0.053595
775794276,-34.875835,79.226532,-31.488630,0.845543,-0.701368,0.124528
775834362,64.940247,-44.446056,-46.268955,0.760388,0.237417,0.493810
775854405,-48.320869,-50.586895,-26.059523,0.884455,0.485182,0.169371
775874448,-77.571228,-44.328407,-7.770570,0.962895,0.330574,0.232129
775894491,-63.170063,-33.882561,-8.386051,1.010896,0.195336,0.238058
775914535,-53.775890,0.437515,-17.586771,1.014917,0.175635,0.232514
775934578,-63.190601,2.598583,-13.288476,0.960459,0.142983,0.356479
775954621,-67.381508,-20.410645,-8.724558,0.956627,0.119765,0.340073
775974665,-69.401039,-19.829239,-4.275775,1.001610,0.116976,0.312474
775994709,-66.008026,-12.733496,-5.108419,0.978933,0.091196,0.306148
776014752,-65.820007,-16.161974,-5.997960,0.941703,0.098440,0.323023
776034795,-69.809906,-23.386845,-6.120522,0.945159,0.126072,0.306250
776054838,-75.058083,-21.512314,-5.617341,0.954120,0.097327,0.283337
776074881,-75.195961,-21.694695,-5.798950,0.935272,0.018105,0.294869
776094923,-66.659966,-27.296997,-7.611308,0.957385,-0.010532,0.263766
776114966,-62.821728,-25.811031,-8.624902,0.997285,0.062813,0.227125
776135009,-66.364792,-16.884005,-6.960625,0.971710,0.067363,0.235914
776155053,-67.848549,-19.072292,-8.227053,0.973159,0.069340,0.247471
776175096,-71.611481,-20.772081,-9.293629,0.994616,0.062916,0.235754
776195139,-72.693985,-16.568316,-10.073989,0.997700,0.048728,0.234255
776215182,-72.488770,-14.493958,-11.083139,0.992975,0.092399,0.224846
776235225,-79.712433,-14.739512,-13.229209,1.006967,0.087104,0.215069
776255268,-81.168312,-13.439259,-14.834354,1.000391,-0.009799,0.215001
776275311,-71.573654,-7.231521,-17.816360,1.001548,-0.015473,0.226983
776295356,-70.746376,-3.462374,-18.001488,0.983553,0.035122,0.264764
776315399,-75.361717,-7.326362,-16.271185,0.968271,0.041319,0.282992
776355485,-73.740326,-8.519677,-13.181840,0.997250,-0.040284,0.291343
776375529,-64.533562,-5.228760,-12.813681,1.010139,-0.014010,0.282753
776395572,-65.229706,-0.219090,-12.348364,0.979113,0.070829,0.301583
776415615,-77.052490,-4.304828,-10.516881,0.962402,0.034477,0.320425
776435657,-73.918907,-12.904616,-12.056437,0.988309,-0.078577,0.322640
776455700,-57.933323,-6.147123,-14.097581,0.987929,-0.107357,0.313224
776475743,-50.669586,1.880070,-15.136004,0.925356,-0.054192,0.336819
776495786,-51.255486,-3.803574,-12.543536,0.898612,-0.021286,0.381328
776515830,-50.483395,-9.474436,-12.711698,0.928469,0.020562,0.380472
776535873,-49.824982,-3.128353,-12.555143,0.922284,0.035814,0.358906
776555916,-46.846077,-1.055648,-11.917151,0.902860,0.035855,0.362132
776575959,-46.671322,-7.325931,-10.937421,0.930702,0.052772,0.338889
776596002,-50.511066,-6.592247,-9.385015,0.947360,0.053576,0.320795
776616045,-51.668571,-3.596543,-9.318026,0.955357,0.042254,0.334876
776636090,-50.536102,-5.422235,-10.528673,0.956097,0.017728,0.335995
776656133,-45.949024,-4.909152,-10.091993,0.979669,0.003080,0.338564
