Timestamp (us),Gyroscope X (deg/s),Gyroscope Y (deg/s),Gyroscope Z (deg/s),Accelerometer X (g),Accelerometer Y (g),Accelerometer Z (g)
8792965996,-1.207622,-1.307921,1.770588,0.972902,-0.240052,-0.026042
8792985997,-1.445607,-1.649758,1.902413,0.975438,-0.239521,-0.023288
8793005997,-2.536572,-1.677630,1.808732,0.973173,-0.242903,-0.021617
8793025997,-4.275471,-1.546361,1.116941,0.964625,-0.262041,-0.024875
8793046000,-4.070529,-1.782527,1.284261,0.956895,-0.282046,-0.030392
8793066000,-1.005211,-2.041759,1.499414,0.950520,-0.278292,-0.031609
8793086001,1.697340,-1.546318,1.454426,0.963743,-0.268602,-0.033631
8793106001,2.080890,-1.038395,1.055206,0.962058,-0.259667,-0.027948
8793126002,2.072782,-1.071899,0.409451,0.963072,-0.257639,-0.024503
8793146002,1.562441,-0.881294,0.099346,0.966580,-0.255168,-0.024505
8793166002,1.948046,-1.607207,0.002083,0.972204,-0.256502,-0.014121
8793186002,2.536489,-1.365129,-0.054897,0.974998,-0.250629,-0.018835
8793206002,1.121651,-0.543984,0.221419,0.965031,-0.242737,-0.015681
8793226003,-0.053762,-0.744565,0.645661,0.964008,-0.238691,-0.014021
8793246003,-1.701219,-0.731313,0.858309,0.964892,-0.242059,-0.019342
8793266004,-2.257997,-0.743917,1.088889,0.966484,-0.245971,-0.023553
8793286005,-1.157134,-0.213405,1.058658,0.974880,-0.245730,-0.026026
8793306005,-0.856518,0.449601,1.160670,0.980265,-0.236504,-0.027664
8793326006,-2.048096,0.131309,0.863582,0.980762,-0.232253,-0.022069
8793346006,-2.728228,-0.097290,0.487758,0.978652,-0.246096,-0.020601
8793366008,-1.802977,0.395630,0.466099,0.974177,-0.251646,-0.021199
8793386008,-1.442364,0.888512,0.097449,0.967278,-0.245846,-0.019989
8793406009,-1.742434,0.347323,-0.043114,0.965714,-0.252230,-0.011059
8793426010,-2.079062,0.178500,-0.473973,0.964737,-0.260874,-0.013034
8793446010,-1.865664,0.132432,-0.413945,0.963377,-0.260287,-0.012145
8793486012,-4.211823,0.810808,-0.246717,0.954888,-0.257958,-0.014455
8793506011,-5.142961,0.735452,-0.614489,0.950671,-0.267542,-0.023381
8793526011,-4.135322,0.914917,-0.764293,0.950789,-0.273934,-0.031582
8793546012,-1.357007,1.288608,-0.710284,0.955263,-0.271402,-0.038600
8793566012,1.122586,1.403582,-0.722132,0.959260,-0.259161,-0.041210
8793586013,2.059414,1.110794,-0.808676,0.964643,-0.249930,-0.042484
8793606013,1.500094,0.593108,-0.970960,0.967717,-0.250998,-0.042710
8793626014,1.384215,0.288016,-1.060240,0.971851,-0.246729,-0.036805
8793646014,1.741174,-0.070328,-0.839865,0.968872,-0.250423,-0.026197
8793666015,2.081455,-0.792157,-0.093413,0.964460,-0.255165,-0.021060
8793686015,1.505908,-1.574279,0.254732,0.960804,-0.246622,-0.020316
8793706017,-0.349049,-1.903199,0.545872,0.957574,-0.249580,-0.022128
8793726018,-1.791018,-2.004294,0.887287,0.950544,-0.265755,-0.025781
8793746018,-0.945073,-2.181384,1.028613,0.955125,-0.271217,-0.032219
8793766023,1.664997,-1.891481,1.000178,0.961779,-0.270723,-0.032342
8793786020,4.539999,-2.022547,0.790057,0.963085,-0.272528,-0.029473
8793806020,5.859002,-2.199765,1.187600,0.960931,-0.259387,-0.022764
8793826019,5.574042,-2.778836,1.107934,0.962899,-0.239201,-0.013203
8793846020,2.227017,-2.367984,0.536211,0.971495,-0.235601,-0.009341
8793866020,-1.336631,-2.685365,0.637521,0.962324,-0.248602,-0.010328
8793886021,-0.769060,-2.008650,0.571066,0.967218,-0.262105,-0.019193
8793906021,-0.613344,-1.396149,1.198323,0.965391,-0.255508,-0.024603
8793926022,0.659972,-1.565221,1.679631,0.962462,-0.254940,-0.020993
8793946023,0.112203,-1.265839,1.779567,0.958403,-0.250088,-0.024666
8793966023,-1.300422,-1.611332,2.053563,0.954818,-0.248887,-0.028642
8793986024,-2.424095,-2.119190,2.023001,0.958867,-0.251720,-0.030018
8794006024,-3.629623,-2.162664,1.785526,0.962285,-0.257664,-0.040108
8794026026,-3.133707,-2.104602,1.456226,0.963324,-0.266851,-0.045338
8794046026,-1.408196,-1.729461,1.188266,0.965357,-0.270745,-0.047630
8794066027,0.035079,-1.375503,1.111675,0.965053,-0.271246,-0.044980
8794086028,1.095220,-1.372270,0.810444,0.967176,-0.269746,-0.044981
8794126029,1.617821,-0.512895,0.644575,0.959134,-0.261734,-0.043361
8794146028,0.930484,-0.693837,0.671333,0.957199,-0.258044,-0.042434
8794166028,0.740252,-0.572228,0.474068,0.959599,-0.260820,-0.042276
8794186029,0.612358,-0.161301,0.222011,0.958144,-0.262581,-0.046824
8794206029,0.894786,-0.116459,0.197720,0.961178,-0.264517,-0.044210
8794226030,1.230270,-0.140569,0.135502,0.962316,-0.263025,-0.046228
8794246031,1.009224,-0.087353,-0.030915,0.964303,-0.262852,-0.043930
8794266031,1.307731,0.154834,-0.238559,0.969506,-0.260355,-0.039629
8794286032,1.271336,0.543267,-0.354143,0.967380,-0.261851,-0.039263
8794306032,0.768087,0.590192,-0.405252,0.963584,-0.259362,-0.036147
8794326033,0.134547,0.485774,-0.287895,0.962932,-0.260640,-0.037502
8794346035,-0.421949,0.541472,-0.126020,0.964602,-0.259604,-0.038869
8794366035,-0.497585,0.657056,0.086583,0.963153,-0.263188,-0.037369
8794386036,-0.565995,0.703248,0.139882,0.961547,-0.261893,-0.038135
8794406036,-0.314780,0.581109,0.260877,0.962440,-0.262446,-0.037388
8794426037,-0.597156,0.529426,0.452385,0.962906,-0.262099,-0.037845
8794446037,-0.575580,0.239943,0.521993,0.962454,-0.262756,-0.039937
8794466038,-0.721133,0.103215,0.546075,0.961392,-0.264599,-0.036909
8794486037,-0.515940,-0.072238,0.652324,0.957910,-0.267495,-0.041187
8794506037,-0.172159,0.026552,0.787094,0.957593,-0.268256,-0.037621
8794526038,0.239258,-0.081253,0.808501,0.960304,-0.260697,-0.038987
8794546038,-0.080650,0.033384,0.672655,0.959386,-0.263980,-0.034750
8794566039,-0.608242,-0.210398,0.402594,0.960056,-0.273905,-0.041249
8794586039,-0.303439,-0.309031,0.690423,0.954874,-0.268877,-0.040558
8794606040,0.582135,-0.122094,0.434753,0.964296,-0.266440,-0.040592
8794626041,0.309083,0.228708,0.282423,0.963250,-0.271351,-0.035875
8794646041,1.474748,-0.057389,0.134008,0.959469,-0.277984,-0.034899
8794666041,1.774301,0.398788,0.031780,0.958267,-0.263134,-0.040794
8794686044,1.564412,-0.432469,-0.123079,0.958503,-0.260237,-0.028613
8794706044,1.290541,-0.242463,-0.419063,0.960404,-0.264996,-0.027974
8794726045,0.140746,0.202570,-0.514620,0.958435,-0.264354,-0.030558
8794746045,0.613614,0.178819,-0.417881,0.958630,-0.263629,-0.030384
8794766046,0.834980,0.223478,-0.517886,0.959826,-0.263867,-0.032558
8794786046,0.736202,0.336811,-0.799124,0.963170,-0.261428,-0.035025
8794806045,0.828740,0.564795,-0.906971,0.965177,-0.265180,-0.033761
8794826046,1.218334,0.685795,-0.886501,0.965216,-0.263743,-0.034968
8794846046,1.095370,0.487898,-0.885042,0.969210,-0.257852,-0.030275
8794866047,1.376145,0.218311,-1.295466,0.968935,-0.262576,-0.030479
8794886048,1.881753,0.660222,-1.064200,0.961542,-0.264259,-0.031987
8794906048,2.126272,0.721846,-0.784421,0.960398,-0.257686,-0.031735
8794926048,1.696424,0.106986,-0.452899,0.963382,-0.252793,-0.028405
8794946049,0.955784,-0.058377,-0.387971,0.966383,-0.252854,-0.028283
8794966050,0.010360,0.035763,-0.391679,0.963168,-0.253859,-0.027023
8794986050,-0.409154,0.015146,-0.161689,0.963205,-0.257060,-0.028341
8795006052,-0.990153,-0.272453,-0.051340,0.961563,-0.259093,-0.033070
8795026053,-1.219391,-0.363123,-0.011886,0.963422,-0.262337,-0.034643
8795046053,-0.402064,-0.106622,-0.107974,0.965177,-0.264424,-0.031766
8795066054,0.850188,0.157234,-0.000900,0.963240,-0.261579,-0.032741
8795106055,-0.127193,-0.053813,-0.063873,0.963187,-0.255688,-0.034109
8795126055,-1.004195,0.001546,-0.166508,0.960914,-0.260377,-0.034790
8795146054,-0.707341,-0.129166,-0.220467,0.961208,-0.264118,-0.035368
8795166055,0.338380,0.013135,-0.142296,0.959952,-0.263087,-0.035031
8795186056,1.253376,-0.072866,-0.047295,0.961983,-0.261300,-0.034217
8795206056,0.955256,-0.209268,-0.045315,0.962238,-0.256253,-0.030553
8795226057,0.244929,-0.398411,-0.155203,0.962599,-0.256727,-0.031363
8795246057,-0.609366,-0.395849,-0.120914,0.965269,-0.259600,-0.031200
8795266058,-0.478699,-0.189993,-0.046451,0.966310,-0.262734,-0.032692
8795286058,0.230972,-0.145577,0.094493,0.963342,-0.262074,-0.035469
8795306059,0.597309,-0.100937,0.077419,0.961052,-0.262466,-0.034483
8795326061,0.376406,-0.031831,0.047717,0.961631,-0.260749,-0.034321
8795346061,-0.066146,-0.061076,0.049871,0.962382,-0.258544,-0.031611
8795366062,-0.074513,-0.213834,-0.010193,0.962049,-0.257558,-0.033088
8795386062,-0.036701,-0.282636,-0.025252,0.964118,-0.257746,-0.030419
8795406063,0.153919,-0.298461,-0.033651,0.963760,-0.262485,-0.031810
8795426064,0.169537,-0.229490,0.049558,0.963900,-0.260033,-0.031755
8795446064,0.002193,-0.122518,-0.003358,0.964524,-0.260589,-0.031558
8795466063,0.048000,-0.122291,0.072425,0.964685,-0.257893,-0.033513
8795486064,-0.049761,0.153619,0.314800,0.965613,-0.250853,-0.029325
8795506064,-0.752292,0.009811,0.121078,0.966439,-0.260544,-0.031904
8795526065,-0.914073,-0.354831,0.313454,0.960151,-0.261991,-0.034408
8795546065,-0.235533,-0.454735,0.553986,0.963817,-0.256539,-0.035458
8795566066,-0.271665,0.001822,0.331700,0.969456,-0.261486,-0.036146
8795586066,-0.555956,-0.490883,0.783593,0.965307,-0.268575,-0.035805
8795606067,2.107049,1.222358,1.873166,0.970515,-0.280291,-0.033657
8795626067,2.816688,1.069133,3.770452,0.953989,-0.277447,-0.030948
8795646068,1.368357,-2.102391,4.627372,0.977604,-0.276373,-0.022518
8795666070,-0.916784,0.017969,6.642023,0.985284,-0.300130,-0.006933
8795706071,-5.331307,-0.142086,12.142035,0.968880,-0.320438,-0.021016
8795726072,-2.064630,4.858160,15.356962,0.967190,-0.358292,-0.007043
8795746073,4.755987,8.327654,16.221996,0.929871,-0.295143,0.005385
8795786072,5.515226,7.840759,13.659761,0.921650,-0.275149,0.037286
8795806072,11.429397,8.191139,15.500594,1.016810,-0.325636,0.061550
8795826073,20.186728,13.003028,17.612186,1.064600,-0.369151,0.121717
8795846073,22.769058,17.897863,10.943984,1.079306,-0.264745,0.184751
8795866074,23.276651,30.014748,-1.591371,1.024711,-0.138565,0.275486
8795886074,6.225430,40.055008,-8.953149,0.956450,-0.039067,0.253841
8795906075,-22.203789,39.933720,-7.956414,0.943174,-0.029761,0.230121
8795926075,-36.497768,37.364460,-13.199008,0.998469,-0.017309,0.184878
8795946076,-55.249241,34.043949,-17.087955,0.985209,-0.062363,0.135907
8795966076,-64.988190,29.358294,-15.631548,0.965809,-0.202907,0.126104
8795986078,-49.362209,28.553371,-15.311710,0.993920,-0.261245,0.163040
8796006079,-30.785061,33.962399,-13.308473,0.995186,-0.198754,0.231144
8796026079,-32.227596,38.774891,-13.931646,0.990578,-0.030278,0.264266
8796046080,-49.642025,40.571503,-15.228124,0.980782,0.017680,0.278663
8796066080,-63.783691,39.302872,-17.817545,0.987959,0.091242,0.271494
8796086081,-86.267715,37.156506,-22.340706,1.018061,0.279703,0.304202
8796106092,-121.337204,34.983147,-25.529566,1.032807,0.262601,0.306164
8796126081,-144.337341,34.398079,-24.243954,1.057573,0.097289,0.263619
8796146081,-149.140945,40.701721,-17.836746,1.109978,0.047922,0.277401
8796166082,-171.955963,53.770100,-17.054634,1.078828,0.306004,0.339072
8796186082,-228.035233,54.763359,-24.227524,0.979707,0.599854,0.214065
8796206083,-280.268188,46.956211,-37.480358,0.912622,0.612663,0.075912
8796226084,-292.852631,39.464420,-41.013790,0.986143,0.406835,-0.171943
8796246084,-260.346863,45.143585,-41.347607,0.995201,0.121632,-0.293987
8796266085,-210.317215,53.483521,-45.884769,0.972005,0.152003,-0.194349
8796286085,-174.146210,57.318932,-51.835274,0.888427,0.353068,-0.160790
8796306087,-155.828125,59.508358,-65.022530,0.851780,0.453358,-0.220075
8796326088,-148.908997,66.387337,-81.750664,0.839612,0.494304,-0.222742
8796346088,-146.574814,75.030251,-100.677254,0.925186,0.505912,-0.244042
8796366089,-142.978546,84.438828,-119.803070,0.959743,0.498347,-0.225973
8796386089,-131.570709,82.786140,-141.824951,0.998478,0.508896,-0.276279
8796406090,-110.196030,72.197037,-162.742386,1.115618,0.436206,-0.303537
8796426091,-82.733406,52.553646,-174.238556,1.311103,0.442665,-0.324929
8796446090,-81.370247,13.921391,-171.052750,1.545350,0.544809,-0.297961
8796466090,-165.783630,-21.006651,-143.181595,1.830707,0.365996,-0.453247
8796486091,-283.645508,-10.789429,-77.282066,1.867730,-0.213849,-0.522046
8796506091,-266.533386,10.132108,-7.138410,1.615026,-0.919587,-0.288624
8796526092,-160.415482,21.571667,21.156876,1.279764,-0.891740,-0.040031
8796546092,-125.855240,13.747748,14.081084,1.134050,-0.433883,0.046241
8796566093,-131.394547,1.322597,19.649431,1.097557,-0.128249,0.018009
8796586093,-121.040062,6.874870,35.892738,1.049506,-0.068400,0.044335
8796606094,-116.727257,10.917371,50.133865,1.005442,0.036717,0.165328
8796626094,-140.325668,7.422459,56.557350,0.969753,0.142971,0.219343
8796646096,-160.281799,-4.665024,58.823517,0.941078,0.184966,0.189311
8796666097,-164.398132,-16.596067,68.175186,0.947039,0.119894,0.167567
8796706098,-169.551010,-26.896961,94.455544,1.095338,-0.051732,0.171697
8796726098,-159.089417,-24.387218,109.101089,1.112545,-0.136330,0.174264
8796746099,-144.281601,-19.869993,117.045471,1.121747,-0.177580,0.183109
8796766098,-134.862167,-10.542350,119.931503,1.078065,-0.159466,0.183577
8796786099,-138.091980,-6.118864,118.208755,1.020445,-0.110703,0.183342
8796806099,-150.348953,-10.103415,111.564987,0.960639,-0.064514,0.165246
8796826100,-171.536072,-15.457801,106.640083,0.953090,-0.055477,0.118511
8796846100,-187.344849,-12.126015,98.717880,0.910174,-0.131435,0.070445
8796866101,-186.522705,-3.302231,89.813309,0.874792,-0.239063,0.024766
8796886101,-171.789932,5.153682,79.091415,0.821207,-0.277073,-0.004561
8796906102,-157.315659,14.407017,62.652374,0.861257,-0.221950,-0.108080
8796926103,-155.077026,37.640781,52.710880,0.925587,-0.077113,-0.119144
8796946103,-148.104477,64.189537,51.715157,0.975381,-0.188528,0.033394
8796966105,-130.110657,76.306564,30.178305,1.041106,-0.153305,-0.018752
8796986105,-147.454422,90.470230,-5.371565,0.945787,0.194833,0.009145
8797006106,-177.846970,104.609177,-50.763657,0.865986,0.222435,-0.047907
8797026107,-187.054764,124.609863,-85.480423,0.908053,0.071073,0.001545
8797046107,-180.315231,151.482315,-82.623695,1.160777,-0.322906,0.020906
8797066108,-176.545380,167.102844,-56.615604,1.194903,-0.409270,-0.119265
8797086108,-199.981522,167.923615,-40.348480,1.148650,-0.173858,-0.196686
8797106107,-216.506454,161.866196,-50.937805,1.145880,0.064067,-0.300890
8797126108,-221.738739,153.983887,-68.303444,1.121863,0.183192,-0.321205
8797146108,-223.104706,152.377228,-84.917274,1.038624,0.247150,-0.345648
8797166109,-224.634674,139.591553,-96.920067,1.058662,0.209762,-0.432075
8797186110,-207.374710,128.416092,-103.878845,1.110911,0.097133,-0.455998
8797206110,-173.891510,130.331085,-112.832916,1.119516,0.084179,-0.414664
8797226111,-149.322205,131.761963,-126.311256,1.146992,0.165845,-0.320960
8797246111,-141.296753,125.582565,-143.319611,1.194031,0.286973,-0.242076
8797266112,-146.693390,112.109154,-162.840179,1.227853,0.392663,-0.187991
8797286113,-159.069763,106.725906,-181.651184,1.294889,0.431084,-0.167201
8797306114,-183.545395,110.286293,-194.801178,1.373152,0.462381,-0.157498
8797326115,-236.942154,101.488281,-192.404755,1.334870,0.538513,-0.255652
8797346115,-300.824249,75.633224,-178.400528,1.361420,0.570894,-0.424724
8797366116,-359.868896,50.907864,-141.724319,1.491429,0.374023,-0.496647
8797386116,-368.216492,47.502712,-100.505142,1.659499,-0.240586,-0.551736
8797406117,-277.702118,65.372879,-64.712784,1.520615,-0.921343,-0.379670
8797426116,-93.739723,71.656342,-30.746239,1.274092,-1.103802,-0.231030
8797446117,32.160118,61.751125,-12.262897,1.014689,-0.585863,-0.021494
8797466117,15.981401,39.662342,-5.538236,1.032999,0.121000,0.035512
8797486118,-84.834633,35.626007,4.994499,1.139772,0.493275,0.080216
8797506118,-193.845047,35.956818,16.699966,1.061460,0.242517,0.152149
8797526119,-239.140549,26.938175,37.070793,1.000339,-0.125760,0.155915
8797546120,-244.709717,29.357500,58.598988,1.016531,-0.193902,0.144446
8797566120,-222.828552,35.442757,71.831085,1.081237,-0.108006,0.131554
8797586120,-196.493958,36.919853,64.393532,1.033876,-0.198541,0.125445
8797606121,-184.844498,13.940034,52.255154,0.904556,-0.266236,0.139322
8797626123,-193.054947,-13.253398,54.870518,0.887532,-0.243460,0.117547
8797646124,-203.477371,-14.886982,64.493095,0.881369,-0.231010,0.146209
8797666124,-207.622559,-15.150951,75.638649,0.854917,-0.306975,0.122025
8797686125,-203.073166,-19.980440,81.004890,0.781599,-0.344874,0.102988
8797706125,-205.631546,-30.532375,81.315186,0.748275,-0.338813,0.051569
8797726126,-201.086716,-37.254082,79.911423,0.769876,-0.360363,-0.031163
8797746125,-190.129211,-47.330017,74.382332,0.758659,-0.391464,-0.061265
8797766125,-174.794113,-52.871796,70.902496,0.762428,-0.488090,-0.093219
8797786126,-142.300323,-43.292217,71.424988,0.754159,-0.589436,-0.110809
8797806126,-98.103279,-29.912903,71.367622,0.724700,-0.601183,-0.085932
8797826127,-71.763367,-20.836027,65.065910,0.645640,-0.544054,-0.092349
8797846127,-65.658409,-19.228230,55.485966,0.608901,-0.414586,-0.088414
8797866128,-78.271599,-14.255365,46.591820,0.647595,-0.280829,-0.073204
8797886129,-112.679047,-5.062865,41.539768,0.672864,-0.242594,-0.006584
8797926130,-97.145180,65.643890,33.047398,0.854806,-0.603897,0.025153
8797946132,-99.715210,83.096596,24.818336,1.050594,-0.310645,0.015686
8797966132,-96.810684,100.792084,9.852954,1.243967,-0.074064,0.006519
8797986133,-108.361153,125.911591,1.911335,1.287488,-0.184032,0.161981
8798006134,-118.524803,126.956665,46.333145,0.978452,-1.116120,-0.113138
8798026134,-139.127289,110.917473,73.811974,0.981659,-0.310879,-0.395023
8798046135,-206.130554,92.155785,65.258667,0.994393,-0.204254,-0.306867
8798066135,-188.208374,68.495232,64.562119,0.732349,-0.555632,-0.595087
8798086134,-119.129059,75.674011,61.227489,0.609512,-0.534878,-0.508345
8798106135,-69.102493,85.611427,51.006397,0.731274,-0.714072,-0.481562
8798126135,-26.812246,83.408325,58.582134,1.073706,-1.158632,-0.497007
8798146136,12.163195,88.635185,64.862633,1.141817,-0.979983,-0.312346
8798166137,3.639416,103.103508,45.913643,1.023646,-0.413920,-0.049951
8798186137,-46.045082,118.495895,17.231335,0.893654,-0.152509,0.034390
8798206137,-91.533249,131.632355,-3.830173,0.801341,-0.264256,-0.072185
8798226138,-98.407333,143.727234,-27.107571,0.794760,-0.318947,-0.162080
8798246139,-86.802795,143.852707,-53.568836,0.792703,-0.262496,-0.184313
8798266140,-85.500069,142.331573,-73.105782,0.819148,-0.165230,-0.208984
8798286141,-89.084351,136.606781,-94.440384,0.869580,-0.130496,-0.203628
8798306142,-89.525932,136.164948,-119.012619,0.843479,0.016165,-0.189451
8798326142,-96.243073,131.601151,-146.676025,0.856465,0.114201,-0.224668
8798346143,-97.691635,121.426239,-172.628204,0.943556,0.078026,-0.387517
8798366143,-68.971596,123.014877,-200.382584,0.984685,-0.029518,-0.650617
8798386144,-26.634501,117.313629,-249.337860,1.005256,0.015448,-0.501779
8798406143,-29.802397,111.752350,-308.732574,1.476277,0.242962,-0.085224
8798426144,-51.998512,124.490219,-363.442139,1.975686,0.577042,0.025591
8798446144,54.930885,174.477188,-366.505341,2.336978,1.229096,0.171906
8798466145,-118.271431,81.501068,-394.953003,1.846148,1.952405,1.163887
8798486145,-801.434265,-101.884102,-115.950676,4.982957,-3.618051,-3.791868
8798506146,-374.166656,206.703903,234.105835,0.925624,-5.277920,-0.909260
8798526146,73.677322,63.400402,-45.433540,1.221355,-0.171975,0.074383
8798546147,223.005447,-55.729107,91.919159,1.354887,-0.435348,-0.846987
8798566148,126.255074,29.446213,98.274841,1.247892,-1.694693,0.537163
8798586148,73.341873,74.382950,202.134949,1.440358,0.746183,0.017694
8798606150,34.864101,64.128387,200.426987,0.874201,0.861603,-0.315058
8798626151,-13.438141,-75.460503,149.004562,0.323615,-0.061241,-0.282979
8798646151,-60.737358,-128.814453,128.343918,0.598146,0.117940,-0.009410
8798686152,-102.305161,-59.492569,209.836411,0.376769,-0.065659,0.039710
8798706153,-77.669823,-125.542908,176.837006,0.481375,-0.202577,-0.015877
8798726152,-28.106287,-115.013756,165.695816,0.951219,-0.112005,0.015191
8798746152,-26.807405,-81.797890,166.793228,0.961548,0.103565,-0.018209
8798766153,-72.245361,-74.643791,118.803741,0.793429,0.334352,0.080357
8798786154,-107.448433,-58.031815,71.066628,0.923103,0.393311,0.218949
8798806154,-131.475891,-37.674759,20.533321,0.766918,-0.104938,-0.043509
8798826154,-128.200180,-18.602249,-27.398319,0.720005,-0.065183,-0.155421
8798846155,-49.298351,9.757215,-78.833237,1.093644,-0.004416,0.045256
8798866156,102.738853,95.619896,-116.614136,1.661757,-0.396086,0.788551
8798886157,135.199234,96.339294,-25.018902,1.202830,-1.129342,0.191069
8798906157,62.841587,94.363350,9.433996,1.430227,0.022128,0.404073
8798926159,-79.702988,105.070343,-48.060333,1.080372,0.406009,0.456224
8798946159,-192.187775,104.454407,-50.089493,1.090095,0.305427,0.328157
8798966160,-238.407410,129.914719,-46.786861,1.169574,0.183186,0.346251
8798986160,-254.837418,134.589508,-43.480492,0.922419,0.443227,-0.029295
8799006161,-214.968872,121.953072,-83.403053,0.903958,0.550791,-0.461676
8799026162,-183.686859,139.672928,-110.307533,1.051195,-0.009588,-0.506132
8799046174,-138.346512,156.783508,-146.521851,1.095262,0.457490,-0.599703
8799066161,-137.041687,156.701904,-205.437531,1.163802,0.582196,-0.607405
8799086162,-89.875313,168.676788,-264.199310,1.242122,0.433124,-0.522140
8799106163,-34.102367,166.616943,-325.323029,1.151567,0.617583,-0.534916
8799126163,53.851303,134.756287,-387.188171,1.427795,0.868876,-0.396982
8799146163,15.870939,8.613841,-423.520050,2.168007,1.954593,0.046588
8799166164,-405.334930,-129.591522,-227.763992,4.830842,-1.348989,-1.397795
8799186165,-425.137054,152.286743,112.942787,1.743628,-4.865248,-0.634354
8799206165,52.193054,63.528488,-24.491001,0.487283,-1.124401,0.232225
8799226166,-119.292068,-9.194499,-71.162636,1.559123,0.951155,-0.189132
8799246168,-27.334879,62.659855,45.060562,1.380569,-0.586297,-0.888284
8799266168,112.363007,101.319534,23.333815,0.717955,-0.277436,0.338018
8799286169,121.397964,19.341991,28.436541,0.807361,0.915609,0.037451
8799306169,55.411182,6.666246,-2.019882,0.770711,0.897676,-0.323495
8799326170,-89.012276,-31.637840,-6.490871,0.420358,0.578785,-0.060423
8799346170,-203.748550,-52.089699,20.313251,0.692751,0.296501,0.138486
8799366171,-222.267746,-27.220531,36.114529,0.877686,0.066553,0.275962
8799386170,-179.367050,-21.493900,61.897530,0.850356,-0.016452,0.241297
8799406171,-121.985725,-21.117821,82.189911,1.086653,-0.000658,0.214882
8799426171,-71.193245,-6.745194,97.912148,1.116012,0.016470,0.216557
8799446172,-57.540096,-16.865118,113.892258,1.069340,0.130983,0.126303
8799466172,-77.448959,-30.547398,133.826294,1.118992,0.294285,0.119642
8799486173,-108.746841,-37.053825,147.092392,1.115051,0.293053,0.154740
8799506173,-136.322861,-47.229519,147.598877,1.056424,0.176932,0.173538
8799526174,-158.999176,-51.285179,142.310104,0.955907,0.009922,0.112609
8799546174,-159.032410,-51.141281,135.576599,0.869510,-0.291432,0.041845
8799566175,-122.133827,-52.626625,123.871391,0.978701,-0.455812,-0.007435
8799586177,-64.512222,-21.650068,112.091560,1.065527,-0.409296,0.074728
8799606178,-31.081264,2.115735,100.971664,0.972833,-0.214296,0.141035
8799626178,-36.520882,9.111515,95.242508,0.832963,-0.169782,0.128636
8799646179,-45.976173,-0.790127,87.001709,0.702958,-0.277490,0.057924
8799686180,-70.425827,-8.483952,62.534012,0.798377,-0.497363,-0.001862
8799706179,-66.783134,-1.763902,39.217751,0.600141,-0.750318,-0.064188
8799726179,-54.560272,-2.308447,19.846874,0.575752,-1.016814,-0.224438
8799746180,-20.726179,14.088908,-1.371372,0.579388,-1.174080,-0.371307
8799766181,16.001011,31.330694,-26.147955,0.424965,-1.021592,-0.305241
8799786181,47.005096,25.066511,-50.715843,0.439022,-1.000284,-0.383600
8799806182,66.185783,12.530389,-78.393005,0.494148,-0.935005,-0.364892
8799826182,71.700615,-1.439831,-101.380867,0.594572,-0.818823,-0.387376
8799846183,85.857964,2.207922,-119.898056,0.654083,-0.793462,-0.299325
8799886184,158.333038,-4.031200,-148.409561,0.756667,-0.515213,-0.135823
8799906186,172.526001,-0.708508,-138.655914,1.225912,-0.191193,-0.010381
8799926186,158.063828,-6.450485,-100.240372,1.240361,-0.186167,0.247922
8799946187,151.400574,-25.376751,-70.311958,0.905833,-0.275908,0.577049
8799966187,151.736053,-44.098644,-49.520428,0.920217,-0.024354,0.802648
8799986188,125.701942,-48.738911,-22.129255,0.917305,0.087844,0.869581
8800006189,89.994087,-32.944756,10.738193,0.769382,0.059186,0.756883
8800026192,53.490597,-30.024895,21.272390,0.640429,-0.026523,0.516089
8800046188,25.246445,-38.855156,15.605148,0.646576,-0.269867,0.373670
8800066189,44.069283,-38.504639,21.961815,0.755656,-0.582459,0.283702
8800086189,88.051346,-29.466566,43.985996,0.877882,-0.580054,0.264372
8800106190,98.005043,-33.068802,60.644997,0.916536,-0.360366,0.319308
8800126191,82.072021,-46.544247,66.903923,0.958417,-0.342637,0.419613
8800146191,58.303482,-52.224998,73.763657,1.013225,-0.392838,0.461254
8800166192,36.104912,-51.210594,76.778610,1.030689,-0.397487,0.473542
8800186192,20.539761,-51.367386,69.783035,1.003406,-0.345085,0.454949
8800206193,13.216573,-53.979908,62.745750,0.921835,-0.363744,0.446843
8800226195,17.004757,-53.055996,63.666576,0.815062,-0.397709,0.399040
8800246195,22.522026,-49.851639,68.999573,0.665961,-0.390383,0.366139
8800286196,46.653866,-38.145630,46.418243,0.606771,-0.530520,0.325736
8800306197,59.702774,-22.910151,7.244186,0.596664,-0.487694,0.216155
8800326197,70.892067,-4.247028,-45.197754,0.774469,-0.302024,0.228137
8800346198,54.422897,-6.027148,-75.337013,0.974748,-0.224675,0.403279
8800366197,-13.446793,-15.279347,-74.407494,0.920587,-0.574636,0.344168
8800386198,-12.016648,-12.185085,-80.370735,0.696982,-0.715345,0.045709
8800406198,6.907862,-12.102108,-96.864532,0.857802,-0.284133,-0.024426
8800426199,-4.051958,-10.580359,-138.283340,0.885190,-0.285103,-0.096105
8800466200,219.142822,66.889481,-119.903374,0.890407,-0.918862,-0.053659
8800486201,335.326630,67.508011,-103.718353,0.893879,-0.465325,-0.168958
8800506201,357.943268,-3.594932,-99.935257,1.623047,-0.275323,0.060495
8800526202,279.436066,-64.265076,-42.542187,1.496744,-0.558194,0.587062
8800546202,164.688797,-66.746758,39.154121,1.129234,-1.202133,0.534786
8800566204,136.803650,-60.937805,111.616035,1.017106,-1.362001,0.441157
8800586205,147.524063,-67.574570,179.200851,1.352256,-0.556919,0.322336
8800606206,174.126221,-57.618000,215.944168,1.261500,-0.480374,-0.021633
8800626206,197.020584,-57.065205,232.107269,1.060992,-0.391782,-0.067520
8800646207,184.964355,-75.390068,226.067154,0.943328,-0.034807,-0.103196
8800666207,136.549622,-101.279686,206.191406,0.855659,0.224754,0.009876
8800686206,66.595329,-141.911423,189.011505,0.843198,0.209874,0.133213
8800706207,25.474295,-150.352829,162.609512,0.911624,-0.089807,0.281716
8800726207,42.917511,-125.578506,127.696182,1.011798,-0.452563,0.351238
8800746208,97.875290,-78.387222,84.279770,0.888797,-0.176931,0.277170
8800766208,80.635094,-67.962891,46.504578,0.737965,0.364382,0.267152
8800806209,15.004275,-79.205154,-32.534924,0.898757,-0.086787,0.340284
8800826210,79.715950,-41.397591,-69.547112,0.743908,-0.260842,0.424315
8800846211,68.848343,-20.098110,-94.953003,1.043821,0.163660,0.631340
8800866211,-14.499541,-22.764277,-20.770645,0.879842,-1.059201,0.364156
8800886213,53.872398,-28.089924,-26.043985,1.502570,-1.409809,0.157257
8800906214,148.257431,10.293011,-36.383869,1.315836,-0.632557,0.490423
8800926214,100.500679,34.448532,-43.958145,1.089450,0.539339,1.077459
8800946215,-108.702950,41.023045,-76.309822,0.642152,1.376733,1.129961
8800966215,-242.603088,20.312769,-112.863846,1.002108,0.326818,0.555532
8800986216,-161.695648,51.877068,-104.044518,1.246142,-0.777360,-0.031272
8801006216,-28.867605,112.499138,-95.206520,1.075771,-0.226195,0.281542
8801026215,-16.615555,109.682297,-156.857529,0.706061,0.805881,-0.309783
8801046216,-15.756804,117.871506,-208.391678,1.122919,-0.116774,0.050652
8801066217,40.641735,161.757019,-253.456329,1.048504,0.630820,0.015065
8801086217,104.676826,139.798416,-310.743073,1.027335,0.409194,-0.035013
8801106218,204.966492,83.301750,-339.131042,1.588337,0.469332,0.291249
8801126218,30.946541,-12.643367,-282.479248,2.623904,0.825825,0.412134
8801146219,-298.039368,-23.604300,-80.456329,2.943897,-1.660390,-0.175201
8801166219,-330.477112,74.907860,3.658698,1.728619,-2.677007,0.005874
8801186220,-234.477722,50.169376,39.421570,1.505342,-1.169951,0.278931
8801206221,-97.541328,52.217888,127.478615,1.451878,-0.718912,-0.933874
8801226223,83.182388,62.157001,88.641762,1.040085,-0.566057,-0.295922
8801246223,122.678871,20.879755,88.853630,1.031297,0.201775,-0.096915
8801266224,61.667545,14.866950,92.009338,0.772514,0.502546,-0.070118
8801286227,-55.731396,-25.931860,108.331978,0.510721,0.366584,-0.036276
8801306225,-137.206894,-59.169167,122.898392,0.582070,0.101073,0.001451
8801326225,-131.114731,-65.133133,142.549484,0.692407,-0.185941,0.106215
8801346224,-67.001297,-52.989601,168.958832,0.779797,-0.268169,0.111642
8801366225,-5.539316,-49.350281,173.753113,0.983568,-0.059577,0.074094
8801386225,9.404922,-53.650314,155.161987,1.358587,0.283322,0.045144
8801406226,-26.131857,-51.795898,126.050873,1.539362,0.561136,0.065409
8801426226,-74.283882,-38.967327,104.402573,1.240914,0.618713,0.210020
8801446227,-94.125786,-40.522511,69.801697,0.912445,0.412014,0.430177
8801466227,-77.213928,-22.259809,39.472294,0.956038,0.401830,0.380239
8801486228,-132.583435,-0.845115,26.595284,0.911327,0.783050,0.317377
8801506229,-241.116943,16.493212,-4.509588,0.849678,0.838834,0.211000
8801526229,-296.830658,56.340343,-52.759899,0.955373,0.652991,-0.015585
8801546231,-290.407013,107.333183,-96.708977,1.117144,0.527474,-0.079163
8801566232,-233.112900,168.796692,-130.959961,1.563409,0.252614,0.025878
8801586232,-186.921921,201.183075,-133.498779,1.576880,-0.005768,-0.368816
8801606233,-158.136185,204.705811,-124.367455,1.382131,0.210944,-0.588101
8801626234,-116.297424,218.879639,-164.549728,1.302365,0.561032,-0.369160
8801646234,-91.259094,197.050858,-228.916321,1.473981,1.040890,-0.403447
8801666250,-132.857956,164.843185,-227.789963,1.720704,0.755608,-0.407617
8801686233,-153.373199,101.157616,-178.673004,1.641838,-0.284082,-0.904892
8801706234,-20.727861,36.468327,-120.075645,1.633332,-0.865292,-1.123816
8801726235,-131.074646,44.684677,-77.987274,1.557640,0.257035,0.250053
8801746235,-253.295013,39.293655,-40.707355,1.334876,0.240609,-0.624333
8801766236,-150.668213,44.991028,-45.533588,1.129473,-1.032021,-0.530317
8801786236,-48.778877,18.556694,-6.902191,0.837783,-0.234097,-0.000676
8801806237,-87.223312,5.294003,24.733995,0.918574,0.744360,-0.101370
8801826238,-219.980301,13.139832,41.035473,0.854204,0.640220,-0.143198
8801846238,-310.047577,13.184100,61.531738,0.913578,0.234738,-0.178604
8801866240,-310.797913,-15.179203,59.794304,0.971437,0.073575,-0.149001
8801886240,-268.293274,-18.396254,48.018139,1.146315,0.009563,-0.183109
8801906241,-224.337402,-13.343683,39.625168,1.148859,0.052204,-0.166224
8801926241,-199.379639,-27.649277,18.563847,1.304954,0.294916,-0.221470
8801946242,-195.992294,-25.889418,18.646786,1.260826,0.304230,-0.233095
8801966243,-170.668152,-22.916815,20.577051,1.343855,0.143440,-0.267278
8801986243,-126.215210,-5.639301,8.053146,1.344658,0.192817,-0.150724
8802006242,-107.298561,10.403606,-19.645981,1.304177,0.305708,-0.071957
8802026243,-110.488335,35.093731,-37.723358,1.042861,0.284528,-0.071526
8802046243,-141.923508,56.640266,-40.656384,0.880898,0.151071,-0.159404
8802066244,-173.351990,72.205261,-50.850079,0.977527,0.140476,-0.254776
8802086245,-197.985321,77.632538,-61.104851,1.258542,0.239356,-0.316770
8802106245,-204.467117,72.779991,-42.875637,1.378509,-0.009631,-0.367288
8802126246,-173.415680,70.356659,-23.954958,1.310226,-0.501749,-0.579243
8802146247,-58.912735,63.519928,-5.106694,1.089009,-1.025726,-0.703038
8802166247,5.780888,62.262306,9.391800,1.104647,-0.656836,-0.267607
8802186247,-40.857231,46.549355,30.673031,1.136425,-0.084096,-0.275722
8802206249,-96.886421,25.925589,49.504044,1.049036,-0.343553,-0.367755
8802226250,-134.755905,6.243216,70.216057,1.025511,-0.429765,-0.315950
8802246250,-136.201126,-8.082604,89.187141,0.872984,-0.470614,-0.429784
8802266251,-92.602158,-27.912811,101.191223,0.781776,-0.579699,-0.450371
8802286252,-46.650768,-44.840096,107.631485,0.867425,-0.364714,-0.343170
8802306252,-30.732458,-47.748013,101.940842,1.057887,0.005637,-0.207290
8802326270,-65.588791,-37.739914,91.681610,1.037320,0.481931,-0.019429
8802346252,-137.730103,-23.546936,73.442421,0.763766,0.779706,0.119188
8802366253,-201.120621,-17.726042,29.576250,0.758085,0.537335,0.071683
8802386253,-207.669373,23.575850,-10.682756,1.115917,0.145409,0.002769
8802406254,-151.171158,70.900475,-40.997955,1.333223,0.008687,-0.011915
8802426254,-59.768108,138.014282,-72.649002,2.021325,-0.228656,0.493965
8802446255,-9.743487,173.172760,-31.324131,1.810826,-0.444986,0.152287
8802466255,-86.947113,161.413025,13.036390,1.175924,0.556098,-0.005582
8802486256,-165.494156,183.081726,-55.522625,1.354066,1.344810,0.544620
8802506256,-423.665985,219.795700,-72.132607,1.424195,1.812279,-0.003957
8802526258,-495.191711,146.006226,-117.204201,1.599693,1.310525,-1.779591
8802546259,-313.446625,215.926605,-149.858185,1.490901,-0.833887,-1.700306
8802566259,-83.845879,283.636597,-195.928406,1.236433,0.684854,-1.203257
8802586260,-1.842752,260.519012,-294.480408,0.910817,0.989904,-1.090816
8802606261,46.336555,166.391708,-393.445129,0.697545,1.164002,-0.961276
8802626261,-21.499184,7.837781,-448.818787,2.496824,2.317685,-0.628038
8802646262,-339.521118,-90.041656,-212.885651,4.809518,-2.997709,-1.616135
8802666261,-230.964539,107.509628,49.761868,1.525466,-4.901087,0.158954
8802706262,-72.063538,72.087967,97.087608,1.785820,1.239215,-0.960232
8802726262,-57.769676,139.183731,52.763607,0.965816,-0.130007,-0.382637
8802746263,11.286273,40.498875,54.605362,0.786618,-0.259213,-0.605572
8802766263,33.230614,-30.251148,68.208267,0.695870,0.378166,-0.674201
8802786264,-104.914352,-103.987785,88.795044,0.558663,0.564642,-0.430977
8802806265,-211.060699,-110.227165,107.637787,0.948221,-0.005155,-0.151948
8802826265,-148.258881,-75.425095,122.885788,1.004019,-0.424102,0.175039
8802866268,22.073696,-62.740368,160.898026,1.214341,-0.003527,0.089238
8802886268,-4.178319,-55.066959,157.115097,1.258434,0.355256,0.051149
8802906269,-78.267227,-57.174339,147.857529,1.254954,0.455600,-0.025134
8802946270,-185.326477,-60.770145,116.871201,1.104130,0.130791,-0.051581
8802966270,-185.837463,-41.073879,102.132736,0.941952,0.102003,-0.099201
8802986271,-183.450729,-38.543774,77.245338,1.022513,0.355253,-0.057220
8803006270,-182.355881,-2.873959,74.692451,0.862215,0.608164,0.214123
8803026271,-182.228210,30.327639,52.526093,0.691050,0.076288,0.196947
8803046271,-139.610947,84.702812,21.474802,0.945633,-0.103657,0.075757
8803066272,-52.461391,171.004532,-29.872883,1.513681,0.050219,0.578614
8803086273,-124.249397,188.526215,1.791264,1.342975,-0.430114,-0.047856
8803106274,-128.083435,168.681839,53.900986,1.602531,-1.008645,-0.362180
8803126274,-100.333397,170.778152,49.273521,0.861411,-0.398280,-0.474249
8803146274,-157.276321,184.605209,-49.290016,0.414229,1.991337,-0.206242
8803166275,-256.309174,160.046402,-140.936661,0.582383,0.157123,-0.890229
8803186275,-108.182022,205.859558,-167.103943,0.720165,-1.002198,-0.939350
8803206277,30.960590,233.092163,-201.581253,0.699113,-0.161743,-0.765664
8803226278,111.439301,172.422913,-269.862671,1.021084,-0.209908,-0.706861
8803246278,178.124832,85.801025,-314.929871,1.845993,-0.436586,-0.225034
8803266279,26.960794,-3.754610,-251.131287,2.623569,-0.558820,-0.029793
8803286279,-195.642807,16.475611,-132.256882,2.796141,-2.302879,-0.454879
8803306280,-122.224106,2.785431,-66.180389,1.937169,-2.390264,-0.636408
8803326279,101.013550,17.282934,-3.370621,1.579478,-1.788880,-0.871544
8803346280,250.947540,9.688294,21.436695,1.037156,-0.747441,-0.606950
8803366280,224.488770,-26.493874,26.357168,0.745380,0.016261,-0.385279
8803386281,127.447243,-26.612700,43.663910,0.410045,0.166845,-0.091322
8803406281,90.612549,-39.514202,57.349079,0.200368,0.183473,0.220005
8803426282,121.258789,-53.241184,57.400501,0.382412,0.141418,0.314248
8803446283,222.042572,-29.582058,44.392769,0.231270,0.330615,0.415722
8803466283,266.386841,-32.994213,6.740953,0.855632,0.627030,0.474555
8803486284,227.217346,9.778362,-9.361810,0.957895,0.749560,0.396533
8803506284,141.134811,0.554445,-3.561651,0.234020,0.984370,0.626267
8803526286,-61.220215,-58.687271,-37.774071,1.302991,0.764258,0.429336
8803546286,-111.509438,-0.272673,-12.693351,0.740198,-0.150092,0.103044
8803566287,-1.984369,-28.759132,-60.780746,0.077066,0.326409,0.388876
8803586288,65.642509,-23.423607,-144.258179,1.540343,0.444789,0.302910
8803606288,111.219543,13.008497,-55.126541,0.954954,-0.539335,0.403445
8803626289,173.839508,-30.932545,-23.729347,1.138121,-0.551100,0.513379
8803646288,112.949799,-21.282600,0.868516,1.088326,-0.282704,0.785414
8803666289,41.517731,-19.863787,39.481434,1.299648,-0.307845,0.497768
8803686289,11.212690,-14.926842,70.868752,1.104734,-0.529559,0.393766
8803706290,27.487461,-19.869005,95.013092,1.157303,-0.513316,0.253572
8803726290,44.359875,-33.646877,114.984741,1.231004,-0.413175,0.163200
8803746291,58.233326,-40.048264,140.332153,1.170829,-0.428087,0.232604
8803766292,58.798855,-45.051647,158.263901,1.003099,-0.239105,0.313573
8803786292,37.728390,-57.127457,159.098816,0.857275,-0.141754,0.325478
8803806293,17.874323,-69.754448,156.944153,0.840400,-0.192892,0.246279
8803846295,2.217112,-59.644440,114.877129,0.781446,-0.073303,0.168594
8803866295,-2.776905,-31.974335,61.267574,0.871521,0.085359,0.170712
8803886296,-19.858955,-15.918688,-32.464977,0.764585,0.678320,0.137721
8803906297,-35.411633,-71.885719,-121.432419,1.090947,0.012094,0.083286
8803926297,-30.558908,-47.861019,-97.716782,1.799237,-1.675925,-0.155108
8803946298,130.517761,38.051079,-59.355862,1.142437,-0.950305,-0.060673
8803966298,123.947456,64.075470,-92.493340,0.886966,0.060946,-0.108519
8803986298,78.090828,50.085018,-140.841003,0.811629,0.004333,-0.034340
8804026299,274.623871,133.183060,-87.818176,0.796085,-0.317388,-0.349723
8804046299,332.250885,21.576630,-77.605156,1.035977,-0.532560,-0.324391
8804066300,407.351166,-54.636177,-34.461296,1.348839,-1.181342,0.248433
8804086300,456.971039,-54.635735,102.730827,1.325895,-1.049443,0.506234
8804106301,311.896118,-24.663729,174.759811,1.569887,-0.092777,0.992217
8804126301,50.412155,-14.069061,213.910492,1.513625,0.244567,0.723855
8804146302,-57.449894,-38.260719,232.690460,1.172586,-0.348669,0.131155
8804166304,10.314005,-81.257919,245.677078,0.974933,-0.941205,-0.155722
8804186305,109.469711,-104.606125,235.078491,0.973754,-0.671265,-0.218352
8804206305,159.122559,-112.205170,219.961029,0.895078,-0.213694,-0.198900
8804226305,181.658234,-125.843498,199.903259,0.843287,0.032472,-0.053882
8804246306,184.755768,-122.330620,168.753937,0.958351,0.175615,0.063294
8804266307,172.249939,-114.568298,135.255173,0.820740,0.481121,0.384500
8804286307,170.793839,-98.299934,93.011765,0.795664,0.513350,0.623834
8804306306,150.534668,-69.079193,51.981037,0.680022,0.442686,0.672830
8804326307,80.252922,-68.207344,16.900415,0.583257,0.734923,0.463953
8804346307,-11.837649,-60.375866,-38.181973,0.652952,0.381845,0.522985
8804366308,-20.122677,-44.445164,-96.366455,1.470047,-0.333473,0.865109
8804386308,16.479269,-22.525749,-34.265270,1.239232,-1.376001,0.566933
8804406309,11.867487,-26.328043,22.068911,1.334900,-1.245339,0.399418
8804426310,38.258156,-13.732775,8.364449,1.191519,-0.826689,0.366549
8804446310,78.101151,2.253948,2.372482,1.063404,-0.199384,0.580379
8804466311,69.421562,37.159836,-14.479840,0.951465,0.281143,0.954158
8804486312,-15.434726,74.844345,-35.677982,0.851735,0.397625,1.170649
8804506314,-161.741058,91.774994,-77.179131,0.646156,1.091626,1.153264
8804526314,-287.051178,67.177147,-121.346497,0.799218,0.915109,0.435173
8804546315,-262.515198,86.340210,-137.215271,1.214620,-0.686726,-0.211402
8804566324,-91.398071,136.737503,-146.014709,1.183453,-0.666616,-0.408688
8804586316,45.465740,159.006836,-191.493317,1.082633,0.155646,-0.436566
8804606316,76.318481,128.129608,-274.631012,1.125562,0.725033,-0.332139
8804626315,94.762436,38.855530,-361.353363,1.017297,0.696720,-0.349304
8804646316,166.498749,71.680382,-368.897217,2.136889,0.333035,0.460411
8804666316,10.451372,22.952127,-260.159363,2.482660,0.055743,0.297395
8804686317,-266.294891,-41.081928,-121.854904,3.123288,-1.111673,-0.061602
8804706317,-375.750885,74.807861,-30.179064,1.782343,-2.297239,-0.323878
8804746319,-88.211456,65.879501,-26.816450,1.060041,-0.436061,-0.348982
8804766319,-46.821739,93.254753,-4.909149,1.095645,-0.101118,-0.305973
8804786320,38.454971,107.636002,-7.332104,1.097783,-0.002400,-0.163528
8804806320,64.321587,96.147171,-36.936798,0.882783,0.513558,0.087716
8804826322,27.308046,56.357018,-54.901752,0.590666,0.784245,0.052886
8804846323,-35.887558,45.100330,-54.235275,0.611781,0.559988,-0.023179
8804866323,-87.762695,47.515205,-41.903526,0.591780,0.371862,0.014263
8804886324,-103.290680,33.745876,-31.404684,0.587769,0.393238,0.104564
8804906324,-94.265823,20.680321,-30.094795,0.717661,0.442774,0.156648
8804926325,-63.764233,26.828350,-30.831944,0.909905,0.418698,0.226454
8804946324,-23.751799,35.313351,-25.072502,0.884141,0.348603,0.314930
8804966325,-6.660360,27.150352,-15.735989,0.837035,0.422591,0.257130
8804986325,-12.168319,7.382744,-16.571136,0.798553,0.662208,0.243665
8805006326,-54.717613,-13.985591,-18.362131,0.789530,0.826006,0.305457
8805026326,-126.786995,-26.249811,-13.478521,0.815293,0.711339,0.334934
8805046327,-182.517487,-29.518002,-0.731026,0.865863,0.421442,0.244941
8805066327,-211.472260,-24.512615,15.162366,0.879335,0.255932,0.133690
8805086328,-230.224899,-32.357880,20.359945,0.927278,0.333666,0.091019
8805106329,-238.480682,-38.871410,15.024057,1.045072,0.404148,0.115112
8805126329,-224.603928,-31.115522,7.356573,1.074210,0.338094,0.128917
8805146331,-196.561325,-22.761726,-4.155200,1.043857,0.251573,0.110967
8805166331,-174.479340,-18.810589,-11.759324,1.026389,0.262356,0.057173
8805186332,-170.752182,-15.121469,-21.201052,0.960521,0.334268,0.042543
8805206333,-176.002838,-14.363564,-33.461029,0.943779,0.332325,0.002634
8805226333,-178.708130,-9.372762,-43.973572,0.995961,0.243592,-0.009525
8805246334,-176.197784,-3.262739,-53.337124,1.026428,0.186025,-0.004137
8805266334,-176.298813,-0.893982,-63.712898,1.019900,0.222998,-0.028305
8805286334,-178.728180,-0.708626,-72.799042,1.097303,0.232469,-0.045915
8805306334,-161.026154,6.095587,-79.491776,1.164416,0.104503,-0.020560
8805326335,-125.904587,8.746815,-83.311905,1.203311,0.024997,0.014256
8805346335,-95.669350,9.266205,-76.377396,1.196840,0.077490,0.045584
8805366336,-93.823662,5.000450,-67.862823,1.196573,0.246021,0.012708
8805386336,-117.489639,9.221257,-69.772484,1.068380,0.409568,-0.011619
8805406337,-139.649521,17.205637,-84.465363,0.633064,0.590383,-0.002087
8805426337,-113.559158,3.833807,-121.988647,1.303981,0.707971,-0.002339
8805446338,-104.265900,47.263344,-123.413460,1.620227,0.501216,0.031934
8805466340,-191.107727,36.717957,-113.690201,0.685892,0.715208,-0.221664
8805486340,-207.173615,-30.286140,-135.449921,0.476074,0.894107,-0.507472
8805506341,-142.156418,-4.917552,-163.082733,1.856869,0.296827,-0.115149
8805526341,-198.928009,-3.777370,-137.705170,1.037730,0.892738,0.006554
8805546342,-264.736298,-39.372971,-117.462135,1.402134,0.298231,-0.582764
8805566342,-214.675064,-17.851341,-89.853218,1.184773,-0.244466,-0.446266
8805586343,-130.851532,-23.626158,-80.832352,1.181514,-0.022223,-0.586173
8805606342,-105.687637,-26.385674,-86.733086,1.041602,0.222287,-0.452415
8805626343,-98.361366,-23.799200,-88.503334,1.097672,0.210718,-0.275716
8805646343,-99.352013,-25.368927,-87.252991,1.113399,0.129404,-0.261812
8805666344,-89.118073,-18.911163,-76.363174,1.223940,0.084811,-0.164966
8805686344,-98.506912,-16.101305,-69.782402,1.106455,0.142049,-0.214279
8805706345,-72.453125,-12.267243,-65.822754,1.168846,-0.169242,-0.218993
8805726346,-32.435352,-11.194117,-56.891205,1.178071,-0.126997,-0.150042
8805746346,-31.721249,-7.677578,-49.653046,1.109120,0.084717,-0.074813
8805766347,-35.067009,-8.799959,-48.728352,1.109457,0.098345,-0.163864
8805786347,-17.370857,-6.928022,-51.940998,0.943482,0.030249,-0.187840
8805806349,10.957158,-3.852548,-53.915779,1.022221,0.052708,-0.064524
8805826350,6.750593,-1.376288,-53.581020,1.192522,0.263844,0.064296
8805846350,-15.560011,3.231145,-48.651615,0.858534,0.369755,0.084390
8805866351,-20.437231,-0.975196,-46.132885,1.074691,0.277373,0.028330
8805906352,-8.314441,-4.331964,-26.232389,1.218974,0.128832,0.127751
8805926351,-3.616788,-3.979640,-16.573891,1.245811,0.084577,0.073424
8805946352,19.872915,-5.586174,-10.123278,1.231789,0.035196,0.064008
8805966353,40.977371,-6.873512,-2.074958,1.248442,0.077150,0.136413
8805986353,51.602806,-3.608094,12.839994,1.257585,0.063539,0.177123
8806006354,58.774281,-1.036519,37.075455,1.175708,0.111124,0.192078
8806026354,56.834946,-2.061491,57.994732,1.089439,0.164692,0.167582
8806046355,50.178539,-5.018104,75.547409,1.026079,0.186052,0.156035
8806066355,40.294491,-6.226155,90.059578,1.010664,0.130004,0.167870
8806086356,35.536499,-8.940372,103.529236,0.964713,0.073550,0.150578
8806106356,34.752945,-14.656625,114.972923,1.093921,0.031394,0.159459
8806126358,41.933914,-17.464445,131.899368,1.179795,-0.062122,0.155193
8806146359,58.482269,-22.723423,156.940628,1.074249,-0.219651,0.133108
8806166359,73.527550,-25.998646,178.096497,0.974491,-0.131853,0.187309
8806186360,60.121624,-28.505047,178.663055,1.006042,0.136643,0.205667
8806206361,29.737385,-38.288723,173.275864,0.998657,0.207353,0.168293
8806226361,7.137164,-45.698338,168.252762,0.981668,0.075796,0.129370
8806246367,-2.166556,-50.939056,160.544891,0.899265,0.087398,0.119240
8806266361,-4.951320,-61.214890,148.050079,0.842790,0.126300,0.098645
8806286361,-13.227824,-68.912376,127.619781,0.790234,0.135264,0.081833
8806306362,-20.135950,-75.717110,104.891785,0.746703,0.037595,0.091104
8806326362,-13.414816,-75.957825,78.720451,0.750312,-0.019509,0.076420
8806346363,-9.979294,-70.668365,51.019203,0.789271,0.014108,0.056593
8806366364,-16.576010,-64.077080,23.373072,0.825735,0.022745,0.047159
8806386364,-28.362768,-56.868385,-0.923640,0.867449,-0.043782,0.103787
8806406364,-37.296364,-43.413212,-21.538027,0.990828,-0.116070,0.151930
8806426365,-44.039055,-28.864716,-33.701717,1.228466,-0.176537,0.153610
8806446367,-48.408524,-7.088568,-34.859573,1.276125,-0.248153,0.123903
8806466367,-65.034538,-8.760696,-29.046150,1.082621,-0.363818,0.019197
8806486368,-85.613052,-34.680748,-14.327520,1.093578,-0.541162,-0.103299
8806506369,-83.006241,-25.486742,3.135364,1.174773,-0.667792,-0.071712
8806526370,-52.609550,-0.655574,15.764826,1.006043,-0.630695,0.002824
8806546370,-20.270563,10.962929,23.353756,0.910764,-0.504266,-0.031912
8806566371,-3.104760,18.430305,21.174473,0.872983,-0.357149,-0.104881
8806586370,2.078655,21.700279,14.281372,0.860531,-0.256746,-0.139387
8806626371,3.752927,24.341026,12.567103,0.931248,-0.293064,-0.095063
8806646371,3.717425,23.105196,14.047140,0.953707,-0.268548,-0.076514
8806666372,-6.408964,17.409105,12.804532,0.969303,-0.200502,-0.069102
8806686373,-20.832865,11.661203,6.064671,0.955535,-0.174534,-0.091714
8806706373,-38.533623,1.535820,0.453927,0.921606,-0.225672,-0.119912
8806726374,-45.620888,-4.829063,-3.375706,0.937424,-0.311010,-0.139330
8806746374,-32.777267,-3.385906,-4.998780,0.943707,-0.391948,-0.138570
8806766376,-12.581421,-0.654138,-5.468184,0.935066,-0.416383,-0.143664
8806786377,-0.360325,-0.193852,-7.304340,0.940341,-0.384765,-0.143458
8806806377,7.037825,-0.302277,-8.105175,0.943949,-0.379156,-0.101913
8806826378,11.448143,-0.082426,-7.358786,0.942991,-0.377680,-0.057340
8806846387,9.134001,2.497359,-6.577178,0.951682,-0.296447,-0.040714
8806866379,-1.991838,3.455429,-8.939688,0.918108,-0.251498,-0.030431
8806886380,-16.537840,0.357880,-9.915509,0.930004,-0.264031,-0.024646
8806906378,-19.770355,2.343002,-9.666562,0.940616,-0.311436,-0.037311
8806926379,-16.021099,4.541366,-6.912298,0.931791,-0.346162,-0.056751
8806946380,-11.440189,5.267961,-5.317859,0.938439,-0.336268,-0.066962
8806966380,-7.916905,4.944331,-3.926608,0.935939,-0.347409,-0.055140
8806986381,-4.910291,4.866763,-0.778667,0.953879,-0.339604,-0.048512
8807006382,-2.332125,6.374552,0.350221,0.948475,-0.318009,-0.046709
8807026382,-3.823395,5.540367,0.429208,0.952337,-0.306343,-0.045207
8807046382,-3.251220,5.583427,0.198419,0.952317,-0.299099,-0.047234
8807066383,-1.843119,4.974905,-0.268814,0.951943,-0.304751,-0.048884
8807086384,-0.309567,3.414709,-0.352339,0.955660,-0.307936,-0.043598
8807106386,2.259464,2.977165,0.565028,0.956667,-0.295765,-0.036478
8807126386,2.051284,2.475443,0.765836,0.945720,-0.292152,-0.035275
8807146386,-1.216829,1.774382,0.525565,0.959297,-0.260302,-0.025594
8807166387,-4.065264,2.844579,-0.606175,0.945517,-0.259720,-0.030759
8807186387,-8.457843,-0.127914,-1.347768,0.945294,-0.281691,-0.035440
8807206388,-7.193512,-0.557594,-1.161612,0.957161,-0.296809,-0.032535
8807226395,-2.816949,0.520107,0.386574,0.952719,-0.298931,-0.028533
8807246388,-2.292109,0.191146,0.469260,0.954096,-0.288647,-0.038438
8807266389,-4.501401,-0.796209,-0.025328,0.954144,-0.288191,-0.031876
8807286389,-4.844398,-0.771044,0.257300,0.953403,-0.289470,-0.033415
8807306390,-4.541175,0.492639,-0.000591,0.953490,-0.292768,-0.041390
8807326390,-2.335823,0.662761,0.201345,0.945813,-0.296592,-0.046882
8807346391,-0.502261,1.282767,0.182560,0.949196,-0.291867,-0.048380
8807366391,-2.465188,0.768200,-0.155711,0.946045,-0.279923,-0.056896
8807386392,-3.400664,-0.230280,-0.633269,0.949181,-0.288238,-0.048892
8807406392,-3.685043,0.959639,-0.713357,0.947671,-0.303893,-0.058792
8807426395,-2.218921,1.276655,-0.523909,0.942071,-0.310848,-0.070326
8807446395,1.588003,1.461837,-1.028495,0.946192,-0.302951,-0.065024
8807466396,4.282572,1.939521,-1.612919,0.945543,-0.288804,-0.062055
8807486397,5.279778,1.560409,-2.185706,0.946697,-0.284323,-0.058464
8807506397,5.089121,1.597826,-2.450981,0.949103,-0.275661,-0.053100
8807526397,3.582215,0.767606,-3.162271,0.955309,-0.276791,-0.046635
