Timestamp (us),Gyroscope X (deg/s),Gyroscope Y (deg/s),Gyroscope Z (deg/s),Accelerometer X (g),Accelerometer Y (g),Accelerometer Z (g)
4418760475,0.085482,0.086066,-0.008457,-0.320201,0.150154,0.934203
4418780505,0.024329,0.048510,0.044903,-0.321769,0.149610,0.935542
4418800534,-0.066745,0.033540,-0.023254,-0.322581,0.149616,0.935255
4418820562,-0.013730,-0.004748,-0.007743,-0.320754,0.150518,0.934928
4418840591,-0.067306,-0.134039,-0.059758,-0.320287,0.150883,0.934208
4418860621,-0.006121,0.063996,0.075087,-0.321938,0.149524,0.934717
4418880650,0.016931,0.025409,-0.045892,-0.323288,0.149537,0.933965
4418900680,0.032380,0.078583,-0.053913,-0.322036,0.149977,0.935358
4418920709,-0.074255,-0.004732,-0.098757,-0.321951,0.148520,0.935072
4418940739,0.016638,-0.027794,-0.022699,-0.322770,0.148343,0.935149
4418960768,0.001744,0.109548,0.051962,-0.321910,0.150080,0.933170
4418980798,-0.097612,-0.095770,-0.044929,-0.320827,0.149253,0.933180
4419000827,-0.089604,0.064286,0.029552,-0.322856,0.149708,0.935434
4419020856,-0.028749,0.010428,-0.045788,-0.321580,0.150883,0.935648
4419040886,-0.029223,-0.080807,-0.014694,-0.322649,0.149444,0.933700
4419060915,-0.060021,-0.156684,0.008675,-0.321118,0.150883,0.935108
4419080946,-0.044179,-0.019835,-0.015213,-0.321749,0.147618,0.933333
4419100975,-0.021832,-0.065343,0.068583,-0.320220,0.148784,0.934829
4419121005,0.100258,-0.074085,-0.075344,-0.322549,0.150446,0.933528
4419141034,0.069395,-0.096391,0.030972,-0.320457,0.150071,0.933103
4419161064,0.016305,-0.103806,-0.082737,-0.321914,0.149261,0.933071
4419181101,0.023898,-0.042463,-0.007270,-0.323374,0.150539,0.934064
4419201122,-0.006054,0.094588,0.021874,-0.319472,0.152876,0.935244
4419221152,-0.021468,0.041444,0.022237,-0.320646,0.151795,0.934394
4419241181,-0.036187,0.132448,0.013820,-0.323631,0.151455,0.933520
4419261210,-0.097671,-0.095719,-0.014565,-0.320133,0.149055,0.935198
4419281252,0.009230,-0.012499,-0.022753,-0.321661,0.149252,0.934262
4419301268,0.001860,0.086596,0.037037,-0.321841,0.147619,0.933423
4419321298,0.009163,-0.050618,-0.030074,-0.321388,0.147252,0.933335
4419341327,0.009554,0.094030,0.006651,-0.322115,0.150345,0.934813
4419361356,0.024741,0.040169,-0.068596,-0.320763,0.149061,0.934823
4419381386,-0.021241,0.048363,0.029931,-0.320400,0.150331,0.935388
4419401415,0.001591,0.009928,-0.000133,-0.322097,0.152441,0.934559
4419421445,-0.021102,0.063356,0.022082,-0.321839,0.149890,0.934357
4419441474,-0.044021,-0.005223,-0.000030,-0.320981,0.152353,0.932841
4419461504,-0.089492,-0.066004,-0.075334,-0.320663,0.150608,0.934930
4419481533,-0.150405,-0.141489,-0.036733,-0.322749,0.149168,0.934152
4419501562,-0.058888,-0.057683,0.046110,-0.322554,0.147628,0.932589
4419521593,0.010805,0.154818,-0.046612,-0.320123,0.147696,0.933908
4419541622,-0.035143,0.132103,0.052048,-0.321843,0.150434,0.934818
4419561652,-0.004513,0.184667,0.028825,-0.321659,0.149889,0.934451
4419581682,0.101384,-0.075219,-0.097881,-0.322020,0.148620,0.933703
4419601711,0.100920,0.032076,0.068181,-0.320863,0.147059,0.934529
4419621741,0.123339,-0.021639,0.022969,-0.320927,0.149160,0.933726
4419641770,0.093443,0.107782,-0.031118,-0.323083,0.150362,0.932789
4419661799,0.093004,0.054132,-0.045747,-0.321451,0.152350,0.933838
4419681828,0.046565,-0.067314,-0.014384,-0.322648,0.150807,0.934261
4419701856,0.008241,-0.135265,-0.021348,-0.323287,0.150174,0.934153
4419721886,0.023610,-0.036094,0.038419,-0.323739,0.151267,0.934521
4419741915,-0.089875,0.063401,0.007164,-0.322215,0.149706,0.935079
4419761945,-0.021537,-0.051438,-0.060004,-0.322484,0.148710,0.934426
4419781974,-0.097446,-0.005048,0.000266,-0.321475,0.151342,0.934924
4419802004,-0.051999,-0.111902,-0.013927,-0.321411,0.149060,0.935634
4419822033,-0.143165,-0.141403,-0.006144,-0.321402,0.148337,0.934714
4419842063,-0.005124,0.124545,0.037169,-0.322088,0.149446,0.932614
4419862092,-0.089513,-0.141841,-0.051604,-0.320330,0.149686,0.936479
4419882122,0.040592,0.147326,0.112817,-0.321108,0.150433,0.934282
4419902151,-0.073899,0.040963,0.075453,-0.322870,0.148522,0.935788
4419922181,0.047525,-0.050963,0.076089,-0.321401,0.149973,0.935369
4419942210,-0.020724,0.025554,0.075319,-0.322471,0.148624,0.933513
4419962241,0.002935,0.139166,-0.009236,-0.321204,0.150704,0.934740
4419982270,0.078212,-0.021286,-0.022903,-0.320148,0.149231,0.936204
4420002299,0.055813,0.138689,0.013561,-0.322490,0.151342,0.936003
4420022329,-0.043856,0.063147,0.150479,-0.320279,0.151704,0.934125
4420042358,0.009479,0.001762,0.082502,-0.319453,0.151793,0.933591
4420062388,-0.035435,0.115689,-0.024747,-0.321011,0.150344,0.933827
4420082417,-0.141777,0.077885,-0.024410,-0.321780,0.149515,0.936180
4420102446,0.048141,0.023574,-0.001101,-0.323582,0.148441,0.934863
4420122479,0.063319,0.099792,0.074094,-0.320597,0.150508,0.936482
4420142504,0.093420,-0.038009,-0.053699,-0.322188,0.151533,0.934184
4420162533,0.031968,-0.151651,-0.060276,-0.320853,0.150788,0.935568
4420182563,-0.013614,-0.059392,0.029977,-0.320036,0.149602,0.935022
4420202592,0.024956,0.130688,0.088959,-0.323224,0.147983,0.934955
4420222622,0.130739,0.031058,0.112260,-0.320313,0.147694,0.934452
4420242651,0.069894,0.046342,0.051291,-0.320111,0.149971,0.934203
4420262680,0.137665,-0.052958,0.074774,-0.321295,0.151249,0.935017
4420282710,0.129837,-0.007020,0.089322,-0.321547,0.152803,0.934388
4420302739,0.039646,0.221096,-0.018906,-0.321361,0.152349,0.933931
4420322769,0.076753,0.068468,0.020283,-0.322493,0.151704,0.936371
4420342798,-0.022530,-0.053014,-0.024183,-0.321680,0.152061,0.936753
4420362828,-0.037266,0.046189,-0.009880,-0.322937,0.151711,0.935725
4420382858,-0.128289,0.015960,-0.062590,-0.320359,0.151617,0.933392
4420402888,-0.044645,0.015701,0.020948,-0.322101,0.150168,0.933807
4420422917,-0.196316,0.016294,-0.024695,-0.321670,0.148795,0.934623
4420442947,-0.044369,0.054074,0.149335,-0.322028,0.149253,0.934530
4420462976,-0.037349,-0.174394,0.090283,-0.320773,0.150057,0.935927
4420483006,-0.051551,0.107719,0.163463,-0.321938,0.148979,0.934438
4420503035,0.138708,0.136584,0.102257,-0.322764,0.149890,0.935437
4420523064,0.015810,-0.113917,0.119218,-0.321126,0.149881,0.935190
4420543094,0.091959,-0.007324,0.186280,-0.322040,0.147795,0.934608
4420563122,0.091496,-0.114014,0.110835,-0.324107,0.149814,0.934228
4420583151,0.129634,-0.037948,0.087321,-0.321865,0.148064,0.935161
4420603181,0.212932,0.015010,0.139654,-0.320688,0.148782,0.935734
4420623210,0.394836,0.120728,0.206705,-0.321462,0.145408,0.937243
4420643240,0.522614,0.081923,0.282331,-0.320150,0.145869,0.934803
4420663269,0.597206,0.066131,0.274207,-0.321474,0.149798,0.934179
4420683298,0.465059,-0.206623,0.381735,-0.322608,0.158453,0.935154
4420703328,0.131151,0.038472,0.234713,-0.320397,0.164753,0.930135
4420723357,-0.202169,0.092286,-0.046763,-0.324569,0.158569,0.932841
4420743387,-0.459382,0.024372,-0.273320,-0.319620,0.152435,0.932956
4420763416,-0.313879,-0.022367,-0.332979,-0.317578,0.143923,0.937840
4420783446,-0.091787,0.067045,-0.552363,-0.321133,0.149936,0.941489
4420803475,-0.228123,-0.031981,-0.739544,-0.319821,0.154916,0.929506
4420823506,-0.220660,-0.191228,-0.660432,-0.326866,0.143062,0.939233
4420843535,0.007009,-0.282843,-0.574635,-0.322695,0.147099,0.929752
4420863565,0.242892,0.021369,-0.348471,-0.321686,0.144428,0.933669
4420883594,0.454301,0.074467,-0.075203,-0.322115,0.144894,0.932297
4420903623,0.589228,0.043439,0.061579,-0.323627,0.148367,0.931849
4420923653,0.533027,-0.076953,0.380502,-0.322219,0.157915,0.933238
4420943682,0.304446,0.122487,0.438357,-0.320273,0.160461,0.931832
4420963712,0.060311,0.085413,0.490460,-0.322069,0.156449,0.934596
4420983740,-0.061645,0.086353,0.587611,-0.324205,0.148177,0.933937
4421003769,-0.016682,0.025549,0.753299,-0.321561,0.151344,0.934648
4421023799,-0.213352,0.231855,0.749537,-0.318992,0.158606,0.936218
4421043828,-0.335126,0.095295,0.832122,-0.320321,0.159172,0.934376
4421063858,-0.553706,0.026738,0.497035,-0.315367,0.162976,0.932757
4421083887,-0.764046,0.133751,0.343444,-0.324611,0.153557,0.933250
4421103916,-0.770273,0.072879,0.441651,-0.322284,0.148897,0.933336
4421123946,-0.753523,0.073040,0.569240,-0.320753,0.150155,0.934651
4421143975,-0.562021,0.163693,0.741369,-0.323898,0.147279,0.931286
4421164004,-0.508172,0.163850,0.966787,-0.324091,0.147095,0.931920
4421184034,-0.385985,0.262697,1.281707,-0.323819,0.140427,0.934785
4421204064,-0.067379,0.299809,1.747765,-0.319176,0.144582,0.935811
4421224093,0.205394,0.344218,2.008332,-0.319837,0.144577,0.937444
4421244124,0.409243,0.388920,2.313520,-0.325765,0.140061,0.937123
4421264153,0.756203,0.417971,2.746867,-0.321208,0.145036,0.938248
4421284183,1.066092,0.590448,2.822126,-0.321718,0.146506,0.936701
4421304212,1.216269,0.475544,2.980090,-0.319577,0.150146,0.934943
4421324241,1.211321,0.457575,2.153789,-0.317178,0.162716,0.932360
4421344271,0.674177,0.151962,0.965704,-0.324195,0.169961,0.931491
4421364300,0.062407,0.036398,-0.413566,-0.315930,0.179301,0.929704
4421384329,-0.724556,-0.169629,-1.807325,-0.314701,0.173737,0.929855
4421424387,-1.403769,-0.301127,-3.504942,-0.322630,0.161295,0.931984
4421444417,-1.774675,-0.400199,-4.126022,-0.319061,0.173218,0.929779
4421464446,-2.927439,-0.679845,-5.352533,-0.320332,0.187341,0.930345
4421484475,-4.095746,-1.035499,-6.570832,-0.323585,0.175068,0.929631
4421504505,-5.066482,-1.216293,-7.540293,-0.318241,0.181878,0.927681
4421524534,-6.377026,-1.267721,-9.056918,-0.312284,0.184735,0.931274
4421544564,-7.892819,-1.402172,-10.686675,-0.318135,0.191059,0.930872
4421564593,-9.765465,-1.795105,-12.784526,-0.322365,0.199036,0.926312
4421584622,-12.130806,-2.034086,-15.149282,-0.321305,0.202901,0.918331
4421604652,-14.624390,-2.135838,-17.651730,-0.319010,0.200137,0.921264
4421624681,-17.337448,-2.344465,-20.593149,-0.308309,0.203791,0.923663
4421644711,-20.687084,-2.337817,-23.900625,-0.302784,0.215505,0.924044
4421664740,-24.649982,-2.315268,-27.974325,-0.308786,0.222568,0.922003
4421684771,-29.037132,-2.238513,-32.442951,-0.310059,0.222212,0.921979
4421704800,-33.986362,-2.144041,-37.056061,-0.300880,0.228154,0.924101
4421724830,-39.889572,-1.735214,-42.498722,-0.291228,0.237916,0.926721
4421744859,-46.345539,-1.065886,-48.307777,-0.299713,0.218229,0.937904
4421764889,-52.651024,-0.372817,-53.608963,-0.290869,0.199951,0.938883
4421784918,-59.273113,1.022351,-58.870693,-0.276044,0.176148,0.943834
4421804948,-65.529137,2.750744,-64.059227,-0.270802,0.119522,0.948782
4421824977,-70.950027,4.789310,-68.499344,-0.262743,0.074178,0.952875
4421845017,-76.329140,7.672238,-73.037498,-0.251417,0.058259,0.952912
4421865035,-82.116959,10.968178,-77.632401,-0.237219,0.022073,0.957556
4421885064,-87.453094,15.038187,-82.210838,-0.247306,-0.027697,0.958940
4421905093,-92.772614,19.488842,-86.746971,-0.235053,-0.052643,0.959456
4421925123,-99.092377,24.568130,-91.531494,-0.207091,-0.081807,0.963749
4421945152,-105.863434,30.982426,-96.153053,-0.196518,-0.124781,0.964893
4421965182,-113.118835,37.878532,-100.862305,-0.180279,-0.160963,0.966739
4421985211,-120.873169,45.867378,-105.095711,-0.149918,-0.220289,0.954907
4422005241,-128.789795,55.365398,-108.977921,-0.133645,-0.298589,0.947144
4422025270,-135.857056,65.212746,-111.763252,-0.120762,-0.357360,0.921065
4422045299,-143.956039,77.302628,-114.787788,-0.086508,-0.412263,0.911984
4422065329,-151.762985,90.052864,-115.641678,-0.085577,-0.519916,0.861705
4422085358,-157.755707,101.978683,-114.326843,-0.071848,-0.585977,0.772306
4422105389,-162.523041,114.324860,-110.573532,-0.092943,-0.704573,0.732249
4422125419,-165.697540,125.925156,-104.280739,-0.089755,-0.811091,0.625141
4422145448,-166.324066,134.507431,-95.072609,-0.111184,-0.890354,0.525371
4422165478,-165.613556,140.179459,-84.512512,-0.092878,-0.929629,0.445697
4422185507,-165.445007,145.550797,-73.677193,-0.085080,-0.952488,0.389466
4422205540,-164.227768,150.259918,-61.190510,-0.081217,-0.999699,0.248500
4422225566,-161.634186,156.459534,-49.216084,-0.073403,-1.012538,0.160775
4422245595,-159.816772,164.077850,-37.602718,-0.108849,-1.050512,0.134376
4422265625,-159.840714,171.248764,-26.122969,-0.101956,-1.032378,0.125618
4422285653,-164.579651,178.736313,-13.927858,-0.072574,-1.066001,0.159107
4422305682,-171.165985,185.851456,0.058866,-0.054270,-1.080250,0.067614
4422325712,-176.790466,191.337402,15.485171,-0.032782,-1.057239,-0.059818
4422345741,-181.459213,194.199066,32.958397,-0.023663,-1.056733,-0.172687
4422365770,-183.893768,193.075668,50.473747,-0.032230,-1.003799,-0.338674
4422385800,-183.049469,188.424744,67.663940,-0.038244,-0.951786,-0.505724
4422405829,-179.667343,180.009216,83.014191,-0.075884,-0.905342,-0.620936
4422425859,-174.290878,168.599869,96.275131,-0.115536,-0.838368,-0.708421
4422445888,-168.094574,155.559418,107.912430,-0.106641,-0.753082,-0.786000
4422465918,-160.710739,143.206635,117.664162,-0.161462,-0.652097,-0.863465
4422485947,-152.204910,129.712234,124.696472,-0.161022,-0.624941,-0.850243
4422505977,-147.600525,118.219162,132.202911,-0.139496,-0.612171,-0.845028
4422526006,-145.115936,108.386742,139.004425,-0.190420,-0.612583,-0.892328
4422546037,-144.962311,97.814407,143.930649,-0.146444,-0.583122,-0.852085
4422566066,-146.076508,86.543808,149.726486,-0.144136,-0.514744,-0.928284
4422586096,-145.759323,75.424049,155.097168,-0.167783,-0.396359,-0.976690
4422606125,-143.554779,63.421078,158.838409,-0.144952,-0.328591,-1.001163
4422626155,-140.973434,51.083111,160.884277,-0.167477,-0.251079,-1.023635
4422646184,-138.644226,39.466099,161.885223,-0.144141,-0.197693,-1.034539
4422666213,-137.193573,27.949665,161.982635,-0.144479,-0.144368,-1.041081
4422686243,-135.715302,16.963202,161.271881,-0.151399,-0.071906,-1.041893
4422706271,-134.120728,6.371263,160.360764,-0.139077,-0.004754,-1.027286
4422726300,-132.969025,-4.170499,160.093445,-0.136017,0.065611,-1.022843
4422746330,-130.785309,-14.578243,158.293961,-0.172093,0.156180,-1.020400
4422766359,-127.476501,-24.288719,155.101608,-0.168440,0.219907,-0.987068
4422786388,-124.649879,-33.534904,151.139343,-0.168077,0.270484,-0.975822
4422806418,-122.807831,-42.519760,148.645355,-0.155924,0.294206,-0.964267
4422826447,-122.024155,-51.910168,146.116318,-0.161145,0.361698,-0.942365
4422846477,-120.302010,-60.208363,141.637573,-0.161613,0.417806,-0.910175
4422866506,-119.125259,-68.131210,137.003754,-0.165005,0.479693,-0.897515
4422886536,-117.236610,-75.435997,131.675125,-0.166780,0.529790,-0.848330
4422906565,-115.395813,-81.805855,125.876106,-0.155796,0.573988,-0.816611
4422926594,-113.713821,-88.519699,119.389938,-0.180675,0.630128,-0.779340
4422946624,-111.523758,-93.759827,112.823395,-0.175216,0.673604,-0.742879
4422966655,-109.478691,-98.922195,106.513916,-0.160910,0.704404,-0.697354
4422986684,-107.469376,-103.880302,99.770531,-0.169833,0.745469,-0.653846
4423006714,-105.450920,-108.626045,92.820648,-0.178752,0.777337,-0.626399
4423026743,-104.079956,-112.893166,86.836945,-0.160873,0.796679,-0.588134
4423046772,-102.860435,-117.190681,80.625961,-0.166085,0.834256,-0.527983
4423066802,-100.814430,-120.932465,73.478104,-0.156768,0.859741,-0.456021
4423086831,-97.844765,-123.582245,66.564156,-0.188483,0.891670,-0.398909
4423106861,-94.615440,-125.860077,59.753361,-0.189931,0.906129,-0.346122
4423126891,-91.350456,-127.149757,52.577927,-0.196384,0.923135,-0.303070
4423146918,-88.211143,-127.311249,45.703827,-0.198843,0.932825,-0.274902
4423166948,-85.862816,-127.307732,39.116077,-0.195804,0.944612,-0.237404
4423186977,-83.246063,-126.558975,32.742081,-0.203966,0.946271,-0.184845
4423207007,-80.853668,-126.424179,26.782572,-0.198260,0.954081,-0.139672
4423227036,-78.533058,-125.223251,20.851980,-0.221078,0.967886,-0.108237
4423247065,-76.388023,-123.776093,15.434823,-0.216429,0.971081,-0.067232
4423267095,-74.183632,-122.365959,10.419855,-0.214504,0.968263,-0.023132
4423287124,-71.681381,-120.293785,5.816490,-0.229746,0.967639,0.022444
4423307153,-68.819443,-117.683266,1.163285,-0.230813,0.960877,0.058699
4423327183,-66.350929,-116.134918,-3.079339,-0.238059,0.961884,0.081323
4423347212,-64.200172,-114.036171,-7.122022,-0.240310,0.954163,0.111525
4423367242,-61.959724,-112.089203,-10.882849,-0.230905,0.949256,0.146598
4423387271,-59.968704,-109.714371,-14.563986,-0.242581,0.947959,0.178623
4423407302,-58.120964,-106.545074,-17.622545,-0.236337,0.943566,0.207076
4423427331,-56.389683,-104.037659,-20.766592,-0.245770,0.929856,0.241031
4423447361,-54.437801,-101.332809,-23.699892,-0.250445,0.916187,0.278442
4423467391,-52.289658,-98.833931,-26.456976,-0.263100,0.900631,0.320179
4423487420,-49.237404,-96.239807,-28.895975,-0.253271,0.874795,0.382636
4423507449,-45.310371,-93.413834,-31.177273,-0.266409,0.869879,0.396162
4423527479,-43.211269,-90.987625,-32.986004,-0.280214,0.893408,0.343114
4423547508,-43.792664,-89.926338,-35.209175,-0.269447,0.907702,0.317037
4423567538,-46.139172,-89.733444,-38.138622,-0.269705,0.920131,0.310118
4423587566,-49.506248,-90.137177,-41.275856,-0.258552,0.923395,0.300835
4423607595,-53.426689,-90.654297,-45.056885,-0.249973,0.903547,0.353011
4423627624,-55.984833,-90.599152,-48.538773,-0.257423,0.866293,0.423754
4423647654,-57.201740,-89.583565,-51.770283,-0.250201,0.839891,0.460967
4423667683,-57.648582,-87.756409,-54.651882,-0.258040,0.809488,0.513235
4423687713,-57.252045,-85.436356,-56.756248,-0.260801,0.790177,0.547611
4423707742,-56.870079,-82.772903,-58.628464,-0.256645,0.771228,0.575257
4423727772,-56.387665,-79.423721,-60.142441,-0.258192,0.747414,0.599570
4423747801,-55.701794,-76.478874,-61.599861,-0.261848,0.721607,0.624377
4423767831,-54.841568,-73.878365,-63.327251,-0.264584,0.697888,0.649311
4423787860,-53.950390,-71.324425,-65.274124,-0.272567,0.673902,0.678812
4423807890,-52.534943,-68.597137,-66.903732,-0.273080,0.643520,0.703720
4423827919,-50.982922,-65.939072,-68.532707,-0.265219,0.623632,0.732056
4423847950,-49.431549,-63.287987,-69.972069,-0.263026,0.617379,0.739977
4423867979,-48.640507,-60.724564,-71.517220,-0.258767,0.608504,0.742246
4423888009,-48.754654,-58.308758,-73.114639,-0.267363,0.601142,0.748703
4423908038,-49.022472,-56.173306,-74.573303,-0.270380,0.566486,0.775082
4423928068,-48.331085,-53.516796,-75.755333,-0.268991,0.526064,0.801571
4423948097,-46.957260,-50.693874,-76.172646,-0.280502,0.490021,0.824787
4423968126,-45.439980,-48.084713,-76.550179,-0.278979,0.456586,0.840023
4423988156,-43.589348,-45.483757,-76.578705,-0.281788,0.433668,0.852546
4424008185,-41.693527,-42.981964,-76.598793,-0.280160,0.416351,0.868389
4424028213,-39.920212,-40.585651,-76.489159,-0.281904,0.394938,0.871540
4424048243,-38.390320,-38.187927,-76.341751,-0.289565,0.383674,0.874507
4424068272,-37.256687,-36.008839,-76.192688,-0.296853,0.371230,0.876282
4424088302,-36.428490,-34.071373,-75.943176,-0.294640,0.360078,0.880688
4424108331,-35.742794,-31.722404,-75.780602,-0.295987,0.344217,0.884171
4424128361,-35.392570,-29.676432,-75.706627,-0.295008,0.330657,0.896752
4424148390,-35.104000,-27.690441,-75.457787,-0.303982,0.302512,0.906388
4424168419,-34.269135,-25.797916,-74.980431,-0.301494,0.273576,0.914195
4424188449,-33.327789,-23.615547,-74.156685,-0.305445,0.249260,0.917831
4424208478,-32.181881,-21.792770,-73.557289,-0.297210,0.233506,0.924027
4424228508,-31.363983,-20.035944,-72.714874,-0.307339,0.213166,0.923948
4424248537,-30.418005,-18.462042,-71.741951,-0.308454,0.197742,0.930269
4424268567,-29.720737,-16.415161,-70.848946,-0.304264,0.179485,0.932725
4424288598,-28.957703,-14.900956,-69.807373,-0.309069,0.157374,0.933903
4424308627,-27.793669,-13.463312,-68.264557,-0.324340,0.113710,0.956074
4424328656,-24.578466,-11.644936,-63.440880,-0.358890,0.014884,0.961081
4424348686,-16.350548,-9.495936,-51.983219,-0.351148,-0.178187,0.994204
4424368715,-6.076161,-7.022884,-42.801914,-0.289145,-0.049293,0.942358
4424388745,-1.498016,-6.222714,-39.834236,-0.391602,0.030531,0.952477
4424408774,1.783753,-5.663841,-33.695827,-0.326692,0.052361,0.950995
4424428804,3.864585,-4.609884,-29.359123,-0.334616,0.100322,0.951036
4424448833,4.529485,-4.051075,-25.102348,-0.319242,0.110867,0.953849
4424468861,5.151566,-3.609545,-21.837864,-0.317291,0.091726,0.953977
4424488890,6.626466,-3.212064,-19.012362,-0.322360,0.071380,0.949598
4424508920,8.535126,-2.855498,-16.353111,-0.321509,0.071477,0.947513
4424528949,10.042221,-2.230704,-13.787292,-0.330214,0.087410,0.942407
4424548979,11.237188,-1.947797,-11.522040,-0.334909,0.102052,0.935710
4424569008,11.770929,-1.592833,-9.242547,-0.339271,0.111502,0.928606
4424589037,12.054191,-1.183465,-7.024289,-0.336963,0.124163,0.926113
4424609067,12.049614,-0.773667,-5.132205,-0.336358,0.127419,0.929531
4424629096,12.128281,-0.501496,-3.291999,-0.332926,0.123633,0.934755
4424649126,12.625316,-0.285255,-1.580017,-0.339147,0.121292,0.936732
4424669155,13.107618,-0.161139,-0.125061,-0.330239,0.126816,0.932729
4424689185,13.614512,0.037461,0.881937,-0.331122,0.130918,0.933026
4424709214,13.931841,0.129536,1.601618,-0.327009,0.143111,0.930923
4424729245,13.847680,0.153453,1.790929,-0.326794,0.167991,0.928418
4424749274,12.981672,-0.018503,1.352192,-0.329895,0.180121,0.929028
4424769304,12.653468,-0.114826,1.618216,-0.337020,0.177696,0.930715
4424789333,12.569867,-0.076198,1.655762,-0.329439,0.161939,0.938088
4424809363,12.608067,-0.244746,1.391822,-0.328506,0.163884,0.931548
4424829392,12.546178,-0.480277,1.424098,-0.323614,0.179270,0.927570
4424849422,12.250479,-0.273172,1.429798,-0.318842,0.193102,0.924763
4424869451,11.697134,-0.057930,1.185096,-0.318832,0.208981,0.919706
4424889481,10.588631,0.015172,0.804840,-0.318306,0.227241,0.911667
4424909508,9.198730,0.074567,0.432146,-0.318129,0.240263,0.912064
4424929538,7.595736,0.150594,0.142612,-0.326664,0.241679,0.912760
4424949568,6.114251,0.180257,-0.161638,-0.324057,0.238928,0.913142
4424969597,4.790552,0.111633,-0.017641,-0.330495,0.240424,0.913325
4424989626,3.482620,0.118789,0.049905,-0.330997,0.243441,0.911976
4425009656,1.991569,0.219295,0.427446,-0.327343,0.255361,0.910137
4425029685,0.150764,0.084728,0.518671,-0.332910,0.261687,0.909009
4425049715,-1.517392,-0.048490,1.284776,-0.330146,0.235295,0.917757
4425069744,-1.155738,0.656146,3.151816,-0.318058,0.119353,0.934227
4425089774,3.263777,1.310760,3.322845,-0.310914,0.049928,0.945295
4425109803,7.482304,1.113640,1.142892,-0.311232,0.127040,0.936600
4425129833,9.660442,0.953111,-0.158830,-0.347024,0.146265,0.958289
4425149862,11.460758,0.410154,-0.335371,-0.318746,0.173346,0.938732
4425169891,12.254492,-0.101604,-1.877441,-0.313294,0.193607,0.941838
4425189922,13.868434,-0.846080,-3.424742,-0.336755,0.137937,0.953906
4425209951,17.288059,-1.634436,-3.856232,-0.345529,0.122324,0.985480
4425229981,20.660248,-2.481832,-3.809576,-0.343294,0.135477,0.929675
4425250010,23.722845,-2.580709,-3.488816,-0.334469,0.156301,0.926268
4425270040,25.935074,-2.355243,-3.125699,-0.323572,0.188074,0.917244
4425290069,27.387550,-1.828215,-2.560763,-0.320527,0.207128,0.911080
4425310099,28.763165,-1.254066,-1.685394,-0.316272,0.221031,0.912373
4425330128,30.152796,-0.969233,-0.807588,-0.315684,0.217921,0.913997
4425350156,32.198383,-0.376637,-0.182260,-0.319307,0.207068,0.920137
4425370185,34.784481,-0.055141,-0.100305,-0.311035,0.211529,0.927342
4425390215,37.590839,-0.109103,-0.409362,-0.317092,0.222387,0.930631
4425410244,40.626015,-0.516624,-1.374983,-0.320740,0.227582,0.933997
4425430274,43.637730,-1.083864,-2.339274,-0.320441,0.253220,0.926479
4425450303,46.719688,-1.714480,-3.932314,-0.325677,0.257112,0.920496
4425470333,49.898048,-2.495982,-4.970546,-0.331463,0.272090,0.919902
4425490362,53.045593,-3.246340,-5.849831,-0.332431,0.287834,0.907616
4425510391,56.215302,-3.904434,-6.419013,-0.332576,0.300907,0.899518
4425530421,59.423779,-4.242486,-6.824057,-0.323878,0.308999,0.892704
4425550450,63.279068,-4.179428,-6.898543,-0.317986,0.315262,0.890302
4425570480,67.216454,-4.122890,-6.518009,-0.331141,0.320286,0.886209
4425590509,71.320206,-3.989872,-5.766512,-0.325084,0.365989,0.867832
4425610540,74.467926,-4.006642,-5.795178,-0.318315,0.404381,0.852869
4425630569,77.385849,-4.257392,-5.594527,-0.323554,0.433175,0.840908
4425650599,79.932716,-4.446557,-5.773678,-0.317776,0.450886,0.827745
4425670629,82.792023,-4.829192,-6.405980,-0.315551,0.473191,0.811646
4425690658,85.239548,-5.613494,-7.164004,-0.321386,0.497246,0.800818
4425710687,88.020523,-6.658357,-7.919680,-0.327389,0.531549,0.782140
4425730717,90.199989,-7.324598,-7.943360,-0.336464,0.561334,0.760449
4425750746,92.523666,-7.937839,-7.823356,-0.328857,0.569045,0.741929
4425770775,95.091759,-8.286018,-7.720623,-0.323846,0.586201,0.731122
4425790804,98.178177,-8.194962,-7.469686,-0.320667,0.606791,0.711280
4425810833,100.807167,-8.337161,-7.133608,-0.326373,0.640078,0.678903
4425830862,103.375961,-8.319173,-6.791322,-0.322499,0.654871,0.652628
4425850892,106.072960,-8.621806,-6.522102,-0.323944,0.669429,0.641236
4425870921,109.509064,-8.142729,-5.773834,-0.333883,0.680988,0.637621
4425890951,113.741615,-7.803556,-4.629737,-0.341249,0.694122,0.626850
4425910980,118.744652,-6.699131,-3.324887,-0.332153,0.701225,0.617386
4425931009,124.483437,-6.506393,-2.611012,-0.323287,0.728137,0.585005
4425971068,135.066727,-5.240108,-0.971208,-0.320114,0.796833,0.500058
4425991098,139.850861,-3.906837,0.134480,-0.319100,0.808764,0.452073
4426011127,144.976669,-0.679424,1.421565,-0.311876,0.827234,0.416391
4426031157,149.699371,4.606226,2.979294,-0.296990,0.849562,0.351108
4426051188,154.401810,11.960611,4.004058,-0.274959,0.858233,0.292936
4426071217,157.663010,17.316805,3.862095,-0.250465,0.936166,0.131643
4426091247,155.006195,21.316206,2.887048,-0.257244,0.982964,-0.093530
4426111276,146.797256,20.516600,1.161072,-0.262355,1.000983,-0.258232
4426131305,134.354233,17.277704,0.780398,-0.375671,1.256158,-0.426972
4426151335,125.377579,-0.966684,2.832355,-0.204706,0.745242,-0.042290
4426171364,125.834351,-5.830702,1.266009,-0.316583,0.967888,0.025326
4426191393,136.321701,-10.077436,2.140769,-0.363777,0.907553,0.381051
4426211442,155.734207,-10.954305,2.847491,-0.279680,0.931486,0.326129
4426231451,171.456482,-6.367163,1.883978,-0.296791,0.939468,0.035701
4426251480,179.865540,-1.902587,0.485777,-0.270680,0.921085,-0.168178
4426271510,183.011383,3.600653,-1.386198,-0.276650,0.887185,-0.347889
4426291539,183.250031,10.742398,-4.994474,-0.275770,0.836809,-0.473687
4426311569,182.286011,14.613139,-7.612942,-0.259984,0.825044,-0.472444
4426331599,183.668777,16.249905,-9.900649,-0.250320,0.826487,-0.480216
4426351628,187.457993,16.868763,-12.307543,-0.258405,0.795646,-0.493870
4426371657,191.846954,15.100835,-12.775831,-0.263878,0.772137,-0.549410
4426391687,194.997360,12.421640,-12.289304,-0.267255,0.697534,-0.686821
4426411716,194.755447,9.929976,-11.176675,-0.270454,0.572191,-0.823695
4426431745,189.519852,6.676125,-9.172955,-0.265387,0.459962,-0.937490
4426471804,173.948090,2.319147,-5.163293,-0.271970,0.341691,-0.970644
4426491835,168.196884,0.954433,-3.554790,-0.277347,0.341515,-0.934489
4426511865,165.222198,0.750491,-3.243649,-0.298555,0.346728,-0.899546
4426531894,165.409241,1.195788,-4.081329,-0.288863,0.343083,-0.893945
4426551923,167.155380,1.395393,-5.355956,-0.291340,0.313142,-0.911699
4426571953,168.921219,1.842541,-7.686564,-0.283265,0.238743,-0.939279
4426591982,169.931274,1.693011,-9.822975,-0.281356,0.153688,-0.960484
4426612012,169.617767,1.490003,-11.838264,-0.284379,0.068084,-0.991726
4426632041,168.023285,0.930660,-13.183954,-0.277049,-0.008996,-0.996063
4426652070,165.687683,-0.010890,-13.912643,-0.268942,-0.082950,-0.990498
4426672099,162.353271,-0.829594,-13.634426,-0.266470,-0.149297,-0.986964
4426692128,159.298141,-1.792922,-12.915096,-0.275219,-0.202909,-0.968430
4426712158,156.176758,-2.353044,-12.365991,-0.290175,-0.237283,-0.962235
4426732187,152.957932,-3.127969,-10.200138,-0.265120,-0.309488,-0.930817
4426752217,148.836594,-2.791995,-5.049116,-0.262909,-0.383083,-0.902156
4426772246,143.265869,-0.761837,3.650571,-0.317529,-0.440905,-0.878199
4426792276,139.427246,0.534055,4.957121,-0.292582,-0.432177,-0.902088
4426812305,137.463562,1.838370,7.197106,-0.289010,-0.395566,-0.904978
4426832334,141.402512,0.440942,3.010255,-0.333726,-0.330774,-0.924917
4426852364,144.924881,-0.229658,1.539078,-0.274848,-0.464648,-0.866405
4426872393,145.631729,-1.479053,0.071398,-0.311109,-0.537394,-0.832975
4426892423,145.924759,-1.148492,-0.765268,-0.329888,-0.565715,-0.782692
4426912454,145.621643,0.296693,0.708545,-0.301146,-0.590375,-0.739088
4426932483,145.607895,2.351359,2.799113,-0.316707,-0.622836,-0.716544
4426952512,145.990433,4.487045,4.707222,-0.306041,-0.657404,-0.688480
4426972542,146.478943,6.240496,6.292561,-0.311361,-0.692751,-0.666070
4426992572,147.181854,7.479144,6.782920,-0.319819,-0.738761,-0.639428
4427012601,147.734177,9.083973,7.277714,-0.316631,-0.772306,-0.591300
4427032630,147.578003,10.166615,7.556668,-0.309642,-0.801576,-0.546267
4427052660,147.560837,11.743123,7.786050,-0.313883,-0.830880,-0.514654
4427072689,147.982986,12.470585,7.476862,-0.324640,-0.842172,-0.487819
4427092717,148.984344,13.254727,6.826283,-0.334652,-0.855857,-0.457525
4427112746,150.825134,12.066993,5.108424,-0.349856,-0.875728,-0.423082
4427132776,152.489639,10.423037,3.257833,-0.348163,-0.897833,-0.367022
4427152805,154.126831,7.415654,1.092646,-0.357612,-0.927686,-0.345176
4427172835,156.601273,5.228383,-0.335975,-0.337799,-0.906108,-0.301837
4427192864,159.271362,3.439594,-0.660860,-0.304668,-0.921528,-0.238540
4427212894,160.892670,4.147568,-0.347572,-0.312626,-0.935531,-0.171241
4427232923,161.695023,7.120018,-0.205335,-0.308242,-0.941208,-0.076551
4427252953,160.847214,11.523077,-0.523253,-0.316240,-0.957052,0.009902
4427272982,158.731140,15.854980,-1.364352,-0.313775,-0.958977,0.072186
4427293011,156.572845,19.029583,-2.362562,-0.318442,-0.956427,0.093132
4427313041,156.555496,19.444523,-3.495788,-0.340289,-0.966569,0.074789
4427333070,159.061127,17.997702,-4.248221,-0.359408,-0.970434,0.070609
4427353101,163.184906,14.732226,-4.544840,-0.368116,-0.969479,0.088004
4427373131,168.624741,10.213283,-4.291967,-0.357369,-0.957312,0.114675
4427393160,174.307098,5.915470,-3.540416,-0.361144,-0.956429,0.170768
4427413189,179.846344,2.335585,-2.294541,-0.346485,-0.929166,0.244476
4427433219,184.821625,0.242722,-1.129664,-0.319583,-0.884721,0.326758
4427453248,188.078400,-0.381012,-0.394970,-0.316134,-0.840119,0.422720
4427473278,189.012482,-0.438375,-0.136245,-0.310042,-0.773975,0.539374
4427493307,187.936615,0.266701,-0.408059,-0.303272,-0.708502,0.629740
4427513337,185.345840,1.906481,-1.264694,-0.302198,-0.638911,0.691386
4427533365,182.075073,2.651336,-2.220294,-0.326530,-0.590530,0.730785
4427553394,179.294235,2.518974,-2.955992,-0.336733,-0.563589,0.745202
4427573424,177.711609,2.215203,-2.976953,-0.335984,-0.535059,0.756707
4427593453,177.016769,1.572226,-2.873323,-0.341329,-0.502679,0.770614
4427613483,176.714050,0.792886,-1.957072,-0.331705,-0.441665,0.809860
4427633512,176.062927,0.067527,-1.382638,-0.331562,-0.383480,0.844545
4427653542,175.009933,-0.259340,-0.644938,-0.336348,-0.324571,0.869570
4427673571,173.628296,-0.689707,0.487742,-0.317935,-0.259213,0.888641
4427693600,171.696121,-0.510290,1.000885,-0.305202,-0.163826,0.918762
4427713630,168.942505,-0.647203,1.220584,-0.323726,-0.108433,0.920799
4427733659,165.650909,-0.614982,1.089826,-0.305091,-0.022611,0.929108
4427753689,161.943924,-0.285285,0.486278,-0.306472,0.031341,0.925659
4427773718,158.070801,0.197015,-0.270273,-0.295539,0.091210,0.909592
4427793749,153.933441,0.457129,-1.874283,-0.307723,0.109937,0.913401
4427813778,154.629028,1.336170,-4.216617,-0.268274,-0.078091,0.906735
4427833808,162.570572,1.305148,-7.730616,-0.364915,-0.136010,0.929734
4427853837,167.828964,0.332420,-8.030773,-0.318826,0.183081,0.925035
4427873866,165.953796,-0.577561,-7.698008,-0.333347,0.343083,0.915689
4427893896,162.975189,-2.107428,-7.830663,-0.380193,0.351546,0.872920
4427913925,161.501221,-3.178258,-7.162740,-0.333654,0.338717,0.851921
4427933955,162.062225,-3.278934,-6.790100,-0.320914,0.322875,0.837009
4427953991,164.258957,-3.320606,-6.667375,-0.322228,0.351289,0.823556
4427974012,166.350311,-3.469834,-7.006305,-0.325931,0.424970,0.797520
4427994042,167.662872,-4.299474,-7.188257,-0.337720,0.502070,0.755955
4428014071,167.719604,-5.518548,-7.450950,-0.347469,0.569931,0.719085
4428034101,168.209030,-6.563421,-7.290298,-0.341974,0.603969,0.702326
4428054130,168.705597,-7.913611,-7.369706,-0.332244,0.617403,0.684167
4428074159,170.966217,-8.638886,-6.710463,-0.341814,0.629757,0.668880
4428094189,174.210510,-8.225822,-5.521970,-0.333408,0.642645,0.636361
4428114218,177.622681,-7.714926,-4.402458,-0.341644,0.697709,0.589811
4428134248,180.737869,-7.056717,-2.950713,-0.328924,0.755736,0.528201
4428154277,181.870316,-6.007530,-1.533538,-0.328099,0.836712,0.401426
4428174307,179.903854,-3.859711,0.282348,-0.323109,0.899943,0.267342
4428194336,174.271072,-2.302219,1.858790,-0.305089,1.015725,0.183163
4428214367,170.046188,-4.460505,0.760299,-0.278277,0.836764,0.181670
4428234396,170.445023,-6.415132,-0.398324,-0.284570,0.798570,0.334953
4428254426,179.432892,-8.695675,-1.193697,-0.343172,0.779022,0.486007
4428274456,191.501038,-11.666199,-0.859636,-0.349572,0.863796,0.387633
4428294485,199.943451,-11.599334,0.637561,-0.330787,0.956421,0.133355
4428314514,202.225052,-10.725492,1.518434,-0.305554,0.973858,-0.073676
4428334544,200.215485,-8.755818,2.350120,-0.300889,0.922916,-0.168834
4428354573,198.814514,-5.650983,2.171731,-0.300292,0.904978,-0.186154
4428374602,199.381622,-3.212772,1.522218,-0.277326,0.888333,-0.199263
4428394630,201.092621,-1.792986,0.874227,-0.284979,0.890308,-0.249033
4428414660,203.919617,-0.790163,0.222694,-0.298362,0.895609,-0.284989
4428434689,206.802109,-0.760546,-0.011206,-0.279595,0.852643,-0.372632
4428454719,208.582855,-0.618812,-0.329984,-0.290901,0.823603,-0.504913
4428474748,207.686584,-0.408578,-0.339765,-0.292015,0.774090,-0.636304
4428494778,204.754227,0.032539,-0.542021,-0.293700,0.690761,-0.699912
4428514807,201.095047,1.055301,-0.954230,-0.288625,0.660025,-0.777257
4428534837,196.951736,2.276824,-1.876343,-0.294398,0.582639,-0.808924
4428554866,192.641708,2.551033,-1.820072,-0.283414,0.541335,-0.845006
4428574895,188.510117,1.911186,-1.672638,-0.281565,0.498808,-0.848930
4428594925,185.902725,1.756419,-2.006212,-0.285728,0.452836,-0.864760
4428614954,183.571014,1.078526,-1.281347,-0.283421,0.407536,-0.893534
4428634984,181.412506,0.110959,-0.409906,-0.279157,0.346267,-0.903617
4428655014,179.119476,-0.499016,0.200676,-0.276131,0.283086,-0.928345
4428675044,176.262787,-1.219620,0.978720,-0.290865,0.209614,-0.965782
4428695073,172.202148,-0.906993,1.535208,-0.279894,0.101660,-0.990521
4428715103,167.328644,-1.630106,2.918867,-0.295857,0.138161,-0.969171
4428735132,169.810883,-1.501879,-0.318571,-0.292189,0.298590,-0.898792
4428755161,180.535934,-0.363988,-7.230241,-0.306641,0.304363,-0.889297
4428775191,187.004807,-1.757269,-3.917197,-0.246384,0.072135,-0.992806
4428795220,187.554382,-2.129060,-0.426039,-0.297220,-0.118010,-1.056010
4428815252,184.919159,-1.308090,-2.648182,-0.319877,-0.219042,-1.028737
4428835278,181.137894,-1.002596,-1.507677,-0.274012,-0.248307,-0.979055
4428855307,179.023193,-1.326613,-1.596964,-0.280708,-0.244906,-0.961513
4428875337,179.826935,-1.221636,-0.801335,-0.301059,-0.247793,-0.944433
4428895366,181.946060,-1.750473,-0.803453,-0.294172,-0.291683,-0.922725
4428915396,184.135681,-1.892000,-0.960430,-0.304064,-0.376957,-0.909250
4428935425,185.231293,-1.906227,-1.202408,-0.302073,-0.451417,-0.872750
4428955455,185.802612,-2.002092,-1.648671,-0.306728,-0.485542,-0.857530
4428975484,188.055161,-2.268384,-2.593111,-0.302476,-0.504538,-0.853528
4428995513,191.180771,-2.943069,-3.639847,-0.314363,-0.576568,-0.828369
4429015543,194.116028,-3.066141,-3.925514,-0.308347,-0.614850,-0.783252
4429035572,197.148132,-3.050124,-3.438928,-0.302114,-0.676636,-0.721917
4429055602,198.446533,-2.443798,-2.169597,-0.295040,-0.755040,-0.623108
4429075631,196.478149,-0.989565,-0.628426,-0.294941,-0.843671,-0.512547
4429095662,192.313980,0.398372,0.373909,-0.312552,-0.885038,-0.444107
4429115692,189.315948,-0.485168,0.008355,-0.292742,-0.877691,-0.412860
4429135721,189.121399,-1.702504,-0.133160,-0.303017,-0.870039,-0.449108
4429155751,191.987152,-1.495442,0.313831,-0.311812,-0.906592,-0.466387
4429175780,196.834671,-0.753662,-0.084323,-0.328530,-0.943691,-0.412500
4429195809,201.090500,-0.239412,-1.170824,-0.329173,-0.964066,-0.322318
4429215839,204.050507,0.002284,-1.596021,-0.306492,-0.954756,-0.223996
4429235868,206.201797,0.021796,-1.458666,-0.304640,-0.953862,-0.144441
4429275926,211.182449,-0.593732,-0.093892,-0.304248,-0.947497,-0.032814
4429295955,213.869415,-1.329512,0.376094,-0.312709,-0.949127,0.037421
4429315984,216.375580,-1.775602,0.691918,-0.321889,-0.971415,0.121056
4429336014,218.151184,-2.301195,1.114206,-0.320365,-0.943715,0.227968
4429356043,219.380447,-2.656847,1.413489,-0.318553,-0.914663,0.305409
4429376073,219.916718,-3.359242,1.631945,-0.326725,-0.896994,0.377471
4429396102,220.735687,-3.873506,1.651823,-0.310548,-0.840123,0.448738
4429416131,220.178772,-4.036767,2.024448,-0.307418,-0.795684,0.541772
4429436161,219.078842,-4.415573,3.088592,-0.314101,-0.738357,0.606191
4429456190,217.798950,-4.513144,3.748435,-0.309525,-0.663762,0.649315
4429476220,216.161865,-4.570793,4.400190,-0.294366,-0.597605,0.691073
4429496249,214.907944,-3.953214,4.993385,-0.301971,-0.545776,0.730685
4429516280,213.297440,-3.449219,5.200674,-0.306590,-0.488677,0.784911
4429536310,211.683182,-3.384668,6.010637,-0.316704,-0.404014,0.819764
4429556339,209.371307,-3.410076,6.131046,-0.321843,-0.331391,0.867825
4429576369,206.498352,-3.036608,6.278163,-0.309642,-0.257833,0.893080
4429596398,203.566467,-2.359025,6.225564,-0.296019,-0.184921,0.902557
4429616428,200.634384,-1.826443,6.060450,-0.301085,-0.124708,0.922842
4429636457,198.157242,-1.394382,6.146609,-0.301644,-0.067340,0.926468
4429656486,195.616074,-0.676021,5.252242,-0.278775,0.006710,0.902418
4429676536,192.876038,0.495313,0.661487,-0.262005,0.079362,0.890490
4429696543,189.727997,1.001257,-5.516120,-0.290886,0.145833,0.909625
4429716573,187.656616,0.725102,-7.152539,-0.341413,0.134557,0.913447
4429736603,187.658630,0.111680,-6.214788,-0.352053,0.167763,0.900526
4429756632,188.289749,0.054993,-1.695069,-0.328697,0.218316,0.875354
4429776661,188.248764,-0.071695,-0.950979,-0.322719,0.336417,0.859928
4429796691,186.022186,-0.404970,-1.707468,-0.316086,0.436256,0.788472
4429816720,182.837112,-2.077874,-3.962013,-0.323623,0.488388,0.759800
4429836750,179.697021,-3.956734,-6.275463,-0.336533,0.529737,0.727290
4429856779,177.148544,-6.097164,-8.480282,-0.348488,0.553032,0.712704
4429876809,176.108093,-8.179373,-9.100199,-0.357244,0.564585,0.708926
4429916868,178.617401,-7.596723,-6.169600,-0.342373,0.609453,0.683837
4429936897,180.563416,-5.305988,-3.223289,-0.333360,0.661378,0.641739
4429956928,182.608810,-3.482606,-1.023634,-0.313331,0.661557,0.620794
4429976957,186.322662,-1.442229,0.424377,-0.302313,0.695316,0.599101
4429996987,190.411728,-2.051071,0.105436,-0.299638,0.759288,0.543956
4430017016,192.925323,-2.978563,-0.120606,-0.316128,0.825950,0.438130
4430037045,193.366516,-4.960655,-0.323632,-0.316787,0.874538,0.321986
4430057075,192.187485,-7.139732,-0.540951,-0.310080,0.895505,0.233278
4430077104,190.455109,-9.011847,-0.890011,-0.302251,0.902079,0.159244
4430097134,188.837234,-10.892662,-1.383002,-0.299578,0.908854,0.118998
4430117162,188.110016,-12.091446,-1.373288,-0.296102,0.903320,0.079929
4430137191,187.843353,-12.112385,-1.229181,-0.304760,0.917621,0.041943
4430157221,188.468628,-11.422022,-0.931391,-0.304313,0.922766,-0.013418
4430177250,188.910217,-10.859372,-0.420319,-0.317964,0.920927,-0.058756
4430197280,189.896912,-8.952150,0.140385,-0.316896,0.910189,-0.108775
4430217309,191.141602,-7.328534,0.521624,-0.311713,0.914083,-0.188994
4430237339,191.540710,-5.989275,1.026156,-0.317366,0.903324,-0.291252
4430257368,190.141190,-5.637306,1.629092,-0.303832,0.874948,-0.391809
4430277397,187.154938,-6.502099,2.332464,-0.294084,0.859176,-0.494228
4430297427,183.072556,-7.405638,3.369243,-0.312849,0.822495,-0.541797
4430317456,180.251221,-8.192493,4.875744,-0.316404,0.805648,-0.554335
4430337486,178.163620,-8.643202,5.636730,-0.297495,0.767858,-0.607967
4430357515,175.864960,-8.834787,6.160393,-0.300559,0.718440,-0.643439
4430377544,172.796402,-9.043173,7.267647,-0.308404,0.667744,-0.704746
4430397575,169.266418,-8.991642,7.978226,-0.310030,0.614664,-0.770082
4430417605,163.885742,-9.301601,9.191363,-0.308049,0.542408,-0.830881
4430437634,157.226776,-10.475014,11.935138,-0.317424,0.481508,-0.874413
4430457664,149.538879,-11.991993,15.014912,-0.322095,0.440593,-0.913576
4430477693,142.892136,-13.521665,18.224194,-0.329496,0.429642,-0.886410
4430517752,133.219131,-15.493394,25.560390,-0.309353,0.392154,-0.867714
4430537781,130.239288,-15.439792,27.757313,-0.327671,0.363453,-0.893748
4430557809,127.018509,-14.814095,29.934151,-0.345649,0.316868,-0.914738
4430577839,123.078819,-13.683545,31.712132,-0.338591,0.265509,-0.924867
4430597868,119.322693,-12.600935,33.103912,-0.333206,0.239618,-0.926753
4430617898,116.226547,-11.573829,34.875584,-0.338729,0.214096,-0.933470
4430637927,113.040672,-10.509563,36.237473,-0.338145,0.179154,-0.940174
4430657956,109.751076,-9.821947,38.610889,-0.330708,0.144879,-0.943565
4430677986,106.604118,-9.217312,41.432419,-0.334075,0.115156,-0.950742
4430698015,103.299355,-8.254479,44.137131,-0.329689,0.092144,-0.945497
4430718045,100.360542,-7.577425,46.184780,-0.340972,0.071162,-0.959204
4430738074,96.853607,-6.318600,48.310669,-0.326910,0.029997,-0.959721
4430758104,92.936890,-5.142478,50.095863,-0.336606,0.006955,-0.965569
4430778133,89.470657,-3.863679,51.433064,-0.342516,0.004411,-0.960303
4430798163,87.063736,-2.317897,52.343937,-0.332971,-0.000741,-0.945953
4430818194,84.700485,-1.259515,53.251343,-0.335008,-0.027701,-0.944045
4430838223,82.063622,0.090652,54.482197,-0.334796,-0.065642,-0.951513
4430858253,78.802246,1.215930,55.760132,-0.335608,-0.100804,-0.950300
4430878282,74.800949,2.217662,57.614986,-0.326031,-0.149982,-0.946308
4430898312,69.711494,3.386628,59.953167,-0.329799,-0.181261,-0.951771
4430918341,64.242844,4.594846,62.048203,-0.335152,-0.191832,-0.945109
4430938370,59.587372,5.592736,63.993755,-0.328606,-0.175278,-0.932433
4430958400,56.019737,6.461935,65.599724,-0.326311,-0.160531,-0.933172
4430978429,53.649235,7.512337,66.385880,-0.331438,-0.148672,-0.930864
4430998457,52.162273,8.487649,66.604439,-0.335267,-0.144714,-0.933902
4431018487,50.949112,9.155674,66.416267,-0.337350,-0.155305,-0.927369
4431058545,47.449734,10.750698,66.666565,-0.336824,-0.180184,-0.925765
4431078575,46.220661,11.503602,66.796120,-0.324358,-0.174584,-0.930897
4431098604,46.010265,11.922565,66.557457,-0.332406,-0.144203,-0.930838
4431118634,47.421581,12.376475,65.682381,-0.322771,-0.115904,-0.936171
4431138663,50.317108,12.545685,63.968803,-0.325012,-0.106431,-0.933746
4431158693,52.299473,12.873435,62.693214,-0.321558,-0.164365,-0.936965
4431178722,52.297340,13.502258,61.808411,-0.323509,-0.220863,-0.930581
4431198752,50.919422,14.336755,61.065273,-0.323727,-0.235899,-0.929263
4431218781,49.813400,14.911777,60.551910,-0.316715,-0.228337,-0.921410
4431238810,49.428562,15.270087,60.108955,-0.327864,-0.217814,-0.917751
4431258841,49.790073,15.791312,59.490601,-0.327026,-0.215085,-0.917895
4431278871,50.555180,16.088089,58.404236,-0.326077,-0.230406,-0.915830
4431298900,50.583931,16.616909,57.254910,-0.322970,-0.263167,-0.908688
4431318930,49.112434,16.758734,56.365898,-0.324293,-0.312858,-0.898761
4431338959,46.494850,16.889343,54.862282,-0.313238,-0.329230,-0.899007
4431358989,47.326111,15.835086,50.496655,-0.331760,-0.192985,-0.906995
4431379018,51.861443,16.158607,49.722755,-0.324126,-0.156384,-0.896764
4431399047,56.997803,16.929630,51.690117,-0.322469,-0.177611,-0.913640
4431439105,62.085171,18.751268,51.366413,-0.337770,-0.360485,-0.917771
4431459135,61.607773,20.808144,51.113869,-0.330176,-0.341193,-0.906970
4431479164,62.927731,21.606609,50.698364,-0.314474,-0.293371,-0.908281
4431499193,66.533554,21.868254,50.432541,-0.317312,-0.266552,-0.912096
4431519223,71.198578,22.297655,49.657818,-0.317864,-0.282188,-0.901203
4431539252,75.107315,22.902767,47.880413,-0.363429,-0.371306,-0.924861
4431559281,76.301201,23.431145,46.170578,-0.303993,-0.430036,-0.850582
4431579311,75.534126,23.984573,44.292778,-0.326763,-0.451598,-0.814907
4431599340,73.934326,23.881521,42.814362,-0.319883,-0.485463,-0.794111
4431619370,71.922852,23.002153,40.712944,-0.332493,-0.478659,-0.791606
4431639399,71.449135,21.761051,37.584141,-0.348383,-0.469477,-0.787306
4431659429,72.063538,20.299257,33.919388,-0.344194,-0.470827,-0.794554
4431679458,73.345695,18.758827,30.558903,-0.340667,-0.473455,-0.800729
4431699489,74.841476,18.080200,28.032898,-0.344242,-0.505616,-0.795606
4431719519,75.467560,18.249872,25.142990,-0.355060,-0.589619,-0.780400
4431739548,74.046349,18.577753,23.069637,-0.349085,-0.619763,-0.740595
4431759577,72.493774,21.216692,22.182369,-0.350095,-0.627389,-0.853887
4431779607,74.703911,26.313053,26.879465,-0.254066,-0.547905,-0.746420
4431799636,77.965195,28.696205,29.954531,-0.322274,-0.502688,-0.805721
4431819666,84.225006,29.226036,29.869707,-0.334584,-0.519855,-0.769380
4431839695,88.129707,31.119385,30.902031,-0.326088,-0.590107,-0.711464
4431859737,89.219872,31.882586,30.956804,-0.344072,-0.655459,-0.653293
4431879753,88.577957,31.186003,28.778696,-0.349002,-0.711952,-0.613087
4431899782,86.675079,30.678396,26.484659,-0.348500,-0.729300,-0.606575
4431919812,85.440094,29.954430,24.283747,-0.350653,-0.723486,-0.617238
4431939841,86.172401,28.549335,21.824127,-0.338295,-0.711227,-0.624045
4431959870,88.987335,27.301966,19.750883,-0.343753,-0.701763,-0.648147
4431979900,92.105957,26.190990,17.972340,-0.343299,-0.733468,-0.615933
4431999929,94.130562,25.260794,16.169006,-0.334174,-0.784557,-0.548973
4432019959,93.790558,24.228569,14.251655,-0.340114,-0.827703,-0.484559
4432039988,91.201889,23.932518,12.675807,-0.339267,-0.857240,-0.418356
4432060018,88.700089,22.272289,10.739937,-0.345388,-0.840456,-0.431630
4432080047,87.879608,18.339735,7.997506,-0.331413,-0.838523,-0.418695
4432100077,86.536484,19.842308,9.053317,-0.248775,-0.839272,-0.362126
4432120106,85.288162,26.194191,12.699451,-0.342627,-0.864019,-0.392272
4432140137,84.645256,28.808125,12.601372,-0.288644,-0.908693,-0.317130
4432160166,81.004822,33.396523,13.205564,-0.373981,-0.921390,-0.282391
4432180196,78.296036,33.305916,11.415638,-0.343795,-0.912428,-0.257898
4432200225,75.381660,34.218021,10.959227,-0.312965,-0.912849,-0.249824
4432220254,72.734741,35.815224,10.936953,-0.325226,-0.916657,-0.239651
4432240284,70.677635,38.352615,10.747847,-0.330169,-0.898721,-0.217289
4432260313,68.464890,41.956806,10.655858,-0.344554,-0.898145,-0.191134
4432280343,65.484253,45.702637,10.729115,-0.348276,-0.911779,-0.144943
4432300383,61.836678,50.153030,11.023595,-0.333597,-0.915683,-0.115801
4432320400,57.901237,54.718533,11.142584,-0.350878,-0.925705,-0.112522
4432340430,54.262123,59.183289,11.194321,-0.339923,-0.925761,-0.098925
4432360459,50.356121,63.910133,11.804806,-0.323242,-0.937750,-0.091187
4432380489,47.043129,68.396912,12.129472,-0.313209,-0.940702,-0.095525
4432400518,43.810093,71.794014,12.228281,-0.331845,-0.945536,-0.090303
4432420548,41.152397,74.174034,11.827907,-0.349316,-0.934578,-0.123534
4432460606,43.987274,70.751205,10.243028,-0.339867,-0.897148,-0.258332
4432480636,49.152992,69.688728,10.269611,-0.334368,-0.877883,-0.287826
4432500665,55.112549,71.194565,10.214355,-0.369983,-0.905003,-0.269393
4432520695,59.225201,74.001175,9.260180,-0.380885,-0.939282,-0.173846
4432540724,59.115952,77.932991,8.044304,-0.353975,-0.959798,-0.057473
4432560754,55.559326,81.481262,7.315237,-0.328107,-0.954506,-0.008070
4432580784,52.079525,83.751999,7.074608,-0.328449,-0.929527,-0.027199
4432600814,50.021622,84.066086,6.691871,-0.346038,-0.921078,-0.083096
4432620843,51.004833,82.415169,6.228534,-0.366316,-0.921116,-0.133454
4432640873,53.837204,78.788544,5.153366,-0.374296,-0.924892,-0.164842
4432660902,58.056622,73.966599,3.914517,-0.378831,-0.929916,-0.173269
4432680932,62.793064,68.966072,2.449954,-0.395430,-0.938597,-0.166499
4432700961,67.467064,63.478359,0.875719,-0.392750,-0.930257,-0.130865
4432720990,71.368446,58.779057,-0.606941,-0.400604,-0.930609,-0.093109
4432741026,73.679169,55.687225,-1.921897,-0.368130,-0.937823,-0.030568
4432761048,74.231583,54.387581,-2.729586,-0.358553,-0.934353,0.020562
4432781078,73.282440,53.978603,-3.613718,-0.349841,-0.932802,0.073851
4432801107,70.731789,54.393188,-4.315986,-0.341774,-0.931945,0.121645
4432821136,67.734673,55.090797,-5.308967,-0.346500,-0.925841,0.142166
4432841166,64.818222,55.118385,-6.228044,-0.352547,-0.927277,0.145067
4432861195,62.847130,53.930775,-7.121297,-0.364471,-0.932397,0.098175
4432881225,64.865578,50.889771,-7.360161,-0.371352,-0.946833,0.003075
4432901254,71.174850,45.079479,-7.209757,-0.384943,-0.961211,-0.063375
4432921283,78.679802,37.648155,-7.356030,-0.383575,-0.955715,0.008546
4432941313,82.767349,29.734215,-7.007068,-0.378608,-0.953783,0.110072
4432961342,84.677582,26.412794,-7.054077,-0.344781,-0.911816,0.172177
4432981372,84.640579,30.936529,-8.691903,-0.333572,-0.890163,0.243312
4433001401,83.543243,34.483448,-10.481264,-0.361844,-0.913040,0.276054
4433021432,82.156982,34.577324,-11.915743,-0.328382,-0.904913,0.299680
4433041462,82.405167,34.899696,-12.994988,-0.335709,-0.934431,0.261309
4433061491,84.790428,33.895519,-13.591973,-0.339404,-0.939852,0.210531
4433081520,89.565979,32.080864,-13.763981,-0.356403,-0.939813,0.206147
4433101550,94.859230,30.438564,-13.929602,-0.356149,-0.920150,0.239472
4433121579,99.229721,29.675240,-14.474572,-0.354389,-0.908334,0.289183
4433141609,102.827797,29.333244,-15.440474,-0.355990,-0.887858,0.325407
4433161638,106.130783,29.113653,-16.688078,-0.368302,-0.891284,0.379769
4433181666,107.910988,26.787243,-17.577538,-0.341372,-0.809299,0.459843
4433201696,108.160034,27.024639,-19.027594,-0.389684,-0.798806,0.477049
4433221725,108.044617,26.040657,-19.823092,-0.339367,-0.754241,0.513427
4433241754,107.726173,24.864475,-19.237129,-0.352037,-0.744867,0.544165
4433261784,107.198547,23.013117,-18.304405,-0.365322,-0.730714,0.552479
4433281813,107.469170,20.049412,-16.414188,-0.360463,-0.701666,0.580123
4433301843,108.740974,15.577225,-13.343182,-0.394278,-0.734813,0.567764
4433321872,110.145859,11.398516,-11.070694,-0.380803,-0.689317,0.655772
4433341902,109.300926,7.544431,-8.612465,-0.343896,-0.585459,0.723064
4433361931,105.374443,6.811954,-8.524810,-0.340529,-0.511604,0.785151
4433381961,98.711960,8.377919,-12.855402,-0.342905,-0.649626,0.886542
4433401990,99.016739,15.918653,-24.488869,-0.261333,-0.546284,0.680308
4433422020,101.145958,19.659430,-29.197412,-0.341744,-0.744481,0.623670
4433442050,111.712524,18.611399,-29.949295,-0.387440,-0.808156,0.579248
4433462080,122.543777,18.488161,-31.429115,-0.351122,-0.708820,0.641558
4433482109,128.872803,17.480591,-31.349358,-0.362191,-0.555952,0.727787
4433502139,132.231384,14.300744,-27.749861,-0.382083,-0.476871,0.793287
4433522168,133.718826,11.169856,-23.855974,-0.404581,-0.427882,0.820215
4433542206,135.054947,7.213615,-18.908903,-0.389140,-0.412474,0.832568
4433562227,138.194290,3.972631,-13.458965,-0.368194,-0.431180,0.831549
4433582256,142.573547,2.512748,-10.608880,-0.351824,-0.408353,0.851745
4433602286,146.794891,1.670909,-9.833977,-0.349307,-0.327968,0.872341
4433622314,149.286163,1.033514,-9.842586,-0.348777,-0.215405,0.906804
4433642343,149.219284,0.466666,-11.013084,-0.349476,-0.087002,0.928339
4433662372,146.217133,-0.137588,-12.086123,-0.339065,0.034905,0.927262
4433682402,141.484787,-0.888759,-12.036613,-0.334020,0.104129,0.937844
4433702431,136.594574,-1.495721,-12.359911,-0.333516,0.126140,0.927191
4433722461,132.698700,-1.892253,-11.918702,-0.326874,0.120834,0.923872
4433742490,130.699799,-2.226207,-10.248800,-0.335118,0.108174,0.916957
4433762520,130.657516,-2.282781,-9.027626,-0.333267,0.111694,0.904695
4433782549,130.977127,-2.024769,-6.489630,-0.335056,0.150212,0.908765
4433802579,130.871780,-1.574242,-3.961040,-0.322322,0.229358,0.896558
4433822608,129.605774,-1.242509,-2.372195,-0.313587,0.320630,0.855184
4433842638,126.043533,-2.893653,-7.811590,-0.303637,0.393488,0.814937
4433862667,124.192245,-4.363057,-13.100043,-0.334001,0.302036,0.863353
4433882698,126.844765,-4.842429,-13.398019,-0.332392,0.230924,0.920054
4433902727,133.114731,-4.765973,-10.203562,-0.358651,0.238959,0.913402
4433922757,136.165146,-4.760747,-8.367260,-0.297824,0.463565,0.834851
4433942786,136.102417,-4.391599,-7.339222,-0.337751,0.492571,0.823424
4433962816,136.418396,-5.016610,-7.091195,-0.330528,0.522067,0.787023
4433982845,136.422729,-6.305029,-7.686943,-0.327287,0.534604,0.742092
4434002875,137.150726,-7.705726,-8.842475,-0.331870,0.559834,0.715593
4434022904,137.840378,-9.258732,-10.080151,-0.327292,0.596362,0.694734
4434042934,138.712234,-10.353819,-10.669520,-0.324680,0.634093,0.672393
4434062962,139.673798,-11.417254,-10.758695,-0.330809,0.671574,0.639957
4434082991,140.049072,-12.430849,-10.530121,-0.330869,0.698143,0.597659
4434103020,140.958847,-12.738757,-10.117662,-0.326391,0.720767,0.571101
4434123050,142.119873,-12.559199,-9.216337,-0.330637,0.737925,0.554301
4434143079,143.667603,-12.388259,-8.003886,-0.331076,0.767216,0.514213
4434163109,145.447906,-10.495706,-6.024821,-0.329658,0.801996,0.468180
4434183138,146.105148,-8.186687,-4.201437,-0.319662,0.849023,0.389991
4434203167,145.439423,-5.648935,-2.084913,-0.322862,0.889885,0.305140
4434223197,143.053055,-1.899768,-0.077958,-0.318375,0.912509,0.231474
4434243227,139.807693,0.309962,2.290283,-0.394509,1.018140,0.271109
4434263256,140.418808,-5.917605,0.659640,-0.207496,0.842552,0.238837
4434283285,141.844803,-7.939607,-0.808787,-0.333598,0.856635,0.285760
4434303315,147.996353,-11.947300,-1.325656,-0.341953,0.846222,0.362671
4434323346,155.560486,-18.085653,-1.687474,-0.326906,0.869992,0.252761
4434343375,159.587769,-20.091829,-1.137935,-0.305094,0.934020,0.041724
4434363405,159.186020,-21.306108,-0.695753,-0.308753,0.973938,-0.083952
4434383434,155.898056,-21.063484,0.635071,-0.334828,0.955350,-0.149366
4434423493,155.734924,-13.225035,2.131092,-0.314843,0.921012,-0.060895
4434443522,160.170395,-10.698736,2.081697,-0.300314,0.905230,-0.056606
4434463552,166.364716,-7.832787,1.681523,-0.316441,0.905371,-0.111004
4434483581,171.761963,-6.102628,1.806083,-0.326109,0.898164,-0.192935
4434503609,175.618530,-5.605207,1.879593,-0.313306,0.884288,-0.327332
4434523639,176.448624,-5.198270,1.967562,-0.292728,0.825985,-0.473972
4434543668,174.192871,-5.960573,2.609769,-0.296950,0.802286,-0.592394
4434563698,170.046982,-7.403691,3.802691,-0.297373,0.758134,-0.643477
4434583727,166.311783,-7.419934,4.407590,-0.303666,0.719097,-0.659278
4434603757,163.523224,-7.834858,5.653192,-0.302862,0.691493,-0.659337
4434623786,162.204422,-7.984818,6.518174,-0.307916,0.674921,-0.686231
4434643815,160.836761,-7.626883,6.681314,-0.307549,0.631538,-0.729443
4434663845,159.543961,-7.199337,7.291250,-0.313366,0.588428,-0.765997
4434683875,157.769440,-6.185666,7.145403,-0.312084,0.542772,-0.810676
4434703904,155.674286,-4.534686,5.871897,-0.313062,0.500301,-0.837012
4434723933,153.176788,-3.913931,5.448461,-0.294084,0.439408,-0.864838
4434743963,150.772034,-3.012393,4.916563,-0.308686,0.404981,-0.881370
4434763993,148.734177,-1.977239,3.951540,-0.301997,0.365864,-0.897234
4434784023,146.540405,-1.525853,3.438688,-0.292162,0.318358,-0.914859
4434804052,143.940247,-0.579747,2.269423,-0.298716,0.233960,-0.946147
4434824082,139.766037,-0.656823,2.199813,-0.290790,0.195210,-0.948020
4434844111,141.810013,-1.919919,1.028598,-0.287499,0.407921,-0.829782
4434864140,150.249054,-1.864900,3.526731,-0.308930,0.331759,-0.898940
4434884170,152.879669,-1.916920,5.787909,-0.306137,0.101911,-0.990032
4434904200,150.421173,-0.869332,5.595953,-0.327782,0.014386,-1.015660
4434924229,147.043503,0.067625,5.010213,-0.302693,-0.039570,-0.989733
4434944257,144.090775,0.437599,3.989675,-0.281722,-0.056493,-0.968277
4434964286,143.126648,0.181341,3.225568,-0.299516,-0.036941,-0.959439
4434984316,144.233246,0.553390,2.426857,-0.300656,-0.044857,-0.959804
4435004345,146.316315,0.511913,2.428213,-0.311569,-0.109308,-0.970346
4435024375,147.571091,1.177608,3.173859,-0.310528,-0.155107,-0.958885
4435044404,149.416290,1.277223,4.015529,-0.293800,-0.206551,-0.948772
4435064433,151.049332,1.316051,4.554323,-0.295904,-0.246776,-0.936854
4435084463,153.011902,1.656224,4.681311,-0.309668,-0.293145,-0.936867
4435124522,157.037552,1.967452,3.975508,-0.307013,-0.402379,-0.888901
4435144551,158.049530,1.854284,3.605424,-0.298125,-0.472670,-0.856084
4435164581,158.751678,1.587955,2.470684,-0.322053,-0.527093,-0.854238
4435184610,158.578888,1.571460,1.818677,-0.306435,-0.574867,-0.800380
4435204641,158.428925,1.058028,0.556703,-0.317471,-0.622609,-0.754806
4435224670,157.646286,0.618360,-0.137538,-0.307725,-0.655585,-0.701911
4435244700,156.725235,0.601420,0.165443,-0.305245,-0.679685,-0.679727
4435264729,157.249924,1.034232,0.677647,-0.306156,-0.695895,-0.663641
4435284759,158.908432,2.132669,1.723139,-0.299231,-0.703048,-0.662682
4435304789,162.642029,2.800231,2.401729,-0.310358,-0.738836,-0.652330
4435324818,166.239212,2.772554,2.100416,-0.313738,-0.802218,-0.604037
4435344847,168.582306,2.170186,0.954126,-0.327913,-0.868719,-0.540338
4435364877,169.959778,1.580619,-0.169992,-0.314888,-0.884278,-0.462762
4435384904,170.747513,0.310682,-0.826174,-0.310898,-0.881370,-0.402964
4435404934,172.074936,-0.472833,-0.849282,-0.301343,-0.887992,-0.355032
4435424963,173.911118,-1.250719,-0.659892,-0.317589,-0.894484,-0.317560
4435444993,176.282181,-1.606153,-0.761910,-0.305711,-0.907096,-0.275762
4435465022,178.948898,-1.610679,-0.169178,-0.314246,-0.944002,-0.216719
4435485052,181.046356,-1.406779,0.391200,-0.300529,-0.967377,-0.111450
4435505081,181.113007,-1.711062,0.553011,-0.311146,-0.982962,-0.019926
4435525111,179.646179,0.527899,0.829205,-0.290380,-0.970521,0.074560
4435545140,177.354736,0.283172,1.406393,-0.302563,-0.951438,0.142552
4435585199,173.108704,0.706655,0.680483,-0.317728,-0.932441,0.244457
4435605228,171.384872,1.455127,0.976650,-0.307412,-0.908883,0.286381
4435625258,170.412811,2.674317,-0.171374,-0.342375,-0.900174,0.314194
4435645289,170.495483,2.216267,-0.440444,-0.332409,-0.865038,0.354759
4435685347,170.775269,-0.030715,-0.444188,-0.349179,-0.812124,0.452752
4435705377,170.335709,-1.306172,-0.145571,-0.334799,-0.760685,0.520288
4435725406,168.838715,-2.369014,0.598094,-0.332939,-0.717796,0.583434
4435745436,166.662781,-2.547044,0.818417,-0.322996,-0.670323,0.648488
4435765465,163.711899,-2.583961,1.037182,-0.325011,-0.623369,0.705857
4435785494,160.457306,-2.749634,0.968760,-0.318972,-0.578997,0.728733
4435805524,157.752808,-2.362979,0.774653,-0.323537,-0.555028,0.747047
4435825552,155.516617,-2.403707,0.986213,-0.313820,-0.508698,0.773744
4435845582,153.173187,-2.450690,1.432819,-0.326469,-0.462398,0.814045
4435865611,151.041779,-2.505567,2.129803,-0.309711,-0.464663,0.809640
4435885641,152.544113,-1.875985,3.846382,-0.294467,-0.492019,0.751207
4435905670,156.177567,-0.901049,0.693377,-0.307077,-0.461408,0.810991
4435925699,156.552917,0.102923,-1.217980,-0.330125,-0.288497,0.940940
4435945729,152.502029,-0.756029,-0.454516,-0.330781,-0.125182,0.958051
4435965758,145.980469,-1.059610,-1.410466,-0.310756,-0.082454,0.950829
4435985788,141.398956,-0.656294,-1.870995,-0.312414,-0.111820,0.927433
4436005817,139.685959,-0.033506,-2.718667,-0.300449,-0.152841,0.904242
4436045876,142.611389,0.839151,-5.711930,-0.332350,-0.112558,0.918886
4436065906,144.607773,0.357956,-5.320237,-0.329826,-0.055699,0.928308
4436085936,145.454849,0.059804,-6.636612,-0.316097,0.022134,0.921583
4436105966,145.654480,-0.271910,-7.634568,-0.321973,0.081399,0.917745
4436125995,145.981689,-0.724890,-8.275085,-0.330958,0.119043,0.922968
4436146024,146.208527,-1.351591,-8.671566,-0.338755,0.154934,0.915231
4436166054,146.624344,-1.962874,-8.711725,-0.332375,0.217006,0.901027
4436186083,146.683075,-2.503711,-8.737485,-0.333960,0.257415,0.892885
4436206113,146.854431,-3.334183,-8.700099,-0.332183,0.314348,0.874634
4436226142,146.911957,-3.598630,-8.023044,-0.334214,0.359644,0.856578
4436246172,146.817322,-3.648179,-7.059745,-0.331635,0.396398,0.830120
4436266200,146.632889,-3.866846,-6.731968,-0.316967,0.454351,0.794924
4436286229,145.842148,-4.275389,-7.236921,-0.310199,0.487177,0.765850
4436306259,145.614563,-5.268348,-8.616220,-0.317361,0.518315,0.744385
4436326288,145.469467,-7.024888,-10.580473,-0.343728,0.542583,0.734595
4436346317,146.177429,-9.460047,-11.545359,-0.358326,0.589454,0.725480
4436366347,146.793533,-10.632903,-10.761838,-0.352533,0.652194,0.691006
4436386376,146.649063,-11.854961,-9.963106,-0.329367,0.674639,0.659546
4436406406,147.329330,-11.785685,-8.659237,-0.343775,0.682118,0.626241
4436426435,148.467270,-11.284689,-7.275366,-0.326424,0.669305,0.602303
4436446464,151.082367,-10.617950,-6.339519,-0.318816,0.680173,0.573496
4436466494,154.134094,-9.108432,-5.349879,-0.315177,0.702704,0.548292
4436486523,157.419693,-8.370272,-4.755501,-0.308062,0.745286,0.501420
4436506553,159.792206,-7.626539,-3.941731,-0.322571,0.800486,0.438063
4436526584,161.457504,-6.672556,-2.834366,-0.318976,0.850080,0.363902
4436586672,159.497482,-7.596116,-2.145169,-0.312322,0.936824,0.162962
4436606702,158.398804,-8.197853,-1.731214,-0.316749,0.943612,0.112285
4436626731,157.132385,-8.813467,-1.180745,-0.307068,0.942900,0.067519
4436646761,156.486374,-8.344059,-0.684580,-0.314982,0.942509,0.033425
4436666790,156.115219,-7.678535,-0.288495,-0.312141,0.946553,-0.007208
4436686818,156.010422,-6.823598,0.265352,-0.316205,0.937827,-0.053276
4436706847,156.212524,-5.315789,0.783537,-0.317268,0.915868,-0.082345
4436726877,156.904068,-3.523036,0.791565,-0.291605,0.917363,-0.132126
4436746906,157.564621,-2.042880,0.597486,-0.305099,0.916614,-0.192789
4436766936,157.951202,-0.545746,0.494117,-0.301012,0.906727,-0.267218
4436786965,157.314850,-0.009665,0.458980,-0.288241,0.891686,-0.341919
4436806995,155.596130,-0.282931,0.240562,-0.290656,0.884907,-0.411313
4436827024,153.669128,-1.010594,0.382218,-0.280194,0.849655,-0.469441
4436847053,151.240112,-1.697186,0.629436,-0.290763,0.821950,-0.502826
4436867083,149.550049,-2.091092,0.798732,-0.293645,0.805304,-0.535162
4436887112,147.860321,-2.240741,1.170695,-0.289507,0.775056,-0.569701
4436907142,146.683731,-1.869535,1.053278,-0.298935,0.742266,-0.591246
4436927171,146.070938,-1.158563,1.001519,-0.298771,0.715434,-0.613950
4436947202,145.640060,-0.684921,0.830528,-0.302321,0.698676,-0.673321
4436967231,144.563538,-0.200833,0.484747,-0.288366,0.645419,-0.724803
4436987261,142.275833,0.077993,0.572285,-0.310167,0.598807,-0.768497
4437007290,140.112885,0.620504,0.043519,-0.289297,0.571304,-0.791874
4437027320,138.363571,1.478732,-1.018446,-0.257667,0.554439,-0.807584
4437047349,138.895538,1.690064,-2.983730,-0.303160,0.581431,-0.748276
4437067379,143.263428,2.771234,-5.075777,-0.257301,0.568308,-0.749113
4437087408,146.513031,1.420977,-5.366152,-0.247975,0.477355,-0.829411
4437107437,146.483566,-0.047125,-2.851743,-0.321430,0.367207,-0.919630
4437127465,143.553101,-0.097009,-1.927724,-0.295912,0.268606,-0.970522
4437147495,138.818848,-0.089559,-0.375743,-0.304126,0.214246,-0.980744
4437167524,134.526886,0.556151,-0.732017,-0.290583,0.187721,-0.976296
4437187554,132.390045,0.636683,-0.521427,-0.297703,0.230043,-0.931378
4437207583,133.461304,0.685284,-0.225615,-0.286803,0.232363,-0.919037
4437227613,136.093521,0.509212,-0.905254,-0.296035,0.207232,-0.926449
4437247642,138.883911,0.394950,-1.062170,-0.292265,0.151899,-0.954561
4437267672,140.896912,0.118596,-0.846577,-0.286379,0.079408,-0.963170
4437287701,141.756302,0.029707,-1.027386,-0.288326,0.012076,-0.973593
4437307730,141.505371,0.053998,-0.989800,-0.293865,-0.047894,-0.977433
4437327760,140.788849,-0.207851,-0.760485,-0.284966,-0.116353,-0.962036
4437347789,140.271820,-0.136278,-0.662768,-0.300863,-0.137335,-0.970979
4437367819,140.622223,-0.123546,-0.852259,-0.299276,-0.163775,-0.968276
4437387849,141.579956,-0.158937,-0.813588,-0.291421,-0.200347,-0.952967
4437407879,143.001541,-0.433838,-1.098712,-0.295914,-0.237446,-0.943615
4437427909,144.697586,-0.489252,-1.324890,-0.294975,-0.290425,-0.934686
4437447938,145.426514,-0.729097,-1.330106,-0.295576,-0.367205,-0.919338
4437467967,145.167969,-0.819398,-1.428040,-0.297688,-0.430677,-0.888372
4437487997,144.163071,-0.889175,-1.124656,-0.285930,-0.475221,-0.853354
4437508026,143.180298,-0.950720,-0.601449,-0.291499,-0.509286,-0.831849
4437528056,142.638824,-1.083743,-0.266981,-0.286805,-0.532908,-0.800129
4437548085,142.805069,-0.686123,0.533465,-0.289055,-0.550918,-0.786273
4437568113,143.814133,-0.758089,1.095633,-0.297680,-0.576470,-0.768756
4437588143,145.305115,-0.178263,1.576741,-0.307408,-0.616863,-0.751212
4437608172,146.849335,-0.026775,1.523140,-0.311741,-0.678213,-0.722453
4437628202,147.871704,0.239337,0.778354,-0.328348,-0.717905,-0.676895
4437648231,148.337555,-0.254419,-0.453159,-0.327751,-0.762173,-0.630461
4437668260,148.010818,-0.971360,-1.395061,-0.318052,-0.791646,-0.584655
4437688290,147.768036,-0.955308,-1.531792,-0.309331,-0.797815,-0.535363
4437708319,148.199280,-1.459882,-1.504600,-0.301643,-0.811941,-0.510811
4437728349,149.330322,-1.655119,-1.191547,-0.297497,-0.825535,-0.480103
4437748378,150.901917,-1.821708,-0.719298,-0.298394,-0.858385,-0.437513
4437768407,151.926697,-1.917202,-0.338895,-0.299125,-0.895885,-0.378531
4437788437,152.555878,-1.972137,0.162290,-0.292611,-0.916596,-0.316628
4437808466,152.655396,-1.438325,0.612782,-0.294155,-0.923430,-0.267327
4437828497,152.899551,-0.958942,0.950070,-0.303976,-0.942335,-0.216719
4437848527,152.976303,-0.707885,1.031403,-0.322403,-0.956671,-0.159362
4437868556,152.923798,-0.731256,0.788946,-0.316781,-0.959713,-0.096306
4437888586,152.374832,-1.292371,0.565929,-0.322386,-0.963027,-0.052790
4437908615,151.993271,-1.671084,0.523431,-0.321089,-0.959354,-0.012018
4437928645,151.870773,-1.998218,0.382059,-0.325974,-0.961131,0.032621
4437948674,151.702621,-2.218089,0.376241,-0.322873,-0.956938,0.091777
4437968703,151.283997,-2.261262,0.459805,-0.314840,-0.939650,0.149217
4437988732,150.217300,-2.666030,0.644658,-0.317920,-0.937034,0.219762
4438008761,148.855408,-2.550831,1.067631,-0.312381,-0.913386,0.282789
4438028790,147.084488,-2.366234,1.110717,-0.316413,-0.886685,0.332178
4438048820,145.049866,-1.701141,1.020746,-0.312714,-0.866898,0.371769
4438068849,143.509888,-1.092661,0.719189,-0.318451,-0.853161,0.396543
4438088879,142.619995,-1.003508,0.930310,-0.323754,-0.835346,0.424466
4438108908,141.857285,-1.532053,1.002618,-0.328279,-0.814050,0.479731
4438128938,140.798386,-2.051698,0.991305,-0.328051,-0.775444,0.529208
4438148967,139.321365,-2.385737,1.190530,-0.327395,-0.745298,0.576423
4438168996,137.465134,-2.573504,1.282194,-0.324591,-0.709138,0.605104
4438189026,135.914536,-2.321137,1.453714,-0.319297,-0.686583,0.636804
4438209055,134.339737,-2.418800,1.620579,-0.314351,-0.654299,0.671965
4438229085,132.686218,-1.787265,1.205043,-0.322525,-0.618341,0.700101
4438249116,131.373428,-1.309004,1.018422,-0.323748,-0.580714,0.731469
4438269145,129.915817,-1.211752,0.478571,-0.320840,-0.547514,0.752182
4438289174,128.192261,-0.807533,0.262044,-0.319570,-0.509252,0.781223
4438309204,126.483177,-0.723664,-0.126174,-0.318754,-0.471168,0.810163
4438329233,124.744904,-0.365724,-0.547036,-0.321463,-0.430934,0.833315
4438349263,122.869324,-0.014236,-0.839014,-0.322203,-0.403044,0.846798
4438369293,121.236649,0.038273,-1.378574,-0.320004,-0.374614,0.858417
4438389322,120.249840,0.141254,-1.736275,-0.320269,-0.353772,0.861527
