Timestamp (us),Gyroscope X (deg/s),Gyroscope Y (deg/s),Gyroscope Z (deg/s),Accelerometer X (g),Accelerometer Y (g),Accelerometer Z (g)
7375073668,0.716579,0.404901,0.114946,-0.997342,0.013094,0.057574
7375093714,0.663431,0.542101,0.130803,-0.997607,0.014914,0.058211
7375113760,0.991637,0.473533,0.101738,-0.999412,0.013640,0.059243
7375133806,1.253055,0.527134,0.180543,-0.999163,0.012728,0.057878
7375153850,1.251410,0.542161,0.088828,-1.004742,0.016805,0.052883
7375173895,1.029190,0.519177,0.062650,-1.003225,0.020170,0.051218
7375193941,1.188659,0.389532,0.006498,-1.000455,0.021806,0.047991
7375213987,0.791827,0.503828,0.044383,-1.000896,0.026529,0.044268
7375234033,0.607896,0.366557,0.025485,-1.002884,0.025337,0.040492
7375254078,0.439666,0.229344,0.029206,-1.001653,0.025334,0.037929
7375274124,0.309490,0.290246,0.016246,-1.002143,0.022692,0.036035
7375294170,-0.118086,0.107321,0.055718,-1.001501,0.023330,0.036205
7375314216,-0.072853,-0.022296,0.024706,-1.004380,0.028599,0.033976
7375334261,-0.333336,-0.129119,-0.000450,-1.003967,0.028604,0.036510
7375354307,-0.907249,-0.129309,-0.080964,-1.002827,0.030330,0.034128
7375374354,-1.285448,-0.151731,-0.012271,-1.003019,0.029063,0.038400
7375394400,-1.649267,-0.372315,-0.027223,-1.002355,0.026792,0.039572
7375414446,-1.883235,-0.508534,-0.090788,-1.003655,0.025978,0.043227
7375434491,-2.106881,-0.469187,-0.055724,-1.002881,0.020433,0.045220
7375454537,-1.965267,-0.392162,-0.127168,-1.001050,0.015432,0.045106
7375474583,-1.842959,-0.367770,0.031069,-0.998831,0.010343,0.046257
7375494629,-1.533726,-0.397305,-0.020571,-0.998445,0.007980,0.047162
7375514673,-0.940835,-0.236222,0.028585,-0.998430,0.005342,0.047802
7375534719,-0.687561,-0.174828,-0.037690,-0.997264,0.006616,0.046781
7375554764,-0.219169,-0.166519,0.006797,-0.999398,0.006428,0.045002
7375574810,0.131695,-0.029082,-0.053868,-0.997527,0.006435,0.047331
7375594856,0.476657,0.100644,0.030730,-0.997128,0.008886,0.044415
7375614902,0.697004,0.199516,0.033629,-0.999348,0.010063,0.042998
7375634947,1.069628,0.206582,0.033925,-0.999261,0.012429,0.042902
7375654993,1.008228,0.343473,0.164295,-1.000694,0.015059,0.039745
7375675039,1.363182,0.357750,0.088149,-1.003022,0.015688,0.037423
7375695085,1.167190,0.310870,-0.007388,-1.002723,0.018967,0.038956
7375715131,1.431291,0.058918,-0.011748,-1.002748,0.018782,0.037595
7375735178,1.104924,0.180250,-0.127972,-1.001330,0.020972,0.040291
7375755224,1.119567,0.043054,0.002252,-1.001261,0.021243,0.039109
7375775269,0.834683,0.042889,0.030541,-1.002388,0.021603,0.037494
7375795315,0.663758,-0.033449,-0.011776,-1.002627,0.024153,0.039491
7375815361,0.440246,-0.102014,-0.037700,-1.001983,0.021152,0.039575
7375835406,0.149476,-0.116942,-0.001421,-1.000392,0.020248,0.041547
7375855452,-0.050466,-0.154858,-0.050881,-1.001131,0.022794,0.041283
7375875496,0.102391,-0.184960,-0.053589,-0.998972,0.024167,0.044421
7375895542,-0.241029,-0.169238,-0.023970,-1.003148,0.024618,0.045853
7375915588,-0.410788,-0.199637,-0.150255,-1.004669,0.023982,0.047514
7375935634,-0.368961,-0.206404,-0.013169,-1.000070,0.015977,0.043818
7375955679,-0.241821,-0.259624,-0.206274,-1.003013,0.014888,0.047592
7375975725,-0.057416,-0.136988,-0.179276,-1.003349,0.016800,0.049228
7375995771,-0.209092,-0.311685,-0.121812,-0.997414,0.018628,0.049215
7376015817,-0.260059,-0.196507,-0.021623,-0.996879,0.025005,0.053825
7376035862,-0.494253,-0.127329,0.081990,-1.003092,0.028180,0.053925
7376055908,-1.182946,-0.325486,-0.049252,-1.001999,0.036188,0.054257
7376075954,-1.349029,-0.385661,-0.106678,-0.999194,0.019986,0.046973
7376096001,-1.656983,-0.255252,-0.016844,-1.001642,0.027908,0.053266
7376116047,-1.873500,-0.216389,0.033132,-1.004391,0.027267,0.052769
7376136092,-2.122348,-0.208539,-0.053600,-1.001879,0.032552,0.055531
7376156138,-2.446793,-0.527894,-0.107128,-1.001820,0.028827,0.058442
7376176184,-2.553167,-0.526387,-0.020683,-0.988047,-0.023867,0.034692
7376196230,-0.727469,0.077009,0.056644,-0.993604,-0.013485,0.045844
7376216276,0.109785,0.686471,0.190766,-0.999670,-0.029866,0.047700
7376236320,1.983886,0.593465,-0.051748,-0.988118,-0.049778,0.043905
7376256366,3.996539,1.012613,0.198139,-0.985972,-0.009466,0.048794
7376276412,5.129626,1.173137,0.274957,-0.995341,0.001251,0.046667
7376296457,5.628001,1.493505,0.340635,-0.999036,0.014798,0.045345
7376316503,5.483221,1.783103,0.357763,-1.003033,0.032801,0.042751
7376336549,4.984921,1.592290,0.291653,-1.017305,0.044514,0.042249
7376356595,3.682142,1.149576,0.142653,-1.019995,0.025608,0.053492
7376376640,2.542731,0.302399,-0.260339,-1.002504,0.059912,0.043423
7376396686,1.260901,-0.124335,-0.096499,-1.002903,0.070488,0.056848
7376416732,-0.603567,-0.238993,-0.029373,-1.001576,0.065126,0.059103
7376436777,-2.275584,-0.368670,0.110483,-1.000889,0.077241,0.067241
7376476870,-6.060717,-0.484042,0.092617,-1.005334,0.090100,0.089082
7376496916,-9.029240,-1.041370,0.006887,-1.021715,0.089453,0.097170
7376516962,-10.930435,-2.505634,-0.218798,-0.999417,-0.028213,0.056407
7376537008,-6.491664,-1.734253,-0.017122,-0.947299,-0.176981,-0.003421
7376557054,0.672864,0.700578,0.760366,-0.966999,-0.110573,0.011964
7376577100,4.580063,1.759878,0.306592,-1.006867,-0.043467,-0.025049
7376597144,8.327528,1.903810,-0.492541,-1.004296,-0.026963,-0.057346
7376617190,9.571534,1.920081,-0.195794,-1.013388,0.018624,-0.096029
7376637235,9.651910,0.281247,-0.344726,-1.069604,-0.039764,-0.092069
7376657281,11.309795,-2.105624,-1.178943,-1.055711,-0.069304,-0.088535
7376677327,13.277111,-3.569885,-1.846483,-1.026109,-0.112690,-0.056832
7376717418,25.502869,-3.338997,-2.283160,-0.976646,-0.219117,0.012037
7376737464,34.909382,-2.010272,-2.217942,-0.957410,-0.237272,0.018638
7376757510,44.955330,-0.551205,-1.890473,-0.976966,-0.252561,0.031796
7376777555,55.195614,0.129070,-2.206063,-1.009539,-0.298420,0.001745
7376797601,66.312195,-0.593941,-3.061246,-1.043705,-0.324343,-0.019507
7376817648,77.580757,-1.996234,-4.367963,-1.024181,-0.340909,-0.041235
7376837694,89.235428,-3.137846,-5.048799,-1.008914,-0.288861,-0.047029
7376857740,99.951767,-3.722159,-5.208946,-1.008346,-0.254717,-0.082771
7376877786,110.570450,-3.598573,-5.721062,-1.015282,-0.244471,-0.096377
7376897831,120.856422,-3.810882,-6.439566,-0.997034,-0.257110,-0.108014
7376917877,131.340073,-3.077368,-6.828828,-0.993011,-0.257427,-0.136949
7376937923,141.598175,-2.161521,-7.435925,-0.983953,-0.226834,-0.129439
7376957967,149.309982,-2.134988,-6.752736,-1.005537,-0.155481,-0.145892
7376978013,155.628204,-2.683591,-7.431335,-1.081014,-0.151983,-0.215236
7376998059,162.951202,-4.474625,-8.316332,-1.035849,-0.140299,-0.178262
7377018104,168.651810,-5.929001,-8.445030,-1.043607,-0.083042,-0.203552
7377038150,172.743423,-7.857699,-9.167526,-1.061204,0.009905,-0.152389
7377058196,174.021683,-9.390844,-9.882598,-0.988043,0.043237,-0.140801
7377078242,173.378693,-4.985568,-9.655544,-0.981675,-0.038296,-0.210401
7377098287,178.625000,-4.352507,-10.034543,-0.979064,-0.040234,-0.280613
7377118333,183.364700,-4.503744,-10.072519,-1.041828,-0.168895,-0.347503
7377138379,191.652542,-6.972537,-10.851719,-1.056714,-0.178411,-0.313918
7377158425,200.176743,-7.748649,-11.304914,-0.983884,-0.174523,-0.336408
7377178472,207.202377,-5.369342,-11.441522,-1.003621,-0.241717,-0.404134
7377198518,216.506790,-4.300090,-11.518645,-1.058986,-0.141206,-0.417972
7377218563,224.040710,-6.288613,-12.147266,-1.022064,-0.215494,-0.479844
7377238609,232.014404,-7.262007,-12.168845,-1.072910,-0.095469,-0.470734
7377258655,236.284988,-7.796719,-13.189831,-0.947907,-0.102736,-0.517334
7377278700,242.497192,-5.238111,-14.770766,-1.047219,0.012994,-0.530811
7377298746,243.602127,-6.493667,-14.085013,-1.060682,0.014410,-0.542385
7377318792,245.487198,-6.112595,-14.290973,-1.025927,0.058468,-0.503199
7377338837,244.244644,-5.180778,-13.268934,-1.029787,0.052047,-0.582644
7377358882,243.971405,-5.834948,-12.711269,-1.011715,0.016075,-0.619657
7377378928,244.302170,-6.597627,-12.997883,-1.053067,0.054257,-0.547846
7377398974,243.837830,-6.987112,-13.293233,-1.065573,0.043205,-0.562683
7377419020,242.953720,-7.148995,-13.978552,-1.036394,0.069454,-0.558867
7377439065,241.587112,-7.270034,-13.439655,-1.013201,0.095997,-0.538246
7377459111,240.601807,-5.852784,-13.432895,-1.034620,0.097813,-0.574558
7377479157,239.135422,-6.644485,-12.889829,-1.040027,0.094884,-0.580543
7377499203,237.746826,-7.878971,-12.683022,-1.035409,0.128461,-0.527119
7377519249,235.649078,-6.638770,-13.303609,-1.008977,0.108712,-0.502210
7377539294,233.426682,-5.884616,-13.186582,-1.016241,0.091839,-0.520395
7377559341,231.045502,-5.929423,-12.521271,-1.038975,0.147647,-0.477526
7377579387,228.309631,-6.030035,-12.865203,-1.074558,0.107160,-0.502179
7377599433,225.709747,-5.931705,-12.883855,-0.998361,0.139574,-0.445797
7377619479,222.493164,-6.319906,-12.315812,-1.001022,0.100322,-0.468290
7377639524,220.331268,-6.624061,-11.776155,-1.018308,0.165284,-0.397388
7377659570,217.358536,-6.479873,-11.696028,-1.012496,0.110384,-0.426899
7377679616,214.217422,-5.566101,-11.653402,-0.997158,0.118356,-0.407384
7377699660,211.766113,-4.980589,-11.928726,-1.060217,0.160121,-0.401657
7377719706,208.341034,-6.315029,-11.865464,-1.030698,0.098067,-0.380362
7377739752,205.812927,-6.156323,-12.145519,-1.026272,0.144006,-0.385053
7377759797,202.015717,-6.193090,-11.139459,-1.023376,0.143829,-0.332995
7377779843,198.838959,-5.721965,-11.362118,-0.974593,0.091404,-0.335919
7377799889,196.575073,-4.837711,-11.007833,-0.994963,0.126848,-0.338626
7377819935,193.568085,-5.249302,-10.688306,-1.059005,0.113894,-0.306013
7377839980,190.197083,-5.898815,-11.041013,-1.011884,0.088296,-0.313037
7377860026,188.146133,-4.817515,-11.180569,-1.001635,0.089944,-0.263378
7377880072,185.302841,-3.673116,-10.319212,-1.008794,0.076266,-0.275761
7377900117,183.266510,-4.381688,-10.009890,-1.054137,0.051831,-0.269500
7377920165,182.054916,-6.005604,-10.149085,-1.029948,0.063800,-0.259947
7377940211,180.403503,-5.725073,-10.576462,-1.003683,0.033819,-0.259165
7377960256,179.857071,-4.459713,-10.394319,-1.013630,0.057213,-0.242604
7377980302,178.427490,-5.114427,-9.936478,-1.025484,0.025485,-0.272668
7378000348,178.139343,-5.670477,-9.783847,-1.028651,0.012564,-0.271867
7378020393,178.455276,-5.419598,-10.081188,-0.983374,0.005937,-0.249480
7378040439,178.697250,-3.856721,-9.861844,-0.980160,0.024395,-0.257190
7378060484,177.562424,-2.988727,-10.071956,-1.053845,0.038663,-0.308245
7378080529,176.409363,-5.175880,-9.912395,-1.052422,0.080681,-0.263949
7378100575,174.597961,-5.801144,-9.852241,-1.026490,0.025045,-0.263028
7378120621,174.260315,-4.910809,-10.375913,-1.000490,0.022715,-0.264920
7378140666,173.308289,-4.652483,-10.602826,-1.020631,0.025402,-0.272025
7378160712,172.255966,-4.834294,-10.016334,-1.010062,0.017716,-0.254491
7378180758,172.243103,-4.933047,-9.878210,-1.011253,0.028284,-0.244321
7378200804,171.542206,-4.810983,-9.742752,-1.009783,0.005607,-0.259831
7378220850,171.655899,-4.071908,-9.823833,-1.002921,0.021614,-0.267963
7378240896,171.313660,-4.681389,-9.700541,-1.022397,0.002370,-0.279945
7378260941,171.669418,-4.650289,-9.478306,-1.009262,0.016284,-0.241158
7378280989,171.906891,-4.673027,-9.452272,-1.022843,-0.008298,-0.241158
7378301034,172.304367,-3.888039,-9.485522,-1.025846,0.000092,-0.278884
7378321080,172.275574,-5.335677,-9.334955,-1.008554,0.024281,-0.246720
7378361172,168.764374,-4.154700,-9.049154,-0.983076,0.160217,-0.306749
7378381218,163.307816,-3.476619,-8.502327,-1.012835,0.199093,-0.264458
7378401264,156.648468,-3.180190,-8.076078,-1.047001,0.218024,-0.282970
7378421307,150.281738,-4.395212,-8.750844,-1.016580,0.236060,-0.242759
7378441353,142.416641,-4.380757,-8.185637,-0.982450,0.242040,-0.180896
7378461399,135.588226,-1.713567,-7.465985,-1.037590,0.171079,-0.188462
7378481445,132.041870,-3.893758,-7.313498,-1.014835,0.147128,-0.169929
7378501490,127.234711,-3.476646,-7.634246,-1.006444,0.207395,-0.152289
7378521536,121.481491,-2.988955,-6.996973,-1.016020,0.266910,-0.133252
7378541582,114.016258,-3.080782,-6.301627,-1.002800,0.275761,-0.129135
7378561628,106.415428,-2.579981,-6.362124,-0.982431,0.252453,-0.052827
7378581673,98.913338,-1.993429,-5.614831,-0.988592,0.217289,-0.023161
7378601719,91.442429,-1.443902,-4.409533,-0.956620,0.254781,0.008457
7378621765,83.018204,-0.147524,-3.096524,-0.913343,0.125370,-0.107534
7378641812,81.037041,1.732071,-4.057727,-1.109426,0.193615,-0.038582
7378681904,70.171661,0.980313,-4.906553,-0.948023,0.099316,-0.151290
7378701949,68.437096,2.216463,-4.044092,-1.025141,0.151560,-0.071630
7378722001,66.882599,1.661437,-3.309067,-1.024778,0.006825,-0.070942
7378742041,68.429390,1.457396,-2.750010,-1.020477,0.023829,-0.079214
7378762087,68.104904,1.282597,-2.506247,-1.016237,0.035840,-0.081303
7378782131,67.948471,0.352418,-2.668226,-1.032710,0.035159,-0.092731
7378802177,67.363342,-0.539841,-2.860221,-0.999419,0.078229,-0.097546
7378822223,66.543579,-0.791746,-2.942814,-1.010361,0.079380,-0.106167
7378842268,66.417862,-1.134143,-2.694709,-1.008290,0.054261,-0.114149
7378862314,66.510880,-1.271119,-2.619643,-1.012024,0.041659,-0.138665
7378882360,66.798355,-2.117297,-2.759950,-1.018440,0.053814,-0.153645
7378902406,68.075958,-2.467395,-2.707161,-1.023687,-0.050043,-0.181706
7378922451,71.890587,-2.894192,-3.154191,-1.021547,-0.059301,-0.223938
7378942497,76.117386,-2.840888,-3.656666,-1.019613,-0.079040,-0.224301
7378962543,79.765823,-3.457977,-3.985216,-1.025680,-0.034357,-0.262489
7379002636,85.518196,-4.212488,-4.659792,-1.019030,0.035738,-0.293130
7379022682,87.020584,-4.158252,-4.452240,-0.990554,0.097432,-0.256499
7379042727,88.051376,-2.991254,-4.147544,-0.993150,0.138210,-0.241453
7379062773,87.622635,-2.472270,-3.774163,-1.019624,0.146114,-0.225583
7379082819,86.519302,-2.625273,-3.897432,-1.021937,0.172751,-0.181742
7379102865,84.575592,-3.791920,-3.947529,-1.033318,0.211786,-0.167633
7379122910,80.650696,-4.958221,-3.622960,-1.045770,0.249648,-0.147422
7379142956,75.550339,-6.790522,-4.434866,-1.045385,0.247211,-0.136803
7379163000,73.587616,-7.541513,-5.976061,-1.011475,0.158165,-0.155752
7379203092,71.816010,-2.643489,-3.482161,-0.900962,0.114864,-0.090934
7379223138,74.290413,0.407912,-2.478172,-0.971711,0.036355,-0.083879
7379243184,78.739998,0.720502,-2.932343,-1.040451,0.004406,-0.088554
7379263230,84.337112,-0.210613,-4.153502,-1.037154,-0.006523,-0.098487
7379283275,89.190643,-0.454367,-4.659508,-1.003523,0.006638,-0.091911
7379303321,92.443535,-0.673055,-4.041810,-0.998948,0.054618,-0.073913
7379323367,94.221664,-0.642533,-4.229244,-1.000470,0.135891,-0.052689
7379343413,94.447189,-0.985888,-4.431155,-1.004968,0.193929,-0.050258
7379363458,93.395233,-1.366775,-4.241362,-0.997087,0.235678,-0.060901
7379383505,92.331177,-1.724389,-3.875659,-1.002357,0.262348,-0.048056
7379403551,90.458687,-1.778135,-3.831505,-1.006876,0.266184,-0.035549
7379423597,88.124153,-2.304891,-3.952564,-1.021333,0.263821,-0.022408
7379443643,85.901604,-2.199481,-4.246011,-0.999600,0.234234,-0.000307
7379463688,82.948814,-2.344257,-3.897858,-0.984358,0.233180,0.008694
7379483734,79.901772,-1.894999,-3.710323,-1.017101,0.236455,0.035845
7379503780,77.072006,-2.071125,-3.746525,-0.984815,0.211395,0.036516
7379523824,74.624817,-1.538422,-3.792510,-0.973165,0.248943,0.065757
7379543870,70.695923,-1.149701,-3.320212,-0.990882,0.249043,0.085395
7379563916,66.576744,-0.952422,-3.218015,-0.999766,0.323022,0.103307
7379583962,60.853230,-1.121179,-3.029979,-1.013244,0.314314,0.129241
7379604007,55.219498,-1.297788,-2.950639,-0.991412,0.343537,0.174844
7379624053,47.093815,-1.565436,-2.410003,-0.993039,0.351858,0.200548
7379644099,41.552956,-2.266685,-1.826383,-0.954371,0.019538,0.065001
7379664145,47.458530,-1.073966,-0.859860,-0.927420,-0.187486,-0.044774
7379684191,54.776535,1.066763,1.229958,-0.929081,0.044870,-0.036145
7379704236,56.008030,0.519170,-1.688225,-1.225402,-0.007903,-0.054334
7379724282,59.643082,-3.947251,-5.587541,-1.085237,0.023899,-0.088821
7379744329,58.886875,-4.708400,-5.096562,-0.965616,0.125266,-0.123437
7379764375,58.842548,-4.942457,-4.155025,-1.015421,0.065464,-0.152717
7379784421,60.740459,-5.940980,-4.448338,-1.043183,0.056400,-0.162668
7379804466,61.860813,-6.346017,-5.057120,-0.978744,0.104420,-0.172017
7379824512,62.232761,-4.614468,-4.420579,-0.944164,0.157103,-0.195116
7379844558,61.865173,-3.140941,-3.233927,-0.984129,0.122700,-0.170684
7379864604,64.039925,-3.010381,-3.054959,-1.020495,0.080819,-0.159283
7379884649,65.621017,-3.621778,-3.970011,-1.050648,0.104853,-0.124313
7379904694,65.937546,-5.307376,-4.589499,-1.092051,0.122426,-0.080790
7379924740,66.585434,-8.251890,-5.868391,-1.006568,0.067953,0.119278
7379944785,68.884712,-2.121826,-4.932384,-0.934604,-0.042771,-0.155640
7379964831,74.902359,-2.629742,-4.474352,-0.986617,0.214896,-0.093180
7379984877,74.935440,-3.307620,-4.312266,-0.892541,0.150310,-0.117008
7380004923,75.755409,-0.877263,-4.718341,-0.981051,0.252183,-0.052306
7380024968,75.911827,-0.686258,-4.530976,-1.084820,0.133692,-0.147381
7380045014,78.192673,-2.836259,-5.171751,-1.065245,0.135645,-0.087441
7380065060,79.057228,-3.018842,-5.134429,-0.984862,0.118063,-0.064091
7380085106,79.474968,-2.217964,-4.893033,-0.959973,0.170336,-0.053709
7380105152,78.460884,-1.051959,-4.777899,-0.943117,0.197884,-0.025084
7380125199,77.443253,-0.426466,-4.416369,-0.984142,0.251107,0.011565
7380145245,75.445885,0.404376,-4.120569,-0.987648,0.234185,0.013560
7380165290,74.390999,1.974906,-3.738538,-0.954472,0.220414,0.018554
7380185336,73.792076,4.125335,-3.107477,-0.986035,0.208544,0.020020
7380205382,72.891876,4.796937,-2.595551,-0.983609,0.214159,0.003629
7380225428,72.567902,4.065920,-2.304097,-1.045155,0.166570,-0.003140
7380245473,73.201973,1.489355,-2.666971,-1.022942,0.170360,0.012543
7380265518,73.442314,-0.722032,-3.252664,-1.082924,0.181631,0.005104
7380285563,73.533424,-4.366593,-4.006444,-1.056304,0.194155,0.017702
7380305609,73.354034,-6.037939,-4.990788,-0.990889,0.216064,0.058670
7380325655,72.747543,-4.841037,-4.746119,-0.961013,0.201824,0.058185
7380345701,72.025902,-2.377265,-3.724005,-0.954298,0.166142,0.092534
7380365747,72.452553,-0.097875,-3.464780,-0.935175,0.147084,0.102770
7380385792,72.800705,1.808824,-2.881850,-0.951370,0.131738,0.080922
7380405838,72.818626,3.608561,-2.376213,-0.972352,0.122820,0.096363
7380425884,73.490768,2.908572,-1.966645,-1.046930,0.149308,0.115202
7380445930,72.299355,0.590853,-2.233827,-1.029286,0.212610,0.144208
7380465975,72.762291,-1.973873,-4.030012,-1.045809,0.251825,0.161763
7380486022,69.248253,-4.496747,-3.770030,-0.991693,0.141576,0.069610
7380506068,71.800987,-2.738555,-1.769868,-0.925693,0.063271,-0.024886
7380526114,75.391602,-2.084612,-2.804541,-1.061165,0.140981,0.047375
7380546160,73.199486,-2.079269,-3.526168,-0.960261,0.197839,0.015332
7380566206,72.749069,-0.217954,-2.705989,-0.929522,0.098317,-0.061190
7380586251,71.967674,1.193386,-1.992512,-1.034452,0.216957,-0.018657
7380606297,70.521629,-0.736064,-2.401233,-1.058149,0.102302,-0.120187
7380626343,72.779556,-1.974603,-4.343645,-1.137874,0.334194,-0.051493
7380646387,67.855438,-6.906301,-4.178187,-0.939407,0.195871,-0.138888
7380666433,64.526207,-4.335595,-2.754324,-0.943979,0.279917,-0.090202
7380686479,59.996490,-4.489649,-2.933367,-1.000013,0.260890,-0.103286
7380706524,57.173534,-2.560686,-2.243130,-0.959536,0.195742,-0.092067
7380726570,54.857746,0.281198,-2.291711,-1.011937,0.179863,-0.076895
7380746616,52.063427,0.661996,-2.078287,-1.019113,0.264179,-0.079273
7380766662,48.504364,-0.369176,-2.670599,-1.009686,0.184014,-0.097819
7380786708,46.450424,-2.007735,-2.457177,-1.042594,0.325725,-0.032043
7380806753,41.750912,-3.944206,-2.237277,-0.979765,0.232468,-0.038587
7380826799,39.209293,-4.432009,-1.972375,-1.023007,0.230218,-0.040660
7380846845,37.968613,-4.037342,-2.522723,-0.991485,0.124412,-0.017602
7380866892,37.910034,-2.932072,-2.418285,-1.000726,0.118640,-0.033321
7380886938,36.527081,-2.689461,-2.797255,-0.998565,0.126925,-0.083117
7380906984,34.027905,-3.560698,-3.555854,-1.050361,0.179793,-0.084954
7380927030,28.490477,-4.371161,-4.049381,-1.041938,0.271062,-0.078260
7380947075,21.408829,-4.838099,-4.116732,-1.029656,0.324714,-0.048420
7380967121,14.794879,-5.439925,-3.260453,-0.985245,0.226677,-0.068078
7380987167,10.888111,-5.028443,-2.834508,-0.975310,0.129591,0.017154
7381007211,9.648115,-0.772837,-1.365097,-0.955271,-0.010094,-0.023624
7381027257,13.945486,-1.265967,-0.904300,-1.030195,-0.086457,-0.034475
7381047302,15.670509,-1.281129,-1.067627,-0.922142,0.060210,0.042416
7381067348,15.390893,-0.061524,-0.928715,-0.875045,0.089518,-0.040317
7381087394,11.569794,3.840297,-0.538978,-0.945104,0.225675,0.002137
7381107440,5.248891,4.060878,0.003220,-1.123814,0.241281,-0.028430
7381127485,-2.451564,0.987686,0.055892,-1.094115,0.238125,-0.037646
7381147531,-7.783734,-0.066726,-0.494296,-1.028064,0.138045,0.005331
7381167577,-12.091937,-0.729328,0.179899,-0.995697,0.086963,0.003865
7381187623,-16.500803,-0.438586,1.173814,-0.956753,0.113069,0.021767
7381207669,-19.367271,1.290559,1.154905,-0.928428,0.057026,0.047975
7381227716,-22.960365,3.316668,1.110901,-0.921166,0.035677,0.058780
7381247762,-26.342304,6.206528,2.145009,-0.930879,0.030193,0.051965
7381267807,-29.258902,7.978168,4.006730,-1.028590,0.058124,0.030708
7381287853,-33.265095,8.175257,4.015037,-1.017840,0.005839,0.035695
7381307899,-36.246147,7.038148,3.679312,-1.059584,0.086223,0.050344
7381327945,-40.662342,3.385247,3.135284,-1.068401,0.036629,0.049578
7381347991,-43.690399,-0.221011,2.823975,-1.051436,0.045519,0.073149
7381368035,-47.461796,-0.841507,1.890550,-1.005661,0.006169,0.110288
7381388081,-52.845505,-0.566762,2.674191,-0.997917,0.136996,0.161046
7381408126,-59.884361,0.057603,3.244258,-0.978520,-0.010563,0.143894
7381428172,-63.100670,2.542303,3.726316,-0.924955,-0.028743,0.159442
7381448218,-67.287918,5.036358,5.060102,-0.948447,-0.114370,0.114323
7381468264,-68.265854,6.050687,5.488340,-1.017366,-0.104541,0.122200
7381488310,-68.411812,6.254325,4.596445,-1.012762,-0.142553,0.126633
7381508355,-67.834335,4.889972,4.444594,-1.060696,-0.204835,0.133635
7381528401,-63.752388,1.047315,3.254887,-1.009305,-0.128563,0.112208
7381548447,-64.470596,0.292775,3.309542,-1.036875,-0.256929,0.080756
7381568493,-63.489674,-1.064082,3.058141,-0.988728,-0.129748,0.093976
7381588540,-61.867470,-0.286209,3.100488,-1.011183,-0.208191,0.046195
7381608586,-60.261520,0.606833,3.509557,-1.004048,-0.168323,0.000619
7381628631,-60.934193,2.320259,3.035494,-0.983915,0.022664,0.004679
7381648677,-64.867027,2.676992,2.866093,-1.031338,0.078238,-0.065684
7381668723,-70.029938,1.358033,3.230476,-1.085444,0.020063,0.006868
7381688768,-70.640259,-1.920685,2.573145,-1.042513,-0.008280,-0.058087
7381708814,-71.616867,-3.911569,1.910993,-1.025732,-0.091100,-0.040262
7381728859,-71.408447,-6.326903,2.106026,-1.062792,-0.162727,0.024668
7381748904,-70.354355,-5.923870,1.610460,-0.951969,-0.308026,0.026742
7381768950,-68.054741,-3.062886,2.679607,-0.828731,-0.158105,0.027206
7381788996,-69.903305,2.884676,4.262174,-0.887245,-0.038590,-0.041258
7381809042,-75.455826,6.049389,5.757765,-1.033706,-0.005278,-0.065596
7381829088,-79.632317,6.008939,5.235266,-1.076326,0.062328,-0.074059
7381849134,-85.815224,3.657584,4.193927,-1.059318,0.085172,-0.134844
7381869179,-92.988708,0.463524,4.641773,-1.064512,0.110055,-0.103479
7381889225,-99.794914,-1.063535,4.198175,-1.027400,-0.032597,-0.086536
7381929316,-109.449669,0.057306,5.543286,-0.982338,-0.146313,-0.072501
7381949363,-113.238037,2.062943,6.542377,-0.919054,-0.164791,-0.079359
7381969410,-117.587547,5.721654,7.317608,-0.932092,-0.153543,-0.087144
7381989455,-122.004211,7.917458,8.236559,-0.974353,-0.125332,-0.098362
7382009501,-126.119034,7.772388,8.591978,-1.039967,-0.138307,-0.076434
7382029547,-129.217422,7.236909,8.088416,-1.051681,-0.232163,-0.102857
7382049593,-130.703354,4.637635,8.034206,-1.083838,-0.122856,-0.047752
7382069638,-132.558258,2.279874,7.015886,-1.031737,-0.257621,-0.059037
7382109728,-133.633621,1.304535,7.200470,-1.057962,-0.254300,-0.010756
7382129774,-131.482437,2.027408,6.476233,-0.951550,-0.419933,-0.084282
7382149820,-125.805542,4.088877,7.451941,-0.951874,-0.367416,-0.069113
7382169866,-121.786804,5.339297,7.239893,-1.046753,-0.379198,-0.068474
7382189911,-116.107475,3.719151,4.666896,-1.063508,-0.360217,-0.020743
7382209957,-111.211479,2.012855,4.447669,-0.998211,-0.344647,-0.015619
7382230003,-106.414940,1.779233,5.020180,-0.986609,-0.348775,-0.044950
7382250049,-101.413414,1.093894,4.680885,-1.035038,-0.341228,-0.006554
7382270094,-96.496979,0.460755,3.861656,-1.025824,-0.371828,-0.033349
7382290140,-90.978981,0.423827,3.731782,-0.996768,-0.281710,0.026191
7382310187,-86.463432,0.837114,3.963727,-0.986935,-0.270388,-0.062322
7382330233,-83.260307,1.638041,3.906548,-1.019892,-0.254123,-0.045810
7382350279,-79.431625,1.349246,3.810292,-0.990530,-0.221860,-0.036742
7382370325,-75.710449,2.317716,3.643164,-1.007713,-0.233774,-0.072105
7382390370,-72.515480,2.578523,4.000580,-0.999259,-0.244143,-0.026298
7382410416,-68.216599,3.059008,3.663397,-1.025111,-0.273528,-0.057399
7382430462,-65.256325,2.328419,3.761216,-1.038010,-0.244782,-0.046969
7382450506,-61.448296,1.566462,3.384203,-0.982725,-0.220301,-0.087985
7382490598,-54.761738,3.612019,3.958301,-1.037564,-0.211335,-0.064915
7382510644,-51.619637,3.794709,3.507009,-0.980104,-0.207926,-0.088686
7382530689,-47.582203,4.519773,3.502666,-0.977304,-0.222912,-0.076726
7382550735,-43.121284,6.335045,3.624023,-1.008923,-0.218302,-0.067480
7382570781,-37.653149,5.201250,3.735653,-1.013786,-0.249296,-0.099753
7382590827,-31.636791,4.157758,3.293803,-1.093695,-0.239196,-0.083701
7382610872,-25.309864,0.673480,1.929436,-1.096434,-0.186257,-0.085195
7382630918,-20.988340,-3.833735,0.057203,-1.087297,-0.140783,-0.048208
7382650964,-17.149178,-7.188511,-1.045361,-1.053347,-0.107981,0.005716
7382671011,-15.973506,-8.163833,-1.110776,-0.994564,-0.066004,0.030425
7382691057,-14.374110,-6.813430,-0.657254,-0.864617,-0.160570,0.051968
7382711103,-12.473896,2.573195,1.353099,-0.872499,-0.032112,0.009860
7382731149,-8.887054,5.807281,2.136216,-0.930207,-0.197170,-0.013846
7382751195,-4.554088,6.237863,3.265696,-1.063658,-0.104597,-0.027520
7382771240,1.210518,3.933053,1.205300,-1.093956,-0.177043,-0.020801
7382791286,9.219288,0.432960,-0.596646,-1.058114,-0.206258,-0.006113
7382811330,16.572521,-0.854175,-1.094192,-0.968570,-0.158655,0.037216
7382831376,23.191116,0.359866,-0.867514,-0.969703,-0.120323,0.057052
7382851422,29.045330,1.718515,-0.634127,-0.952206,-0.069732,0.048318
7382871468,33.485119,4.021716,-0.429929,-0.966866,-0.023911,0.043863
7382891513,36.753891,4.954772,0.603906,-0.995015,0.029262,0.041440
7382911559,40.073196,4.266982,-0.589147,-1.092522,0.066196,0.070547
7382931605,41.700367,0.475961,-2.228088,-1.047056,0.118254,0.096828
7382951650,42.582432,-1.824783,-1.993017,-0.999697,0.055581,0.061266
7382971696,43.780148,-2.791601,-1.684457,-0.994921,0.132439,0.101453
7382991742,43.974583,-2.242459,-1.521946,-0.995502,0.186702,0.127335
7383011788,43.340416,-0.649921,-1.553150,-1.008428,0.111289,0.139663
7383031835,43.352509,-0.939906,-1.720531,-0.961012,0.168331,0.153375
7383051881,41.749111,0.561162,-1.648567,-0.973685,0.173748,0.140419
7383071927,38.135216,-0.558664,-1.039813,-1.039410,0.240829,0.214777
7383091972,33.467209,-2.283622,-1.623580,-1.039003,0.258427,0.237526
7383112018,27.450380,-5.903837,-1.043930,-0.884266,-0.033439,0.093305
7383132064,38.149799,-0.409998,0.609963,-0.936528,-0.015760,0.049868
7383152110,36.770580,0.816123,0.403400,-1.039597,0.004125,0.010379
7383172154,41.502193,1.292356,-1.799039,-1.023487,-0.038413,-0.034215
7383192200,45.011353,1.438043,-1.821768,-1.008297,-0.087695,-0.084411
7383212245,53.783325,0.464272,-2.095719,-1.056074,-0.187469,-0.188097
7383232291,60.425793,-4.040779,-3.309981,-1.102810,0.067923,-0.078246
7383252337,62.792519,-7.143069,-3.819348,-1.029703,0.121695,-0.082941
7383272383,64.693512,-8.829997,-5.187873,-1.020477,0.207158,-0.067899
7383292428,67.212227,-9.256637,-5.418721,-1.006272,0.171486,-0.033586
7383312474,68.583832,-8.036628,-5.296568,-0.978626,0.164015,-0.011351
7383332520,70.238167,-6.694639,-5.187950,-0.969860,0.166626,0.017817
7383352566,72.758667,-3.095525,-4.614600,-0.933529,-0.056941,0.012485
7383372612,78.682854,-1.807274,-5.161764,-1.021731,0.023451,-0.034166
7383392659,82.892715,-2.341946,-6.158647,-1.033126,0.004288,-0.058450
7383412704,88.727859,-4.343368,-5.592762,-0.989258,0.034776,-0.035828
7383432750,94.490265,-3.265711,-4.928737,-0.897429,0.110675,-0.044146
7383452796,98.692162,-0.554166,-6.058536,-0.926862,0.198360,-0.078739
7383472849,101.666786,0.437322,-6.073708,-1.112672,0.198772,-0.104076
7383492888,106.083984,-2.869988,-6.499916,-1.119429,0.154313,-0.135841
7383512933,110.729851,-5.354334,-6.994432,-1.081654,0.102595,-0.141210
7383532978,115.466743,-7.014761,-7.134310,-0.993755,0.135877,-0.118254
7383553023,119.132484,-6.282784,-7.398914,-0.906837,0.178011,-0.078866
7383573069,121.003960,-3.080978,-7.186079,-0.882535,0.254819,-0.083583
7383593115,122.386192,-0.139377,-7.383164,-0.917237,0.311707,-0.089350
7383613161,122.941696,2.162761,-7.187646,-0.950303,0.338970,-0.077938
7383633207,123.711914,5.463304,-6.991978,-0.976407,0.314889,-0.092976
7383653253,124.179230,6.664901,-4.865440,-1.028253,0.280582,-0.107739
7383673298,126.293221,7.794752,-4.275981,-1.030592,0.175657,-0.073393
7383693344,131.244400,4.642805,-3.505718,-1.070729,0.140869,-0.165062
7383713390,134.806519,-0.053455,-4.659573,-1.082531,0.248260,-0.130271
7383733435,137.639694,-4.050169,-6.405285,-1.116374,0.293211,-0.095909
7383753482,138.879837,-10.326138,-8.219480,-1.046358,0.434996,-0.021448
7383773528,140.231293,-10.500295,-7.893617,-0.850607,0.122924,-0.205732
7383793574,140.750351,-6.814682,-5.952106,-1.012638,0.675734,-0.034950
7383813620,133.821991,-5.227019,-7.343602,-1.007415,0.415324,-0.118213
7383833666,129.629761,-2.284012,-6.301589,-0.960484,0.495674,-0.041350
7383853711,124.961418,-0.254849,-4.918712,-0.932790,0.374889,-0.101353
7383873757,121.183846,-0.635949,-4.507918,-1.043132,0.524032,-0.038717
7383893802,111.088348,-3.990987,-4.125101,-1.043220,0.516168,-0.009835
7383913847,102.557457,-7.049766,-4.331455,-1.003334,0.469805,-0.024055
7383933893,102.501953,-6.699503,-4.453807,-1.013618,0.172997,-0.152200
7383953939,101.413223,-7.409867,-5.018708,-1.003730,0.356214,-0.056994
7383973984,99.214211,-4.627655,-4.526814,-0.884069,0.239648,-0.122385
7383994030,99.279770,-0.578684,-3.578743,-1.034340,0.198153,-0.159695
7384014076,99.120781,1.485597,-3.987527,-0.971165,0.229466,-0.149841
7384034122,100.377243,-0.060665,-3.792799,-1.098063,0.281485,-0.157567
7384054168,97.426613,-3.456384,-5.328944,-1.049206,0.349206,-0.124834
7384074213,94.502625,-7.555346,-4.517340,-1.034628,0.420872,-0.044591
7384094259,91.689491,-9.704961,-4.409748,-0.968880,0.276336,-0.088501
7384114305,93.197571,-9.372993,-6.014256,-1.061240,0.311770,0.015049
7384134352,92.236504,-8.880604,-7.174029,-0.954304,0.226995,-0.015864
7384154398,94.129333,-4.990192,-5.802400,-0.865138,0.133779,-0.020770
7384174444,98.188805,-0.703564,-4.711017,-0.950389,0.015350,-0.044175
7384194489,103.714897,0.273072,-4.852063,-1.040985,0.063008,-0.079292
7384234581,112.752220,-4.585621,-7.655192,-1.063365,0.177567,-0.150089
7384254627,116.042648,-6.064722,-8.302508,-1.019127,0.268187,-0.128390
7384274671,117.227188,-7.070364,-8.299220,-1.024387,0.315593,-0.118575
7384294717,117.773422,-7.716515,-7.665786,-0.989793,0.320489,-0.105012
7384314763,119.336464,-6.603103,-7.524069,-0.915637,0.256562,-0.099997
7384334808,121.087242,-3.759274,-7.208361,-0.873645,0.230898,-0.088325
7384354854,122.657761,0.081207,-7.595486,-0.906073,0.228749,-0.093396
7384374900,122.559959,2.973463,-5.914457,-1.013188,0.224260,-0.126149
7384394946,124.202667,3.112903,-5.136803,-1.021221,0.194489,-0.132589
7384414991,127.591492,2.351997,-5.016632,-1.018457,0.328040,-0.132767
7384435037,127.516830,0.881486,-4.865101,-1.018095,0.238597,-0.143337
7384455083,130.281693,-1.625247,-4.940970,-1.080502,0.336494,-0.084882
7384475129,131.672699,-5.063701,-5.697735,-1.077282,0.272614,-0.097358
7384495176,134.616257,-7.505403,-7.313221,-1.008335,0.340663,-0.050263
7384515222,136.932297,-7.155327,-7.787248,-0.957619,0.256771,-0.049445
7384535271,139.967056,-5.300874,-7.042315,-0.976284,0.174668,-0.007596
7384555313,144.742523,-3.951213,-7.269377,-0.938875,0.356275,-0.076346
7384575359,140.668274,-1.472589,-6.029430,-0.975837,0.461109,-0.077887
7384595404,136.087967,-0.253622,-5.669519,-1.034233,0.399932,-0.054004
7384615450,132.790039,-1.405507,-5.769802,-0.986522,0.440227,-0.045081
7384635495,126.880127,-2.069020,-5.301410,-1.032172,0.481966,-0.017048
7384655540,120.435188,-4.229213,-6.040285,-0.999280,0.414605,-0.015863
7384675586,118.781708,-3.433429,-4.482560,-0.919042,0.291881,-0.084565
7384695632,117.570427,-3.533236,-4.657401,-1.055559,0.426316,-0.035257
7384715678,114.488007,-4.376410,-6.382882,-1.045452,0.286534,-0.123342
7384735724,114.613205,-4.476062,-6.644788,-0.977316,0.238833,-0.146029
7384755769,114.605576,-3.313803,-4.990315,-0.963625,0.239330,-0.185479
7384775815,114.937515,-2.765632,-5.258390,-1.034537,0.247563,-0.152512
7384815907,112.157761,-5.469493,-7.518451,-1.027164,0.344336,-0.118757
7384835952,110.412842,-6.657955,-7.144411,-0.998945,0.328728,-0.120029
7384855999,109.686035,-7.495450,-6.714881,-0.998054,0.356232,-0.051462
7384876045,108.414330,-8.281010,-6.825137,-1.001755,0.309673,-0.037433
7384896091,108.786186,-8.349854,-6.977311,-0.972440,0.230410,-0.076654
7384916137,112.452194,-7.289177,-6.815092,-0.986731,0.134507,-0.075071
7384936191,114.802902,-4.126657,-7.161610,-0.981619,0.228812,-0.098554
7384956228,114.672455,-2.725603,-7.660438,-1.039989,0.231866,-0.176267
7384976274,115.835510,-3.480583,-8.009074,-1.020077,0.186578,-0.183975
7384996326,117.832565,-4.973441,-7.874743,-1.016481,0.261376,-0.124066
7385016364,117.206940,-5.530712,-8.204614,-0.986842,0.310471,-0.113851
7385036410,115.240456,-3.714816,-7.079774,-0.920420,0.317311,-0.107732
7385056456,115.708710,-0.309152,-7.520478,-0.898335,0.296663,-0.124596
7385076502,114.436623,1.324856,-6.041717,-0.992156,0.289587,-0.086855
7385096547,114.542038,1.487675,-4.867521,-1.024800,0.304772,-0.063448
7385116593,114.675446,1.233709,-5.939067,-1.024880,0.196041,-0.074432
7385136638,116.052422,0.883634,-5.888206,-1.011101,0.242628,-0.028538
7385156684,117.251404,0.435162,-5.527906,-1.015912,0.193602,-0.020205
7385176730,120.579483,-0.320069,-6.231853,-1.054784,0.098119,0.034357
7385196776,128.249435,-4.017701,-7.736191,-0.983416,0.127634,-0.054600
7385216823,126.930496,-2.580970,-5.881433,-0.905332,0.530420,-0.142294
7385236869,119.875435,-0.361101,-4.147221,-1.053062,0.279401,-0.086435
7385256914,121.126816,-3.130253,-5.461330,-1.031577,0.273742,-0.114933
7385276960,121.985092,-2.970738,-5.784173,-1.022531,0.226476,-0.151683
7385297006,122.833771,-3.535409,-6.188476,-1.007351,0.289616,-0.161488
7385317052,121.872208,-4.184152,-6.488598,-1.048486,0.387137,-0.127905
7385337098,118.413773,-5.061738,-6.594322,-1.000326,0.436365,-0.109109
7385357156,114.944962,-4.361281,-6.483496,-0.986224,0.408821,-0.108941
7385377188,110.976135,-4.512848,-5.664759,-0.991761,0.417195,-0.101689
7385397234,106.204330,-4.346574,-5.710266,-1.018045,0.421370,-0.085634
7385417279,100.406693,-4.691308,-5.810580,-1.008125,0.430869,-0.072384
7385437325,93.459045,-4.334692,-5.684596,-0.977979,0.441037,-0.057029
7385457371,84.946823,-3.374137,-4.575081,-0.992996,0.499433,0.002953
7385477417,74.032684,-3.102182,-4.348923,-1.003714,0.533343,-0.001460
7385497462,61.697922,-4.086776,-3.571398,-0.971962,0.635308,0.119653
7385517508,46.658161,-3.399057,-1.065832,-0.883308,0.175194,-0.149070
7385537554,52.387207,-1.214160,-2.712564,-1.052410,0.191618,0.020635
7385557600,47.423443,-0.705131,-2.816619,-1.059716,0.255822,-0.038534
7385577647,43.962395,-2.034642,-3.898893,-1.060372,0.182479,-0.048840
7385597692,41.847382,-3.643715,-4.104664,-1.009410,0.119750,-0.067670
7385617738,41.059162,-5.420546,-4.503734,-1.050618,0.261321,0.081400
7385637784,36.340652,-6.890679,-3.658418,-0.889468,0.084257,0.032741
7385657830,34.740433,1.123528,-1.522083,-0.856527,0.271831,-0.001175
7385677875,29.593739,2.960505,-0.794091,-1.052250,0.255043,-0.073881
7385697921,24.683435,0.792818,-1.654417,-1.106116,0.200693,-0.051540
7385717967,22.078194,-1.664343,-2.726618,-1.034008,0.125534,-0.068712
7385738011,19.625452,-2.669686,-2.178984,-1.048105,0.095455,-0.038193
7385758057,17.689634,-4.526772,-0.920247,-1.022561,0.095450,-0.010669
7385778103,17.319853,-4.306242,-1.081918,-0.901055,0.086706,0.038472
7385798149,16.380859,-0.427554,-1.137742,-0.875991,0.067475,0.048970
7385818195,16.001873,3.077136,-1.501204,-0.890606,0.101697,0.070495
7385838240,15.142089,6.370427,-0.960584,-0.902576,0.054849,0.081942
7385858286,14.450457,8.882830,1.298701,-1.052302,0.017756,0.064223
7385878332,15.556936,8.746670,1.606266,-1.037099,0.083257,0.104432
7385898378,15.995062,7.404917,1.357705,-1.010677,-0.086650,0.046620
7385918423,19.323456,4.410339,1.173185,-1.073195,0.006812,0.118337
7385938469,22.172384,0.032673,-0.533358,-1.123592,-0.108187,0.102775
7385958516,27.503420,-4.490471,-2.814840,-1.048978,-0.018840,0.151373
7385978562,31.465309,-6.502992,-3.519258,-1.005908,-0.075074,0.160173
7385998608,35.076412,-6.089244,-2.987031,-0.949293,0.002664,0.139743
7386018653,36.968712,-4.304099,-2.418376,-0.924978,0.086186,0.072922
7386038699,36.595772,-1.345302,-1.580431,-0.971180,0.195367,0.119462
7386058745,34.475861,1.551582,-0.945266,-0.940353,0.105904,0.072607
7386078791,33.109673,3.129933,-0.442599,-0.961110,0.187844,0.022988
7386098835,29.303101,3.305313,0.035677,-1.029666,0.236918,-0.000888
7386118881,24.285278,2.030108,-0.458744,-1.039376,0.314179,0.021843
7386138926,17.131838,-0.548069,-0.617012,-1.058799,0.367544,0.017184
7386158972,8.169535,-3.143537,-1.443136,-1.046601,0.296574,0.000845
7386179018,1.357438,-6.171574,-1.736435,-1.048880,0.280411,0.019520
7386199064,-5.673082,-7.416083,-1.909170,-1.050002,0.220765,0.038792
7386219110,-11.679714,-7.653527,-1.730694,-0.999034,0.088460,0.030517
7386239155,-16.315363,-5.488899,-1.082482,-0.938626,0.070249,0.074815
7386259201,-21.042223,0.167872,0.320019,-0.873675,0.042635,0.044251
7386279247,-24.259586,2.248557,0.757595,-1.016628,0.113085,0.029051
7386299292,-30.993191,0.165725,0.543682,-1.074816,0.128928,-0.018730
7386319339,-35.855412,-4.163854,0.728858,-0.969808,0.153946,0.102441
7386359431,-41.026573,1.683198,2.078215,-0.974897,-0.094516,0.044752
7386379477,-42.054329,1.384322,1.487837,-0.947355,0.021224,0.035013
7386399523,-47.322117,2.908993,2.295633,-0.971355,0.107922,0.056157
7386419568,-53.204193,3.594923,2.988236,-1.011471,0.042626,-0.002238
7386439614,-58.688919,2.701536,2.876035,-1.086390,0.000015,-0.064161
7386459659,-63.724110,0.506971,3.569437,-1.052486,0.036516,-0.080505
7386479704,-69.880615,0.345094,3.490760,-0.993277,0.003481,-0.032893
7386499750,-74.999672,1.717845,4.494853,-1.015986,-0.004749,-0.089864
7386539842,-84.662979,1.412573,5.416957,-0.974072,-0.045497,-0.068724
7386579933,-90.267792,4.560206,6.134192,-1.009217,-0.182358,-0.061453
7386599979,-91.785324,4.606041,6.354523,-0.989864,-0.159833,-0.046115
7386620025,-93.294022,5.535992,6.609945,-0.996356,-0.186973,-0.057852
7386640070,-94.613060,6.145746,6.793980,-1.002115,-0.157833,-0.036832
7386660116,-96.013222,6.631955,6.299912,-1.026265,-0.172346,-0.044475
7386680163,-97.119537,5.245061,6.478826,-1.027563,-0.186384,-0.007484
7386700209,-98.185516,4.787140,6.317639,-1.069730,-0.159751,0.015341
7386720255,-98.432884,3.688404,5.783555,-1.016611,-0.191845,-0.018010
7386740301,-99.132011,2.971472,5.623754,-1.017080,-0.183326,0.015844
7386760346,-100.371849,3.245315,5.547561,-1.017674,-0.091701,0.077431
7386780392,-105.434853,2.771315,5.486913,-0.953523,-0.206054,0.023240
7386800438,-105.250908,3.755437,5.900347,-1.031412,-0.166188,0.100029
7386820482,-106.736229,2.926145,6.665508,-0.966763,-0.231608,-0.012076
7386840528,-104.430817,5.395278,6.375669,-1.030347,-0.417427,0.009923
7386860574,-97.749184,1.776300,6.028822,-1.091998,-0.226958,0.046243
7386880620,-97.995033,0.506146,3.890573,-1.003496,-0.251622,-0.033476
7386900665,-97.165977,-1.184919,4.132284,-0.969903,-0.176512,0.023470
7386920711,-95.663956,1.317381,5.080555,-1.054964,-0.256190,-0.001999
7386940757,-94.550323,-0.753413,5.852909,-0.965833,-0.261521,-0.003328
7386960803,-92.924561,3.068098,3.867712,-0.979743,-0.181971,-0.072758
7386980848,-91.702705,3.909443,5.025626,-1.019658,-0.237974,-0.071258
7387000894,-88.036087,3.659504,5.268610,-1.034259,-0.271791,-0.096916
7387020940,-82.563301,2.507105,3.943620,-1.055382,-0.225466,-0.119599
7387040987,-78.972023,0.386341,2.620155,-1.036126,-0.262469,-0.122771
7387061033,-76.103683,-1.564544,2.326466,-1.024778,-0.250529,-0.067428
7387081079,-72.983681,-2.455226,2.383512,-0.981596,-0.280186,-0.051049
7387101125,-71.601303,-1.288150,2.681385,-0.928708,-0.134586,-0.017697
7387121170,-74.082870,-0.105243,3.673139,-0.995830,-0.118507,-0.079125
7387141216,-77.617851,-0.035958,4.375742,-1.027258,0.045075,-0.045001
7387161262,-83.977112,0.549380,4.474266,-1.065277,0.043716,-0.114249
7387181307,-89.810944,-0.056173,3.649584,-1.042744,-0.042158,-0.130831
7387201352,-91.666519,0.568507,3.759925,-1.022072,-0.083653,-0.102701
7387221398,-92.928352,1.240708,4.569241,-0.966884,-0.123520,-0.109113
7387241443,-94.260040,2.833824,4.864870,-0.975817,-0.223768,-0.099717
7387261489,-93.809731,3.125398,5.657513,-0.980448,-0.184716,-0.081275
7387281535,-94.794952,3.955893,5.689149,-0.935050,-0.234542,-0.103753
7387301581,-95.119019,5.336690,6.325081,-0.964059,-0.214596,-0.066436
7387321626,-96.574364,6.099977,7.000302,-1.003713,-0.239632,-0.044294
7387341672,-96.955109,6.748797,7.486941,-0.990235,-0.138772,0.032651
7387361718,-100.414871,9.559279,7.177928,-1.007165,-0.120447,0.017568
7387381764,-104.612038,9.666880,8.046083,-1.024069,-0.027458,0.144517
7387401810,-110.472046,8.643764,7.903388,-1.053272,-0.062057,0.100047
7387421857,-112.627640,7.848759,7.114944,-0.902025,-0.398536,-0.062558
7387441902,-98.720589,10.699718,9.082185,-1.029689,-0.460058,-0.074350
7387461948,-92.353531,5.501798,4.918333,-1.081879,-0.482155,-0.077508
7387481994,-82.721573,3.793212,3.178265,-1.120369,-0.332859,0.012497
7387502040,-75.883141,1.415905,2.579715,-1.055709,-0.548675,-0.006221
7387522085,-60.833000,-0.434391,1.537336,-1.030358,-0.473431,0.030169
7387542131,-50.194202,-3.190662,1.393565,-1.064414,-0.510488,-0.063689
7387562175,-40.705799,-2.748144,0.520246,-0.995371,-0.373327,-0.031506
7387582221,-32.402473,0.219366,0.830659,-0.923156,-0.246871,-0.088866
7387602267,-28.777126,2.516196,1.661998,-0.994160,-0.127441,-0.039378
7387622313,-23.285755,3.764636,0.435634,-0.978836,-0.254786,-0.199106
7387642358,-18.233273,2.456095,0.823363,-1.081311,-0.108667,-0.155480
7387662404,-12.838672,-1.757940,0.358283,-1.071054,-0.156720,-0.122986
7387682450,-7.845300,-5.727712,0.106495,-1.060188,-0.118625,-0.145112
7387702496,-3.289816,-8.975923,-1.132586,-1.146518,-0.136440,-0.064180
7387722541,2.361309,-12.470370,-3.507761,-1.048884,-0.128429,0.013481
7387742587,6.297952,-10.976851,-4.039966,-0.951836,-0.149614,0.043633
7387762633,8.562436,-7.901114,-2.382461,-0.870502,-0.065762,0.065437
7387782681,7.827488,-0.488513,-0.153933,-0.802179,-0.052379,0.066247
7387802726,12.472032,5.107501,0.264573,-0.871754,-0.127128,-0.014687
7387822772,16.470318,7.025176,1.861724,-1.082614,0.037709,0.002978
7387842817,19.963860,4.248259,0.229041,-1.108119,-0.100929,-0.026132
7387862863,28.212036,-0.549894,-2.665956,-1.112392,-0.016687,-0.073313
7387882909,34.743343,-4.125828,-4.140964,-1.020441,-0.029058,0.006930
7387902955,40.587860,-4.793464,-3.526211,-0.980302,-0.030616,0.018685
7387923001,44.863583,-3.885283,-3.467014,-0.988900,-0.082083,0.039161
7387943045,50.700218,-1.826857,-3.808724,-0.941658,-0.003560,0.059557
7387963091,53.336693,1.193310,-3.144000,-0.888869,0.052286,0.009182
7387983137,54.289349,4.848266,-1.325423,-0.951927,0.150477,0.028159
7388003183,54.511402,5.390402,-0.903615,-1.041583,0.148943,0.005997
7388023228,54.531242,3.421976,-1.852628,-1.027530,0.191840,0.022480
7388043274,54.488842,1.789679,-2.450045,-1.036505,0.209052,-0.011710
7388063319,53.642559,-0.383022,-2.663275,-1.040863,0.198553,0.023059
7388083365,53.735268,-1.985127,-3.400961,-1.037590,0.178501,0.050179
7388103411,53.689594,-3.333912,-3.342095,-1.007661,0.143126,0.085221
7388123457,54.530243,-1.719221,-3.845194,-0.943989,0.105875,0.058962
7388143503,54.325901,0.332851,-2.954010,-0.975491,0.170404,0.102420
7388163550,53.245770,1.347783,-2.256341,-0.991557,0.179173,0.084070
7388183596,52.170219,1.621162,-2.549681,-0.981533,0.207068,0.108817
7388203642,49.973129,1.202096,-2.261127,-1.014268,0.198937,0.116197
7388223687,47.975033,0.416339,-2.372568,-1.025010,0.274798,0.171446
7388243733,43.845833,-1.452795,-2.752350,-1.034479,0.240506,0.234120
7388263779,43.780037,-2.273433,-1.709104,-0.894897,-0.138701,0.046003
7388283825,53.517048,0.084349,-1.584952,-1.020958,-0.031879,0.110521
7388303869,54.640240,0.792251,-2.075232,-0.968566,0.043513,0.001296
7388323915,56.158947,2.437291,-2.713852,-0.995039,0.026270,-0.057229
7388343960,58.144779,1.831892,-1.115100,-1.010555,0.012245,-0.052584
7388364006,63.411304,-0.082573,-2.402985,-1.151929,0.068331,-0.115899
7388384052,64.595871,-5.383419,-4.364534,-1.063318,0.098943,-0.060089
7388404098,66.547485,-8.424155,-4.575675,-1.013314,0.251167,-0.033961
7388424144,67.378006,-8.858665,-4.720249,-1.002496,0.201362,-0.015454
7388444189,68.712212,-8.349235,-5.374433,-0.985496,0.142153,0.030016
7388464235,73.429741,-7.074383,-4.996447,-0.944641,0.043044,0.025217
7388484280,76.683151,-5.310722,-3.995645,-0.939514,0.047991,0.040735
7388504326,82.207764,-2.330129,-4.288522,-0.916893,-0.059073,0.027546
7388524372,90.397537,-0.101675,-3.889390,-0.991252,-0.035768,-0.005357
7388544419,97.036659,-0.491187,-5.010309,-1.065536,0.025779,-0.070823
7388564465,103.125664,-2.961150,-6.037211,-1.090242,0.108118,-0.097227
7388584511,107.483055,-4.752846,-6.864660,-1.038355,0.208562,-0.134499
7388604557,111.291656,-5.612800,-6.782871,-1.039940,0.138642,-0.111389
7388624602,115.236023,-5.923305,-6.399887,-1.017121,0.187042,-0.128743
7388664694,120.181419,-4.095279,-7.395985,-0.915502,0.233232,-0.123381
7388684738,122.097084,-2.387268,-7.224882,-0.929743,0.284651,-0.100348
7388704784,123.416504,-1.358599,-7.444945,-0.953848,0.250797,-0.087353
7388724830,125.226784,-0.176204,-7.163068,-0.996638,0.296122,-0.091601
7388744876,124.953064,-0.005455,-5.813430,-1.089886,0.270768,-0.102224
7388764921,127.585861,-3.407049,-7.243937,-1.025519,0.256251,-0.133889
7388784967,129.546219,-4.062475,-7.478471,-1.016358,0.360617,-0.077392
7388845105,127.026031,-3.164557,-7.768782,-0.991042,0.229263,-0.041022
7388865150,128.128174,-2.920264,-7.714568,-1.008368,0.355950,-0.099670
7388885197,127.992020,-3.195435,-8.047233,-1.003195,0.331987,-0.073756
7388905248,127.096497,-4.574087,-7.627911,-1.011898,0.355974,-0.083361
7388925289,126.227806,-5.115973,-7.869060,-0.979730,0.293335,-0.086438
7388945335,125.849297,-4.184912,-7.268782,-0.946060,0.301123,-0.082940
7388965380,124.893120,-2.194332,-6.515635,-0.987898,0.340318,-0.056420
7388985426,123.129784,-1.486733,-6.804715,-1.006168,0.341912,-0.066097
7389005472,121.344154,-1.273388,-6.617948,-1.018153,0.324631,-0.053609
7389025518,120.153313,-1.509687,-6.502357,-1.010241,0.334838,-0.049948
7389045562,118.880447,-2.494517,-7.093336,-1.025577,0.326736,-0.040232
7389065608,117.448044,-4.095512,-7.182474,-1.012677,0.315120,-0.034986
7389085653,116.896812,-4.926367,-7.191936,-1.008938,0.299021,-0.036294
7389105699,116.378098,-5.322609,-7.111779,-1.004964,0.285426,-0.010377
7389125745,115.792320,-3.889759,-6.998202,-0.953722,0.322035,0.021005
7389145791,113.337578,-1.664340,-6.675245,-0.984716,0.275337,-0.022325
7389165837,112.578903,-1.763832,-6.767173,-0.980027,0.298416,0.009873
7389185882,111.466949,-2.928485,-6.061630,-1.012219,0.252874,0.004961
7389205928,110.932915,-3.226660,-6.409423,-0.984334,0.248172,0.049791
7389225974,109.903557,-1.519611,-6.311077,-0.975212,0.281788,0.017172
7389246020,107.423927,-1.899616,-5.581607,-0.987951,0.313461,0.036309
7389266067,103.766151,-2.311495,-5.310582,-1.017578,0.382498,0.106961
7389286113,98.328491,-3.021827,-5.363174,-0.972962,0.324918,0.124996
7389306159,94.952698,-1.513426,-5.210994,-0.976629,0.243167,0.094966
7389326204,93.592590,-0.956401,-4.758535,-1.007150,0.195356,0.091299
7389346250,93.169899,-1.863615,-4.846652,-1.009904,0.110009,0.085315
7389366296,95.635094,-2.451289,-5.496205,-1.033957,0.139831,0.095298
7389386342,95.766724,-3.656043,-5.785124,-0.984865,0.203247,0.111149
7389406386,94.014160,-2.947045,-5.478385,-0.935998,0.274798,0.149504
7389426432,90.393066,-1.233042,-5.367979,-1.029833,0.422641,0.235009
7389446477,81.004410,-2.429899,-4.448235,-0.968484,0.438552,0.282865
7389466523,69.845062,-1.707488,-3.844388,-0.946326,0.446854,0.329950
7389486569,59.074978,0.334250,-2.900980,-0.979300,0.418758,0.313675
7389506615,46.200718,-0.978718,-2.348778,-1.035409,0.490205,0.379963
7389526661,32.077007,-2.315292,-1.970930,-0.986813,0.436108,0.357256
7389546706,19.632416,-1.722867,-1.402843,-0.968985,0.338859,0.342408
7389566752,10.219377,-1.372990,-0.617681,-0.960727,0.175303,0.290523
7389586798,7.695610,0.312332,0.136335,-0.958521,-0.194540,0.161469
7389606845,15.599096,0.014964,-0.833671,-1.065327,-0.150567,0.269699
7389626891,21.039061,-2.531264,-1.809519,-1.045938,-0.037643,0.112681
7389646936,21.414402,-1.958556,-1.367863,-0.897301,0.098716,0.088315
7389666982,22.144264,0.388165,-1.680213,-0.882228,0.029228,0.084089
7389687029,22.684198,2.926494,-1.508105,-0.948049,0.030409,0.086117
7389707074,21.134226,2.197781,-0.092500,-1.076887,0.071151,0.081347
7389727120,18.944082,0.115408,-0.631461,-1.049144,0.083539,0.119706
7389747166,16.129837,-0.008335,-1.080777,-0.986588,0.068205,0.142358
7389767210,14.291776,0.890969,-0.857069,-0.986661,0.053228,0.161810
7389787256,12.556579,0.578125,-0.822357,-1.012088,0.077457,0.200421
7389807301,10.434036,-0.245048,-0.625601,-0.999359,0.071201,0.201757
7389827347,9.681393,-0.176108,-0.389624,-0.982249,0.001179,0.150384
7389847393,10.412880,-0.039073,-0.534179,-1.004201,0.034873,0.136268
7389867439,10.205527,-0.313579,-0.575090,-1.004529,0.013990,0.107804
7389887484,10.942781,-0.321573,-0.818613,-0.999034,0.001418,0.093207
7389907530,11.699228,-0.252852,-0.848803,-0.997017,0.008237,0.089167
7389927576,11.529899,-0.382588,-0.906217,-0.995241,0.048830,0.098692
7389947621,10.379315,-0.207117,-0.693439,-0.986447,0.042195,0.094740
7389967668,9.242287,0.074818,-0.580617,-0.984464,0.059391,0.094406
7389987715,7.817077,0.212196,-0.331817,-0.994442,0.064651,0.093569
7390007760,6.105538,0.211886,-0.268039,-1.000677,0.057088,0.091872
7390047852,4.011589,0.257180,-0.212276,-1.005817,0.040702,0.089536
7390067898,3.261814,-0.063137,-0.227227,-1.003009,0.043169,0.093296
7390087943,2.038158,0.096522,-0.249863,-0.997013,0.043084,0.091560
7390107989,1.672661,0.096620,-0.166356,-0.997764,0.037340,0.085228
7390128034,1.145567,-0.116829,-0.132494,-1.000084,0.030137,0.078018
7390148079,0.672143,-0.040672,-0.100636,-0.998903,0.031950,0.072911
7390168125,0.120463,-0.018111,-0.166421,-0.997290,0.029310,0.071072
7390188171,-0.488872,0.081093,-0.040306,-0.996200,0.027947,0.070693
7390208217,-0.811174,0.004651,-0.102570,-0.995664,0.023943,0.069783
7390228262,-1.159767,0.180230,0.064080,-0.997416,0.023567,0.064003
7390248308,-1.425889,0.203212,0.145581,-1.001387,0.022101,0.061623
7390268354,-1.502540,0.302231,0.131456,-1.001570,0.016642,0.061272
7390288400,-1.601318,0.119397,0.172189,-1.002833,0.018362,0.057387
7390308445,-1.434057,0.248864,0.115022,-0.999852,0.024641,0.055964
7390328491,-1.789618,0.057761,-0.091403,-1.001660,0.017080,0.051650
7390348538,-1.603840,0.050486,0.034921,-1.003479,0.014886,0.047055
7390368584,-1.673010,-0.132467,0.021590,-0.998955,0.015716,0.049700
7390388630,-1.686946,0.058214,0.089998,-0.996782,0.010440,0.048310
7390408675,-1.488281,0.195416,0.078045,-0.996492,0.012080,0.049301
7390428721,-1.654845,0.317511,0.164927,-0.997496,0.008621,0.049142
7390448767,-1.066647,0.218534,0.138560,-0.999481,0.001524,0.050005
7390468813,-0.600623,0.325295,0.113879,-0.997043,0.008357,0.053764
7390488858,-0.181196,0.348126,0.052174,-1.000667,0.011630,0.055546
7390508903,-0.231670,0.340887,0.221289,-0.997798,0.016460,0.057849
7390528949,-0.033996,0.432239,0.156018,-1.000167,0.008914,0.062531
7390548995,0.265282,0.584867,0.210834,-1.000129,0.001721,0.059275
7390569041,0.671220,0.615549,0.248704,-1.001488,0.000984,0.054942
7390589087,1.463128,0.691541,0.064972,-1.004561,0.001602,0.047005
7390609132,2.105043,0.485919,0.053201,-1.009573,0.019412,0.038981
7390629178,2.016266,-0.017653,-0.187926,-1.017317,0.045051,0.036801
7390649224,1.551235,-0.658700,-0.512992,-1.012023,0.027027,0.025757
7390669269,1.275856,-1.283658,-0.497927,-1.002536,0.054897,0.036533
7390689315,0.001663,-1.001700,-0.359519,-0.992147,0.043645,0.044272
7390709362,-1.456224,-0.445484,-0.241384,-0.977912,0.016080,0.032093
7390729408,-1.138378,0.378163,-0.028692,-1.003073,-0.010064,0.033110
7390749454,-0.443623,0.218190,-0.079848,-1.013097,-0.004254,0.034723
7390769500,0.200832,-0.468174,-0.357518,-1.005827,0.020054,0.039098
7390789545,0.396265,-0.094170,-0.133312,-0.989319,0.027917,0.047972
7390809591,0.344105,0.081261,-0.064111,-0.991213,0.021002,0.048833
7390829637,0.059037,0.318125,0.231007,-1.006138,0.035469,0.062408
7390849681,-1.161166,-0.094284,-0.003752,-0.999325,0.062795,0.076680
7390869727,-3.290813,-0.223938,0.198474,-0.993242,0.062917,0.089285
7390889773,-5.590643,-0.049081,0.280725,-0.994412,0.039071,0.083897
7390909819,-5.364966,0.469674,0.480938,-1.000235,-0.015615,0.081727
7390929864,-4.076831,0.248508,0.265643,-1.002236,-0.051217,0.065390
7390949910,-0.582776,-0.017284,0.267502,-0.997551,-0.108503,0.024374
7390969956,5.375024,0.326448,-0.078492,-1.010067,-0.133104,0.013008
7390990002,10.323759,-0.076858,-0.387136,-1.013842,-0.090723,0.009190
7391010048,15.058678,-0.488798,-1.104241,-1.025885,-0.116263,0.032676
7391030093,19.754583,-0.983683,-1.438240,-0.993662,-0.143297,0.049329
7391050139,25.010746,-1.074266,-1.669835,-0.963131,-0.169956,0.073181
7391070186,30.050438,-0.066897,-1.648716,-0.963227,-0.166408,0.073177
7391090232,34.985260,0.826421,-1.502920,-1.001334,-0.121760,0.094450
7391110278,39.704445,0.224903,-1.814092,-1.005227,-0.153913,0.074871
7391130323,45.148487,-0.055570,-1.796532,-1.012177,-0.140896,0.084953
7391150369,50.862602,-0.406218,-2.486993,-1.019259,-0.151894,0.096258
7391170415,56.312332,-1.456599,-2.551036,-1.030156,-0.137975,0.105407
7391190461,61.711960,-2.790485,-3.262686,-1.025611,-0.141346,0.099163
7391210519,66.113327,-3.818397,-3.375235,-0.972569,-0.077450,0.125930
7391230551,69.386551,-2.027632,-3.819142,-0.990024,-0.122728,0.103245
7391250597,72.092514,-1.127798,-3.889928,-1.002326,-0.056543,0.089456
7391270642,73.608833,-2.224405,-3.717022,-1.022752,0.007448,0.075809
7391290688,72.969757,-3.277753,-4.350638,-0.976095,-0.010301,0.083395
7391310734,71.724449,-1.645224,-3.506632,-0.991767,0.043516,0.074223
7391330780,69.680786,-1.668919,-3.627368,-1.000956,0.042471,0.056679
7391350825,67.031189,-1.920641,-3.422288,-1.013238,0.069670,0.065831
