Timestamp (us),Gyroscope X (deg/s),Gyroscope Y (deg/s),Gyroscope Z (deg/s),Accelerometer X (g),Accelerometer Y (g),Accelerometer Z (g)
946901344,-0.551087,-0.451169,-0.061649,1.000760,0.020876,-0.033401
946921396,-0.260703,-0.388593,-0.228330,1.001386,0.020725,-0.031395
946941447,-0.168770,-0.394717,-0.227757,1.000027,0.020973,-0.032862
946961498,-0.009174,-0.256400,-0.288262,1.001126,0.018889,-0.032648
946981548,-0.191795,-0.294457,-0.211664,1.001673,0.020333,-0.033388
947001600,-0.404684,-0.226331,-0.127995,0.998567,0.022056,-0.033158
947021651,-0.496264,0.016761,-0.052728,1.001375,0.021564,-0.029860
947041702,-0.197634,-0.125533,-0.074982,0.997564,0.017993,-0.031209
947061753,-0.243208,-0.094955,-0.044557,1.003325,0.018236,-0.034170
947081804,-0.325770,-0.148311,-0.021599,0.999374,0.018662,-0.029205
947101855,0.100965,-0.070705,-0.249076,1.000574,0.020885,-0.032766
947121906,0.056012,-0.193150,-0.406945,0.998766,0.017866,-0.033926
947141958,-0.127659,-0.124144,-0.163711,0.997368,0.019469,-0.029592
947162009,-0.538709,-0.101824,0.139505,0.999304,0.016897,-0.031911
947182060,0.063444,-0.082803,0.078201,1.007493,0.022637,-0.032010
947202111,0.230048,0.062074,-0.005781,1.003695,0.023636,-0.037866
947222162,0.001805,-0.015697,-0.035649,0.999394,0.016357,-0.031541
947242213,0.116912,-0.234609,-0.012211,0.998665,0.017168,-0.031919
947262264,0.025866,-0.303202,-0.064849,0.996110,0.021679,-0.033716
947282315,0.018423,-0.385421,0.011295,0.994369,0.020253,-0.031531
947302366,0.207542,-0.291201,0.162227,0.993257,0.019482,-0.028076
947322417,0.085326,-0.381360,0.313667,0.996284,0.019174,-0.031050
947342468,0.259933,-0.363973,0.343070,0.997842,0.018525,-0.032213
947362519,0.380953,-0.339495,0.334513,1.002685,0.018778,-0.034272
947382571,0.531258,-0.126117,0.196453,1.001432,0.016284,-0.036979
947402620,0.659648,-0.088827,-0.069075,1.003353,0.017806,-0.038891
947422671,0.756076,0.079087,-0.046710,1.003050,0.023562,-0.036597
947442722,0.921240,0.200113,-0.236443,0.998867,0.019286,-0.036304
947462773,0.750796,0.350285,-0.205932,0.997667,0.020672,-0.034511
947482824,0.527598,0.424734,-0.069399,1.000950,0.018512,-0.033554
947502875,0.235400,0.786533,0.058369,1.000018,0.018740,-0.030201
947522926,0.393526,0.907551,0.148519,1.001139,0.015881,-0.033341
947542977,0.187688,0.812794,0.141036,0.999929,0.019275,-0.030844
947563028,0.278381,0.909365,0.034269,0.999130,0.016063,-0.032993
947583079,0.323758,0.830887,-0.056380,1.002131,0.019517,-0.033376
947603130,0.399196,0.821764,-0.063877,1.001487,0.020160,-0.032751
947623181,0.398278,0.834197,-0.154559,1.000680,0.015256,-0.032519
947643232,0.442992,0.779865,-0.078299,1.000758,0.017182,-0.031268
947663283,0.616410,0.832235,-0.063197,0.999305,0.016624,-0.031908
947683334,0.577250,0.761627,-0.062825,0.998735,0.019295,-0.029307
947703385,0.637298,0.638395,-0.107735,0.999015,0.016482,-0.029091
947723436,0.491279,0.613438,-0.069398,0.998919,0.016404,-0.028182
947743487,0.710327,0.771196,-0.289431,1.000644,0.017506,-0.027637
947763538,0.602412,0.692806,-0.280824,1.000449,0.020695,-0.026948
947783589,0.616284,0.608320,-0.181494,0.999812,0.018886,-0.026296
947803642,0.455748,0.476557,-0.218298,1.000812,0.017541,-0.025182
947823693,0.485315,0.475436,-0.255665,1.000362,0.020684,-0.027676
947843744,0.681686,0.490256,-0.315668,1.000815,0.018617,-0.026195
947863795,0.741487,0.352765,-0.329525,0.998457,0.016506,-0.027278
947883846,0.762749,0.194247,-0.108706,0.996523,0.018535,-0.024861
947903897,0.647022,0.162306,-0.161248,0.999524,0.018468,-0.023657
947923948,0.539018,0.198489,-0.266899,1.000616,0.022175,-0.025147
947943999,0.537529,0.183352,-0.175317,1.000545,0.020594,-0.027674
947964050,0.346210,0.143759,-0.167120,0.999708,0.023067,-0.026163
947984101,0.101612,0.218076,-0.113858,1.003538,0.019914,-0.024827
948004152,0.070175,0.286641,0.060267,1.000334,0.020480,-0.022857
948024203,0.245415,0.203135,-0.022931,0.998877,0.021555,-0.023698
948044254,0.199451,0.126804,0.030427,0.998711,0.015833,-0.023542
948064322,-0.143094,0.049056,0.121623,0.999704,0.020279,-0.024131
948084354,-0.135693,0.117619,0.189211,0.998701,0.022171,-0.025069
948104405,-0.233986,0.108828,0.150914,0.999052,0.022837,-0.023075
948124457,-0.149617,0.094091,0.165702,0.997361,0.012992,-0.025063
948144508,0.026057,0.071427,0.044124,1.001936,0.012331,-0.027568
948164559,0.368835,-0.018013,-0.039115,1.003026,0.021182,-0.031389
948184610,0.542607,0.005853,-0.054225,1.001539,0.018813,-0.025283
948204661,0.358707,-0.040224,0.052184,1.000910,0.012655,-0.023762
948224712,0.533216,-0.010203,-0.198057,0.999820,0.014176,-0.025241
948244763,0.592883,-0.085271,-0.136710,0.996048,0.021197,-0.022896
948264814,0.317711,-0.139522,-0.067940,0.993064,0.019327,-0.026167
948284865,0.439894,-0.335926,-0.142886,0.996255,0.016445,-0.024839
948304916,0.530586,-0.410863,-0.225626,0.999994,0.018977,-0.026296
948324967,0.605485,-0.454877,-0.217269,1.000257,0.016928,-0.023453
948345018,0.459792,-0.500156,-0.231654,1.003625,0.019293,-0.023820
948365069,0.359341,-0.453716,-0.178172,1.001718,0.019000,-0.024920
948385120,0.236152,-0.256794,-0.276928,1.002462,0.016983,-0.026346
948405171,0.357298,-0.188203,-0.450514,1.001921,0.018680,-0.028278
948425222,0.196320,-0.113130,-0.457120,1.000354,0.020704,-0.026313
948445273,-0.253875,0.014174,-0.304871,0.999255,0.021163,-0.025781
948465324,-0.793714,-0.077751,0.120408,1.000347,0.022345,-0.025878
948485377,-0.921605,0.035983,0.210553,1.002554,0.017882,-0.026992
948505427,-0.585793,0.332640,0.019535,0.998632,0.018871,-0.027122
948525478,-0.386984,0.356329,0.110268,0.996457,0.017571,-0.028758
948545529,-0.272547,0.515069,0.041231,0.997995,0.019318,-0.027586
948565581,-0.263487,0.391935,-0.041717,1.003653,0.020488,-0.029195
948585631,-0.050190,0.482957,-0.094947,1.004195,0.019511,-0.027726
948605683,0.011216,0.383561,-0.101973,1.002093,0.020241,-0.027204
948625734,0.010662,0.398522,0.026899,1.001914,0.020502,-0.027935
948645784,-0.073504,0.495812,0.056948,0.999537,0.021146,-0.027051
948665835,-0.317067,0.524295,0.208019,1.000264,0.017904,-0.025100
948685886,-0.225552,0.659467,0.108590,1.000720,0.016550,-0.024535
948705938,-0.233394,0.779704,0.213925,1.001817,0.017268,-0.025354
948725989,-0.431166,0.927907,0.175019,0.999057,0.021743,-0.023335
948746040,-0.932212,0.967563,0.144349,1.000769,0.022969,-0.020429
948766089,-1.668063,1.149700,0.090564,1.004074,0.018590,-0.022172
948786140,-2.236488,1.620051,-0.016890,1.006549,0.019824,-0.025259
948806191,-3.141022,2.204681,0.261599,1.005360,0.022538,-0.025844
948826242,-3.142297,2.350887,0.609694,1.009128,0.030452,-0.019365
948846293,-4.149206,2.432091,1.284294,1.008350,0.028001,-0.025523
948866344,-4.162294,2.081832,1.133927,1.012918,0.024470,-0.025359
948886396,-3.605010,1.976500,0.709673,1.007561,0.028105,-0.030892
948906446,-3.358504,2.604466,1.313739,0.998477,0.019707,-0.032222
948926497,-2.950836,3.410251,1.060714,0.998221,0.006584,-0.028619
948946548,-1.744428,4.162447,1.110753,1.004744,0.009944,-0.023340
948966599,0.392836,4.667802,0.782368,1.016584,0.006930,-0.019858
948986651,1.018050,6.240218,0.284098,1.015232,0.005898,-0.021946
949006702,0.880725,7.938487,0.066084,1.009732,0.009026,-0.018386
949026752,1.789440,9.215724,-0.582847,1.009199,0.006824,-0.019819
949046804,2.236308,10.401436,-2.019512,1.002712,0.006213,-0.017040
949066855,3.560666,10.927711,-2.999475,1.006363,-0.005969,-0.011693
949086906,5.539800,11.525337,-4.176966,1.008837,-0.017540,-0.007997
949106957,8.250399,12.110929,-5.612356,1.011330,-0.023474,-0.010364
949127008,10.571328,12.615079,-6.319749,1.011495,-0.008508,0.000642
949147059,11.586545,13.495708,-6.171560,1.005676,0.010066,0.004294
949167110,12.508505,14.350407,-5.227458,1.005776,0.019646,0.013454
949187162,13.498598,15.311448,-4.344378,1.005468,0.028750,0.014801
949207213,14.444934,15.892579,-3.467553,1.002634,0.030387,0.015398
949227264,15.536369,16.308508,-2.453788,0.992863,0.026073,0.020196
949247315,16.394014,16.462631,-1.780092,0.991749,0.020526,0.026432
949267366,17.274359,16.917202,-1.637966,1.001150,0.019076,0.025243
949287417,17.819996,17.099123,-1.047625,0.999143,0.019436,0.025316
949307468,19.378967,17.015285,-0.312724,1.002146,0.015216,0.028385
949327519,22.184090,17.439819,0.291148,1.003607,0.009440,0.030825
949347570,24.440323,17.840345,1.266663,1.010000,0.001346,0.048505
949367622,26.037037,18.604939,0.475258,1.017018,0.002127,0.063996
949387673,29.624325,18.117002,-2.351268,1.004307,0.015906,0.063746
949407724,33.938976,15.996113,-3.649051,1.017532,0.036296,0.083599
949427775,35.325344,15.706229,-0.510849,1.020433,0.019524,0.079269
949447826,36.290527,13.702843,1.019087,1.004697,0.081731,0.073257
949467875,34.491268,11.411255,0.656244,0.993706,0.135406,0.086282
949487926,27.630260,9.694001,-0.889122,0.994850,0.126614,0.113111
949507978,17.952942,9.547823,0.403193,0.963448,0.125022,0.120996
949528028,9.739698,9.363364,3.726287,0.939950,0.141194,0.124641
949548079,4.050961,9.498052,4.493290,0.958543,0.161132,0.130995
949568130,-2.698961,9.404972,3.957868,0.977808,0.167278,0.138513
949588181,-10.722943,9.423158,4.324405,0.983010,0.161412,0.140526
949608232,-19.440241,9.123446,5.556281,0.985781,0.148160,0.140972
949628283,-27.395641,8.661940,6.826343,0.988900,0.145774,0.138841
949648334,-35.206966,8.487693,7.754311,0.981919,0.144673,0.132805
949668385,-42.436123,7.940793,7.978516,0.968547,0.139161,0.130593
949688436,-48.951351,6.506404,7.584056,0.954874,0.131729,0.133945
949708487,-55.531822,4.651166,6.736331,0.954901,0.127423,0.131450
949728538,-62.233643,2.989056,5.342297,0.952095,0.127820,0.127881
949748589,-70.748016,1.070009,4.806206,0.955841,0.130606,0.125149
949768640,-79.498352,-1.293051,5.128150,0.965443,0.128119,0.121247
949788691,-88.450348,-3.520729,6.654753,0.963497,0.128782,0.110683
949808742,-97.819885,-5.686369,7.620444,0.965474,0.130440,0.099226
949828793,-107.400742,-7.865309,7.904150,0.964552,0.133853,0.083821
949848844,-117.812660,-9.611292,7.883495,0.964052,0.124768,0.064746
949868895,-127.213295,-11.040613,7.671923,0.963902,0.103682,0.038723
949888948,-134.576401,-11.520837,6.577207,0.967157,0.071610,0.012670
949908999,-139.718948,-11.576603,5.480250,0.978104,0.035092,-0.001371
949929050,-144.535248,-11.740215,4.997447,0.991626,0.021838,-0.015482
949949101,-151.510498,-10.713668,4.071720,0.987977,0.013690,-0.057584
949969152,-156.443695,-9.671469,2.311538,0.991064,0.008687,-0.084042
949989203,-158.546890,-10.050480,0.979684,0.988124,-0.029814,-0.107611
950009254,-163.100677,-10.243901,-0.882478,1.030868,-0.065765,-0.118616
950029305,-166.139145,-8.917945,-2.947460,1.051534,-0.098117,-0.128729
950049356,-167.328781,-6.974446,-2.915846,1.067429,-0.080799,-0.127271
950069407,-168.679977,-5.432766,-1.435209,1.059366,-0.080025,-0.167417
950089458,-168.817352,-4.619296,0.085406,1.055541,-0.117831,-0.180276
950109509,-168.491333,-2.132121,1.683461,1.052557,-0.122948,-0.181874
950129560,-166.182434,-0.537361,0.578208,1.060707,-0.148007,-0.175528
950149610,-159.488602,1.103442,-3.772532,1.051882,-0.200484,-0.152353
950169661,-149.910873,2.667865,-7.578334,1.024554,-0.248591,-0.132086
950189711,-139.097153,3.093418,-10.281696,0.989201,-0.258831,-0.099136
950209762,-129.215607,2.858032,-13.293192,0.982246,-0.226589,-0.079746
950229813,-122.671265,2.961340,-15.721107,0.974554,-0.175291,-0.068306
950249865,-119.352707,3.313310,-16.314636,0.963726,-0.139743,-0.058616
950269916,-118.725723,2.905540,-16.616611,0.955829,-0.117971,-0.059742
950289967,-118.977318,2.522446,-15.713306,0.964916,-0.076251,-0.059978
950310018,-117.684204,2.060561,-14.461640,0.987305,-0.041648,-0.070763
950330069,-113.907822,1.167917,-13.065359,1.015111,-0.033781,-0.090469
950350120,-107.981003,-0.856285,-13.947197,0.989736,-0.071509,-0.081760
950370171,-99.839500,-4.466151,-14.559083,1.007871,-0.128510,-0.067794
950390222,-97.934448,-7.428572,-9.600483,1.010376,-0.169567,-0.054668
950410273,-97.434334,-10.723010,-5.269300,0.985214,-0.108764,-0.100447
950430324,-91.007462,-11.846202,-1.061358,0.989161,-0.113460,-0.118269
950450375,-85.450989,-14.336680,-2.062724,0.979700,-0.104288,-0.110717
950470426,-78.824524,-14.289223,2.179009,1.061058,-0.068889,-0.119366
950490477,-81.606796,-12.003531,11.122855,1.096187,0.039246,-0.085287
950510528,-92.864777,-9.827565,24.670477,1.022764,0.163039,-0.032346
950530579,-102.139458,-8.110094,34.505291,0.875869,0.223166,-0.010998
950550631,-107.973503,-5.031409,32.776302,0.907678,0.122261,-0.083676
950570683,-115.772102,-0.433585,22.425491,1.005511,-0.025422,-0.120899
950590734,-124.974083,2.230772,19.888163,0.978963,-0.056096,-0.133456
950610785,-133.057785,3.141733,21.032274,0.990252,-0.016469,-0.166189
950630836,-139.711121,4.618435,21.325094,0.991763,0.026841,-0.181221
950650887,-145.610413,4.130537,22.298948,0.962733,0.031526,-0.192297
950670938,-151.466949,2.341588,23.974533,0.969960,0.027202,-0.209918
950690989,-157.823792,0.634364,24.687487,0.979457,-0.021560,-0.235006
950711040,-163.597687,-0.476475,25.466389,0.983949,-0.101246,-0.261590
950731091,-165.237640,-0.534862,23.936214,0.975658,-0.142673,-0.272894
950751142,-166.916534,1.489516,21.663719,0.978736,-0.127188,-0.276959
950771193,-170.056137,4.675996,19.789415,0.969795,-0.137295,-0.270725
950791244,-168.594055,5.741350,17.481230,0.976127,-0.152397,-0.285865
950811317,-171.598969,6.954947,14.423779,1.007591,-0.162267,-0.313975
950831344,-174.867676,3.964800,15.556913,0.985526,-0.106466,-0.341406
950851396,-182.583786,1.696918,19.046169,1.019337,-0.070899,-0.388384
950871447,-186.544037,2.932343,20.415092,1.066465,-0.097606,-0.420913
950891498,-179.553497,6.168884,15.990538,1.054485,-0.181070,-0.403946
950911549,-168.172653,7.912473,6.256743,1.004790,-0.294375,-0.345729
950931599,-154.917770,9.327394,-9.350267,0.990697,-0.276928,-0.298589
950951651,-143.894287,9.972823,-17.102047,0.989155,-0.259640,-0.277443
950971702,-137.426788,10.227411,-19.538033,0.941798,-0.215178,-0.261388
950991753,-133.638947,9.167969,-19.315918,0.916667,-0.147257,-0.253900
951011803,-133.193008,8.458629,-16.706470,0.902555,-0.091771,-0.253643
951031855,-134.838272,8.461772,-13.318111,0.921706,-0.056071,-0.257010
951051906,-134.475494,9.696385,-11.746068,0.853200,-0.074074,-0.241019
951071957,-130.194077,7.994544,-12.772443,0.853291,-0.130266,-0.244004
951092007,-128.873749,2.771542,-6.934267,0.986886,-0.070999,-0.217931
951112059,-127.745041,-1.204530,-2.995062,1.014586,-0.006066,-0.294557
951132110,-121.188438,-3.767215,-2.048736,1.043701,-0.059440,-0.289188
951152161,-115.878044,-6.047111,0.481054,1.015108,-0.129589,-0.259769
951172212,-111.540840,-9.921977,2.705943,1.007632,-0.111793,-0.253030
951192263,-106.232437,-10.056163,4.803917,1.012746,-0.046678,-0.255838
951212314,-108.482445,-8.507711,9.475586,0.973926,0.035914,-0.268793
951232366,-115.909019,-6.384822,25.068365,0.919244,0.069430,-0.241849
951252417,-122.819267,-5.979882,38.582668,0.926701,0.099277,-0.175886
951272468,-125.611443,-4.970386,39.034908,0.956976,0.155697,-0.174234
951292519,-127.907913,-0.851331,30.116243,1.005608,0.115763,-0.223505
951312571,-135.463074,1.547272,27.071461,1.016380,0.011718,-0.251762
951332622,-143.304245,2.139822,29.232168,0.987716,-0.042732,-0.249244
951352673,-145.674545,2.709265,29.291670,0.972988,-0.021352,-0.251323
951372724,-148.543396,3.056155,28.291056,0.987712,0.028498,-0.268518
951392775,-152.891235,3.436529,28.109371,0.960086,0.021911,-0.280180
951412826,-155.389496,2.100805,28.357376,0.938003,-0.012539,-0.290662
951432877,-156.781235,0.547831,27.923634,0.921657,-0.046507,-0.300019
951452928,-155.958801,-1.359637,25.572865,0.916244,-0.076879,-0.294616
951472979,-156.913223,-0.544842,22.159857,0.954414,-0.081058,-0.287754
951493029,-157.469101,-1.147552,17.478334,0.978802,-0.102007,-0.269616
951513079,-154.778442,-3.909823,18.472176,0.943212,-0.032443,-0.298302
951533130,-164.460297,-0.221067,25.928127,0.927594,0.064663,-0.341980
951553181,-169.997711,4.659534,26.709038,1.022466,0.065949,-0.368406
951573233,-166.756683,5.295865,23.151182,1.043239,-0.024939,-0.367479
951593283,-160.433701,2.306362,18.088945,1.020905,-0.120337,-0.351174
951613335,-151.959198,-1.847366,10.384912,0.979838,-0.156231,-0.326056
951633385,-141.186966,-4.078824,-0.638553,0.948792,-0.107925,-0.310567
951653436,-132.755020,-6.635904,-6.726176,0.942224,-0.105635,-0.295463
951673487,-129.102142,-8.964698,-7.803221,0.931667,-0.077655,-0.281320
951693538,-128.203888,-9.761416,-6.269841,0.935274,-0.036014,-0.279867
951713589,-128.602844,-9.137804,-3.293320,0.951275,0.002467,-0.291651
951733640,-128.751480,-9.140396,1.238958,0.961407,0.003864,-0.309954
951753692,-124.726967,-9.855455,6.439177,0.983538,-0.040807,-0.330456
951773743,-116.869370,-10.424779,6.726388,0.906129,-0.143066,-0.308918
951793794,-115.169388,-13.261809,5.333462,0.972230,-0.139249,-0.280774
951813844,-110.605194,-15.729509,5.355525,1.017855,-0.096762,-0.309298
951833896,-103.249313,-16.764772,3.317777,1.022887,-0.120197,-0.316080
951853947,-101.042816,-15.649713,4.487901,1.012572,-0.086640,-0.299546
951873998,-103.919815,-14.983331,11.974621,0.994987,-0.006563,-0.294508
951894051,-107.405907,-13.724235,15.389614,0.972944,0.052061,-0.295979
951914102,-110.201622,-10.835220,16.532639,0.958825,0.057906,-0.285241
951934153,-113.329834,-7.954611,22.677921,0.972483,-0.003590,-0.267255
951954204,-116.936134,-3.209746,27.596737,0.957681,-0.001610,-0.247116
951974255,-119.134834,-0.272390,27.367594,0.980646,-0.015432,-0.238704
951994306,-119.990814,2.444849,29.351799,0.999016,0.008625,-0.242942
952014357,-120.139061,3.540140,28.635654,0.994935,0.010007,-0.247350
952034408,-118.456764,1.143930,27.339741,0.988648,-0.012749,-0.236588
952054459,-114.602295,-0.873971,27.193764,0.985603,-0.022359,-0.241043
952074510,-114.763214,-0.527445,26.934942,0.988819,-0.009925,-0.236074
952094561,-113.514305,-0.115778,25.917505,0.988387,-0.010344,-0.239890
952114612,-111.376511,1.726706,25.743670,0.988774,-0.027356,-0.235146
952134663,-108.546417,3.844608,25.189697,0.994612,-0.041246,-0.228854
952154714,-106.584000,4.775723,23.942854,0.997610,-0.048161,-0.223664
952174763,-104.922775,5.299439,22.212463,0.988895,-0.026937,-0.224880
952194814,-104.727509,4.876112,21.099747,0.968577,-0.002073,-0.223858
952214865,-104.386208,4.517786,19.312227,0.964137,0.000148,-0.213917
952234916,-104.650963,3.781012,17.132120,0.962940,-0.015253,-0.204205
952254968,-104.498154,3.004590,15.452214,0.990360,-0.045767,-0.201112
952275018,-102.505981,2.741666,13.838104,0.998925,-0.075726,-0.200796
952295069,-97.776779,3.141772,12.198014,0.973765,-0.075477,-0.185799
952315121,-93.050507,3.110482,9.574148,0.959041,-0.070797,-0.180232
952335171,-88.150032,3.074949,7.298868,0.966680,-0.079485,-0.172625
952355223,-82.765289,3.117107,6.000836,0.974204,-0.075035,-0.167534
952375274,-77.723549,3.128196,4.945557,0.991076,-0.055757,-0.162639
952395325,-73.662201,2.701694,4.134656,1.012682,-0.053275,-0.163877
952415376,-70.014404,2.256205,4.347125,1.020761,-0.048933,-0.160144
952435427,-66.711136,2.330744,4.315395,0.991934,-0.049672,-0.156523
952455478,-64.873001,2.408675,2.738060,0.974353,-0.042578,-0.146914
952475529,-63.646740,0.918843,2.378974,0.967818,-0.033242,-0.141070
952495580,-62.916763,-0.068049,1.631803,0.968462,-0.026178,-0.129968
952515631,-65.238342,-0.285647,2.035050,0.988540,-0.001337,-0.130477
952535682,-68.866341,-0.050042,3.422458,0.987297,0.016390,-0.129600
952555733,-68.868240,-0.037896,4.142418,1.001527,0.000252,-0.122951
952575785,-67.729446,-0.458217,6.121575,1.005138,-0.020982,-0.121680
952595836,-69.425369,-0.304347,8.190694,1.016479,-0.009600,-0.102464
952615887,-71.434021,-7.015594,9.040629,1.021563,-0.003856,-0.101858
952635938,-68.168541,-10.301243,9.513124,0.967028,-0.013029,-0.125132
952655989,-65.719894,-11.666942,13.101819,0.947500,-0.070701,-0.139781
952676040,-63.729637,-11.588096,17.496647,0.932501,-0.039598,-0.116163
952696091,-55.582771,-9.279820,15.143942,0.983859,-0.027653,-0.127479
952716142,-48.786652,-4.538579,12.358907,1.051278,-0.055798,-0.168391
952736193,-44.303566,-1.344505,12.202330,0.980100,-0.076033,-0.161936
952756244,-37.015968,-0.892316,10.151901,1.002083,-0.098891,-0.137159
952776296,-28.813316,-0.168203,6.940635,1.017391,-0.157968,-0.121825
952796346,-18.621542,0.993898,4.901901,1.006605,-0.165142,-0.113457
952816398,-8.120081,2.328835,3.461201,1.013637,-0.105766,-0.098462
952836448,-1.379425,3.963225,1.641838,1.022625,-0.060431,-0.068113
952856498,4.128147,3.531186,0.860766,1.004201,-0.062204,-0.081311
952876549,14.360863,4.892573,0.276491,0.998781,-0.082984,-0.110555
952896600,23.669474,8.085266,-2.678405,0.959133,-0.094418,-0.090710
952916651,28.027773,10.517347,-3.150628,1.052455,-0.018653,-0.061024
952936703,26.712280,12.192499,-1.011095,1.051128,0.047299,-0.023171
952956754,20.988186,11.855413,-0.378875,1.012468,0.060981,-0.013424
952976804,17.335819,11.221095,0.329432,1.005830,0.040678,-0.021779
952996855,19.351772,12.114456,-0.940038,0.986987,-0.001962,-0.020874
953016906,21.767376,12.551092,-2.814391,0.982923,-0.028278,0.001214
953036958,21.731216,12.006282,-2.494185,0.986679,-0.003554,0.001409
953057009,18.445585,10.868560,-1.337112,0.982292,0.048556,-0.007223
953077060,15.472290,10.219700,-1.227730,0.985209,0.071206,-0.018553
953097111,12.877108,10.404247,-1.773142,0.993052,0.063189,-0.014860
953117162,9.101810,10.229374,-1.513533,0.993724,0.060531,-0.003827
953137213,4.383558,9.221246,0.007384,0.992047,0.061425,0.001785
953157264,0.259804,8.020103,1.604548,1.004095,0.050954,0.004719
953177315,-3.218467,7.344305,2.775254,1.011870,0.040804,0.005346
953197366,-6.201045,6.909437,3.118850,1.009183,0.041765,-0.003319
953217417,-6.455913,6.178260,3.007775,0.994298,0.032191,-0.009857
953237468,-6.680505,5.380205,3.093972,0.988376,0.018816,-0.003837
953257520,-6.974310,4.688413,3.248038,0.999560,0.023061,-0.000989
953277571,-7.142737,3.823696,2.341601,0.983613,0.024092,-0.002659
953297622,-6.923187,2.133549,0.164609,0.974548,0.008072,-0.003356
953317673,-5.188048,1.474665,-1.372257,0.997734,-0.023244,-0.024005
953337724,-2.251977,1.866275,-1.306424,1.003431,-0.025363,-0.046116
953357775,-0.023949,2.156153,-0.989886,0.999204,0.005562,-0.055865
953377826,-0.429229,2.585503,-1.104908,1.009341,0.026061,-0.053486
953397877,-1.500663,3.597549,-0.827599,1.021702,0.023831,-0.046101
953417928,-2.049218,5.083642,-0.559685,1.036318,0.031591,-0.039362
953437979,-3.479808,6.336752,-0.207292,1.035224,0.033572,-0.040393
953458030,-4.944249,6.776958,0.087284,1.010026,0.021478,-0.043612
953478082,-6.769710,6.476788,0.126852,0.978154,0.013021,-0.045649
953498133,-8.829766,5.909282,0.152266,0.963714,0.014611,-0.040226
953518182,-9.114896,9.350245,0.746825,0.987164,0.023993,-0.048529
953538233,-8.895731,14.173241,0.874129,1.016360,0.017378,-0.064605
953558284,-9.456803,18.704479,0.093237,1.046370,-0.006917,-0.039845
953578335,-8.778995,24.811668,-0.064466,1.052417,-0.035575,-0.030655
953598386,-6.690923,31.938908,-0.044282,1.076887,-0.077859,-0.062528
953618437,-4.461014,39.801289,-0.367735,1.126579,-0.055625,-0.059253
953658539,0.665509,60.108284,0.189549,1.218216,0.027934,-0.088199
953678590,-3.268214,74.460304,7.212639,1.156646,0.035031,-0.148247
953698642,2.965677,88.039459,7.580507,1.040897,-0.081596,-0.064195
953718693,14.000196,98.814522,-3.419658,1.005120,-0.173236,-0.011583
953738744,18.782766,99.113373,-1.929308,1.062486,-0.127142,0.039185
953758795,23.120335,98.319107,6.022237,1.031877,-0.018395,0.043344
953778846,20.624113,92.584183,8.096769,0.910951,0.080420,0.078606
953798897,19.049252,84.811409,5.115258,0.859114,0.136955,0.075403
953818948,17.871021,77.852692,3.199437,0.848246,0.095170,0.084080
953838999,16.013536,71.999947,2.795833,0.874205,0.053832,0.093013
953859050,14.565562,68.088036,5.144139,0.930156,0.061128,0.124590
953879101,12.727840,67.304199,7.936539,0.967253,0.070687,0.152189
953899152,9.164633,68.584160,8.736746,0.973505,0.115257,0.167531
953919203,8.283428,72.720840,5.926165,1.022924,0.108993,0.153867
953939255,6.430145,75.930862,4.043750,1.028137,0.119006,0.192687
953959307,4.954218,76.346878,2.928727,0.975620,0.102024,0.233318
953979358,4.948892,73.041954,2.538433,0.924638,0.031774,0.271850
953999408,2.723349,67.354446,5.825340,0.909174,0.062166,0.328646
954039511,-0.643363,58.332695,6.463923,0.906683,0.048918,0.355775
954059562,-2.291432,55.362225,7.831369,0.921678,0.039463,0.352991
954079612,-5.411397,55.399818,7.400331,0.957034,0.066052,0.358115
954099664,-8.971399,55.041084,7.175446,0.922949,-0.013811,0.427233
954119715,-8.725146,50.135941,6.782998,0.886030,-0.018743,0.475834
954139766,-8.418513,43.282990,4.449449,0.874060,0.022641,0.506352
954159817,-8.795476,32.710262,2.848958,0.848365,0.039670,0.557777
954179868,-11.131072,18.958864,2.427266,0.827940,0.064600,0.608148
954199931,-13.884800,4.618548,2.947540,0.798246,0.053043,0.656149
954240019,-15.847885,-27.717754,3.287021,0.762764,0.028654,0.671630
954260070,-18.543989,-48.944035,-2.277637,0.721528,0.021598,0.680145
954280121,-19.588116,-81.445396,-3.772016,0.643049,0.069931,0.762370
954300172,-21.006666,-125.699760,3.338457,0.590227,0.161310,0.800927
954320224,-31.737192,-171.128525,4.855387,0.455447,0.346658,0.885712
954340275,-58.717041,-207.257233,11.181336,0.371813,0.788953,0.624432
954360326,-98.722870,-205.478348,15.698693,1.010072,0.582921,-0.347302
954400428,-9.149056,-158.390152,-68.788094,1.303910,-1.702906,-0.467723
954420479,25.956825,-158.119843,-33.634953,1.256986,-0.560028,0.216619
954440530,28.230402,-106.792732,-16.926697,1.509307,0.068708,0.140150
954460581,18.607559,-47.959621,-12.245208,1.225945,0.343156,0.022177
954480632,14.286718,-15.927773,-7.427750,0.884966,0.117497,-0.063787
954500683,13.606560,-3.313296,-7.198137,0.820194,0.047121,-0.083063
954520734,15.643255,6.253020,-0.804858,0.900987,-0.012446,0.098514
954540785,14.125222,22.443493,7.514632,1.239083,-0.167748,0.197592
954560836,9.557273,45.282188,7.869534,1.566960,-0.170373,0.019905
954580887,4.745488,69.339043,-2.943481,1.332546,-0.138175,-0.177804
954600939,4.705375,73.254120,-0.865165,1.058259,-0.068898,-0.170644
954620991,10.465265,86.463882,3.990885,1.033307,-0.124373,-0.132189
954641041,15.588716,104.600006,7.003654,1.077173,-0.131760,-0.006736
954661093,12.608439,120.037209,8.186872,1.021811,-0.058265,0.116260
954681144,10.785440,136.396149,7.471772,1.278801,-0.029106,0.133650
954701194,2.955216,155.246323,14.329146,1.296042,0.031952,0.054541
954721246,-5.245459,159.447617,16.083439,1.098942,-0.030208,0.039231
954741297,-7.810204,156.445892,9.879934,0.951148,-0.102097,0.233053
954761348,-10.282518,146.108597,5.664626,0.725212,-0.057316,0.433242
954781399,-14.935679,123.566757,2.970032,0.446963,-0.041478,0.676292
954801450,-16.692739,86.953117,-3.390775,0.291930,-0.013114,0.842002
954821501,-15.803237,43.231323,-6.855592,0.199079,-0.033146,0.859661
954841552,-11.145253,-6.331249,-11.044339,0.188453,-0.050637,0.877147
954861602,-4.937014,-56.559956,-12.934909,0.321417,-0.045957,0.898212
954881653,1.279969,-104.440880,-10.937988,0.550064,-0.112937,1.008488
954901703,-7.768023,-151.677551,-14.917740,0.704943,0.091910,1.001399
954921754,-35.619438,-182.426361,-5.714863,0.679677,0.248646,0.552345
954941805,-59.455219,-173.908096,-18.195677,0.701033,0.850575,-0.389581
954961856,-15.686268,-131.298065,-24.193626,1.766932,-0.847284,-0.613851
954981908,6.635533,-96.715691,-21.751341,1.508304,-0.715471,0.236105
955001958,9.261564,-78.369644,-7.006194,1.106722,-0.132021,0.411182
955022009,1.861178,-58.587673,-9.284824,0.811156,0.001668,0.159334
955042060,-4.857034,-46.262745,-7.786413,0.892585,0.225124,0.060169
955062111,-10.306045,-29.331688,-11.511063,1.004704,0.285965,0.078891
955082163,-10.749800,-5.428233,-6.727583,1.159299,0.125881,0.100108
955102214,-8.969287,17.919348,1.482721,1.304332,0.007052,0.270103
955122265,-6.804173,43.696533,9.335885,1.396381,-0.218747,0.356619
955142316,-2.476563,67.473579,0.044006,1.138311,-0.212684,0.132779
955162367,-8.960412,72.346832,1.840855,0.651980,0.067787,0.080006
955182418,-2.674643,72.987518,4.208660,0.619469,0.001518,0.184787
955202469,6.711122,78.960052,1.373000,0.859472,-0.097872,0.224811
955222520,10.004759,89.870872,1.804145,1.054540,-0.115802,0.269208
955242571,9.048300,100.201866,7.362152,1.267481,-0.180267,0.367074
955262622,11.403202,92.910225,11.554879,1.062725,-0.020680,0.427304
955282673,15.348408,68.028488,5.720071,0.991465,-0.147716,0.500886
955302726,32.676083,47.003136,-1.974399,0.821595,-0.338667,0.663302
955322777,46.490253,17.035666,-14.275147,0.582215,-0.248559,0.941486
955342828,48.476856,-25.954021,-19.546661,0.475108,0.017798,1.070699
955362879,38.692699,-79.188072,-27.537497,0.376155,0.240136,0.997443
955382930,22.463987,-127.255234,-37.749352,0.081352,0.661713,0.596126
955423032,36.223728,-138.555206,-11.787621,0.458110,-0.246613,-0.640170
955443083,25.081076,-106.215454,1.928862,2.657642,0.144161,-0.040622
955463134,-1.179220,-59.668182,-2.951607,1.483797,0.204038,0.505031
955483185,0.220475,-26.671410,-7.499488,1.212457,0.054210,0.367606
955503236,3.084225,-17.174788,-17.734491,0.932903,0.166997,0.240716
955523287,2.285540,-14.193071,-20.791225,0.974779,0.111413,0.216481
955543338,-1.887358,-13.053476,-28.327179,0.832916,0.056814,0.136583
955563388,0.334596,-12.216370,-26.708942,0.865136,-0.045695,0.072470
955583439,14.767765,-8.665537,-19.177591,1.069760,-0.228853,0.233089
955603490,30.006735,8.480603,-19.893799,1.398268,-0.243446,0.389182
955623541,19.504519,41.066525,-21.889568,1.084694,0.079582,0.190908
955643592,6.426875,58.599827,-11.372759,0.835459,0.257740,-0.039677
955663643,-5.370399,65.220078,-3.956484,0.845106,0.270523,0.065487
955683694,-13.521773,68.332611,4.433130,0.940253,0.343549,0.298345
955703745,-16.019663,72.893196,7.881873,1.010776,0.075263,0.454454
955723796,-19.400190,67.891380,-2.816354,0.922855,0.061957,0.669563
955743847,-37.289207,54.136791,-31.994732,1.042882,0.210952,0.803744
955763898,-48.580471,27.823677,-47.906868,0.704036,0.141975,0.835676
955783949,-45.650360,-0.728361,-54.441093,0.618722,0.263810,0.771950
955804000,-51.103561,-28.144321,-44.378387,0.474079,0.246020,0.712510
955824051,-54.394226,-59.105667,-42.534966,0.260892,0.092184,0.610080
955844102,-57.133507,-88.913139,-41.271713,0.142888,-0.032207,0.429641
955864153,-82.324265,-112.865082,-32.062870,0.193657,0.634605,0.020665
955884204,-117.181595,-114.434532,-22.139563,1.280604,0.725602,-0.130912
955904255,-100.886597,-86.386833,-61.076492,1.595753,-0.552697,0.213392
955924306,-53.730766,-79.205009,-86.939262,1.353753,-0.829170,0.359564
955944357,-14.586718,-83.632675,-85.664444,1.451576,-0.081133,0.249900
955964410,-6.255238,-76.585190,-89.094604,1.200923,0.136891,0.101184
955984461,-7.266056,-64.519287,-92.425087,0.888643,0.257555,0.047678
956004512,-25.374689,-47.559593,-80.979912,0.869638,0.576665,0.128918
956024563,-43.098354,-37.158455,-61.440681,0.767853,0.528171,0.222914
956044614,-50.991425,-33.657330,-44.715641,0.873397,0.516566,0.201984
956064665,-56.293655,-32.365040,-42.573387,1.012163,0.453621,0.169070
956084716,-69.696220,-17.763340,-45.074596,1.150616,0.107159,0.331019
956104767,-84.117844,-6.702640,-41.052917,1.239622,0.145885,0.337927
956124818,-93.992455,-8.565351,-33.699028,1.192555,0.269154,0.203021
956144869,-99.410652,-16.447414,-30.797550,0.893287,0.267533,0.199191
956164920,-107.196404,-27.163910,-22.292200,0.721942,0.370207,0.264406
956184971,-118.516808,-31.725035,-18.763458,0.678311,0.410778,0.300163
956205022,-133.612152,-37.500362,-16.055323,0.838878,0.384284,0.277887
956225097,-140.231918,-41.235092,-12.758450,0.956329,0.195513,0.242551
956245123,-135.663895,-45.065922,-8.616316,0.926736,0.016362,0.248323
956265174,-132.751053,-48.737679,-6.414364,0.974687,0.042762,0.250993
956285225,-133.096771,-50.179176,-8.304016,0.997067,0.133731,0.197931
956305276,-130.896484,-51.729469,-8.428287,0.961084,0.072677,0.146124
956325327,-131.355865,-52.876877,-8.121014,0.951862,0.069070,0.181363
956345378,-138.206528,-53.105145,-4.730034,1.021393,0.114863,0.241038
956365429,-138.600464,-51.545284,-2.567689,1.021799,0.056417,0.092212
956385480,-126.485977,-49.279781,-2.587317,0.913282,-0.095599,-0.013315
956405532,-118.727745,-52.248482,2.528414,0.903609,-0.026798,0.047258
956425582,-122.903633,-52.231060,13.170671,1.090749,-0.053257,0.157498
956445633,-131.860458,-46.746662,25.296400,1.145042,-0.106757,0.175680
956465684,-126.418259,-39.703949,32.470234,1.092641,-0.151397,0.085849
956485736,-119.311760,-31.735809,27.036495,1.085262,-0.297811,-0.043928
956505786,-111.012558,-30.330276,23.436321,0.985820,-0.360414,-0.016007
956525838,-104.515968,-31.598454,27.455261,1.016661,-0.373646,0.032625
956545889,-105.473938,-35.476650,28.628542,0.881464,0.030817,-0.076260
956565940,-118.589218,-38.605778,28.772758,0.935073,0.356798,-0.161903
956585991,-143.813766,-35.607876,34.296318,1.086569,0.428794,-0.272087
956606042,-189.905716,-24.242538,60.344910,1.315345,0.649944,-0.607298
956626093,-248.178757,-22.978857,68.296127,1.202364,0.142765,-0.738192
956646145,-231.729233,-23.897787,22.562105,1.269972,-1.270217,-0.632747
956666196,-172.707397,-36.889889,-5.183093,1.347353,-1.478644,-0.370219
956686247,-124.189339,-38.214378,-5.483517,1.392688,-1.003877,-0.067476
956706298,-99.513031,-28.475895,-6.056242,1.249489,-0.702232,-0.019633
956726349,-88.617493,-16.058874,-10.589587,0.981158,-0.626368,-0.067674
956746400,-78.755264,-8.804132,-23.615950,0.804829,-0.578254,-0.011315
956766452,-68.037346,0.435399,-35.800613,0.812576,-0.558073,0.103294
956786503,-54.587032,7.548470,-43.742260,0.813400,-0.545512,0.143052
956806554,-53.645554,6.177632,-54.969887,0.962216,-0.504547,0.023484
956826605,-65.195320,3.852567,-61.331730,0.957233,-0.328466,-0.007581
956846656,-78.911148,11.604114,-41.148136,0.980056,-0.179027,-0.025236
956866707,-94.375107,26.243736,-17.592295,1.157990,-0.191507,-0.093357
956886758,-95.721214,41.111362,3.418868,1.122792,-0.152987,-0.017800
956906824,-93.580894,54.468380,12.481999,1.085764,-0.153492,0.124905
956926859,-83.021980,69.878853,14.645835,1.112989,-0.368136,0.066599
956946910,-82.181786,79.932648,11.753630,1.106772,-0.330280,0.097381
956966961,-90.618614,84.373833,-4.682321,1.284708,-0.276065,0.042484
956987012,-83.773705,83.009048,-29.417732,1.212847,0.094962,0.140925
957007063,-94.741455,79.134995,-45.998455,1.111785,0.414890,0.145413
957027114,-114.822182,70.623146,-41.096405,0.936869,0.293845,0.247364
957047165,-143.074036,58.951469,-31.625650,0.806654,0.359472,0.390915
957067216,-164.195465,38.775330,-28.577784,0.609490,0.251054,0.393953
957087267,-161.125595,12.676905,-35.021988,0.498954,-0.070332,0.421791
957107318,-139.170105,-25.230957,-36.475468,0.383910,-0.190694,0.294222
957127369,-136.996552,-63.836964,-22.276659,0.224640,0.285531,-0.284719
957147420,-175.078400,-85.372383,-16.163847,0.852125,0.710677,-0.666997
957167471,-148.075134,-73.137238,-44.431923,1.541888,-1.253106,-0.589574
957187522,-67.670387,-60.349709,-69.385857,1.685534,-1.650860,-0.106081
957207573,-13.079104,-26.563307,-54.545372,1.914847,-0.685369,0.137030
957227624,-1.540743,28.866617,-43.281029,1.934380,-0.535492,0.182603
957247675,-8.077271,69.407310,-34.020531,1.393250,-0.204546,0.199293
957267726,-22.661112,88.252296,-29.396566,1.018897,0.264376,0.187758
957287777,-33.957397,95.760536,-26.129215,1.011644,0.394726,0.442401
957307828,-14.681871,110.640343,-29.241558,0.887816,-0.370861,0.331416
957327881,-19.004616,110.062325,-16.573614,0.309127,-0.573626,0.039284
957347932,-25.282328,86.152328,-3.491114,0.353739,-0.146101,0.240142
957367983,-30.933769,88.767433,-4.286358,0.529962,0.053563,0.389131
957388034,-35.071587,101.694061,-3.942925,0.821907,0.256767,0.328411
957408085,-53.596031,115.641205,3.359511,1.011322,0.129391,0.209988
957428136,-67.741760,123.823708,3.359006,0.988140,0.017035,0.394802
957448187,-80.571144,121.462357,-2.615741,1.122437,-0.117721,0.615709
957468238,-73.961197,110.922119,-9.887852,1.003456,-0.133170,0.780727
957488289,-67.325699,94.609497,-24.787247,0.801753,-0.129335,0.864320
957508340,-58.490837,70.344238,-21.053669,0.544082,-0.281691,0.853714
957528391,-52.529930,41.538082,-15.719436,0.364186,-0.255095,0.860583
957548442,-42.300606,9.330097,-14.899612,0.281258,-0.252664,0.775990
957568493,-33.794483,-35.823856,-17.414791,0.333443,-0.043168,0.913625
957588565,-38.849083,-76.759460,-14.748171,0.524984,0.152954,1.079486
957608594,-66.452332,-113.806076,7.891076,0.447221,0.749297,1.108114
957628645,-123.701706,-135.392365,17.360674,0.726889,0.942805,0.674156
957648696,-130.416153,-132.557144,-2.693086,0.986398,-0.259834,0.348189
957668747,-43.843315,-128.559601,-58.942719,0.966711,-2.064319,0.268780
957688798,50.320560,-131.692627,-69.461761,0.969717,-1.143868,0.478270
957708849,61.840687,-121.121941,-55.731251,1.211795,-0.044298,0.436541
957728900,40.569271,-98.860664,-44.212276,1.027893,0.250769,0.277319
957748951,21.120447,-70.064636,-34.846161,0.688179,0.432548,0.130027
957769002,12.401946,-45.396072,-25.386204,0.627414,0.329605,0.049809
957789054,27.391701,-23.915354,-17.515144,0.852662,-0.155679,0.217888
957809105,57.752457,6.840966,-25.726084,1.284161,-0.675659,0.195247
957829156,48.320225,28.651190,-17.332239,1.304971,-0.706607,0.066697
957849207,17.484926,39.572926,11.622857,1.011506,0.031024,0.212128
957869258,0.674598,59.653458,24.223988,0.960477,0.631432,0.234900
957889309,-14.132171,75.239853,41.970856,1.109308,0.494819,0.310244
957909360,-22.919247,84.863525,36.248974,0.838124,-0.089668,0.332263
957929411,-15.405508,98.052284,13.244234,0.975379,-0.340001,0.277422
957949462,-17.491478,108.582741,4.735404,1.212626,-0.081585,0.344458
957969513,-24.468718,97.211807,4.981661,0.856668,0.042041,0.493190
957989564,-33.537357,77.259735,3.401376,0.994334,0.365354,0.532776
958009616,-55.197083,63.209171,-6.311901,0.784834,0.251271,0.605682
958029667,-63.244766,38.080433,-15.984191,0.480997,-0.058653,0.773070
958049718,-57.703697,0.280674,-19.380093,0.333535,-0.185800,0.984712
958069770,-52.201889,-50.923916,-14.013993,0.199392,0.111978,1.091466
958089820,-48.881123,-110.145813,11.487473,0.208970,-0.410736,0.916178
958109872,-68.698708,-138.839218,-14.235802,0.664017,0.680963,0.224227
958129922,-84.323372,-136.010345,-23.713776,1.288508,0.116066,-0.086175
958149974,-2.858248,-98.627327,-44.046303,1.212833,-2.258328,0.043287
958170025,70.645096,-83.781845,-35.460445,1.188636,-0.930195,0.474986
958190076,65.547058,-67.373230,-11.800643,1.411036,0.117312,0.519152
958210127,44.658394,-40.023102,-5.089248,1.155240,0.418889,0.273004
958230178,23.793072,-22.792702,-5.573316,0.620997,0.528981,0.142885
958250229,14.506878,-14.646480,-6.727399,0.495241,0.375615,0.226110
958270297,18.126574,-7.614735,-4.191209,0.687225,0.012152,0.347101
958290330,26.558447,-0.128000,-3.105853,1.143547,-0.259234,0.506708
958310381,15.435702,14.793621,-1.804321,1.456585,-0.094303,0.428313
958330432,6.465885,38.951576,-3.165268,1.227397,0.195531,0.112508
958350483,-4.990427,57.020298,6.310810,0.899002,0.275832,0.059900
958370534,-11.760569,72.467735,19.000179,0.886365,0.083125,0.227905
958390585,-11.435084,92.708664,18.877264,0.763524,-0.065718,0.309281
958410636,-5.802836,112.212280,16.731453,0.866067,-0.198198,0.362891
958430687,-5.327485,117.627586,28.588852,0.923230,-0.175397,0.366577
958450738,-6.526727,97.875603,30.097336,0.752790,-0.019792,0.639856
958470789,-7.389045,71.526566,22.905054,0.780089,0.063019,0.747153
958490840,-9.763760,50.681042,10.010120,0.719285,0.019049,0.846295
958510891,-15.964661,17.289637,-3.211613,0.543913,0.079304,1.059842
958530942,-26.137693,-38.723907,-2.567879,0.430759,0.094184,1.241999
958550993,-41.400005,-93.458336,0.316600,0.218180,0.351253,1.079378
958571044,-39.294506,-136.557251,11.211336,0.055213,-0.294862,0.463051
958591095,-43.035652,-146.157913,-7.216612,1.083406,0.380673,-0.345987
958611146,-28.704529,-115.773392,-24.007616,1.721493,-1.360290,-0.149087
958631197,25.125160,-93.908730,-24.367067,1.379029,-0.805537,0.701378
958651248,38.833950,-79.753433,-10.293469,1.061102,-0.252002,0.555209
958671299,40.043198,-72.473793,-3.293283,0.871707,-0.024777,0.200694
958691352,27.965731,-67.402695,-11.218961,0.642236,0.056479,0.161591
958711403,18.628635,-59.843296,-21.056488,0.611357,0.199201,0.210162
958731454,12.162598,-55.745064,-15.793392,0.696174,0.135358,0.314110
958751505,6.793737,-48.223389,-5.744997,0.881061,0.011227,0.328764
958771556,16.054527,-35.634537,0.544390,1.225012,-0.124242,0.243522
958791607,19.584171,-22.480026,-3.405337,1.296854,-0.160759,0.354333
958811658,9.033892,-11.356049,-10.154932,1.373479,-0.087368,0.341030
958831709,-3.802380,-2.790651,-10.983320,1.120433,-0.016631,0.192003
958851760,-5.065999,-7.275383,-8.170790,0.739544,0.000624,0.307798
958871811,-2.105015,-12.508817,-6.865370,0.682860,-0.014649,0.513971
958891862,4.173223,-10.323548,-7.534467,0.688131,-0.109234,0.563999
958911913,12.244216,-16.553352,-8.197933,0.747954,-0.106943,0.575303
958931965,19.377644,-37.232033,-0.997376,0.684922,-0.120641,0.541842
958952014,21.550879,-57.735634,1.816098,0.730790,-0.148531,0.304918
958972065,22.432600,-77.199226,-13.199268,0.632864,0.256011,0.074420
958992116,5.177769,-80.395821,-13.439897,1.013045,0.427703,-0.139450
959012167,-9.298384,-70.419807,-6.822457,1.463827,0.194736,-0.126832
959032218,-15.026530,-53.808384,-2.004422,1.458174,-0.177970,0.090293
959052269,-11.851948,-39.182167,-0.972142,1.357089,-0.061395,0.246912
959072320,-9.712616,-36.312775,5.156177,1.016197,0.059665,0.315074
959092371,-9.106639,-39.971939,4.539520,0.875186,0.037100,0.353780
959112422,-10.749571,-41.237602,0.588241,0.852437,-0.031695,0.241081
959132474,-3.461535,-38.042118,-1.039640,0.843928,0.001956,0.136205
959152525,6.374012,-33.137138,0.902964,0.938213,0.105476,0.143219
959172576,13.297022,-23.256248,-2.005933,1.054442,-0.074545,0.218653
959192627,19.251255,-12.727404,-14.269157,1.106203,-0.196637,0.314225
959212678,20.777304,-3.945627,-20.923960,1.143676,-0.153699,0.261099
959232729,21.432755,4.593230,-17.103502,1.195889,0.087224,0.238323
959252780,17.006838,12.956025,-14.258347,1.136093,0.074739,0.289666
959272831,4.879164,21.505404,-12.358503,1.146801,0.129299,0.348731
959292883,-13.111637,26.028543,-4.826727,1.098676,0.237855,0.354949
959312934,-21.483927,22.650368,1.432906,0.913697,0.238635,0.355355
959332985,-24.628834,18.906200,3.250701,0.895098,0.105694,0.344129
959353037,-35.842358,15.885897,6.622513,0.955805,0.048369,0.405389
959373088,-45.734821,14.145919,11.800821,0.996602,0.022935,0.456959
959393139,-38.623486,13.223940,9.921926,0.876123,-0.008606,0.372401
959413190,-24.064869,8.935601,-1.338304,0.758247,-0.176064,0.300432
959433241,-20.694767,7.710152,-4.116738,0.910813,-0.279902,0.328709
959453292,-25.746204,11.066977,0.094943,0.924367,-0.110668,0.420276
959473343,-28.250284,11.177378,5.719025,0.842807,0.014785,0.367623
959493394,-22.847902,7.378087,7.988754,0.855907,0.002351,0.347410
959513446,-24.756992,8.449146,11.252263,0.893562,-0.051588,0.420282
959533496,-27.667278,11.664434,14.880103,0.931573,-0.097141,0.443982
959553547,-17.293968,11.132113,13.620198,0.929301,-0.193840,0.397643
959573598,-3.864507,6.632502,9.712679,0.902417,-0.267513,0.370676
959593650,4.773129,3.723538,10.174416,0.900224,-0.241536,0.389628
959613699,10.981655,4.343968,13.019793,1.001773,-0.260599,0.400656
959633750,14.651049,7.759103,21.025276,0.992032,-0.211537,0.389386
959653801,15.450046,7.025716,31.448591,0.928474,-0.079134,0.388221
959673852,18.057503,2.634230,35.396286,0.900745,-0.130260,0.400704
959693903,27.677948,-1.177583,31.343735,0.916973,-0.283891,0.430589
959713954,42.803749,-2.307807,24.278744,0.889687,-0.349909,0.437249
959734005,57.151413,-3.378509,11.840342,0.875458,-0.281810,0.404460
959754056,62.690773,-1.927412,3.905811,0.963038,-0.173893,0.402287
959774108,59.281288,-1.441065,2.707854,0.951960,-0.148454,0.397551
959794159,53.753860,-0.420423,4.146274,0.899691,0.014272,0.399478
959814210,42.604790,1.413733,5.583859,0.988508,0.198597,0.396975
959834261,37.873852,5.805898,1.538376,1.024156,0.051731,0.407652
959854312,30.080341,6.109300,-2.438893,0.952125,-0.060024,0.418614
959874363,17.060286,4.785450,4.542869,0.962782,0.038384,0.417732
959894414,4.444076,3.572096,8.181787,1.010710,0.126137,0.409331
959914465,-1.030346,5.021556,2.964387,1.003725,-0.025953,0.417040
