Timestamp (us),Gyroscope X (deg/s),Gyroscope Y (deg/s),Gyroscope Z (deg/s),Accelerometer X (g),Accelerometer Y (g),Accelerometer Z (g)
3813086202,-0.095820,-0.001626,-0.026768,-0.327451,-0.943577,0.007197
3813106232,-0.156473,-0.008796,0.011222,-0.328818,-0.944207,0.007260
3813126262,0.003314,-0.001846,0.049099,-0.328625,-0.945203,0.006067
3813146291,0.026510,0.012926,-0.064830,-0.327228,-0.941837,0.005299
3813166320,-0.065408,-0.161548,-0.048004,-0.330143,-0.944094,0.004957
3813186350,0.033600,-0.047231,0.049673,-0.328509,-0.943195,0.005357
3813206380,0.048824,-0.039681,0.019093,-0.327803,-0.943571,0.006461
3813226410,-0.011469,0.074627,-0.019723,-0.325976,-0.945395,0.004922
3813246439,-0.004006,0.089854,0.048328,-0.327189,-0.945490,0.007001
3813266469,0.231478,-0.010799,-0.049256,-0.328825,-0.944811,0.001594
3813286499,0.154239,-0.131976,-0.040646,-0.326859,-0.942597,0.010411
3813306528,-0.012598,0.029091,-0.026812,-0.327102,-0.943527,0.013959
3813326558,-0.149252,0.090703,0.040844,-0.327456,-0.943215,0.007656
3813346589,-0.057689,0.051880,0.018418,-0.327131,-0.944470,0.003725
3813366618,0.086783,0.081382,0.033376,-0.327432,-0.943842,0.005825
3813386648,-0.050999,-0.054653,0.110047,-0.328335,-0.941655,0.006561
3813406678,-0.005494,-0.130960,0.064958,-0.328922,-0.943847,0.008266
3813426708,-0.072842,0.082450,0.040334,-0.329627,-0.945016,0.006326
3813446737,0.010590,-0.062725,-0.026701,-0.327532,-0.944390,0.006184
3813466767,0.064363,0.165440,0.039664,-0.327902,-0.945208,0.006261
3813486796,0.032791,-0.108671,0.019111,-0.327350,-0.943937,0.006373
3813506826,0.070104,-0.245566,0.012596,-0.327271,-0.942943,0.007571
3813526854,0.124325,0.013294,-0.027377,-0.325713,-0.944128,0.006124
3813546884,0.169036,-0.085698,0.018914,-0.329164,-0.944107,0.006160
3813566913,0.153087,-0.222398,-0.055687,-0.329786,-0.943644,0.005515
3813586943,0.335230,-0.078212,0.026693,-0.327795,-0.942478,0.006471
3813606973,0.158821,-0.366218,-0.046817,-0.328784,-0.943955,0.011006
3813627002,0.135996,-0.136535,0.110441,-0.329101,-0.943845,0.008080
3813647032,0.158136,-0.235173,0.103383,-0.329526,-0.944831,0.005782
3813667062,0.325280,-0.182513,0.042170,-0.327606,-0.945837,0.004434
3813687091,0.422388,-0.357379,0.058805,-0.327639,-0.945577,0.006719
3813707121,0.345461,-0.371328,0.020804,-0.327596,-0.944959,0.010012
3813727151,0.223823,-0.202605,-0.018524,-0.324493,-0.943246,0.009804
3813747181,0.177737,-0.217360,-0.063828,-0.328045,-0.943864,0.010197
3813767210,0.116653,-0.208741,-0.056207,-0.327984,-0.943569,0.006458
3813787241,0.176296,-0.299451,0.050817,-0.329434,-0.944377,0.005879
3813807271,0.260779,-0.041001,-0.042416,-0.326932,-0.945134,0.008104
3813827301,0.177289,0.149824,-0.005998,-0.327229,-0.943779,0.010302
3813847331,0.107429,-0.055422,0.048662,-0.328152,-0.945595,0.010453
3813867360,0.070076,0.134977,0.024207,-0.330579,-0.943391,0.009886
3813887390,0.122653,0.012746,0.017660,-0.328252,-0.942657,0.006553
3813907419,0.168356,0.149357,0.016500,-0.326462,-0.943133,0.008039
3813927448,0.175110,0.004264,-0.027801,-0.328568,-0.944126,0.008725
3813947478,0.098614,-0.018090,-0.004824,-0.329582,-0.944125,0.009713
3813967507,0.022209,-0.048017,0.002982,-0.328155,-0.942508,0.012034
3813987536,-0.053330,0.112300,0.054516,-0.327419,-0.945416,0.010102
3814007566,-0.075690,0.134853,0.008829,-0.328333,-0.944504,0.010917
3814027595,-0.014594,0.111028,-0.074301,-0.328281,-0.943758,0.007912
3814047625,-0.113982,-0.025368,-0.012436,-0.326780,-0.944056,0.010490
3814067655,-0.120873,0.073671,-0.020803,-0.328579,-0.942585,0.010109
3814087685,-0.150912,0.103931,-0.005930,-0.328771,-0.943950,0.010185
3814107714,-0.219045,0.104429,0.047094,-0.329072,-0.942108,0.007001
3814127744,-0.119873,0.088330,0.069859,-0.326929,-0.942680,0.009039
3814147774,-0.127500,-0.041204,0.010183,-0.327822,-0.944940,0.007087
3814167803,-0.111999,-0.064199,-0.019953,-0.327184,-0.945307,0.006729
3814187833,0.055346,-0.057156,0.002888,-0.329348,-0.946832,0.005127
3814207863,0.161101,-0.164013,-0.003742,-0.327110,-0.945677,0.007639
3814227892,0.176396,-0.057180,-0.019790,-0.326726,-0.941311,0.008325
3814247923,0.122746,-0.034003,0.002758,-0.327181,-0.943670,0.007292
3814267953,0.031314,-0.071592,-0.034771,-0.327601,-0.945324,0.010191
3814287983,0.107135,-0.056424,0.010639,-0.326647,-0.943405,0.008124
3814308012,0.137458,-0.049084,-0.065164,-0.327835,-0.945399,0.007721
3814328042,0.167390,-0.003217,0.033074,-0.327645,-0.944489,0.007550
3814348071,0.128757,-0.125007,-0.049310,-0.327842,-0.944312,0.008644
3814368101,0.181139,-0.177779,0.019409,-0.328318,-0.944771,0.009819
3814388131,0.165851,-0.101330,0.003589,-0.327459,-0.945703,0.012563
3814408160,-0.138861,-0.236417,-0.003044,-0.328054,-0.942505,0.011396
3814428189,-0.116018,-0.281541,0.020110,-0.324877,-0.943524,0.010982
3814448218,-0.160722,-0.189333,-0.018534,-0.328055,-0.945503,0.010091
3814468248,-0.205289,0.016650,0.017540,-0.327596,-0.943233,0.010849
3814488278,-0.219936,0.039684,0.055184,-0.327664,-0.943951,0.009016
3814508307,-0.257372,-0.082366,-0.087883,-0.327205,-0.942862,0.009216
3814528337,-0.264133,0.100903,0.069905,-0.325057,-0.943249,0.010982
3814548366,-0.331906,0.047739,0.047465,-0.330646,-0.943745,0.008239
3814568396,-0.384101,0.062961,0.024426,-0.328712,-0.942566,0.007003
3814588426,-0.330129,0.078029,0.069653,-0.328700,-0.942471,0.006274
3814608455,-0.313984,0.054724,0.024285,-0.327538,-0.942576,0.007387
3814628485,-0.282822,0.077353,0.046732,-0.330094,-0.944109,0.007605
3814648515,-0.214121,0.015924,0.077445,-0.328438,-0.944657,0.005984
3814668544,-0.114677,0.038231,0.039245,-0.331299,-0.945928,0.008391
3814688575,-0.061549,-0.099388,-0.020259,-0.328374,-0.943486,0.008187
3814708605,-0.084795,-0.312032,-0.078979,-0.329192,-0.944662,0.007706
3814728635,-0.039048,-0.250479,-0.003526,-0.329082,-0.944747,0.006429
3814748665,0.029316,-0.288243,-0.033486,-0.329250,-0.943469,0.006164
3814768694,0.166062,-0.234945,0.004081,-0.327110,-0.944041,0.008385
3814788724,0.142446,-0.302553,0.027352,-0.326745,-0.944225,0.008206
3814808753,0.066427,-0.248170,0.011680,-0.327205,-0.945950,0.007818
3814828783,-0.010227,-0.460456,-0.069975,-0.329511,-0.943826,0.005244
3814848813,0.232606,-0.467883,-0.016547,-0.329503,-0.943097,0.005068
3814868841,0.231151,-0.672079,-0.007235,-0.329981,-0.942285,0.006985
3814888870,0.374727,-0.678565,0.023266,-0.323005,-0.939063,0.009410
3814908900,0.277452,-0.067868,0.063445,-0.327895,-0.941878,0.013139
3814928930,0.034923,0.283411,0.105721,-0.328171,-0.945512,0.011732
3814948960,-0.117189,0.161504,0.000317,-0.327493,-0.947714,0.013822
3814968989,-0.215346,0.207151,-0.022793,-0.325529,-0.945525,0.011136
3814989019,-0.245227,0.237444,0.037554,-0.329512,-0.944644,0.004962
3815009049,-0.115211,0.327534,0.051918,-0.325941,-0.941963,0.010066
3815029078,-0.203729,0.966131,0.114520,-0.325210,-0.943635,0.014810
3815049108,-0.458915,1.474009,-0.003796,-0.328938,-0.940491,0.010762
3815069138,-0.426429,1.705729,-0.005714,-0.331304,-0.941626,0.004779
3815089167,-0.220533,1.639525,0.010021,-0.330461,-0.943257,0.002403
3815109197,0.082326,1.268963,0.005697,-0.326484,-0.945072,-0.003118
3815129227,0.498626,0.921132,-0.044266,-0.327435,-0.946263,-0.000862
3815149258,0.663198,0.606040,-0.079312,-0.327674,-0.944011,0.003811
3815169287,0.759751,0.513049,-0.017645,-0.328018,-0.944672,0.008090
3815189317,0.682282,0.572798,-0.078816,-0.329678,-0.942400,0.010823
3815209346,0.657869,0.624880,-0.033636,-0.327849,-0.942861,0.009753
3815229376,0.572409,0.540069,-0.040485,-0.326673,-0.944414,0.009301
3815249406,0.570612,0.477975,-0.017108,-0.328004,-0.942486,0.008202
3815269435,0.560723,0.286809,0.007289,-0.328848,-0.943945,0.009270
3815289465,0.618923,0.057838,0.077388,-0.328700,-0.944322,0.011278
3815309494,0.487719,-0.124327,0.002881,-0.329381,-0.943120,0.008904
3815329523,0.432544,-0.214414,0.132317,-0.329536,-0.944778,0.012264
3815349553,0.332699,-0.312629,0.011617,-0.329282,-0.942060,0.014667
3815369582,0.188512,-0.098239,-0.012990,-0.330010,-0.942511,0.014560
3815389612,-0.017580,-0.233913,-0.011911,-0.329425,-0.944259,0.017018
3815409642,-0.100135,-0.027474,-0.021272,-0.325728,-0.944803,0.012600
3815429671,-0.237514,-0.209105,0.025735,-0.326172,-0.944433,0.012139
3815449701,-0.274807,-0.208285,0.018061,-0.327883,-0.943872,0.011478
3815469731,-0.334907,-0.169397,0.047997,-0.328067,-0.943236,0.011937
3815489760,-0.469639,0.021482,-0.059804,-0.328094,-0.941974,0.014231
3815509790,-0.733883,0.220996,0.082342,-0.325006,-0.943083,0.013632
3815529820,-0.936199,0.457430,0.095249,-0.325847,-0.943632,0.014891
3815549849,-1.145289,0.746170,0.084849,-0.326759,-0.943718,0.015149
3815569879,-1.255951,0.836067,0.068670,-0.327023,-0.943350,0.014783
3815589909,-1.751551,1.437373,0.055641,-0.322779,-0.942386,0.016687
3815609940,-2.200821,2.037249,0.178987,-0.328683,-0.941624,0.017237
3815629969,-2.708592,2.665288,0.006353,-0.330588,-0.941248,0.017301
3815649999,-3.218690,3.364313,-0.037722,-0.329958,-0.941980,0.017304
3815670028,-3.703969,3.655997,-0.078316,-0.328573,-0.942492,0.009745
3815690058,-3.960961,4.129709,0.046478,-0.325743,-0.945956,0.007202
3815710088,-4.118771,4.625478,0.095313,-0.323875,-0.944437,0.010351
3815730118,-4.937376,5.292226,0.149976,-0.321376,-0.943594,0.019346
3815750147,-5.943787,6.385686,0.041741,-0.321556,-0.939992,0.026680
3815770191,-7.602848,7.855900,0.028594,-0.324269,-0.939153,0.026370
3815790205,-9.154905,9.554278,0.127315,-0.324954,-0.938589,0.023990
3815810250,-10.942423,11.230737,0.127539,-0.324724,-0.941365,0.031272
3815830264,-13.367399,13.329745,0.283131,-0.318595,-0.938273,0.041351
3815850294,-16.635284,15.730271,0.496440,-0.320189,-0.940769,0.049245
3815870324,-20.236809,18.276880,0.617376,-0.319345,-0.938947,0.048362
3815890354,-24.225697,21.054447,0.902992,-0.316540,-0.939479,0.042925
3815910383,-28.047308,23.938126,1.316694,-0.312969,-0.940820,0.034572
3815930413,-31.846237,26.852386,1.805972,-0.321367,-0.940287,0.014447
3815950443,-35.266449,29.422142,2.305907,-0.318941,-0.939847,-0.001212
3815970472,-38.656406,32.213566,3.130026,-0.315432,-0.942017,-0.023451
3815990502,-41.972115,34.662460,4.070789,-0.315771,-0.947662,-0.039211
3816010531,-45.368950,37.613686,4.870816,-0.309567,-0.946714,-0.052339
3816030561,-49.276539,40.622505,6.147787,-0.302869,-0.944673,-0.050112
3816050593,-53.959709,43.864822,7.733287,-0.298581,-0.945988,-0.063657
3816070622,-58.549496,47.761776,9.472561,-0.293887,-0.943554,-0.095785
3816090651,-62.908585,50.668968,11.508378,-0.294816,-0.941446,-0.128372
3816110681,-67.265175,54.422028,13.832796,-0.286980,-0.936444,-0.151205
3816130711,-71.807320,57.682381,16.479710,-0.277410,-0.930383,-0.185776
3816150740,-76.079178,60.425034,19.525372,-0.285284,-0.932543,-0.229015
3816170770,-80.244873,63.305008,22.827721,-0.281127,-0.930681,-0.256044
3816190800,-84.716957,65.913742,26.480978,-0.268101,-0.923277,-0.290364
3816210829,-89.116325,68.074509,30.585377,-0.270989,-0.909471,-0.343417
3816230858,-93.165710,70.554214,35.013298,-0.273159,-0.897136,-0.379125
3816250887,-97.030327,71.654884,39.346737,-0.275455,-0.883622,-0.429523
3816270917,-100.867416,72.460243,44.190666,-0.254605,-0.868174,-0.461268
3816290946,-105.170074,73.201134,49.497429,-0.247172,-0.849241,-0.498494
3816310976,-109.164124,73.423782,55.104389,-0.257419,-0.813941,-0.558953
3816331006,-112.363113,72.674835,60.507595,-0.247741,-0.787390,-0.608579
3816351036,-115.678787,71.577599,66.277603,-0.241430,-0.764044,-0.635923
3816371066,-119.110703,70.215706,72.390984,-0.228561,-0.734701,-0.667669
3816391095,-123.123505,68.156830,78.570587,-0.221811,-0.696353,-0.722163
3816411125,-126.658112,66.279655,85.211403,-0.214543,-0.646605,-0.763945
3816431154,-129.650421,62.967869,91.637054,-0.223474,-0.593830,-0.807697
3816451184,-131.991745,58.860638,97.955986,-0.204953,-0.535183,-0.856792
3816471213,-134.266602,54.357609,104.384415,-0.216270,-0.495404,-0.887374
3816491244,-136.992874,48.774513,110.344025,-0.212630,-0.465266,-0.920814
3816511274,-140.016815,42.697330,116.034676,-0.199488,-0.414508,-0.954549
3816531304,-143.146896,35.993660,120.866180,-0.198445,-0.343391,-0.983362
3816551334,-145.113831,28.466074,124.719498,-0.190940,-0.248869,-1.002634
3816571363,-145.626114,20.179180,126.889061,-0.178194,-0.154537,-1.026203
3816591393,-145.433151,11.531091,126.878372,-0.172552,-0.093019,-1.022439
3816611422,-145.065094,3.072898,127.025375,-0.145030,-0.007041,-1.019188
3816631452,-143.817978,-5.234226,125.943268,-0.161904,0.086992,-1.006541
3816651482,-141.195618,-13.425447,125.277840,-0.165478,0.165539,-0.992088
3816671510,-137.822113,-21.565563,125.150688,-0.175370,0.242412,-0.980765
3816691540,-135.614075,-29.544369,125.885971,-0.175249,0.249518,-0.996947
3816711569,-136.041031,-38.154461,127.148453,-0.180149,0.255986,-1.023260
3816731599,-139.507874,-47.277035,129.672379,-0.150439,0.229182,-1.019373
3816751629,-145.642319,-58.029778,132.155655,-0.134001,0.268305,-1.013632
3816771658,-151.721024,-69.694954,132.751083,-0.138274,0.367546,-0.985760
3816791688,-155.882233,-81.257317,130.715576,-0.111395,0.476958,-0.907442
3816811718,-157.460724,-92.288612,125.431725,-0.116041,0.598048,-0.845779
3816831747,-156.445831,-101.362625,117.744324,-0.110741,0.683816,-0.750866
3816851777,-153.192520,-108.839081,108.778381,-0.106738,0.755491,-0.643325
3816871807,-148.228149,-114.926369,99.111626,-0.118137,0.835537,-0.580507
3816891836,-143.544647,-118.773163,89.782280,-0.080371,0.835578,-0.533790
3816911866,-139.764053,-122.433678,80.102158,-0.112528,0.888487,-0.497032
3816931897,-135.902008,-124.731949,70.463715,-0.113690,0.898545,-0.423831
3816951927,-132.724335,-126.896545,61.020954,-0.097677,0.919879,-0.381470
3816971956,-129.676743,-128.983185,51.918671,-0.126181,0.950041,-0.321491
3816991986,-126.675484,-129.372131,42.824852,-0.119171,0.964022,-0.258164
3817012016,-123.135231,-129.388565,34.440891,-0.122921,0.980247,-0.161760
3817032046,-118.751915,-127.643059,26.194180,-0.147400,0.987094,-0.090976
3817052075,-113.733688,-124.834793,18.090496,-0.155866,0.985224,-0.026404
3817072105,-108.434814,-121.331779,11.042611,-0.160588,0.981182,0.047521
3817092134,-102.567398,-117.845360,4.487977,-0.184488,0.961305,0.092322
3817112162,-97.312119,-114.527496,-1.095026,-0.198710,0.964293,0.126536
3817132192,-92.503250,-110.108833,-5.982353,-0.198483,0.953238,0.147709
3817152222,-88.732086,-106.315300,-10.523738,-0.191951,0.954243,0.171744
3817172251,-84.860382,-101.522736,-14.345578,-0.224625,0.921922,0.267046
3817192281,-78.831940,-94.813026,-17.340858,-0.209729,0.901126,0.350356
3817212311,-72.303703,-88.157425,-19.789532,-0.237712,0.916360,0.329410
3817232340,-71.360992,-86.412247,-22.222424,-0.248383,0.977190,0.138995
3817252370,-78.900391,-91.771255,-27.405148,-0.215421,1.054989,-0.023988
3817272400,-90.204842,-99.057770,-34.506943,-0.239692,1.029711,0.088680
3817292429,-97.539185,-101.872597,-41.090874,-0.143583,1.005068,0.167157
3817312459,-104.128098,-102.712189,-47.637955,-0.167134,0.961389,0.295186
3817332489,-107.015045,-102.936302,-53.202736,-0.176123,0.884746,0.405983
3817352518,-109.545685,-101.793190,-59.066948,-0.156491,0.910161,0.416123
3817372548,-114.288788,-101.226898,-65.655266,-0.141116,0.909647,0.425498
3817392579,-118.762672,-99.579849,-71.858261,-0.135318,0.833496,0.513990
3817412609,-121.931725,-97.531784,-78.988998,-0.166365,0.817179,0.518082
3817432638,-126.383156,-95.884605,-87.383224,-0.134251,0.817964,0.584069
3817452668,-130.146439,-92.181389,-96.711815,-0.155343,0.736681,0.659661
3817472698,-132.200348,-87.935646,-104.982620,-0.145285,0.661373,0.708244
3817492727,-133.792206,-82.200203,-113.189896,-0.114130,0.599358,0.766514
3817512757,-135.285965,-75.952400,-120.537064,-0.113640,0.537212,0.817528
3817532787,-135.201508,-68.975937,-126.009232,-0.110204,0.443346,0.869027
3817552819,-134.144684,-60.910782,-129.882660,-0.089591,0.364381,0.908618
3817572844,-132.450195,-52.435268,-132.955505,-0.105545,0.272285,0.958449
3817592874,-129.280609,-42.889957,-134.732513,-0.112491,0.183135,0.961711
3817612904,-126.346039,-34.337746,-137.941910,-0.130193,0.134019,0.968456
3817632934,-124.058434,-26.048895,-141.263123,-0.133860,0.100486,0.990453
3817652964,-122.729874,-18.166603,-144.763382,-0.138837,0.090883,1.002517
3817672993,-123.517128,-10.072150,-147.356552,-0.112921,0.101434,0.992993
3817693023,-126.272995,-1.264762,-151.556503,-0.077267,0.036887,1.011965
3817713052,-128.403610,8.072630,-153.341904,-0.092205,-0.013278,0.992360
3817733082,-131.376968,18.185268,-154.535233,-0.063884,-0.067793,0.985469
3817753112,-134.252014,28.542507,-155.268066,-0.095679,-0.173767,0.979407
3817773141,-135.663086,39.422840,-154.321365,-0.108194,-0.278136,0.942817
3817793171,-135.679550,50.262032,-152.092270,-0.107417,-0.370832,0.920883
3817813201,-135.215988,60.516811,-148.599380,-0.116533,-0.450712,0.898725
3817833232,-133.881683,69.914688,-142.763596,-0.145370,-0.526255,0.856475
3817853261,-131.836517,77.784149,-135.345123,-0.143126,-0.578052,0.817233
3817873291,-129.977402,86.040291,-128.673080,-0.145289,-0.653188,0.770490
3817893321,-127.194160,92.246727,-121.172058,-0.166984,-0.713944,0.731141
3817913350,-124.324020,97.761589,-113.210266,-0.150535,-0.747725,0.679880
3817933380,-121.474464,103.266624,-105.938370,-0.165964,-0.797086,0.616454
3817953410,-117.855614,107.367546,-98.510262,-0.182483,-0.846121,0.576476
3817973439,-114.165291,111.151711,-90.086189,-0.195153,-0.887822,0.508418
3817993482,-109.356293,112.811768,-82.288231,-0.201095,-0.909789,0.454529
3818013497,-105.376663,114.415756,-74.368881,-0.220936,-0.910993,0.416400
3818033527,-101.718414,115.213326,-66.822029,-0.248366,-0.930818,0.361633
3818053557,-97.643616,115.291840,-59.670795,-0.246923,-0.934956,0.319623
3818073586,-94.186310,114.840286,-52.674625,-0.236955,-0.949995,0.279112
3818093616,-90.437263,114.743538,-46.098312,-0.269238,-0.966682,0.222561
3818113646,-85.940643,113.226379,-39.714424,-0.267428,-0.973775,0.155698
3818133675,-81.209015,111.464081,-33.426933,-0.272171,-0.977005,0.120716
3818153705,-76.796707,109.481812,-27.410706,-0.278494,-0.971483,0.086247
3818173734,-72.566628,106.888786,-22.223473,-0.300703,-0.984586,0.060659
3818193764,-68.847466,103.451591,-17.620802,-0.296599,-0.972455,0.053352
3818213794,-66.166206,100.451813,-13.606129,-0.287834,-0.972935,0.032492
3818233823,-63.785229,98.122299,-9.930841,-0.288331,-0.965182,0.015484
3818253853,-62.679390,97.945038,-6.569943,-0.286721,-0.967415,0.021880
3818273885,-63.364151,98.568398,-3.353111,-0.276709,-0.964207,0.039144
3818293914,-65.483543,99.816109,-0.081558,-0.290020,-0.971279,0.016222
3818313944,-67.286087,100.414970,3.142521,-0.272039,-0.964397,-0.027517
3818333974,-68.178802,100.629425,6.665970,-0.268005,-0.954738,-0.095468
3818354003,-67.835686,100.007729,10.212201,-0.284572,-0.955610,-0.162937
3818374033,-66.727493,98.566994,13.606455,-0.276204,-0.942985,-0.181491
3818394062,-66.704659,97.382355,16.747826,-0.293117,-0.935340,-0.193746
3818414092,-66.275269,95.137199,19.792147,-0.306853,-0.930161,-0.271156
3818434129,-64.247353,93.332596,22.818378,-0.306363,-0.898653,-0.317416
3818454150,-62.460915,91.840797,25.675058,-0.302673,-0.899802,-0.327501
3818474180,-61.456268,90.711044,28.573812,-0.295889,-0.906361,-0.334663
3818494209,-61.399063,90.469963,31.676950,-0.287370,-0.908011,-0.357729
3818514239,-61.602989,89.751419,34.988686,-0.307025,-0.901402,-0.392587
3818534268,-61.231091,88.152855,37.822830,-0.281730,-0.876831,-0.431571
3818554298,-60.624062,86.507774,40.771214,-0.275554,-0.856704,-0.469171
3818574328,-59.431229,84.828621,43.568527,-0.284125,-0.830016,-0.507133
3818594357,-58.079315,82.835846,46.156246,-0.284309,-0.808225,-0.526197
3818614387,-56.782005,80.256210,48.438004,-0.300802,-0.790195,-0.554874
3818634417,-55.216465,77.940536,50.406807,-0.300932,-0.773143,-0.573707
3818654446,-54.403339,75.429810,52.043274,-0.302369,-0.766463,-0.577503
3818674476,-53.551910,72.758087,53.392986,-0.308270,-0.740447,-0.612324
3818694506,-51.827583,68.799110,53.601448,-0.304204,-0.703861,-0.658479
3818714537,-48.376423,64.371407,52.950317,-0.305839,-0.652458,-0.693361
3818734566,-44.141357,59.418976,51.416870,-0.308606,-0.652222,-0.731200
3818754596,-40.147987,54.351543,49.254959,-0.306625,-0.635615,-0.722615
3818774626,-36.266754,49.122238,46.313385,-0.321923,-0.616621,-0.746059
3818794656,-32.064545,43.736687,42.683319,-0.311946,-0.599721,-0.749392
3818814685,-28.385824,38.926029,39.419689,-0.312671,-0.590598,-0.751145
3818834715,-25.176695,35.423050,37.221508,-0.299634,-0.587273,-0.741500
3818854744,-23.038359,33.483749,36.571602,-0.314142,-0.593025,-0.739415
3818874784,-22.130636,31.993204,36.144794,-0.298032,-0.626437,-0.728050
3818894803,-22.811453,30.579370,35.655914,-0.298733,-0.640391,-0.724357
3818914833,-23.925674,30.069792,36.288971,-0.294565,-0.620968,-0.732508
3818934862,-24.614157,29.580923,36.959969,-0.298805,-0.590841,-0.755487
3818954892,-24.236517,29.015869,37.025551,-0.300592,-0.564123,-0.774349
3818974921,-23.249405,28.125301,36.320793,-0.309361,-0.539664,-0.788964
3818994951,-21.615910,27.124168,35.442879,-0.317797,-0.520191,-0.792208
3819014980,-19.990324,26.260975,34.829178,-0.317103,-0.506422,-0.795538
3819035010,-18.601479,25.491823,34.646759,-0.327717,-0.504025,-0.789207
3819055040,-17.814053,24.955957,34.985252,-0.328067,-0.504142,-0.784284
3819075070,-17.421490,24.589848,35.382786,-0.320751,-0.504350,-0.787727
3819095099,-17.417353,24.134756,35.871857,-0.316168,-0.503057,-0.795766
3819115129,-17.443541,23.572727,36.202599,-0.307525,-0.497404,-0.805980
3819135158,-17.385324,22.764877,35.997112,-0.311657,-0.483633,-0.820071
3819155189,-16.794708,21.732349,35.460155,-0.304622,-0.468479,-0.833510
3819175219,-15.883921,20.452675,34.364349,-0.305884,-0.451742,-0.843966
3819195249,-14.629501,19.299585,32.971947,-0.311704,-0.435743,-0.847747
3819215278,-12.957068,18.022141,31.474644,-0.307509,-0.428791,-0.857383
3819235308,-11.314342,16.782352,29.810202,-0.315964,-0.420715,-0.858815
3819255338,-9.715875,15.526124,27.713696,-0.318084,-0.409415,-0.857467
3819275367,-8.040655,14.391047,25.547970,-0.318508,-0.404734,-0.863091
3819295397,-6.190701,12.880651,22.960882,-0.313257,-0.397528,-0.870516
3819315427,-4.203294,11.185473,19.965979,-0.303555,-0.383807,-0.875162
3819335455,-1.356493,9.317325,16.684822,-0.315002,-0.363924,-0.883106
3819355484,1.972402,7.130069,12.072128,-0.312858,-0.350801,-0.886602
3819375514,5.298374,5.121611,8.564918,-0.273707,-0.387519,-0.863847
3819395544,5.986760,4.945722,9.408341,-0.325840,-0.414593,-0.851524
3819415573,6.185521,5.050570,9.210423,-0.320683,-0.426963,-0.844343
3819435603,5.919428,4.516928,8.547549,-0.307969,-0.444823,-0.841015
3819455633,5.038046,4.383442,8.207048,-0.309298,-0.443440,-0.842484
3819475662,4.765841,3.901817,7.157049,-0.309616,-0.425730,-0.848990
3819495692,5.406150,3.124744,5.700535,-0.314082,-0.409891,-0.858137
3819515722,6.434060,2.223478,4.139103,-0.310308,-0.411836,-0.856541
3819535751,7.128101,1.705475,2.847247,-0.317242,-0.423229,-0.847904
3819555781,7.258004,1.192012,2.017589,-0.318018,-0.435938,-0.838813
3819575811,6.863168,0.971916,1.587066,-0.315476,-0.446378,-0.831930
3819595842,5.882524,1.053403,1.638982,-0.313195,-0.457175,-0.825876
3819615871,4.544330,1.152287,1.773983,-0.311190,-0.470970,-0.820950
3819635901,2.620230,1.399987,2.233481,-0.306254,-0.484683,-0.817710
3819655931,0.116385,1.285833,2.824634,-0.299621,-0.495691,-0.811405
3819675961,-3.133432,1.711570,4.343492,-0.295036,-0.518128,-0.795379
3819695993,-7.922151,3.104055,7.984062,-0.309163,-0.544905,-0.780702
3819716020,-13.705209,5.937087,12.893432,-0.334902,-0.545274,-0.783771
3819736049,-19.570621,8.471159,17.047060,-0.322612,-0.541909,-0.796047
3819756079,-25.231655,10.057281,20.306480,-0.322079,-0.529370,-0.807060
3819776107,-30.276054,11.822766,23.549524,-0.311391,-0.510778,-0.820318
3819796137,-35.286629,13.126104,27.494019,-0.290348,-0.491884,-0.833769
3819816167,-40.055523,14.223438,31.675407,-0.293149,-0.478531,-0.840173
3819836196,-44.985725,15.575531,36.665863,-0.300566,-0.463088,-0.840789
3819856226,-49.893669,17.035084,41.958714,-0.303203,-0.447891,-0.851099
3819876256,-54.918034,17.886198,47.218704,-0.296527,-0.439035,-0.861864
3819896285,-60.553787,18.208729,52.778542,-0.293354,-0.427236,-0.873663
3819916315,-66.457138,18.648861,58.936241,-0.287188,-0.403489,-0.891510
3819936345,-72.386742,18.091351,64.905182,-0.283364,-0.377392,-0.903623
3819956374,-78.265892,17.536396,71.715729,-0.273151,-0.343895,-0.926244
3819976404,-83.829544,15.959461,78.428871,-0.274694,-0.313738,-0.941693
3819996434,-89.925613,14.087474,84.840942,-0.264787,-0.274801,-0.959705
3820016463,-95.552902,11.214355,90.806717,-0.261752,-0.231360,-0.977421
3820036494,-100.969856,7.448447,96.446480,-0.245555,-0.179518,-0.997037
3820056524,-106.213493,2.980005,101.690376,-0.232113,-0.132406,-0.999304
3820076553,-110.934441,-2.444666,106.343567,-0.225415,-0.071170,-1.010954
3820096583,-115.053345,-8.279068,110.067886,-0.210188,0.002515,-1.010846
3820136642,-120.817421,-20.888788,113.226562,-0.199085,0.133729,-0.999684
3820156672,-122.189987,-27.687342,112.972115,-0.198000,0.222671,-0.976568
3820176702,-122.393867,-34.123108,111.524796,-0.210170,0.291608,-0.945088
3820196732,-122.000702,-40.214550,109.286331,-0.210414,0.353158,-0.924803
3820216760,-121.284889,-46.563187,108.035873,-0.207486,0.413505,-0.904752
3820236790,-121.143837,-53.722000,107.155861,-0.199080,0.427861,-0.907495
3820256819,-122.432480,-61.140411,106.049881,-0.184177,0.468086,-0.901769
3820276848,-123.839203,-68.164406,104.341545,-0.175648,0.512662,-0.869630
3820296878,-125.603142,-75.622276,102.068016,-0.170498,0.579156,-0.843734
3820316908,-126.479584,-82.784782,98.480743,-0.166476,0.633209,-0.791862
3820336937,-126.602646,-89.027260,93.513741,-0.149424,0.678434,-0.723792
3820356967,-125.689499,-95.193390,87.985519,-0.165692,0.750040,-0.661131
3820376997,-124.092804,-100.070793,81.961563,-0.160386,0.777678,-0.610487
3820397026,-122.473549,-103.358322,75.674042,-0.162643,0.812528,-0.554786
3820417056,-120.560791,-105.964195,68.835037,-0.171034,0.849942,-0.494596
3820437086,-118.485573,-107.969963,61.884930,-0.166986,0.880452,-0.466768
3820457115,-116.528275,-109.245140,54.708740,-0.178230,0.902721,-0.399370
3820477147,-114.302696,-109.820755,47.739105,-0.175160,0.915088,-0.351916
3820497176,-112.458694,-110.476967,41.095997,-0.169351,0.948144,-0.325223
3820517206,-111.489677,-110.952095,34.867958,-0.174731,0.946083,-0.278131
3820537236,-110.499039,-111.601913,28.785460,-0.169258,0.957691,-0.227905
3820557265,-109.186661,-111.682648,22.675591,-0.182899,0.975295,-0.154473
3820577295,-107.226807,-111.385910,16.661432,-0.172044,0.973820,-0.100264
3820597325,-105.265015,-110.517876,10.763792,-0.180187,0.975873,-0.037111
3820617354,-103.064941,-108.774773,5.162205,-0.186231,0.970502,0.016148
3820637384,-100.300201,-106.440536,-0.322759,-0.189464,0.970835,0.072245
3820657412,-97.354248,-104.098358,-5.421014,-0.195238,0.962438,0.112699
3820677442,-94.691544,-101.821472,-10.010858,-0.199886,0.960193,0.159345
3820697471,-91.861153,-99.186699,-14.292757,-0.217667,0.949229,0.200037
3820717501,-89.364922,-96.107178,-18.131207,-0.212653,0.940703,0.235644
3820737531,-87.396248,-93.602768,-21.790699,-0.222350,0.930871,0.276569
3820757560,-85.109032,-90.954002,-25.034227,-0.225909,0.909234,0.320315
3820777590,-82.693008,-88.504211,-28.389759,-0.223700,0.889067,0.355860
3820817649,-78.076744,-83.676971,-34.311775,-0.229031,0.867299,0.408340
3820837679,-76.453568,-81.129074,-36.902714,-0.238340,0.854237,0.440477
3820857709,-74.700500,-78.284439,-39.321701,-0.243489,0.834386,0.476362
3820877738,-72.719849,-75.150017,-41.227425,-0.243234,0.807921,0.500406
3820897768,-70.823586,-72.358353,-43.327446,-0.244782,0.794646,0.529563
3820917799,-69.180069,-69.815681,-45.175289,-0.254727,0.780440,0.555380
3820937829,-67.796204,-67.262833,-46.666985,-0.251119,0.771189,0.575986
3820957858,-66.580482,-64.914543,-48.141880,-0.257021,0.751037,0.601813
3820977888,-65.052147,-62.140820,-49.362400,-0.261763,0.721661,0.630587
3820997918,-63.495602,-59.579006,-50.179283,-0.268149,0.697628,0.650802
3821017950,-61.908627,-56.940933,-50.905804,-0.261602,0.678584,0.676386
3821037977,-60.176620,-54.067265,-51.512917,-0.265135,0.654787,0.700028
3821058007,-58.553024,-51.703129,-52.153713,-0.271802,0.637451,0.712175
3821078036,-57.172199,-49.238876,-52.833385,-0.266532,0.622023,0.728186
3821098064,-56.211185,-47.214035,-53.555054,-0.276434,0.600871,0.742253
3821118094,-54.809719,-45.053417,-53.951622,-0.288143,0.572762,0.764261
3821158154,-51.132206,-40.309017,-54.285381,-0.284152,0.510283,0.806018
3821198213,-45.641907,-35.141785,-52.779366,-0.291770,0.444098,0.839517
3821218242,-42.426804,-32.299316,-51.270088,-0.302367,0.421599,0.851005
3821238272,-39.115948,-30.119188,-49.641476,-0.305459,0.412010,0.858626
3821258302,-36.503464,-27.806547,-48.188698,-0.302829,0.412265,0.858945
3821278331,-34.181049,-25.781637,-46.741230,-0.305856,0.416634,0.862862
3821298361,-33.061161,-24.498129,-45.834038,-0.303925,0.422115,0.858014
3821318391,-31.674196,-22.544403,-44.393997,-0.313541,0.377790,0.878171
3821338420,-29.158974,-20.767780,-41.776707,-0.320089,0.327352,0.896770
3821358451,-25.533386,-18.194817,-38.270878,-0.300683,0.301389,0.892281
3821378481,-21.605839,-16.653225,-37.682938,-0.312680,0.264463,0.911281
3821398511,-16.600435,-15.895176,-37.520073,-0.335380,0.217183,0.936585
3821418540,-11.372321,-15.002881,-35.561272,-0.337892,0.263472,0.920722
3821438570,-7.492879,-13.443096,-31.895170,-0.331751,0.275050,0.928050
3821458600,-4.198541,-12.369722,-28.930405,-0.303324,0.257401,0.925244
3821478630,0.496939,-11.237222,-26.549280,-0.337399,0.218800,0.927072
3821498659,5.661677,-9.959813,-23.342693,-0.343127,0.196383,0.934897
3821518688,10.865931,-9.165680,-21.185942,-0.329121,0.201517,0.929877
3821538717,15.856750,-8.836101,-19.434830,-0.338698,0.233673,0.923993
3821558746,19.799383,-8.494374,-17.987608,-0.336237,0.261653,0.918541
3821578776,23.270748,-8.563011,-17.083080,-0.331446,0.268553,0.917222
3821598806,26.797035,-8.289721,-16.272385,-0.333941,0.269767,0.914728
3821618836,30.451063,-8.092005,-15.097054,-0.336526,0.272378,0.907041
3821638865,34.325878,-7.559453,-13.598393,-0.333639,0.263144,0.909833
3821658895,38.831905,-6.671174,-11.708145,-0.334027,0.268168,0.907864
3821678924,43.177105,-6.017799,-9.755345,-0.334718,0.287421,0.902736
3821698954,47.370895,-5.394858,-8.037410,-0.336068,0.312155,0.895731
3821718984,51.277325,-4.336305,-6.255030,-0.322528,0.335161,0.887856
3821739013,54.917080,-3.826080,-4.976177,-0.330702,0.351721,0.883951
3821759043,58.352112,-3.368840,-3.932024,-0.330014,0.367248,0.875980
3821779073,62.182575,-3.020791,-3.045987,-0.331530,0.376022,0.872385
3821799102,66.210861,-2.727427,-2.265545,-0.322787,0.393034,0.866659
3821819134,70.126053,-2.342735,-1.667896,-0.319702,0.417315,0.854518
3821839163,74.071793,-1.958332,-1.108139,-0.317264,0.442809,0.837812
3821859193,77.484909,-1.899349,-0.826446,-0.319587,0.470533,0.818859
3821879222,80.905914,-1.649609,-0.394708,-0.315108,0.497121,0.799915
3821899252,84.137253,-1.277002,0.058652,-0.319098,0.518722,0.786082
3821919282,87.385086,-0.286671,0.885940,-0.321454,0.532864,0.768920
3821939311,90.859924,0.252611,1.489661,-0.317049,0.565125,0.745645
3821959341,93.832207,0.244991,1.642804,-0.310362,0.598830,0.722146
3821979384,96.517891,0.435265,1.339220,-0.301492,0.628038,0.702202
3821999399,99.126495,-0.251982,0.269593,-0.300225,0.658789,0.675667
3822019428,101.467285,-1.165371,-0.563221,-0.301715,0.680460,0.647177
3822039458,103.907089,-2.018315,-1.373747,-0.337697,0.680739,0.637556
3822059488,107.525116,-1.249180,-0.097079,-0.341975,0.675072,0.629857
3822079518,112.263222,0.268183,1.355819,-0.331743,0.687522,0.608137
3822099548,117.095558,2.722166,3.066272,-0.313561,0.708151,0.581052
3822119577,121.788063,6.333956,4.797264,-0.292591,0.761422,0.529666
3822139607,125.830856,10.762815,6.278454,-0.291781,0.797182,0.488106
3822159636,128.033035,14.988091,7.699808,-0.275205,0.877144,0.346422
3822179666,126.516235,17.827869,7.743469,-0.285745,0.940608,0.236007
3822199696,122.595825,16.852324,7.992392,-0.303441,1.002205,0.298369
3822219725,122.522507,9.031069,4.441360,-0.291226,0.945656,0.188127
3822239755,121.349236,3.376210,2.805045,-0.290454,0.910298,0.221500
3822259786,123.356308,-1.839253,1.030101,-0.289048,0.905141,0.245485
3822279815,126.797203,-7.280780,-0.067445,-0.295945,0.905716,0.216438
3822299845,129.238541,-9.296986,-0.473934,-0.282284,0.919335,0.115085
3822319874,130.986023,-7.791733,-0.546384,-0.302868,0.924101,0.069148
3822339904,132.793991,-4.268707,-0.332463,-0.300800,0.930063,0.044039
3822359934,135.468262,0.992765,-0.140303,-0.306998,0.937676,0.025750
3822379964,139.128662,7.397681,-0.161983,-0.308910,0.927272,0.015581
3822399994,143.900085,11.632754,-0.839714,-0.283691,0.932273,-0.009982
3822420023,149.219528,13.663109,-2.112820,-0.273019,0.937353,-0.080697
3822440051,153.104019,14.269826,-3.450487,-0.272342,0.921798,-0.195130
3822460081,153.831299,13.167970,-4.017125,-0.273447,0.898942,-0.320888
3822480110,152.317947,11.051606,-4.219967,-0.277213,0.883325,-0.435759
3822500140,148.665146,8.498684,-4.063820,-0.271489,0.840724,-0.525162
3822520170,144.001236,6.256775,-3.554415,-0.274166,0.807426,-0.560662
3822540199,140.091370,4.299937,-3.100112,-0.277208,0.794050,-0.575442
3822560229,137.363251,3.074886,-2.734786,-0.285061,0.787631,-0.575447
3822580259,136.550323,2.986886,-3.022561,-0.288989,0.768582,-0.553411
3822620318,139.652145,5.339864,-4.655807,-0.292088,0.739024,-0.589339
3822640348,141.700516,6.548610,-6.416433,-0.283781,0.697740,-0.657509
3822660377,142.068237,7.866021,-7.936157,-0.284047,0.642017,-0.723851
3822680407,141.141006,8.726542,-9.285865,-0.282841,0.594764,-0.776032
3822700438,139.557327,8.943500,-10.645650,-0.276524,0.547116,-0.812614
3822720468,137.939941,8.743601,-11.524278,-0.277383,0.516227,-0.841397
3822740498,136.568588,7.767744,-11.880689,-0.263502,0.463776,-0.858729
3822760527,134.641464,6.856741,-11.934628,-0.276624,0.420753,-0.886728
3822780557,132.454529,5.910251,-11.632036,-0.273191,0.377152,-0.911268
3822800587,130.367950,5.106884,-11.618719,-0.273700,0.333858,-0.921537
3822820616,128.283981,4.583657,-12.047513,-0.274087,0.284544,-0.930672
3822840646,125.665672,3.370012,-10.378105,-0.272358,0.224168,-0.935037
3822860675,122.025749,0.605613,-5.170492,-0.275102,0.134749,-0.968409
3822880704,116.651718,-1.071228,1.558740,-0.341927,0.104636,-0.981733
3822900733,111.027397,-1.509352,5.024724,-0.250272,0.029887,-1.007136
3822920763,106.677986,-1.837274,7.049797,-0.331310,0.138149,-0.960436
3822940793,107.975578,-0.656963,6.972276,-0.312517,0.157827,-0.934021
3822960822,109.872940,-0.350299,6.083511,-0.284287,0.105685,-0.957324
3822980852,110.957397,0.196986,5.298483,-0.313575,0.053360,-0.965953
3823000882,110.880898,0.541821,5.864208,-0.306583,-0.002871,-0.968185
3823020911,109.811165,0.835729,7.832572,-0.307124,-0.063425,-0.955151
3823040941,107.773499,1.290021,10.701392,-0.297790,-0.130794,-0.955440
3823060971,104.624382,1.759311,14.016893,-0.294364,-0.176894,-0.957363
3823081001,101.339935,2.525840,17.231266,-0.300723,-0.195491,-0.948052
3823101030,99.068573,3.636680,20.306759,-0.305322,-0.203001,-0.936054
3823121060,97.344803,4.278176,22.749563,-0.308888,-0.216104,-0.934499
3823141091,95.986717,5.169224,25.281433,-0.307682,-0.253030,-0.929617
3823161120,94.365265,6.777361,27.867809,-0.314210,-0.274742,-0.916778
3823181150,93.033798,8.275849,29.992741,-0.324468,-0.294096,-0.913928
3823201180,92.222031,9.837622,31.381924,-0.327794,-0.317546,-0.903426
3823221210,91.108612,11.543705,32.201092,-0.334286,-0.348546,-0.891220
3823241239,89.699554,12.730685,32.107040,-0.331327,-0.385778,-0.882478
3823261269,88.048721,13.795127,31.407333,-0.332077,-0.409504,-0.874219
3823281299,86.572205,14.377664,30.279573,-0.322252,-0.417380,-0.861625
3823301328,85.901886,14.733974,28.790165,-0.293475,-0.407509,-0.851115
3823321356,86.541176,14.867519,28.766607,-0.302550,-0.399127,-0.841782
3823341386,88.327499,15.936154,30.206684,-0.300029,-0.403717,-0.854108
3823361416,90.777466,18.176136,32.433365,-0.335552,-0.431043,-0.847452
3823381446,92.182510,21.380352,34.545292,-0.344855,-0.499258,-0.823311
3823401475,91.817200,24.088329,35.690025,-0.355727,-0.549428,-0.783417
3823421505,90.182854,26.213800,35.906433,-0.336351,-0.581781,-0.754005
3823441534,88.737122,27.430201,35.448177,-0.332700,-0.574983,-0.752148
3823461564,88.926445,27.880806,33.928062,-0.335584,-0.552178,-0.754814
3823481594,90.641365,27.202394,31.811598,-0.332243,-0.548265,-0.757736
3823501623,93.421799,26.654812,29.535324,-0.339985,-0.565033,-0.763678
3823521653,96.985199,26.034428,27.214546,-0.337001,-0.578966,-0.751799
3823541683,100.242989,25.142027,25.009638,-0.328081,-0.616200,-0.717763
3823561712,102.489334,24.469252,23.143595,-0.333874,-0.652947,-0.688983
3823581743,103.770676,23.892717,21.215614,-0.343380,-0.703396,-0.649526
3823601773,103.706184,23.178209,19.144083,-0.338726,-0.748335,-0.601571
3823621803,102.683472,22.576027,17.275864,-0.326751,-0.779967,-0.562961
3823641832,101.006790,22.458975,16.040152,-0.326713,-0.801266,-0.534308
3823661862,99.375458,22.204369,14.714632,-0.329624,-0.804167,-0.517767
3823681892,98.153267,21.712090,13.527782,-0.323328,-0.819386,-0.491787
3823701921,96.847710,21.594521,12.724436,-0.325035,-0.829449,-0.450916
3823721951,95.131126,21.288509,11.823904,-0.338106,-0.843028,-0.451437
3823741981,97.413551,18.355173,10.060259,-0.336035,-0.782735,-0.562681
3823762009,105.772697,12.666719,6.654622,-0.340369,-0.761956,-0.607202
3823782038,111.866989,7.868416,4.082029,-0.337301,-0.853475,-0.472883
3823802068,114.781723,5.236172,2.308580,-0.306107,-0.886218,-0.357284
3823822098,113.744942,9.753890,4.105016,-0.308366,-0.915456,-0.260637
3823842128,111.447823,13.573310,4.504016,-0.336478,-0.942952,-0.216979
3823862157,108.511429,14.278337,3.548913,-0.328183,-0.959101,-0.174086
3823882187,106.448502,14.949053,2.821984,-0.329718,-0.926578,-0.188965
3823902216,107.284630,14.463289,2.288136,-0.317678,-0.931326,-0.247058
3823922246,111.094856,12.554135,1.919322,-0.332195,-0.934164,-0.260558
3823942276,115.824020,10.159617,1.266906,-0.339308,-0.934037,-0.211922
3823962305,119.680840,8.356220,0.730419,-0.330200,-0.943843,-0.148415
3823982335,122.551437,7.213178,0.347135,-0.329680,-0.952698,-0.098460
3824002365,125.690430,6.486768,-0.213907,-0.334753,-0.966763,-0.070645
3824022395,128.867844,6.011949,-0.595071,-0.327583,-0.965705,-0.040939
3824042425,132.770355,6.241270,-0.951469,-0.319259,-0.965844,-0.010039
3824062455,136.701538,7.649197,-1.628615,-0.333298,-0.971670,0.020079
3824082485,141.387756,8.034264,-1.970777,-0.321796,-0.981344,0.058246
3824102514,145.355209,7.525398,-2.176885,-0.325180,-0.992887,0.136050
3824122544,148.593842,5.513651,-2.264578,-0.314559,-0.930593,0.205086
3824142574,151.696609,3.952597,-2.090746,-0.372977,-0.946791,0.217864
3824162603,154.967590,0.051009,-0.486908,-0.321806,-0.901693,0.287035
3824182633,156.668915,-3.922816,2.064541,-0.322411,-0.839668,0.383001
3824202671,156.135788,-6.112498,4.243571,-0.317131,-0.778901,0.485259
3824222691,152.840103,-7.230124,6.237874,-0.303525,-0.706203,0.594609
3824242720,146.570557,-7.398469,7.419065,-0.301297,-0.651093,0.686266
3824262750,138.592392,-7.559877,7.970056,-0.302224,-0.577628,0.773204
3824282780,129.655975,-6.752944,7.496451,-0.280436,-0.577548,0.767442
3824302810,128.305923,-1.865565,1.002386,-0.393643,-0.883704,0.529423
3824322839,138.787674,-3.699136,1.932703,-0.327500,-0.958672,0.474846
3824342869,153.747269,-5.097458,3.536339,-0.350973,-1.015645,0.428930
3824362898,170.738373,-8.059490,7.368062,-0.345337,-0.945371,0.477783
3824382928,184.234711,-9.828565,11.862887,-0.298778,-0.736232,0.631748
3824402958,189.672150,-10.095442,15.772545,-0.276906,-0.495188,0.776386
3824422987,187.723755,-8.967090,17.771389,-0.264369,-0.280167,0.879093
3824443017,181.299622,-7.764019,19.092632,-0.268694,-0.146342,0.943436
3824463047,173.737900,-5.869998,18.102562,-0.272484,-0.117774,0.937430
3824503107,167.217529,-2.529246,14.363707,-0.288047,-0.207244,0.910970
3824523137,168.665665,-1.440023,12.330837,-0.304963,-0.205845,0.907696
3824543167,171.485001,-0.842202,11.197446,-0.302374,-0.137788,0.918044
3824563196,172.925125,-0.279822,10.935628,-0.297222,-0.009167,0.942871
3824583226,171.953339,0.365971,11.308843,-0.303989,0.104299,0.939246
3824603256,169.262543,1.151536,12.059155,-0.284366,0.200430,0.912153
3824623286,165.789551,2.154343,12.799686,-0.292573,0.260152,0.894952
3824643332,162.658234,2.903572,13.368120,-0.296999,0.284612,0.875478
3824663344,160.531921,3.577245,13.422094,-0.300627,0.316305,0.848872
3824683373,158.647980,4.082409,13.545837,-0.305804,0.375680,0.841030
3824703403,156.484955,4.533302,12.934437,-0.282905,0.435592,0.820319
3824723432,153.700867,4.985042,11.594846,-0.281008,0.504538,0.788122
3824743462,150.269455,5.020909,10.061298,-0.284023,0.550128,0.751794
3824763492,147.865051,5.937363,9.438290,-0.278606,0.513293,0.783586
3824783521,152.423233,9.432734,12.557722,-0.300223,0.283969,0.895596
3824803551,163.397400,12.887432,15.953552,-0.282364,0.422701,0.843763
3824823581,166.385864,11.831474,12.218302,-0.258452,0.679133,0.672608
3824843610,164.137146,9.258118,8.500841,-0.290776,0.770728,0.603729
3824863640,160.739456,9.267632,8.241326,-0.292588,0.814283,0.524312
3824883669,158.179138,9.478001,7.912291,-0.291168,0.773950,0.519762
3824903699,157.920364,8.096175,6.286033,-0.272094,0.735295,0.536604
3824923730,160.434280,8.582279,5.403642,-0.285309,0.749598,0.534696
3824943760,163.852554,9.300951,4.936752,-0.276924,0.779510,0.488001
3824963789,166.570770,9.450681,3.943552,-0.269478,0.831490,0.406712
3824983819,168.186142,9.377367,2.792468,-0.266628,0.863504,0.349083
3825003849,170.009766,8.207006,1.688607,-0.290606,0.880452,0.310872
3825023878,172.230850,8.018396,1.160517,-0.294732,0.894062,0.261450
3825043908,174.522369,6.382878,0.546042,-0.293104,0.915971,0.172850
3825063938,174.934479,4.384292,-0.081457,-0.289787,0.941657,0.059115
3825083980,173.579529,1.771573,-0.507519,-0.294451,0.974311,-0.069383
3825103996,168.470200,-0.165471,-0.584711,-0.294499,0.958532,-0.207292
3825124026,161.804657,-1.538753,-0.705299,-0.297987,0.922106,-0.267940
3825144055,156.356476,-0.916909,-0.925454,-0.291991,0.904822,-0.246913
3825164085,154.621780,3.923817,-1.512849,-0.295865,0.908599,-0.171441
3825184114,156.064240,11.354788,-3.227445,-0.268908,0.906734,-0.224245
3825204144,158.135559,12.754459,-2.495149,-0.333324,1.057541,-0.117996
3825224174,167.880066,13.912951,-2.545657,-0.344408,0.944154,-0.093206
3825244204,176.883148,13.841119,-2.934971,-0.230733,0.932328,-0.186322
3825264233,185.410324,12.645210,-3.337822,-0.294598,0.894310,-0.253352
3825284263,192.108536,10.492619,-3.642540,-0.255972,0.813673,-0.432132
3825304292,192.429596,7.248576,-3.554490,-0.250068,0.717122,-0.627385
3825324322,188.600861,4.827585,-2.921862,-0.274247,0.640272,-0.747627
3825344352,182.814240,3.047657,-2.614013,-0.259053,0.597894,-0.838701
3825364383,176.125107,1.958112,-2.145591,-0.272224,0.555264,-0.840131
3825384413,172.015198,1.403378,-1.551515,-0.296623,0.583022,-0.794167
3825404442,171.815659,1.100606,-1.359517,-0.289584,0.599420,-0.754919
3825424472,175.323807,1.224004,-2.147396,-0.286943,0.593367,-0.734847
3825444502,180.356293,1.916413,-3.356332,-0.283186,0.546341,-0.781690
3825464531,183.928787,2.196364,-5.025019,-0.279599,0.455541,-0.866553
3825484561,185.273865,2.633086,-6.589951,-0.269585,0.347652,-0.917143
3825504591,184.747787,2.514983,-8.590891,-0.266796,0.252732,-0.981790
3825524619,182.563675,2.368060,-10.455913,-0.259219,0.157165,-0.987024
3825544648,179.599335,1.855529,-11.355314,-0.270377,0.091238,-0.994206
3825564678,176.648361,1.298937,-11.753919,-0.290311,0.062419,-0.998174
3825584708,174.947342,0.556914,-10.997883,-0.275206,0.012227,-0.982325
3825604737,173.138199,-0.328038,-9.907084,-0.279355,-0.045049,-0.980914
3825624767,171.225693,-0.642336,-9.048592,-0.286262,-0.119820,-0.991121
3825644796,169.174896,-1.176078,-8.021517,-0.282892,-0.171856,-0.974658
3825664826,167.026245,-1.580362,-7.132055,-0.285334,-0.229125,-0.960438
3825684856,164.772736,-2.085077,-6.848369,-0.279782,-0.290894,-0.948594
3825704886,162.176605,-2.373479,-6.157229,-0.284856,-0.346273,-0.927735
3825724915,159.398575,-2.623267,-5.587818,-0.287819,-0.407107,-0.910908
3825744945,156.682465,-3.080879,-5.608035,-0.292233,-0.426189,-0.898467
3825764975,157.624176,-3.581638,-5.906660,-0.297158,-0.347132,-0.907767
3825785004,163.495651,-3.798087,-4.431073,-0.285700,-0.310837,-0.927421
3825805035,168.652817,-2.490090,-1.194419,-0.281077,-0.519402,-0.905082
3825825065,168.205582,-4.644522,-4.254882,-0.305814,-0.674381,-0.745601
3825845095,164.276810,-2.248622,-1.926445,-0.288542,-0.683470,-0.704596
3825865125,160.278717,-1.792851,-1.712324,-0.304848,-0.722700,-0.660672
3825885154,158.536270,-2.821728,-2.576470,-0.311184,-0.680967,-0.672075
3825905184,159.447586,-2.634406,-2.024109,-0.304723,-0.698206,-0.675051
3825925213,161.019272,-2.999813,-1.823145,-0.302872,-0.748732,-0.618703
3825945243,161.884918,-3.454245,-2.046375,-0.305241,-0.799545,-0.571374
3825965290,161.955338,-2.730523,-1.756715,-0.299836,-0.856357,-0.518770
3825985301,162.071121,-1.502310,-0.766133,-0.305210,-0.846428,-0.513105
3826005331,164.118500,-3.364986,-1.409147,-0.302997,-0.856247,-0.455736
3826025360,166.836929,-1.633296,-0.520101,-0.289226,-0.883631,-0.460513
3826045390,169.784973,-2.029132,-0.409203,-0.317046,-0.912432,-0.348849
3826065420,170.388016,-1.522678,-0.511731,-0.307265,-0.935240,-0.258702
3826085449,169.543640,-1.410754,-0.247705,-0.306644,-0.954966,-0.156169
3826105479,166.457733,-1.089592,-0.145744,-0.311897,-0.973565,-0.037379
3826125509,161.311249,-0.871972,-0.127314,-0.302359,-0.961479,0.020129
3826145538,159.394485,-0.960340,0.001397,-0.324591,-0.933477,-0.072637
3826165568,162.716553,-2.421976,0.659756,-0.306201,-0.961840,-0.117791
3826185598,168.556458,-2.239751,0.668631,-0.330243,-0.992933,-0.086425
3826205627,174.647079,-1.057478,-0.331607,-0.346153,-1.014514,-0.007549
3826225657,178.358185,-1.314973,-0.888727,-0.315200,-0.996743,0.146401
3826245688,178.798996,-1.462360,-1.016172,-0.304148,-0.936638,0.262441
3826265718,177.578262,-0.549758,-0.918275,-0.291132,-0.882638,0.313911
3826285747,176.812439,0.231826,-0.584013,-0.302681,-0.871829,0.331626
3826305777,177.882477,0.136448,-0.097440,-0.310469,-0.857453,0.342679
3826325807,180.088654,0.528512,-0.001097,-0.316967,-0.846244,0.380198
3826345836,182.331161,0.409998,-0.021764,-0.321997,-0.824884,0.456271
3826365866,183.935547,0.477770,0.023935,-0.322638,-0.793693,0.528945
3826385896,184.876755,0.191589,0.155689,-0.320566,-0.745525,0.592508
3826405925,185.262421,-0.060568,0.476441,-0.325632,-0.682334,0.649064
3826425954,184.970169,-0.636511,0.776838,-0.331797,-0.628224,0.702141
3826445983,184.560242,-0.634976,0.587074,-0.319212,-0.571080,0.730263
3826466013,183.841461,-0.970945,1.408416,-0.309934,-0.513065,0.784539
3826486043,182.277802,-0.552528,1.138773,-0.306631,-0.445219,0.830502
3826506073,180.311356,-0.216214,0.717982,-0.315108,-0.388365,0.852618
3826526102,178.838638,0.186727,0.516752,-0.308890,-0.345588,0.851654
3826546132,177.941467,0.168592,0.501306,-0.318707,-0.303832,0.871327
3826566161,177.189148,0.302126,0.545314,-0.319822,-0.226512,0.890556
3826586191,175.636765,-0.078075,0.479516,-0.324244,-0.154116,0.898366
3826606221,173.856552,0.039492,0.947759,-0.328072,-0.090471,0.922355
3826626250,171.542297,-0.426741,1.261421,-0.316994,-0.023802,0.911740
3826646280,169.269516,0.005179,1.628219,-0.311773,0.035846,0.924153
3826666309,166.896362,-0.050021,1.847416,-0.320549,0.077201,0.917638
3826686341,165.347107,0.093997,1.489099,-0.310286,0.115644,0.905744
3826706370,163.743668,0.116973,1.268249,-0.307496,0.165844,0.900959
3826726400,161.951736,0.582650,1.111831,-0.308763,0.244161,0.889611
3826746430,159.314941,0.388785,0.422211,-0.311619,0.320993,0.868913
3826766459,156.627151,0.322979,1.520870,-0.316981,0.330631,0.861977
3826786489,157.715057,0.897430,2.032156,-0.312613,0.184689,0.876674
3826806519,165.032974,1.282740,1.380398,-0.307459,0.110352,0.919983
3826826548,172.139404,0.261361,-1.428135,-0.316395,0.379031,0.887083
3826846578,172.338058,0.060722,0.340278,-0.323459,0.566554,0.773033
3826866606,169.537979,0.161846,1.103868,-0.314481,0.619897,0.722183
3826886636,166.884842,0.068596,0.883487,-0.297324,0.616754,0.680164
3826906665,165.570908,0.013007,0.390481,-0.300369,0.621489,0.668016
3826926695,165.670349,0.080655,0.291394,-0.315793,0.643106,0.648063
3826946725,166.239883,-0.349705,-0.030748,-0.310204,0.683423,0.616483
3826966754,166.549713,-1.174900,-0.471014,-0.321733,0.718535,0.574168
3826986784,167.421524,-2.331083,-1.120528,-0.316088,0.743021,0.555132
3827006814,169.769775,-2.281303,-0.725541,-0.311534,0.729065,0.553708
3827026843,174.371704,-1.138400,0.070791,-0.313735,0.732590,0.545032
3827046873,178.627548,-1.594798,0.076681,-0.299852,0.799627,0.436234
3827066903,180.802887,-1.033946,0.520369,-0.313257,0.866384,0.342235
3827086933,181.254440,-2.254576,0.417104,-0.302114,0.923233,0.218235
3827106962,178.195114,-3.229030,0.082612,-0.308921,0.971879,0.083003
3827126992,173.277237,-4.618136,0.273868,-0.303847,0.985860,-0.008901
3827147023,168.641144,-6.169773,0.110266,-0.286799,0.932901,0.026582
3827167053,168.343979,-4.562532,-0.017104,-0.283089,0.900697,0.094267
3827187082,172.937302,-2.898936,-0.582346,-0.285376,0.897064,0.157737
3827207112,180.148102,-2.420650,-0.916488,-0.318694,0.925703,0.124047
3827227141,187.721527,-1.636183,-0.168784,-0.325491,0.959797,0.016525
3827247171,192.373901,-1.086871,0.746289,-0.305233,0.955563,-0.154909
3827267201,193.730148,-0.172209,0.989475,-0.291369,0.912475,-0.294944
3827287230,192.371887,-1.268267,1.126917,-0.273584,0.863720,-0.357186
3827307281,191.356308,-2.427847,1.022430,-0.286028,0.854683,-0.419095
3827327289,190.511063,-2.827142,0.919225,-0.288010,0.802769,-0.449369
3827347318,190.569031,-3.107324,1.444771,-0.310539,0.810871,-0.503067
3827367348,190.780930,-3.160964,1.672787,-0.300484,0.771664,-0.554300
3827387377,191.606720,-2.023596,1.663636,-0.309345,0.739391,-0.571266
3827407407,193.264694,-0.557835,1.022816,-0.309558,0.727519,-0.644415
3827427437,194.407913,1.214074,0.068309,-0.297005,0.658823,-0.717881
3827447466,194.452942,2.253828,-0.774431,-0.283728,0.595141,-0.777230
3827467496,193.341064,2.727744,-1.939011,-0.276893,0.534623,-0.841219
3827487526,191.747650,2.702327,-2.955571,-0.272988,0.462465,-0.873959
3827507555,189.884705,2.521343,-3.121758,-0.271099,0.412605,-0.901229
3827527585,188.226669,2.156187,-3.407615,-0.268866,0.359240,-0.905612
3827547615,186.869003,1.372889,-3.068081,-0.269761,0.306013,-0.930586
3827567644,185.635239,1.029949,-2.868664,-0.277345,0.231058,-0.955595
3827587675,183.772827,0.145330,-1.762730,-0.283966,0.159742,-0.965035
3827607705,181.752335,-0.350235,-0.652558,-0.287854,0.101801,-0.974855
3827627735,179.614349,-0.291488,-0.130920,-0.294354,0.050812,-0.971233
3827647764,177.760025,-0.091378,-0.133496,-0.294533,0.007115,-0.991177
3827667794,176.377274,-0.107985,-0.460056,-0.296231,-0.037457,-0.984039
3827687824,175.586533,-0.226066,-0.603507,-0.282741,-0.096922,-0.985283
3827707853,175.000885,-0.199799,-0.505444,-0.302375,-0.139221,-0.973851
3827727883,174.888123,-0.330457,-1.057895,-0.293364,-0.194706,-0.965545
3827747913,174.674713,-0.573381,-1.200019,-0.286977,-0.262413,-0.951643
3827767941,173.633347,-0.338806,-0.990193,-0.295931,-0.335417,-0.934570
3827787971,172.720184,-0.570083,-1.034185,-0.285993,-0.394420,-0.917426
3827808001,170.808533,-0.915849,-0.478712,-0.290528,-0.466099,-0.897804
3827828030,168.861115,-0.721001,0.072204,-0.286044,-0.499643,-0.851299
3827848060,167.491104,-0.444720,0.850179,-0.292587,-0.525120,-0.833291
3827868089,167.270691,-0.581197,0.661666,-0.305308,-0.546414,-0.807402
3827888119,167.933167,-0.983205,-0.138342,-0.300975,-0.583661,-0.781931
3827908148,168.663818,-0.934353,-0.305205,-0.309831,-0.638560,-0.745426
3827928178,168.770691,-1.325171,-0.916023,-0.310089,-0.690104,-0.699895
3827948208,168.641464,-1.737269,-1.435791,-0.307306,-0.731021,-0.652390
3827968238,168.290298,-2.184901,-1.553516,-0.297371,-0.775227,-0.610916
3827988267,167.445251,-2.202218,-1.242913,-0.292573,-0.811335,-0.562330
3828008297,166.973953,-1.771794,-0.746335,-0.301980,-0.833279,-0.522152
3828028327,166.433304,-1.806276,-0.534008,-0.300994,-0.860063,-0.475276
3828048358,166.401855,-1.843278,-0.268339,-0.301623,-0.883411,-0.422277
3828068387,166.014389,-1.619853,-0.080849,-0.296641,-0.901803,-0.365856
3828088417,165.633926,-1.434066,0.243437,-0.300206,-0.923146,-0.309965
3828108447,165.345016,-1.440173,0.235767,-0.310898,-0.924794,-0.265512
3828128476,165.724594,-1.502746,0.335043,-0.316434,-0.934510,-0.217671
3828148506,165.715546,-1.891068,0.285225,-0.308947,-0.955146,-0.154108
3828168536,165.319839,-1.827444,0.474052,-0.309171,-0.958561,-0.083117
3828188565,164.577255,-1.084651,0.626680,-0.309448,-0.961317,-0.031657
3828208595,163.923920,-0.852436,0.745728,-0.308376,-0.963540,0.020834
3828228623,162.989609,-0.557917,0.841371,-0.312351,-0.957724,0.074595
3828248653,161.995285,-0.332678,0.611536,-0.312866,-0.942682,0.120190
3828268683,161.492935,-0.489937,0.589867,-0.321241,-0.945633,0.166860
3828288712,161.508789,-0.184972,0.761703,-0.314609,-0.927385,0.233051
3828308742,160.650436,-0.043621,0.699444,-0.322138,-0.907164,0.288348
3828348802,159.707092,-0.305566,0.541963,-0.326587,-0.876527,0.366251
3828368831,159.924377,-0.953144,0.714312,-0.327444,-0.848474,0.398997
3828388861,160.462128,-1.427784,0.756467,-0.325147,-0.820517,0.444848
3828408891,160.671509,-2.090289,1.004759,-0.321514,-0.792951,0.509616
3828428920,160.464554,-2.339715,1.203888,-0.320523,-0.755607,0.556080
3828448950,160.084442,-2.291880,1.248795,-0.316943,-0.723656,0.602994
3828468979,159.529175,-2.212264,1.414665,-0.315575,-0.686879,0.636679
3828489010,159.566071,-2.272462,1.680562,-0.321220,-0.657062,0.668724
3828509040,159.489471,-2.363192,1.741944,-0.316844,-0.620298,0.701636
3828529070,159.754044,-2.554120,1.971138,-0.322493,-0.584214,0.736752
3828549100,160.200592,-2.753140,2.344548,-0.307927,-0.544871,0.769488
3828569129,160.604568,-2.160124,2.771945,-0.310081,-0.485888,0.794648
3828589159,160.223663,-2.172618,2.984164,-0.316017,-0.429821,0.839713
3828609188,159.676941,-2.017567,2.959852,-0.312711,-0.371287,0.858019
3828629218,159.305939,-1.764928,2.805909,-0.314481,-0.332467,0.872682
3828649248,159.046921,-1.663664,3.085472,-0.305219,-0.289576,0.880350
3828669276,158.972534,-1.259855,3.082045,-0.311497,-0.230911,0.901971
3828689306,158.488419,-0.885289,2.790545,-0.312985,-0.166016,0.927836
3828709335,157.395294,-0.598431,2.620802,-0.307701,-0.099134,0.933653
3828729365,156.377167,-0.433221,2.611341,-0.305962,-0.050731,0.925638
3828749395,155.845795,-0.209594,2.631952,-0.311103,-0.012099,0.929290
3828769424,155.359268,-0.107710,2.737011,-0.307225,0.035424,0.929245
3828789454,154.722733,0.260382,2.544060,-0.310822,0.092317,0.923687
3828809484,154.153564,0.277601,2.240356,-0.311275,0.137276,0.914875
3828829513,153.446930,0.334421,2.178880,-0.310563,0.193249,0.906275
3828849543,152.664322,0.490925,2.215098,-0.312223,0.258987,0.896996
3828869573,151.333496,0.360709,2.139727,-0.309891,0.313773,0.871248
3828889602,149.845016,0.519704,1.804059,-0.305773,0.362293,0.856244
3828909632,148.445862,0.427959,1.743496,-0.305542,0.406640,0.826622
3828929663,146.631683,0.572184,1.028690,-0.301904,0.474217,0.792797
3828949693,143.256821,-0.037581,-0.006571,-0.308202,0.576293,0.742240
3828969722,136.668549,-1.267409,-2.622841,-0.297438,0.746073,0.652966
3828989752,124.580177,-4.475103,-6.756750,-0.296543,0.851561,0.556089
3829009782,113.281494,-6.164891,-8.704210,-0.316639,0.829802,0.559943
3829029812,101.775696,-9.067034,-11.596935,-0.303556,0.844745,0.513734
3829049841,91.408966,-13.968731,-16.527073,-0.336693,0.780078,0.548384
3829069871,85.725220,-17.832355,-20.015480,-0.345986,0.697846,0.617952
3829089900,83.004707,-20.532619,-21.465054,-0.371286,0.720521,0.614646
3829109929,78.502930,-23.228870,-22.263458,-0.348812,0.822832,0.524025
3829129958,70.086578,-26.287542,-23.826508,-0.323586,0.902960,0.438995
3829149988,60.142128,-29.361137,-25.443243,-0.333092,0.906582,0.421436
3829170018,50.336327,-32.208004,-27.327190,-0.311922,0.917607,0.413757
3829190047,39.375942,-35.798897,-30.456499,-0.298594,0.939251,0.389799
3829210077,27.670057,-40.073326,-34.308308,-0.302255,0.930632,0.387742
3829230107,17.178736,-44.398098,-37.635941,-0.318288,0.863458,0.459713
3829250136,9.729509,-48.472397,-40.911137,-0.326523,0.827852,0.482621
3829270166,3.217707,-52.531044,-44.845650,-0.313995,0.828376,0.488764
3829290196,-2.113748,-56.513779,-49.250320,-0.319385,0.836153,0.488565
3829310225,-8.454488,-59.958088,-53.576603,-0.311231,0.859034,0.476767
3829330255,-15.781597,-63.009411,-58.035553,-0.301916,0.852388,0.481878
3829350285,-22.702608,-65.882652,-63.223679,-0.274315,0.831326,0.518832
3829370314,-29.339800,-68.217270,-68.507179,-0.262284,0.816770,0.549933
3829390345,-35.228458,-69.603935,-73.661797,-0.275336,0.785726,0.592707
3829410375,-40.539753,-70.832687,-78.476273,-0.259517,0.751514,0.616567
3829430405,-46.007568,-72.186104,-84.396767,-0.261344,0.766158,0.606448
3829450435,-51.151760,-72.032219,-89.761093,-0.273103,0.738121,0.631651
3829470464,-55.623901,-71.326981,-95.349617,-0.249841,0.700185,0.677234
3829490494,-60.079243,-69.178848,-99.638535,-0.264010,0.682296,0.698566
3829510523,-65.121788,-67.308601,-103.735855,-0.238574,0.666714,0.719650
3829530553,-70.371849,-64.181564,-107.912064,-0.213423,0.626646,0.753741
3829550584,-75.256805,-61.033707,-112.111015,-0.215961,0.593053,0.784794
3829570611,-79.868195,-57.887138,-116.264336,-0.210042,0.520567,0.838083
3829590641,-82.895920,-53.688831,-119.796410,-0.194207,0.458552,0.865794
3829610670,-85.654396,-49.028923,-123.711319,-0.187637,0.415986,0.879292
3829630700,-88.319885,-43.469341,-127.042343,-0.175417,0.372724,0.896893
3829650730,-90.520248,-37.447365,-130.210205,-0.182137,0.316500,0.923926
3829670760,-92.851364,-31.644814,-133.194336,-0.170990,0.283584,0.933571
3829690789,-95.627304,-25.094685,-136.397247,-0.171003,0.239225,0.949229
3829710819,-98.244392,-18.254124,-138.995972,-0.159233,0.173800,0.956575
3829730849,-101.074173,-11.343827,-141.565033,-0.153034,0.128236,0.969218
3829750878,-103.567894,-3.878902,-143.911133,-0.153087,0.068691,0.980534
3829770908,-105.228973,3.829943,-144.841019,-0.133015,-0.008614,0.985806
3829790938,-106.336693,11.514626,-145.292786,-0.153461,-0.089881,0.979244
3829810967,-106.841476,19.170959,-144.166901,-0.162176,-0.155224,0.978681
3829830998,-106.564842,27.084747,-142.208801,-0.160625,-0.240150,0.951354
3829851028,-104.791824,34.716873,-140.164200,-0.166476,-0.342946,0.918994
3829871058,-101.944130,42.172562,-136.828629,-0.184383,-0.382826,0.919795
3829891087,-100.295319,48.363468,-133.483032,-0.213765,-0.400768,0.903723
3829911117,-98.966209,54.525871,-130.061523,-0.184378,-0.434144,0.878786
3829931147,-98.459335,60.716713,-126.269135,-0.197010,-0.450513,0.872130
3829951177,-98.978508,67.042549,-122.425293,-0.188560,-0.487175,0.855130
3829971206,-99.163101,73.030266,-119.010635,-0.190549,-0.565074,0.813478
3829991236,-97.943336,79.028061,-114.912994,-0.219178,-0.616217,0.757307
3830011264,-96.301544,84.339539,-110.521255,-0.199583,-0.652674,0.724331
3830031294,-94.835655,89.767647,-105.675667,-0.204426,-0.714456,0.686707
3830051323,-92.022949,94.102242,-100.198517,-0.228381,-0.773186,0.630177
3830071353,-88.380211,97.292374,-94.218506,-0.237833,-0.793677,0.592403
3830091383,-85.356705,99.717247,-88.156555,-0.224474,-0.807258,0.579622
3830111413,-83.207901,102.139481,-81.996429,-0.237356,-0.808948,0.554930
3830131442,-82.696213,105.000832,-76.856789,-0.245100,-0.814064,0.565986
3830151472,-83.217178,107.980934,-71.984016,-0.236545,-0.827602,0.535234
3830171501,-83.716316,110.755539,-67.071609,-0.237311,-0.845513,0.483110
3830191531,-83.972603,113.307671,-62.293682,-0.245018,-0.873537,0.423202
3830211561,-83.689835,115.704834,-57.476284,-0.251868,-0.902561,0.377723
3830231590,-82.844223,116.868301,-51.943123,-0.251041,-0.915659,0.342102
3830251620,-82.357765,117.531075,-46.474167,-0.272602,-0.931784,0.302711
3830271651,-81.691185,117.713753,-40.887360,-0.250958,-0.945569,0.253363
3830291681,-80.604134,118.510963,-35.237278,-0.265472,-0.958072,0.194583
3830311711,-78.738579,118.223389,-29.524635,-0.258343,-0.966915,0.140937
3830331740,-76.673950,118.009750,-24.146124,-0.262208,-0.978963,0.086442
3830351770,-74.175003,117.853996,-18.980192,-0.270385,-0.976045,0.047445
3830371801,-71.677589,116.950760,-14.270493,-0.264903,-0.983926,0.018339
3830411859,-66.976456,115.479271,-5.293809,-0.277513,-0.982169,-0.051324
3830431889,-64.509933,114.095146,-1.035012,-0.283452,-0.977675,-0.081780
3830451917,-62.128914,111.933754,2.835999,-0.284706,-0.966285,-0.112644
3830471947,-59.278091,109.274673,6.574938,-0.304873,-0.953678,-0.175939
3830491976,-53.577301,103.964790,9.715778,-0.320875,-0.950022,-0.318310
3830512006,-43.480766,94.182137,11.607343,-0.358625,-0.927807,-0.449085
3830532036,-30.090675,78.770477,10.742382,-0.383866,-0.914794,-0.419796
3830552065,-24.822193,66.697601,9.830296,-0.313830,-0.927858,-0.189540
3830572095,-23.703867,63.710270,10.553473,-0.397720,-0.908483,-0.267959
3830592125,-19.492186,55.693771,10.023833,-0.314396,-0.896971,-0.284757
3830612154,-15.627348,50.840412,10.210513,-0.337688,-0.909042,-0.298667
3830632184,-12.351526,46.291821,9.552734,-0.346511,-0.922927,-0.298026
3830652213,-9.067016,39.785473,8.456472,-0.312257,-0.923607,-0.311717
3830672243,-5.753379,32.928677,7.317674,-0.317173,-0.919824,-0.314958
3830692273,-2.435658,26.946692,6.019889,-0.319057,-0.910867,-0.318192
3830712302,0.945269,21.619274,4.807625,-0.331667,-0.904483,-0.321716
3830732333,4.521378,15.406733,3.261693,-0.348688,-0.888815,-0.335085
3830752363,8.956203,8.983697,1.589046,-0.356535,-0.875564,-0.349880
3830772392,13.682302,3.282833,0.092448,-0.364817,-0.880880,-0.350976
3830792422,18.427271,-1.175990,-0.982390,-0.342612,-0.893976,-0.331200
3830812452,21.912336,-4.567940,-1.414733,-0.316366,-0.907669,-0.291370
3830832482,24.025169,-6.695436,-1.479251,-0.324861,-0.911198,-0.254749
3830852511,25.251453,-8.202179,-1.693470,-0.327129,-0.915769,-0.233648
3830872541,26.021141,-9.729009,-1.809174,-0.319718,-0.921447,-0.204914
3830892570,25.848232,-8.981036,-1.481925,-0.338772,-0.929124,-0.180097
3830912599,25.557024,-9.863789,-1.876506,-0.330892,-0.931245,-0.168212
3830932629,24.709717,-8.602446,-1.606968,-0.320865,-0.931700,-0.147695
3830952658,23.822828,-7.759684,-1.379428,-0.327056,-0.937549,-0.137624
3830972688,22.967255,-6.757498,-1.229032,-0.317233,-0.932607,-0.136506
3830992717,22.785551,-6.367505,-0.982185,-0.325165,-0.929437,-0.156234
3831012747,23.667543,-6.249931,-0.846268,-0.328107,-0.926186,-0.164012
3831032777,24.874268,-6.773886,-0.833703,-0.330814,-0.937892,-0.152935
3831052807,25.737276,-7.768296,-0.923503,-0.336594,-0.940830,-0.127128
3831072836,25.750891,-8.370575,-1.183814,-0.335683,-0.943943,-0.093820
3831092866,24.760082,-9.043117,-1.284795,-0.331429,-0.944960,-0.064364
3831112895,23.171078,-8.988853,-1.232944,-0.326112,-0.939715,-0.047796
3831132925,21.089071,-8.512810,-1.025649,-0.323235,-0.937993,-0.033583
3831152955,18.841516,-7.525527,-0.708995,-0.317617,-0.938644,-0.021538
3831172986,16.480904,-6.370498,-0.484789,-0.323664,-0.940387,-0.012979
3831193016,13.883208,-5.541460,-0.242796,-0.321039,-0.939508,0.005421
3831213045,10.694470,-4.352080,-0.163339,-0.326171,-0.937959,0.026624
3831233075,7.207396,-3.770738,-0.283638,-0.345933,-0.939145,0.000912
3831253105,7.295542,-6.290266,-0.148709,-0.331513,-0.928440,-0.132957
3831273140,13.086543,-8.511981,0.198776,-0.293094,-0.923572,-0.259733
3831293164,21.816710,-5.510618,1.057322,-0.314364,-0.942460,-0.278330
3831313194,27.261778,-3.400794,0.981583,-0.307279,-0.967717,-0.045558
3831333223,26.622143,-1.837255,0.899906,-0.335822,-0.984232,-0.010022
3831353252,26.349424,1.220317,-0.240468,-0.370582,-0.959281,-0.034458
3831373281,26.799091,2.240924,-1.613600,-0.333537,-0.985025,-0.017205
3831393311,27.785719,3.315098,-2.054323,-0.353028,-0.947185,-0.065922
3831413341,31.104702,2.215733,-2.324025,-0.333673,-0.931299,-0.077238
3831433370,34.306320,0.990441,-1.743531,-0.310679,-0.932065,-0.032594
3831453400,35.373417,0.309544,-1.085236,-0.324661,-0.930531,0.032103
3831473429,34.242710,-0.634317,-0.600185,-0.321554,-0.925576,0.085424
3831493459,32.123840,-1.527301,-0.123621,-0.316748,-0.930639,0.089381
3831513489,30.957916,-1.862352,0.265316,-0.322203,-0.936708,0.058014
3831533519,31.520920,-1.582915,0.498288,-0.316107,-0.942454,0.037062
3831553549,33.234711,-0.624477,0.741279,-0.316464,-0.952773,0.026188
3831573578,35.819683,0.959229,0.418364,-0.322055,-0.965352,0.018038
3831593608,38.981453,2.296335,0.105382,-0.328149,-0.972620,0.021341
3831613639,42.660561,3.530988,-0.433953,-0.328703,-0.972711,0.021879
3831633668,46.756752,4.313583,-1.196755,-0.335480,-0.977290,0.017710
3831653698,51.535572,4.834354,-1.782639,-0.337016,-0.975313,0.024002
3831673728,56.388527,5.180861,-2.010665,-0.333900,-0.963736,0.050635
3831693757,60.290600,5.265412,-2.411340,-0.327104,-0.955297,0.096014
3831713787,62.968159,5.525048,-2.472883,-0.326037,-0.941160,0.138796
3831733817,65.135185,5.612752,-2.404332,-0.327138,-0.930423,0.173478
3831753846,66.519592,5.757602,-2.420043,-0.322230,-0.915391,0.214871
3831773876,67.464546,6.354196,-2.341192,-0.327017,-0.912795,0.243574
3831793904,68.112640,6.562897,-2.638334,-0.329865,-0.901682,0.262346
3831813934,69.157570,7.211301,-2.840408,-0.330469,-0.902676,0.277391
3831833964,70.323372,7.569416,-3.161299,-0.327508,-0.900924,0.286219
3831853993,72.105270,8.015709,-3.452305,-0.336654,-0.907376,0.293406
3831874023,74.822189,8.319636,-3.862978,-0.339614,-0.913556,0.294122
3831894052,78.227745,7.927641,-4.153742,-0.343213,-0.919891,0.306603
3831914082,82.089600,7.449045,-4.580036,-0.342374,-0.910995,0.326693
3831934112,86.041168,6.734572,-4.837500,-0.344303,-0.902280,0.349565
3831954142,90.058121,5.640699,-4.636820,-0.335606,-0.892414,0.366870
3831974171,94.468498,4.432045,-3.995224,-0.336849,-0.878200,0.383140
3831994201,99.059158,2.857790,-3.138172,-0.337701,-0.866202,0.419937
3832014231,102.891174,1.538100,-2.473177,-0.332317,-0.837174,0.466214
3832034260,106.503242,0.578261,-1.530772,-0.330783,-0.812213,0.495593
3832054290,110.031494,-0.503225,-0.678371,-0.342205,-0.810602,0.512677
3832074321,114.644691,-1.970324,0.390091,-0.341724,-0.814023,0.521052
3832094351,120.122826,-3.585378,1.831738,-0.340556,-0.806390,0.554372
3832114380,125.236450,-4.786203,3.648835,-0.326222,-0.754743,0.601734
3832134410,129.150024,-5.798477,5.319710,-0.319143,-0.690181,0.660235
3832154440,131.682922,-6.959317,8.173972,-0.319074,-0.640266,0.707532
3832174470,132.051544,-7.492206,11.006753,-0.286220,-0.503815,0.781724
3832194499,128.829285,-7.461146,12.908042,-0.299701,-0.382327,0.862876
3832214529,121.427414,-6.271249,13.296324,-0.292256,-0.224526,0.911107
3832234559,111.718513,-4.805984,12.710669,-0.301740,-0.168758,0.933197
3832254587,101.517075,-3.859566,10.976650,-0.448687,-0.320278,1.129706
3832274616,102.330368,-3.199240,0.348963,-0.175854,-0.550615,0.628798
3832294646,111.797043,-1.950901,3.952144,-0.361230,-0.689733,0.832557
3832314676,126.907127,-2.996955,4.157785,-0.374077,-0.859106,0.712191
3832334705,146.656494,-3.618014,6.773213,-0.325894,-0.779740,0.749769
3832354735,162.414856,-4.317615,13.709173,-0.302794,-0.493585,0.841986
3832374765,168.473358,-3.026327,15.657446,-0.284606,-0.213117,0.914715
3832394794,166.643982,-1.781397,16.290588,-0.268511,0.054616,0.923843
3832414824,160.207718,-0.390164,19.225235,-0.294361,0.203898,0.937494
3832434854,151.703918,0.529872,19.114832,-0.308677,0.225232,0.933715
3832454883,145.059326,0.992587,17.219788,-0.290004,0.185314,0.917491
3832474913,142.505997,1.860751,15.581110,-0.279818,0.127309,0.919219
3832494943,142.907043,2.234890,12.022151,-0.303432,0.087163,0.924855
3832514972,145.266449,2.227368,8.967765,-0.304416,0.134584,0.916331
3832535003,146.889297,2.261137,7.982593,-0.307414,0.252051,0.893997
3832555033,145.774109,2.295124,7.276632,-0.316521,0.369433,0.861704
3832575063,142.610336,2.534497,7.834168,-0.315528,0.454805,0.825079
3832595093,138.989563,3.533832,9.575494,-0.310896,0.501832,0.799753
3832615122,135.324051,4.402583,10.893296,-0.300127,0.503943,0.785432
3832635152,133.151276,5.650629,11.912933,-0.297624,0.506433,0.777462
3832655182,132.516525,7.132830,12.552243,-0.295714,0.519061,0.765468
3832675211,132.155182,8.040626,12.574774,-0.295654,0.555260,0.743163
3832695241,131.331619,8.842299,11.998987,-0.276218,0.620933,0.690953
3832715269,129.260010,9.414798,11.477593,-0.287233,0.690347,0.654442
3832735299,126.397911,9.777266,10.631553,-0.281155,0.735705,0.617164
3832755328,122.880898,9.509859,9.320393,-0.286681,0.776800,0.541863
3832775358,118.085266,7.194503,5.880072,-0.244891,0.832018,0.477869
3832795388,111.779755,1.666193,-0.172575,-0.335728,0.819935,0.475460
3832815418,109.485794,-0.418006,-1.096366,-0.307270,0.786938,0.527746
3832835447,108.454803,-2.173499,-1.878247,-0.322178,0.795052,0.526757
3832855477,109.942924,-0.948687,0.265508,-0.347392,0.746005,0.561133
3832875507,112.118927,0.207648,1.234944,-0.285538,0.819504,0.464677
3832895536,111.955559,1.282259,1.377484,-0.299367,0.850531,0.422379
3832935595,111.190025,-1.009004,0.137722,-0.315900,0.861251,0.334750
3832955625,110.736328,-2.965736,-0.725593,-0.314783,0.876901,0.305151
3832975656,110.205482,-4.966787,-1.308034,-0.302661,0.891967,0.285677
3832995685,110.345764,-6.415517,-1.826550,-0.304302,0.902614,0.273515
3833015715,111.308258,-7.204736,-1.857369,-0.304597,0.905558,0.252997
3833035745,112.423309,-7.842404,-1.851475,-0.307393,0.914267,0.215053
3833055775,113.264122,-8.569807,-1.799469,-0.312793,0.931403,0.155783
3833075804,113.570892,-9.468305,-1.405088,-0.314486,0.936782,0.109611
3833095834,113.794273,-10.404824,-1.131743,-0.316759,0.944298,0.072487
3833115864,113.842628,-11.386113,-0.865689,-0.324752,0.940268,0.053422
3833135894,114.778183,-12.514941,-0.067219,-0.324416,0.939482,0.031509
3833155922,116.059334,-13.129381,0.317665,-0.319701,0.935927,-0.004599
3833175951,117.073135,-13.764046,1.058949,-0.312756,0.930336,-0.021701
3833195981,119.216873,-13.423510,1.580292,-0.318502,0.927441,-0.050397
3833216011,121.044769,-12.259348,2.064238,-0.318852,0.937289,-0.099153
3833236041,122.335175,-10.529106,2.535589,-0.307132,0.928619,-0.156010
3833256070,123.562126,-7.955167,2.544899,-0.304211,0.923926,-0.182390
3833276100,125.140556,-5.117369,2.347447,-0.313041,0.918450,-0.218280
3833296129,127.032761,-3.567289,2.251943,-0.296202,0.898452,-0.259183
3833316159,128.039047,-3.185570,1.908030,-0.297265,0.891026,-0.328287
3833336189,128.384155,-4.069327,2.218901,-0.299256,0.855606,-0.391274
3833356218,127.074432,-7.102152,3.699498,-0.303686,0.839351,-0.458050
3833376248,126.192841,-9.444155,5.303397,-0.310454,0.834957,-0.462674
3833396278,126.363937,-11.015626,6.817933,-0.308724,0.841408,-0.477558
3833416308,128.073074,-10.763263,7.597598,-0.302875,0.845417,-0.483999
3833436339,131.273773,-9.220927,7.260165,-0.307906,0.801726,-0.483937
3833456369,134.998627,-6.549805,6.147714,-0.302999,0.785015,-0.497615
3833476398,139.479843,-3.519518,4.380551,-0.302964,0.765926,-0.520158
3833496428,144.340317,-1.201205,1.997818,-0.288066,0.729914,-0.577764
3833516457,147.545746,0.405083,0.310234,-0.290130,0.680760,-0.659778
3833536487,149.233063,1.336706,-0.674864,-0.290312,0.624283,-0.737720
3833556516,149.041611,0.857604,-0.845323,-0.277216,0.557059,-0.798657
3833576546,147.867050,0.019190,-0.763030,-0.278347,0.504154,-0.831665
3833596576,146.531097,-0.671384,0.023080,-0.283750,0.467204,-0.862861
3833616604,145.164734,-1.254802,0.937171,-0.287010,0.424916,-0.870882
3833636634,144.128601,-1.560501,1.204611,-0.296033,0.389925,-0.890341
3833676693,142.767212,-0.375857,0.488869,-0.300748,0.306581,-0.916842
3833696723,142.514709,0.223185,-0.592942,-0.304667,0.259507,-0.931401
3833716753,141.722290,0.786977,-1.689883,-0.294077,0.198585,-0.945304
3833736782,140.438766,0.631870,-2.303353,-0.291572,0.136166,-0.959534
3833756812,138.959595,0.727939,-3.229892,-0.292613,0.105416,-0.964948
3833776841,137.770035,0.600110,-4.639666,-0.275389,0.061320,-0.965806
3833796871,136.551071,0.196257,-6.691617,-0.288392,0.016356,-0.973280
3833816900,135.313660,-0.043687,-7.562144,-0.283867,-0.043543,-0.952946
3833836930,132.530045,-0.998361,-1.565606,-0.266851,-0.126532,-0.969687
3833856960,128.000137,-1.181864,4.651075,-0.302371,-0.207400,-0.981694
3833876991,122.711174,0.433345,8.092398,-0.322209,-0.268943,-0.965879
3833897021,117.632538,1.193879,8.955499,-0.308450,-0.236577,-0.954401
3833917051,117.478584,1.357011,7.422469,-0.306798,-0.110783,-0.956771
3833937080,123.960556,0.974269,3.402716,-0.321949,-0.029198,-0.967035
3833957110,130.448334,0.532301,2.158516,-0.282910,-0.224278,-0.950677
3833977139,131.064270,0.689443,2.324301,-0.311354,-0.352894,-0.919919
3833997169,129.558777,2.088629,4.070874,-0.319107,-0.422944,-0.879519
3834017199,126.806152,3.479399,5.877572,-0.305142,-0.447824,-0.860625
3834037229,125.162155,4.659346,7.853382,-0.308082,-0.448068,-0.846889
3834057257,124.950081,5.638011,8.815573,-0.312478,-0.461352,-0.844619
3834097316,127.899109,6.280655,9.903427,-0.287767,-0.498040,-0.827393
3834117346,130.119141,6.245987,9.882045,-0.297922,-0.517037,-0.807741
3834137375,133.788391,6.626945,8.978349,-0.326723,-0.522250,-0.820399
3834157405,138.185638,6.104022,7.529101,-0.319351,-0.577292,-0.776693
3834177435,141.678040,5.081539,5.492206,-0.332087,-0.625005,-0.750136
3834197464,144.925949,3.526547,3.163960,-0.321712,-0.671944,-0.708954
3834217494,146.809769,1.454569,1.135099,-0.315248,-0.736439,-0.652022
3834237524,147.919220,0.027619,-0.437045,-0.321079,-0.768385,-0.618633
3834277583,148.964249,-1.509985,-1.060526,-0.299275,-0.845984,-0.485981
3834297613,147.324081,0.002359,0.169448,-0.281395,-0.878159,-0.407111
3834317642,144.345352,3.960355,2.227437,-0.301809,-0.909716,-0.346659
3834337674,141.096725,8.336308,3.652472,-0.299428,-0.922653,-0.301458
3834357703,138.469772,11.831751,4.524123,-0.306974,-0.929004,-0.297805
3834377733,138.316833,13.125085,4.081009,-0.324730,-0.904354,-0.335661
3834397762,141.895721,11.663647,2.934948,-0.337318,-0.889857,-0.371884
3834417792,147.807190,7.776238,1.590503,-0.345911,-0.909526,-0.347921
3834437822,154.005249,3.369953,0.318792,-0.354683,-0.936323,-0.304034
3834457851,159.935242,-1.017681,-0.354219,-0.343201,-0.940664,-0.227292
3834477881,164.276917,-4.961923,-0.698107,-0.334045,-0.959625,-0.124431
3834497911,166.628540,-7.880992,-0.369176,-0.321230,-0.970876,-0.019886
3834517939,167.087387,-8.612153,0.228589,-0.301155,-0.955114,0.068045
3834537969,166.335876,-8.150765,0.436651,-0.296124,-0.955023,0.141345
3834557999,165.290054,-5.374271,0.511400,-0.286701,-0.931804,0.211279
3834578028,163.483353,-3.953503,1.408450,-0.288530,-0.923638,0.297324
3834598058,160.643005,-1.518835,1.128843,-0.299542,-0.893290,0.353480
3834618088,158.040436,-0.593186,0.664886,-0.310636,-0.875465,0.385965
3834638117,156.444427,-0.501287,0.579939,-0.329759,-0.865714,0.405738
3834658147,156.098999,-1.275740,0.616603,-0.337357,-0.848553,0.423302
3834678176,156.160187,-2.575690,1.211370,-0.329859,-0.805992,0.474120
3834698206,155.403717,-3.225163,1.550071,-0.328678,-0.772291,0.535892
3834718236,154.311844,-3.803161,2.244367,-0.317424,-0.723959,0.592941
3834738266,151.711334,-3.460438,2.733070,-0.310388,-0.675412,0.664440
3834758295,148.490814,-2.949748,2.393612,-0.308793,-0.616964,0.699242
3834778325,144.903214,-2.503736,2.615595,-0.307303,-0.580664,0.736575
3834798356,141.565613,-1.225104,1.837452,-0.300206,-0.546906,0.750880
3834818386,138.866531,-0.133168,0.871633,-0.298282,-0.517056,0.769081
3834838415,136.418335,1.117971,0.109315,-0.304397,-0.484812,0.791555
3834858445,133.855087,1.950343,-0.869423,-0.314129,-0.443217,0.823187
3834878474,130.900589,2.398553,-1.261303,-0.320363,-0.385967,0.853012
3834898504,128.950256,2.084278,-0.455903,-0.328450,-0.444358,0.815366
3834918534,132.663315,2.329241,-0.986913,-0.321818,-0.591084,0.742725
3834938564,140.792145,3.882146,-4.006119,-0.280067,-0.504200,0.794510
3834958593,142.814606,5.139936,-7.071292,-0.340296,-0.281678,0.938373
3834978621,139.944824,2.728295,-4.406274,-0.372955,-0.185373,0.968768
3834998651,137.549026,2.802778,-8.676786,-0.344373,-0.158998,0.929399
3835018681,135.729660,1.996877,-8.996930,-0.340889,-0.161087,0.908804
3835038711,135.983093,1.412162,-8.180612,-0.345080,-0.177897,0.890504
3835078770,140.091003,0.730819,-7.391948,-0.338820,-0.071568,0.909848
3835098810,140.446533,0.172831,-7.523568,-0.342873,0.013184,0.922891
3835118829,140.034149,-0.082992,-7.286575,-0.332712,0.070850,0.926237
3835138859,139.355087,-0.566157,-7.169114,-0.335714,0.099824,0.928099
3835158888,139.517456,-1.005311,-6.217585,-0.342462,0.119851,0.921602
3835178918,139.795441,-1.278563,-5.547930,-0.340887,0.144426,0.907430
3835198948,140.849594,-1.319659,-4.788865,-0.334549,0.196093,0.897056
3835218978,141.553909,-0.984256,-3.532709,-0.328464,0.274555,0.868483
3835239009,140.631287,-0.617402,-2.277606,-0.333586,0.354277,0.854622
3835279068,140.268341,-3.238993,-1.512722,-0.248158,0.319278,0.798263
3835299098,142.075684,-2.222242,-1.891909,-0.324734,0.375541,0.838073
3835319127,145.076477,-3.672677,-2.939775,-0.336985,0.342607,0.828623
3835339157,149.875336,-3.156851,-2.699158,-0.311678,0.405793,0.806338
3835359187,152.561142,-4.449513,-4.863071,-0.313268,0.516327,0.737221
3835379216,152.949127,-5.246736,-5.917685,-0.310751,0.615445,0.684772
3835399246,152.128143,-4.952078,-5.602108,-0.310338,0.673724,0.655647
3835419274,150.879211,-4.614706,-4.574377,-0.338038,0.703710,0.634933
3835439304,150.677994,-4.067341,-2.827603,-0.328831,0.707153,0.628268
3835459334,152.395935,-3.411125,-1.907265,-0.324356,0.680994,0.626364
3835479364,156.014267,-2.986269,-1.150872,-0.323894,0.672761,0.616253
3835499393,160.836670,-1.905681,-0.429730,-0.318197,0.687795,0.577959
3835519422,165.535141,-1.555888,0.077606,-0.324187,0.746661,0.517239
3835539452,169.086639,-1.101758,0.378795,-0.302797,0.794304,0.430568
3835559482,171.073242,-0.701811,0.209591,-0.299276,0.845243,0.344367
3835579512,171.942291,-0.097281,0.265592,-0.296028,0.883967,0.275942
3835599541,172.181564,0.585709,0.024928,-0.299089,0.910688,0.210682
3835619571,171.968658,0.586861,0.032397,-0.292349,0.929749,0.136472
3835639600,171.419220,-0.080788,-0.182144,-0.302167,0.937930,0.071204
3835659630,170.642105,-0.396055,-0.088887,-0.306522,0.943893,0.021342
3835679660,169.660812,-0.504982,-0.073283,-0.308552,0.952019,-0.042704
3835699691,168.098251,-1.341088,0.084624,-0.307096,0.942875,-0.116895
3835719721,166.136261,-1.261481,0.295306,-0.311594,0.933443,-0.182057
3835739750,164.303696,-0.884639,0.822004,-0.306542,0.921700,-0.220244
3835759780,162.588913,-0.000122,0.844076,-0.302301,0.917492,-0.284485
3835779810,160.576630,0.573615,0.785211,-0.296076,0.892213,-0.345785
3835799839,157.939438,0.899885,0.849435,-0.290690,0.871463,-0.386150
3835819869,155.713867,1.039491,0.377096,-0.295529,0.866913,-0.444698
3835839899,153.320389,1.058328,-0.056400,-0.282856,0.831716,-0.498955
3835879956,147.250992,0.458348,-0.160446,-0.289009,0.777111,-0.594871
3835899986,144.048645,0.094675,-0.174105,-0.281565,0.741735,-0.628308
3835920016,141.146255,0.314439,-0.510967,-0.288125,0.727254,-0.621702
3835940045,141.979813,1.948308,-2.260586,-0.287602,0.751359,-0.522143
3835960075,147.533524,1.074594,-2.076176,-0.291970,0.785847,-0.511670
3835980105,154.952484,-0.935005,-1.729684,-0.265992,0.768211,-0.561166
3836000135,158.542557,-2.384624,0.665006,-0.312427,0.622498,-0.799080
3836020165,155.965012,0.273567,-0.639936,-0.323283,0.542415,-0.878601
3836040194,153.310822,0.624695,0.000311,-0.309194,0.526893,-0.840172
3836060223,153.022339,0.686937,-0.053426,-0.289662,0.500162,-0.806506
3836080253,154.415070,0.441211,-0.763407,-0.265700,0.477140,-0.804869
3836100283,156.377625,-0.770112,-0.244286,-0.295966,0.442474,-0.841742
3836120313,158.214584,-0.226608,-0.968262,-0.300127,0.382589,-0.893123
3836140342,159.270142,0.281067,-2.260973,-0.269249,0.303602,-0.923753
3836160373,158.825867,-0.347606,-2.036028,-0.286549,0.251147,-0.938487
3836180403,159.232925,-0.017648,-2.872634,-0.303287,0.208482,-0.961521
3836200432,160.346786,-0.050375,-4.062212,-0.292612,0.189304,-0.932858
3836220462,162.324890,-0.322087,-4.786856,-0.295524,0.122478,-0.951052
3836240492,163.463287,-0.593555,-4.495906,-0.301461,0.059090,-0.977480
3836260522,163.998840,-0.431632,-5.300711,-0.297231,-0.013276,-0.990405
3836280551,163.205872,-0.532259,-7.051717,-0.292370,-0.112251,-0.986038
3836300581,160.776733,-1.058338,-8.875763,-0.311821,-0.219020,-1.009708
3836320615,158.384476,-0.238178,-8.686671,-0.347864,-0.183911,-0.993810
3836340639,156.490707,0.009559,-5.899450,-0.211300,-0.260181,-0.930582
3836360669,155.413452,-0.713041,-2.906552,-0.300667,-0.241039,-0.931583
3836380698,158.877411,-0.254454,-1.415052,-0.292939,-0.179898,-0.927879
3836400728,166.019806,-0.983356,-0.935387,-0.299277,-0.195980,-0.959536
3836420757,173.171814,-1.225191,-0.467390,-0.308444,-0.323001,-0.941597
3836440787,176.404816,-1.481018,-1.282547,-0.298131,-0.489583,-0.892485
3836460817,175.768753,-2.061194,-2.786823,-0.311155,-0.598902,-0.828797
3836480847,173.413971,-2.555364,-4.057606,-0.307233,-0.642839,-0.780024
3836500876,171.847580,-2.929074,-4.479825,-0.303634,-0.627200,-0.747594
3836520906,172.818237,-2.824625,-3.577961,-0.283083,-0.606636,-0.734563
3836540935,176.098892,-3.021547,-2.642122,-0.300160,-0.618377,-0.733488
3836560965,180.422043,-3.316601,-2.084060,-0.300634,-0.677712,-0.695062
3836580995,183.590103,-3.514403,-1.588030,-0.306743,-0.761960,-0.626831
3836601026,184.644318,-3.991245,-1.386381,-0.296485,-0.837770,-0.538902
3836641085,181.462280,-4.367756,-0.656876,-0.312699,-0.921992,-0.369955
3836661115,178.427231,-4.686492,-0.625339,-0.312913,-0.940973,-0.300842
3836721204,174.648926,-4.827371,-0.936849,-0.312519,-0.941737,-0.169288
3836741233,173.274063,-4.301637,-0.684137,-0.322764,-0.966735,-0.088435
3836761263,170.963562,-3.862159,-0.393242,-0.293697,-0.958568,-0.004170
3836781291,167.901581,-2.984307,0.052833,-0.310165,-0.953331,0.052852
3836801321,165.026703,-2.975727,0.339491,-0.317462,-0.945538,0.099274
3836821351,162.266113,-2.998582,0.512737,-0.317580,-0.934222,0.158535
3836841380,159.481384,-3.142280,0.929613,-0.322387,-0.918254,0.206169
3836861410,156.492233,-3.117593,1.299484,-0.312061,-0.913337,0.273939
3836881440,153.250122,-3.632143,1.628268,-0.325180,-0.891431,0.327518
3836901470,150.274841,-4.133571,1.752353,-0.319169,-0.860435,0.363599
3836921499,146.922852,-0.922022,0.806331,-0.294828,-0.834495,0.403856
3836941529,146.446579,4.129700,-0.699663,-0.318016,-0.886869,0.318456
3836961558,151.986298,2.918504,-1.300966,-0.364571,-0.952806,0.240768
3836981588,155.982422,3.389503,-2.076363,-0.301940,-0.807698,0.534355
3837001618,152.933456,0.417491,-1.097537,-0.349817,-0.758351,0.605243
3837021648,150.620300,1.020063,-2.112136,-0.347165,-0.746053,0.586319
3837041679,149.816177,0.135976,-1.445458,-0.323655,-0.707307,0.586695
3837061708,149.997955,0.265657,-1.074936,-0.326387,-0.687976,0.601801
3837081738,150.009949,0.765569,-1.791846,-0.340340,-0.654692,0.673274
3837101768,149.596649,2.169063,-3.843417,-0.316612,-0.601624,0.701082
3837121797,149.231110,3.111659,-4.799273,-0.309594,-0.573844,0.740983
3837141827,149.382233,4.808432,-7.027423,-0.320026,-0.570142,0.742126
3837161857,151.291916,4.842793,-7.383147,-0.318667,-0.564519,0.744848
3837181886,154.220886,4.947695,-7.792045,-0.340358,-0.540680,0.772652
3837201916,157.129974,4.247296,-7.769594,-0.350182,-0.485754,0.798745
3837221945,159.541962,3.254381,-7.236925,-0.355904,-0.416287,0.842020
3837241974,161.010025,2.275322,-6.333305,-0.356383,-0.353733,0.877739
3837262004,161.781860,0.929830,-4.577749,-0.354872,-0.299632,0.892688
3837282033,161.275299,0.379409,-3.815162,-0.322039,-0.118245,0.930413
3837302063,156.084274,0.527361,-4.213184,-0.318928,-0.003097,0.940292
3837322092,151.595459,0.752760,-7.644361,-0.323986,-0.054409,0.903766
3837342122,152.003128,0.501205,-9.378355,-0.325781,-0.162859,0.899812
3837362152,156.663147,0.064286,-12.003426,-0.348282,-0.197381,0.923959
3837382182,162.620331,-0.628631,-11.744518,-0.355663,-0.115152,0.951349
3837402211,167.275543,-1.862975,-9.298044,-0.365230,-0.004445,0.939710
3837422241,169.790070,-2.783655,-7.492139,-0.353272,0.076184,0.908058
3837442271,171.338593,-2.766280,-4.405616,-0.340623,0.152278,0.888244
3837462300,172.536530,-2.471116,-3.019989,-0.334348,0.204568,0.864728
3837482331,173.463577,-2.284438,-2.634421,-0.316148,0.260305,0.846550
3837502361,174.437576,-2.443303,-3.072379,-0.325221,0.322251,0.839307
3837522391,175.776276,-2.634419,-3.471978,-0.318595,0.368472,0.825418
3837542420,176.902374,-2.908773,-4.060534,-0.315328,0.425897,0.799161
3837562450,177.563965,-3.248739,-4.519869,-0.314787,0.503358,0.776333
3837582479,178.225555,-3.565742,-4.941485,-0.312661,0.536821,0.736690
3837602509,178.840424,-3.170549,-4.155967,-0.314146,0.584338,0.696297
3837622539,179.189377,-2.812362,-3.476416,-0.318652,0.659527,0.646708
3837642569,178.426941,-2.615059,-2.591334,-0.326908,0.729980,0.585145
3837662607,176.851746,-2.513572,-2.054618,-0.311721,0.769010,0.513905
3837682627,174.547012,-2.416240,-1.639534,-0.324473,0.804602,0.468745
3837702656,172.727692,-2.327921,-0.875362,-0.321082,0.826847,0.430206
3837722686,171.387711,-2.616992,-0.668866,-0.309137,0.835203,0.389943
3837742715,170.080154,-2.304484,-0.338509,-0.307559,0.860105,0.334966
3837762745,168.825745,-2.160349,-0.196266,-0.308396,0.886364,0.284162
3837782775,167.274963,-2.114155,-0.220150,-0.298022,0.906642,0.216139
3837802804,165.458710,-1.960171,-0.298142,-0.300806,0.930546,0.149397
3837822834,163.321991,-1.986787,-0.261041,-0.306609,0.924246,0.111083
3837842864,161.907593,-1.826174,0.002300,-0.298061,0.940819,0.071206
3837862894,160.751831,-1.850500,0.001946,-0.303193,0.943373,0.028878
3837882923,159.742355,-1.495326,-0.092510,-0.301331,0.941807,-0.033004
3837902953,157.809875,-1.529592,0.255621,-0.311138,0.939942,-0.109411
3837922983,154.857361,-1.908769,0.553079,-0.301428,0.925566,-0.185434
3837943014,153.367310,-0.487103,-0.050983,-0.295529,0.930963,-0.101389
3837963043,158.412262,3.792546,-0.622807,-0.295141,0.911860,0.051266
3837983073,167.461182,3.811988,-0.959790,-0.284450,0.911592,-0.087055
3838003102,170.334732,1.068559,-1.905876,-0.276945,0.914649,-0.339789
3838023132,168.124054,0.826329,-0.456728,-0.307458,0.913619,-0.491020
3838043162,163.452316,1.848189,-0.467567,-0.284705,0.844737,-0.543325
3838063192,160.042465,2.511987,-0.846312,-0.300593,0.813405,-0.510916
3838083221,158.750778,2.495076,-1.119751,-0.282187,0.801018,-0.515022
3838103251,159.652603,1.820657,-1.060577,-0.294361,0.805679,-0.489067
3838123280,162.520447,1.979723,-1.303154,-0.279668,0.772060,-0.503381
3838143309,166.032928,1.777758,-1.504476,-0.293362,0.750797,-0.560494
3838163338,169.523163,1.682345,-1.744615,-0.289873,0.723475,-0.627791
3838183368,172.126160,1.887364,-2.321319,-0.279922,0.668729,-0.685194
3838203398,173.865295,1.421535,-2.293820,-0.287231,0.619514,-0.751134
3838223428,174.973389,1.975518,-3.313938,-0.289367,0.571312,-0.793153
3838243457,176.121124,1.679283,-3.583852,-0.293267,0.513659,-0.837023
3838263487,176.371185,1.564166,-3.469033,-0.287445,0.450646,-0.877955
3838283516,176.007889,0.937760,-2.440364,-0.287803,0.383876,-0.908522
3838303546,174.733170,-0.380196,-0.246267,-0.292317,0.303876,-0.946401
3838323576,172.728134,-0.516876,1.224841,-0.298836,0.248677,-0.955051
3838343606,171.335693,-0.462535,1.610399,-0.301365,0.196598,-0.956213
3838363635,170.787674,-0.008151,0.051986,-0.310041,0.187390,-0.945484
3838383666,173.168518,0.421306,-2.043131,-0.284680,0.204792,-0.910493
3838403696,178.232651,0.332636,-4.595109,-0.289090,0.186674,-0.938668
3838423726,184.106293,-0.008452,-6.234722,-0.289748,0.121508,-0.978355
3838443755,188.943100,-0.088923,-6.701800,-0.289900,0.017579,-1.009903
3838463785,191.431854,0.200988,-7.112464,-0.289315,-0.098157,-1.000921
3838483815,191.940628,0.252440,-6.854858,-0.301097,-0.193655,-0.981455
3838503845,191.684494,0.190354,-5.345621,-0.278261,-0.275310,-0.951712
3838523874,190.626221,-0.436855,-3.384682,-0.273279,-0.349904,-0.926576
3838543904,189.446777,-1.040969,-1.537727,-0.286325,-0.406001,-0.930502
3838563932,188.796173,-1.025410,-0.196139,-0.286449,-0.435783,-0.883672
3838583962,189.305084,-0.989411,-0.006642,-0.298104,-0.457695,-0.862336
3838603991,190.801910,-1.416739,-0.229794,-0.297974,-0.503069,-0.844678
3838624021,192.937912,-1.893859,-0.672099,-0.305737,-0.554760,-0.812781
3838644051,195.045166,-2.288447,-1.516963,-0.313593,-0.612391,-0.777563
3838664081,196.137695,-4.026952,-2.957603,-0.311728,-0.719009,-0.724291
3838684110,195.664246,-4.786674,-3.269902,-0.293090,-0.750958,-0.606606
3838704140,193.914612,-5.510209,-3.886405,-0.327485,-0.828708,-0.607792
3838724169,192.529266,-6.166202,-4.215180,-0.299377,-0.855994,-0.518942
3838744199,190.228226,-5.078999,-3.694674,-0.329274,-0.860325,-0.478385
3838764229,189.069687,-5.398586,-3.222460,-0.252524,-0.910723,-0.398635
3838784259,187.769440,-3.855230,-1.287445,-0.291382,-0.912033,-0.335190
3838804288,185.811935,-4.475661,-0.995062,-0.305394,-0.945144,-0.249269
3838824319,182.626328,-4.160718,-0.635305,-0.295746,-0.943643,-0.157074
3838844349,178.246643,-3.732050,-0.026871,-0.318982,-0.968291,-0.075515
3838864378,173.842529,-4.287567,-0.130486,-0.313594,-0.963800,-0.023075
3838884408,169.866638,-3.968871,0.099961,-0.309091,-0.961193,0.009523
3838904438,166.508743,-3.219993,0.205781,-0.312537,-0.955184,0.029425
3838924468,164.504898,-3.556616,1.071999,-0.297390,-0.941606,0.106392
3838944497,161.537918,-4.372173,0.599739,-0.365717,-0.945764,0.142856
3838964527,159.109314,-5.204404,0.544896,-0.287177,-0.919000,0.218511
3838984557,156.269196,-3.916369,1.086202,-0.304682,-0.915806,0.236332
3839004585,157.015549,-1.605781,1.249133,-0.296688,-0.925969,0.126633
3839024614,163.779388,-0.553495,1.137418,-0.355955,-0.998775,0.069216
3839044644,170.195984,-0.946415,0.787461,-0.284534,-0.931825,0.322601
3839064674,169.277939,-1.921747,1.303208,-0.334418,-0.845635,0.498146
3839084703,165.323151,-2.648574,0.761486,-0.344773,-0.814976,0.547286
3839104733,162.576309,-3.128630,0.809681,-0.314248,-0.765286,0.521949
3839124763,161.669830,-3.083864,1.377525,-0.317931,-0.748260,0.527159
3839144793,161.852814,-2.863689,1.497079,-0.325979,-0.735375,0.560013
3839164822,161.959213,-2.841265,1.542435,-0.323339,-0.690075,0.614978
3839184852,161.369980,-2.276412,1.082481,-0.330195,-0.670672,0.684977
3839204881,161.757385,-1.345720,0.036104,-0.303612,-0.650244,0.683772
3839224911,162.967804,0.052558,-1.006218,-0.290442,-0.626828,0.699814
3839244941,165.661285,0.571235,-0.971360,-0.306603,-0.612953,0.712004
3839264971,168.518051,1.383483,-1.659189,-0.320995,-0.567318,0.758935
3839285002,170.983047,1.483408,-2.015195,-0.328964,-0.495582,0.790143
3839305031,172.485962,1.065211,-1.775912,-0.337093,-0.425664,0.836579
3839325061,173.326385,0.376454,-1.549841,-0.336676,-0.351877,0.866573
3839345091,173.048843,-0.015642,-0.879457,-0.329657,-0.269932,0.896111
3839365120,172.144028,-0.041348,-0.894843,-0.325595,-0.199242,0.906326
3839385150,170.312286,0.105361,-0.896961,-0.321197,-0.118810,0.916910
3839405179,168.658173,0.164222,-1.846018,-0.318937,-0.095890,0.904651
3839425209,169.420975,0.119403,-2.656559,-0.315777,-0.147982,0.899656
3839445241,173.029083,-0.110482,-4.222381,-0.346345,-0.138866,0.931105
3839465267,176.931641,-0.760088,-3.373425,-0.350105,-0.023731,0.950733
3839485297,178.917862,-1.773660,-2.863535,-0.332950,0.075000,0.949186
3839505326,180.046585,-2.249319,-2.191770,-0.325741,0.136752,0.910800
3839525356,180.818558,-2.257457,-1.129833,-0.316962,0.175907,0.872140
3839545386,182.292755,-1.698851,-0.193629,-0.311851,0.207601,0.867313
3839565415,184.537262,-1.047433,0.128018,-0.314909,0.263442,0.838383
3839585445,186.423141,-0.889608,0.233754,-0.300764,0.348559,0.831549
3839605475,187.140518,-0.345854,0.085475,-0.311440,0.444013,0.796745
3839625505,186.822693,-0.445055,-0.490086,-0.299548,0.524265,0.751759
3839645534,186.170761,-0.871617,-1.608972,-0.304340,0.558912,0.719593
3839665564,186.155212,-1.429141,-2.188121,-0.293000,0.611049,0.685567
3839685594,185.692352,-1.718068,-2.822816,-0.323390,0.646377,0.641853
3839705623,185.486679,-1.311478,-2.204596,-0.303436,0.720791,0.589550
3839725654,184.489868,-1.328296,-1.985056,-0.305319,0.768375,0.522311
3839745684,182.494202,-2.231172,-1.993604,-0.327989,0.816113,0.466512
3839765714,181.012283,-0.687668,-0.301306,-0.307404,0.796545,0.441742
3839785744,180.746445,-0.075042,0.375812,-0.321915,0.842522,0.351003
3839805773,179.636459,0.679825,1.278790,-0.309056,0.831642,0.359876
3839825803,179.555740,1.334622,1.205014,-0.300340,0.875858,0.280909
3839845832,179.346741,2.547069,1.520764,-0.306007,0.891612,0.209024
3839865862,178.122009,2.271416,1.370844,-0.282688,0.921062,0.147595
3839885892,176.854660,2.527962,0.966225,-0.282743,0.932562,0.080691
3839905920,175.424576,2.031821,0.567848,-0.280363,0.942463,0.019928
3839925950,173.872437,1.414438,0.140101,-0.296163,0.952311,-0.027802
3839945979,172.267792,1.301100,0.125112,-0.291995,0.945963,-0.100006
3839966009,170.326691,0.656398,0.015855,-0.295167,0.935442,-0.151645
3839986038,168.577454,0.666246,0.189315,-0.303234,0.940285,-0.208516
3840006068,166.929886,1.276492,0.244051,-0.300902,0.921733,-0.279128
3840026098,164.467285,1.525696,0.301425,-0.286519,0.897637,-0.333255
3840046127,162.182526,2.221898,0.013937,-0.282425,0.881511,-0.352691
3840066157,162.712616,4.315343,-1.360582,-0.277753,0.888621,-0.311468
3840086187,166.352570,5.092742,-2.123561,-0.300538,0.881886,-0.256485
3840106217,173.038269,3.839405,-2.132550,-0.268347,0.859215,-0.339888
3840126246,174.499756,1.239007,-1.245649,-0.279429,0.819936,-0.607557
3840146276,171.631577,2.547711,-1.394502,-0.279159,0.739031,-0.667368
3840166306,168.809753,2.296298,-1.378592,-0.282623,0.702731,-0.671229
3840186337,167.373016,2.242556,-1.515313,-0.296697,0.697549,-0.673514
3840206366,167.434143,2.012586,-1.900040,-0.277991,0.656552,-0.692305
3840226396,168.143539,0.951808,-1.595088,-0.280509,0.637384,-0.714160
3840246425,169.311615,0.489842,-1.317689,-0.288921,0.593655,-0.782532
3840266455,169.694778,-0.111342,-0.667976,-0.284168,0.561386,-0.799186
3840286485,171.853409,0.626782,-1.863521,-0.287619,0.522252,-0.816859
3840306515,173.905350,-0.598380,-0.790747,-0.273382,0.484546,-0.832861
3840326544,176.536743,-0.529045,-0.926535,-0.300693,0.443907,-0.863990
3840346597,179.878204,-0.191334,-1.625309,-0.292906,0.379530,-0.891847
3840366602,182.188507,-0.003835,-1.079854,-0.289551,0.306648,-0.924602
3840386632,183.670120,-0.102410,-0.896339,-0.289304,0.213302,-0.959423
3840406662,183.277359,-0.439164,0.205704,-0.284430,0.109536,-0.992987
3840426691,181.120087,-0.758301,1.503882,-0.294045,0.035446,-0.992185
3840446721,178.269150,-0.078400,2.270170,-0.302687,-0.039988,-0.996127
3840466751,176.293442,-0.084305,1.928069,-0.305644,-0.039942,-0.969517
3840486780,177.277374,0.235927,1.372362,-0.300721,-0.003443,-0.954310
3840506810,182.777893,-0.308953,-0.341542,-0.292418,0.024579,-0.973361
3840526839,190.054108,-0.936223,-1.121297,-0.294223,-0.044030,-0.999314
3840546869,196.276306,-1.063946,-2.140801,-0.314129,-0.190905,-1.017793
3840566899,198.789276,-0.248199,-2.328406,-0.309405,-0.365728,-0.986650
3840586928,197.141373,-0.050352,-2.679641,-0.278400,-0.481441,-0.919842
3840606958,194.041977,-0.067088,-1.217651,-0.275371,-0.516235,-0.844615
3840626989,191.795456,0.361304,0.407819,-0.281658,-0.530578,-0.814722
3840647019,191.009476,1.033374,2.100189,-0.294006,-0.542753,-0.791117
3840667049,191.813034,1.069745,2.866065,-0.292128,-0.570629,-0.761126
3840687078,192.655441,1.548351,3.916368,-0.291302,-0.643531,-0.724904
3840707108,193.386688,2.460314,4.636946,-0.318417,-0.701773,-0.689274
3840727138,193.502655,2.962193,4.670699,-0.313286,-0.756040,-0.635373
3840747167,192.971481,2.719375,4.058330,-0.325222,-0.811473,-0.582125
3840767197,192.150909,1.813589,2.768997,-0.327929,-0.859468,-0.517612
3840787226,191.193878,1.183281,1.697168,-0.335429,-0.890279,-0.458221
3840807255,189.742065,0.296341,0.490775,-0.326140,-0.910239,-0.387593
3840827284,188.067612,-0.640742,-0.131482,-0.316236,-0.927904,-0.320495
3840847314,186.356842,-0.944954,-0.486114,-0.309384,-0.931446,-0.266644
3840867344,185.020905,-0.405067,-0.491293,-0.310851,-0.931382,-0.213352
3840887373,184.167587,-0.765601,-0.397693,-0.307171,-0.941726,-0.145465
3840907403,182.958496,-0.674911,-0.232233,-0.315233,-0.946103,-0.072967
3840927433,181.052338,0.028501,-0.041926,-0.312948,-0.950365,-0.000208
3840947463,178.217545,0.439851,0.112474,-0.314990,-0.951499,0.071962
3840967492,175.199936,0.722593,0.214790,-0.312125,-0.936696,0.139429
3840987522,172.040390,1.446822,0.093450,-0.324797,-0.926367,0.194004
3841007552,169.039673,1.903499,-0.116552,-0.315444,-0.930212,0.250357
3841027581,165.872269,2.620388,-0.169596,-0.312030,-0.896357,0.314540
3841047611,162.553787,3.321784,-0.541031,-0.318459,-0.870712,0.360046
3841067640,159.855804,3.419062,-0.763033,-0.331470,-0.872492,0.366848
3841087672,160.712784,1.666499,0.040636,-0.341427,-0.897477,0.272148
3841107701,167.849136,0.989537,0.110427,-0.308428,-0.948319,0.176538
3841127731,175.690674,3.085093,-0.434124,-0.296264,-0.883636,0.444551
3841147761,174.817932,1.421933,-0.670791,-0.387156,-0.757709,0.612950
3841167790,171.673553,0.090159,-1.009906,-0.324808,-0.716323,0.650681
3841187820,168.937180,-0.920170,-0.183878,-0.324358,-0.660355,0.658874
3841207849,167.524338,-0.501255,-0.066765,-0.317119,-0.661694,0.630679
3841227879,167.803680,0.446911,-0.612921,-0.304397,-0.619477,0.672358
3841247909,167.819687,0.660053,-0.584375,-0.333429,-0.591157,0.736236
3841267937,168.695297,0.516525,-1.143822,-0.338993,-0.606997,0.724953
3841287967,170.920517,1.294390,-1.733100,-0.295526,-0.532936,0.771443
3841307996,174.223694,0.929486,-0.917153,-0.332984,-0.573821,0.762149
3841328026,178.569946,1.191846,-2.069735,-0.326785,-0.499536,0.794159
3841348056,181.848083,1.280209,-2.319102,-0.317017,-0.404731,0.833721
3841368085,183.554688,1.466301,-3.146289,-0.336285,-0.287027,0.882517
3841388115,182.484161,1.371086,-3.722248,-0.330080,-0.166159,0.923631
3841408144,179.647003,0.538958,-4.391440,-0.347363,-0.064260,0.931231
3841428174,175.181061,-0.030488,-4.206848,-0.332503,0.035748,0.931849
3841448204,170.350891,-0.583494,-4.234869,-0.333573,0.045924,0.906090
3841468233,169.851746,-1.080241,-3.343832,-0.346444,-0.098434,0.885922
3841488263,176.474365,-0.817574,-0.810411,-0.326677,-0.219683,0.914062
3841508293,186.850189,-0.686839,0.088198,-0.357930,-0.176388,0.958323
3841528324,195.782013,-1.389658,2.092513,-0.351080,-0.011314,0.978129
3841548354,201.079025,-1.866265,4.525351,-0.330940,0.178350,0.937028
3841568383,202.611282,-1.580331,5.956710,-0.300498,0.308347,0.854461
3841588413,202.082977,-0.320346,6.324981,-0.268101,0.392111,0.794413
3841608443,200.486359,0.352996,4.847626,-0.263649,0.481142,0.735602
3841628473,197.795181,0.672557,2.826800,-0.292634,0.538238,0.722239
3841648502,196.740631,0.201974,1.564029,-0.303677,0.538147,0.702613
3841668532,196.600449,0.412357,0.523446,-0.265213,0.600771,0.668943
3841688561,196.071335,-0.810940,-1.923143,-0.302501,0.652849,0.650104
3841708590,196.229065,-1.635279,-2.348325,-0.322168,0.701287,0.611706
3841728619,196.294998,-2.603828,-2.795088,-0.306984,0.742530,0.535830
3841748649,195.686874,-2.165042,-2.291065,-0.311296,0.796406,0.469979
3841768678,194.750549,-1.707921,-1.377920,-0.323661,0.834672,0.418642
3841788708,193.784622,-0.762305,-0.112532,-0.318248,0.858535,0.350207
3841808738,192.636230,0.016110,0.941872,-0.307851,0.884056,0.288897
3841828768,190.973999,0.954520,1.228891,-0.296458,0.898884,0.217097
3841848797,189.660233,1.403230,1.307891,-0.297829,0.918280,0.156635
3841868827,188.057175,1.448760,1.003450,-0.291631,0.929101,0.090192
3841888857,186.298264,0.535900,0.661487,-0.286281,0.933762,0.034541
3841908886,184.616272,-0.255989,0.197232,-0.289603,0.938709,-0.029647
3841928916,183.093307,-1.032785,-0.054774,-0.298791,0.929125,-0.079366
3841948945,181.387970,-1.480018,0.077052,-0.290938,0.912795,-0.130423
3841968975,180.134064,-1.298184,0.112830,-0.296861,0.916382,-0.208816
3841989006,178.028366,-1.019813,0.352102,-0.305845,0.932445,-0.283309
3842009036,176.234039,-0.742786,0.682521,-0.289533,0.898036,-0.320245
3842029065,174.594025,-0.270098,0.586774,-0.295895,0.875868,-0.370582
3842049095,172.806534,-0.405050,0.647700,-0.289417,0.864309,-0.441884
3842069125,169.999908,-0.809411,0.475349,-0.282658,0.827508,-0.496070
3842089155,170.449066,1.564463,-1.386819,-0.278923,0.835152,-0.388668
3842109184,175.444000,2.363608,-2.604251,-0.271383,0.839663,-0.357829
3842129214,182.176910,-1.413727,-1.606351,-0.265680,0.798346,-0.480270
3842149243,183.215561,-3.846574,0.909092,-0.306067,0.742872,-0.704105
3842169272,180.831589,-2.583865,1.428085,-0.307042,0.676268,-0.794022
3842189301,178.327911,-1.307207,1.378245,-0.315603,0.619568,-0.777248
3842209331,177.233002,-2.233694,2.560721,-0.278616,0.599016,-0.759765
3842229361,177.990616,-2.945789,2.506410,-0.289045,0.583732,-0.767471
3842249390,181.398132,-2.972921,2.068523,-0.277651,0.581420,-0.742293
3842269420,184.706314,-2.685619,2.173860,-0.299914,0.485248,-0.831186
3842289450,186.840988,-1.999707,1.259280,-0.300021,0.421319,-0.864919
3842309479,188.056198,-1.905462,1.774660,-0.285189,0.354294,-0.914870
3842329509,188.573929,-1.587931,1.946632,-0.292719,0.286354,-0.940179
3842349539,188.819778,-1.255543,1.580019,-0.297439,0.202090,-0.949343
3842369568,187.993515,-1.024370,1.115170,-0.304041,0.100562,-0.979512
3842389598,184.296951,-0.560035,-0.179475,-0.304951,-0.030854,-0.998179
3842409628,178.173355,-0.730799,-1.758081,-0.300205,-0.135049,-0.988841
3842429658,171.001053,-0.812461,-3.391018,-0.300295,-0.191371,-0.967818
3842449688,166.857941,0.676382,-4.042419,-0.352477,-0.008402,-1.049229
3842469718,173.497025,0.005449,1.577186,-0.221883,0.073876,-0.973767
3842489748,182.940521,0.833778,2.469487,-0.342244,0.101869,-1.038366
3842509777,197.323578,0.782088,-1.571972,-0.315913,0.064119,-1.043947
3842529807,208.788757,0.920166,-1.302213,-0.286513,-0.150279,-1.000445
3842549836,212.526596,0.643358,-0.767334,-0.276329,-0.399347,-0.910650
3842569866,210.418182,-0.955774,-2.021139,-0.287995,-0.569210,-0.821756
3842589896,203.601227,-0.800210,-0.448662,-0.296250,-0.674213,-0.753387
3842609924,195.441635,-0.312043,0.582042,-0.297391,-0.714057,-0.698267
3842629954,188.985840,0.097579,1.310946,-0.300608,-0.701390,-0.695828
3842649983,185.801239,1.924881,3.227501,-0.293638,-0.665297,-0.707250
3842670013,186.684631,3.202820,4.369679,-0.313048,-0.654588,-0.726912
3842690043,190.315308,4.035509,4.190055,-0.332407,-0.679378,-0.719330
3842710073,194.209961,4.494416,4.188085,-0.321359,-0.749255,-0.650231
3842730102,195.678268,4.134116,3.479102,-0.317710,-0.840687,-0.547308
3842750132,194.833847,3.145440,2.402753,-0.323411,-0.895381,-0.439449
3842770162,192.322647,1.777553,1.374275,-0.324292,-0.918071,-0.358330
3842790191,189.414764,-0.014917,0.220274,-0.319462,-0.937179,-0.304109
3842810221,187.253311,-0.780847,-0.070042,-0.318734,-0.923881,-0.257505
3842830250,185.909882,-0.355680,-0.248650,-0.319326,-0.918397,-0.228707
3842850280,186.106796,-0.508802,-0.201777,-0.319223,-0.937296,-0.174012
3842870310,185.552597,-0.178034,-0.045598,-0.311613,-0.945633,-0.095270
3842890341,184.429672,0.513441,0.092114,-0.308976,-0.958382,-0.019846
3842910371,182.926819,1.053855,-0.019300,-0.334450,-0.968846,0.036976
3842930400,180.988312,1.247308,0.129780,-0.294179,-0.939227,0.116965
3842950430,178.650803,2.073238,-0.143659,-0.329475,-0.925336,0.162623
3842970459,177.256485,1.349908,-0.138259,-0.321017,-0.935406,0.209501
3842990489,175.850327,1.448668,-0.147351,-0.331367,-0.912808,0.266327
3843010519,174.557709,1.241650,-0.366119,-0.332414,-0.883496,0.317614
3843030549,173.825119,0.560383,-0.391081,-0.326389,-0.877420,0.347348
3843050584,173.884018,0.080489,-0.402187,-0.337457,-0.866070,0.381052
3843070606,174.428314,-0.637707,-0.342819,-0.332211,-0.835571,0.425240
3843090636,175.305984,-1.463493,-0.062505,-0.324100,-0.800357,0.485769
3843110666,175.455215,-1.942924,0.206966,-0.320212,-0.762341,0.538951
3843130695,175.218903,-1.872227,0.486796,-0.315356,-0.730134,0.603051
3843150725,174.727859,-1.246085,0.299331,-0.313702,-0.678306,0.648565
3843170755,173.866959,-0.261485,-0.262846,-0.303178,-0.624272,0.696800
3843190784,173.376877,0.547101,-0.520082,-0.311781,-0.636293,0.689976
3843210814,176.359390,0.307588,0.863315,-0.317932,-0.655903,0.685404
3843230844,180.544357,-1.078304,2.772503,-0.330905,-0.590668,0.743494
3843250874,182.157257,-1.523486,4.217622,-0.328550,-0.446575,0.820730
3843270903,181.312790,-2.114557,5.943316,-0.300115,-0.360859,0.852569
3843290933,179.621277,0.083828,2.845702,-0.294734,-0.311395,0.861786
3843310962,178.493546,1.574814,-1.481583,-0.334915,-0.268534,0.896221
3843330993,177.539871,0.895329,-1.324697,-0.327428,-0.181646,0.921248
3843351023,176.442917,0.375911,-1.328448,-0.344125,-0.177088,0.922754
3843371053,177.527206,-0.475133,0.824959,-0.337494,-0.177606,0.910715
3843391083,178.792633,-0.699162,1.843455,-0.327101,-0.076668,0.912913
3843411112,180.270737,-0.817068,3.065879,-0.327243,-0.047002,0.918023
3843431142,181.454987,-0.714488,3.747980,-0.323434,0.025035,0.916013
3843451172,182.603210,-0.522005,3.944054,-0.315394,0.096828,0.904574
3843471201,183.326752,-0.465987,3.633068,-0.313281,0.169704,0.901083
3843491231,183.701843,-0.699882,2.573717,-0.311809,0.210083,0.894816
3843511259,184.039871,-0.949822,1.211200,-0.299872,0.327269,0.857841
3843531289,181.481598,-1.360662,-0.500145,-0.305857,0.460462,0.812964
3843551319,177.278946,-2.486736,-2.456489,-0.319349,0.532039,0.767486
3843571348,173.582779,-3.169211,-2.983294,-0.322066,0.506564,0.749678
3843591378,173.231644,-2.684387,-1.963949,-0.320161,0.436195,0.787766
3843611407,177.860580,-0.934332,0.609095,-0.318004,0.381419,0.822534
3843651467,193.397827,3.916539,5.360189,-0.302739,0.505898,0.796637
3843671496,199.366730,4.931487,6.476706,-0.312847,0.631081,0.692369
3843691526,201.633942,5.330660,6.519943,-0.270424,0.754945,0.554889
3843711556,200.908707,5.658442,5.516001,-0.273459,0.812684,0.449656
3843731585,198.918442,4.933460,4.088108,-0.274021,0.850137,0.368833
3843751615,196.400436,3.052654,2.176826,-0.252396,0.869309,0.306551
3843771646,194.203415,1.634762,0.352798,-0.282372,0.873903,0.268950
3843791676,193.382965,1.011648,-0.628041,-0.288311,0.889390,0.243434
3843811705,193.515182,-0.214903,-0.731410,-0.306310,0.888275,0.203693
3843831735,194.929535,-0.107964,-0.655803,-0.306751,0.899056,0.166994
3843851765,197.234360,0.528369,-0.197523,-0.309701,0.901312,0.095210
3843871794,198.994080,1.532107,0.007200,-0.306315,0.923020,0.039320
3843891824,200.566101,2.893669,-0.064129,-0.294170,0.929050,-0.055555
3843911854,200.898987,4.124045,-0.354837,-0.284146,0.925781,-0.146716
3843931898,200.506744,4.749740,-0.519505,-0.294783,0.935406,-0.240285
3843951912,199.120468,5.852568,-0.703824,-0.281286,0.911866,-0.342167
3843971941,196.995438,6.242112,-1.390512,-0.263030,0.885950,-0.400904
3843991971,194.942566,5.733308,-2.008965,-0.278991,0.870073,-0.473249
3844012000,192.195557,4.947694,-2.284235,-0.273903,0.815907,-0.515480
3844032030,190.534134,3.997481,-2.261896,-0.280191,0.795607,-0.558131
3844052060,188.954208,2.651541,-2.084553,-0.270718,0.751270,-0.603486
3844072089,187.681183,1.874413,-2.040732,-0.277686,0.706055,-0.637066
3844092119,187.054611,1.246527,-1.868957,-0.286449,0.685681,-0.695642
3844112149,185.487869,1.125426,-1.868698,-0.279576,0.620534,-0.746710
3844132179,183.288162,0.658053,-1.714195,-0.282436,0.568623,-0.808038
3844152209,180.619919,-0.382907,-0.834802,-0.293544,0.521267,-0.844900
3844172238,178.387848,-0.962757,-0.224444,-0.295403,0.473510,-0.869565
3844192267,176.374603,-1.687345,0.698102,-0.286771,0.425366,-0.886029
3844212299,174.555328,-1.728982,1.296559,-0.293428,0.377463,-0.911686
3844232328,172.874390,-1.704095,1.523000,-0.292844,0.332436,-0.922957
3844252358,171.552429,-1.514619,1.460113,-0.293216,0.282947,-0.933189
3844272388,170.747864,-1.152486,1.494594,-0.295229,0.232226,-0.949302
3844292417,170.222382,-1.278770,1.593968,-0.293615,0.177508,-0.955351
3844312447,169.797470,-0.910501,1.787805,-0.299936,0.128492,-0.962297
3844332477,169.501999,-0.802984,1.604789,-0.301854,0.085279,-0.969484
3844352506,169.434250,-0.734528,1.482867,-0.298835,0.030353,-0.972590
3844372536,169.366577,-0.413923,1.646949,-0.300691,-0.029836,-0.973999
3844392564,168.758133,-0.356987,1.775073,-0.304486,-0.093352,-0.980673
3844412594,168.212112,-0.240862,1.493296,-0.300393,-0.149391,-0.965788
3844432623,167.597382,-0.139368,1.279847,-0.303266,-0.196464,-0.965905
3844452653,167.035339,-0.190487,1.037377,-0.299959,-0.257517,-0.949526
3844472683,166.596527,0.046575,0.671233,-0.306388,-0.311488,-0.934336
3844492712,166.064545,-0.065468,0.467200,-0.301557,-0.359566,-0.910783
3844512742,165.387543,-0.176185,0.429891,-0.293625,-0.425135,-0.890263
3844532772,164.314392,-0.146421,0.800646,-0.293848,-0.480381,-0.866037
3844552801,163.173645,0.020431,1.086814,-0.302195,-0.519082,-0.843251
3844572831,162.413925,0.000932,0.881893,-0.303566,-0.544477,-0.813381
3844592860,162.390564,-0.334694,0.634490,-0.302958,-0.581860,-0.776195
3844612890,162.201004,-0.326562,0.490270,-0.303637,-0.624055,-0.740170
3844632920,161.965027,-0.493175,0.370241,-0.307355,-0.675060,-0.705372
3844652951,161.480225,-0.438929,-0.108122,-0.321130,-0.715911,-0.667265
3844672981,161.038361,-0.848430,-0.347524,-0.316229,-0.751799,-0.625248
3844693010,160.285950,-0.959383,-0.574420,-0.301950,-0.783500,-0.577197
3844713040,159.341843,-1.113515,-0.361283,-0.306167,-0.821982,-0.533801
3844733070,158.437836,-0.780843,-0.190125,-0.309461,-0.843747,-0.483844
3844753100,157.448746,-0.866589,-0.083734,-0.307927,-0.870112,-0.431204
3844773129,156.231598,-0.851820,0.127853,-0.305027,-0.891545,-0.382330
3844793159,155.008545,-0.425992,0.335985,-0.305733,-0.909279,-0.339324
3844813190,154.058182,-0.443896,0.305347,-0.314063,-0.923148,-0.294671
3844833216,153.625793,-0.343241,0.129905,-0.320276,-0.930991,-0.254949
3844853246,153.496704,-0.350372,0.069245,-0.318458,-0.924366,-0.205559
3844873276,153.192032,-0.523978,0.025063,-0.319007,-0.945266,-0.150711
3844893306,152.741745,-0.909659,0.065994,-0.318341,-0.950534,-0.091043
3844913335,151.981995,-0.814474,0.011753,-0.318823,-0.954296,-0.038592
3844933365,151.283112,-0.719663,-0.057620,-0.322581,-0.958609,0.002481
3844953394,150.778915,-1.234303,0.029860,-0.320604,-0.953562,0.040994
3844973424,150.520309,-1.164022,0.150459,-0.312391,-0.938990,0.079789
3844993454,150.381927,-1.513321,0.183653,-0.320124,-0.941885,0.131856
3845013483,150.321030,-1.451775,0.281674,-0.317251,-0.937800,0.194021
3845033513,149.858673,-0.999835,0.398970,-0.319414,-0.919640,0.253586
3845053543,149.060272,-0.987868,0.436394,-0.310983,-0.902762,0.302721
3845073572,148.560318,-0.612557,0.342016,-0.315037,-0.877298,0.329731
3845093603,148.432098,-0.391269,0.302185,-0.326551,-0.882850,0.372766
3845113633,148.877213,-1.139156,0.429994,-0.329345,-0.847040,0.405096
3845133663,149.250183,-1.164500,0.271162,-0.333278,-0.827877,0.450582
3845153692,149.397308,-2.085089,0.635322,-0.322910,-0.794829,0.505102
3845173722,149.175034,-2.250248,0.970215,-0.323614,-0.765980,0.557486
3845193752,148.710358,-2.392077,1.069748,-0.325034,-0.728607,0.601447
3845213781,147.865692,-2.448014,1.213870,-0.320408,-0.689162,0.642878
3845233811,147.175217,-1.987177,1.353727,-0.319480,-0.659644,0.672380
3845253841,146.452621,-1.967746,1.466946,-0.304117,-0.622427,0.693789
3845273869,146.203110,-1.623877,1.471520,-0.310249,-0.586259,0.730816
3845293899,145.840881,-1.059132,1.337707,-0.314539,-0.546880,0.761785
3845313928,145.174896,-0.569556,1.007243,-0.313907,-0.497498,0.790188
3845333958,144.621994,-0.087250,0.957434,-0.314404,-0.457934,0.816656
3845353987,143.802353,0.037884,0.660284,-0.318623,-0.415952,0.838429
3845374017,143.043213,0.117181,0.409042,-0.323049,-0.382847,0.851993
3845394047,143.103821,0.032980,0.364286,-0.329590,-0.350648,0.866882
3845414077,143.301254,0.032189,0.440209,-0.322911,-0.306881,0.883372
3845434107,143.158066,0.207454,0.271861,-0.321026,-0.241968,0.902536
3845454136,142.551804,0.353861,-0.154259,-0.313885,-0.183565,0.907757
3845474166,141.375671,0.502955,-0.679245,-0.321358,-0.118357,0.933253
3845494195,139.636292,0.594494,-1.097871,-0.326268,-0.066014,0.928362
3845514225,138.229874,0.364888,-1.422654,-0.328243,-0.032676,0.930373
3845534256,137.210846,0.125925,-1.656186,-0.328819,0.003426,0.925494
3845554285,136.541183,-0.106871,-1.768287,-0.325079,0.044483,0.925478
3845574315,135.506592,-0.230713,-1.745001,-0.328435,0.098819,0.920813
3845594345,134.221054,-0.421985,-1.797091,-0.331380,0.140293,0.918867
3845614374,132.913086,-0.544736,-1.880096,-0.327259,0.187235,0.908778
3845634408,131.755554,-0.750688,-1.568060,-0.325408,0.223620,0.899741
3845654434,130.788361,-0.973228,-1.361942,-0.319449,0.258228,0.894224
3845674464,130.118393,-0.938191,-1.051694,-0.317438,0.293092,0.880063
3845694493,129.760345,-1.111362,-1.050413,-0.323710,0.326332,0.872326
3845714521,129.668930,-0.942532,-0.786501,-0.314904,0.357094,0.851391
3845734551,129.722733,-0.691176,-0.652107,-0.315687,0.402068,0.840474
3845754581,129.493149,-1.001808,-0.581371,-0.316775,0.441500,0.811698
3845774610,128.975937,-0.953018,-0.468299,-0.315954,0.478219,0.793153
3845794640,128.959686,-0.638490,0.234188,-0.316259,0.517963,0.772518
3845814670,128.761597,-0.537651,0.483456,-0.314203,0.548723,0.759416
3845834700,128.853333,-0.271120,0.663233,-0.308772,0.572687,0.736446
3845854729,129.241501,-0.197161,0.632471,-0.310891,0.606208,0.707051
3845874759,129.455551,0.022162,0.547330,-0.300160,0.654180,0.669417
3845894788,128.909363,0.115529,0.288490,-0.299349,0.700420,0.626767
3845914818,127.731010,-0.054112,0.046717,-0.303388,0.740647,0.589643
3845934848,126.491928,-0.124200,-0.112518,-0.306214,0.752945,0.561045
3845954877,126.028160,-0.121745,-0.112763,-0.306555,0.764265,0.541425
3845974908,126.036865,0.121679,-0.145131,-0.308595,0.771879,0.518547
3845994938,126.713600,0.309098,0.065922,-0.306017,0.787340,0.488331
3846014968,127.336960,0.367020,0.164304,-0.303368,0.816795,0.448295
3846034998,127.870354,0.867452,0.425734,-0.309069,0.838579,0.404582
3846055027,127.901115,1.119159,0.628353,-0.305538,0.865418,0.359150
3846075057,127.840393,1.295184,0.816398,-0.303998,0.880121,0.319507
3846095086,127.820374,2.056781,0.908561,-0.298157,0.891687,0.282004
3846115116,127.806343,2.307886,0.860953,-0.294127,0.911477,0.242175
3846135146,127.860947,2.489640,0.669901,-0.296956,0.921546,0.189454
3846155174,127.526665,2.613450,0.744521,-0.295332,0.935189,0.143960
3846175204,127.322327,2.667075,0.524090,-0.295685,0.940064,0.104743
3846195233,127.223091,2.408145,0.329082,-0.294872,0.939747,0.064127
3846215263,127.003708,2.423462,0.010398,-0.290193,0.945456,0.017057
3846235292,126.297928,2.678102,-0.075484,-0.293611,0.948483,-0.030169
3846255322,125.462326,2.704727,-0.265665,-0.299917,0.948106,-0.068436
3846275352,124.748253,2.898976,-0.214566,-0.301672,0.940279,-0.099120
3846295381,124.726730,3.264651,-0.156990,-0.298600,0.935426,-0.129516
3846315411,124.926247,3.582748,-0.318789,-0.292373,0.929886,-0.170366
3846335441,124.835968,3.605170,-0.584395,-0.289344,0.922062,-0.222518
3846355470,124.670746,4.077863,-0.618772,-0.297648,0.919460,-0.267593
3846375500,124.533791,4.040480,-0.633688,-0.294255,0.897873,-0.302795
3846395530,124.392647,4.588169,-0.964386,-0.287116,0.898688,-0.341015
3846415559,124.098557,4.755402,-1.496680,-0.283049,0.876724,-0.390542
3846435590,123.543762,4.589969,-1.768515,-0.282643,0.852649,-0.433301
3846455620,122.783401,4.395330,-1.994712,-0.283161,0.835148,-0.477840
3846475650,122.058662,3.736703,-2.065353,-0.286839,0.812882,-0.514075
3846495679,121.122452,3.498140,-2.048639,-0.286834,0.799061,-0.549716
3846515709,120.467247,3.044379,-2.204370,-0.287986,0.776548,-0.561720
3846535738,120.672882,3.111718,-2.227582,-0.289255,0.752028,-0.573014
3846555768,121.359879,3.464529,-2.616900,-0.286655,0.727514,-0.605243
3846575798,121.825806,3.559232,-3.148217,-0.283952,0.704865,-0.660732
3846595834,121.316681,3.454654,-3.359885,-0.283237,0.660293,-0.703493
3846615856,120.284164,3.664973,-3.559285,-0.288803,0.627713,-0.733921
3846635886,119.409668,3.501615,-3.717561,-0.288119,0.604230,-0.753481
3846655915,118.685852,3.071332,-3.790119,-0.278493,0.574804,-0.778611
3846675945,118.319084,2.639463,-3.771506,-0.284182,0.547176,-0.798953
3846695975,118.104660,2.160634,-3.896485,-0.281253,0.512190,-0.816301
3846716004,117.775681,1.751731,-3.779479,-0.281586,0.470991,-0.842706
3846736034,117.095741,1.170128,-3.509550,-0.284171,0.436866,-0.861231
3846756063,116.578300,1.096879,-3.471275,-0.291181,0.404288,-0.874792
3846776093,116.173439,0.833456,-3.219049,-0.287922,0.368470,-0.890408
3846796123,115.669937,0.562690,-3.042631,-0.285370,0.328360,-0.903427
3846816152,114.941170,0.695361,-3.218486,-0.291193,0.290450,-0.925601
3846836182,114.088600,0.479267,-3.179173,-0.293022,0.246725,-0.938725
3846856212,113.259697,0.384476,-3.247017,-0.291632,0.206686,-0.947015
3846876243,112.400291,0.358733,-3.201724,-0.291308,0.172262,-0.948515
3846896272,111.714256,0.325962,-2.708943,-0.289588,0.143780,-0.955232
3846916302,111.538361,0.259152,-2.481004,-0.293900,0.108474,-0.956724
3846936332,110.630463,-0.244950,-2.158761,-0.294117,0.059609,-0.964940
3846956361,109.383163,-0.176765,-1.955220,-0.288163,0.018155,-0.969700
3846976391,107.724777,-0.220527,-1.735773,-0.288220,-0.022724,-0.972909
3846996421,106.042465,-0.446459,-1.401077,-0.297989,-0.057637,-0.973573
3847016451,104.368431,-0.268028,-0.774069,-0.294481,-0.102263,-0.962608
3847036480,102.145119,-0.176501,0.308329,-0.300619,-0.147350,-0.956187
3847056508,99.319809,-0.164471,1.701970,-0.299962,-0.194029,-0.949669
3847076538,95.841118,0.316777,3.523536,-0.300661,-0.244183,-0.939190
3847096568,91.624634,0.786963,5.420659,-0.298224,-0.293429,-0.931480
3847116597,86.662766,1.253765,7.400853,-0.300239,-0.330930,-0.918257
3847136627,81.450737,1.904569,9.379381,-0.299726,-0.355245,-0.903958
3847156657,76.444710,2.698776,11.318893,-0.305931,-0.371127,-0.891698
3847176686,71.729500,3.520059,12.712409,-0.311423,-0.381806,-0.882027
3847196716,67.396530,4.467137,13.634961,-0.311710,-0.400806,-0.872256
3847216746,62.796070,5.103658,14.590321,-0.302061,-0.431674,-0.852939
3847236775,57.111061,6.393005,17.837053,-0.298437,-0.471205,-0.841286
3847256805,50.449974,8.164373,22.550196,-0.312043,-0.507169,-0.829242
3847276835,42.512653,10.843342,28.051222,-0.318270,-0.542023,-0.812502
3847296865,33.947384,13.438397,32.506321,-0.313570,-0.555209,-0.805518
3847316894,25.083031,15.303891,36.838501,-0.308118,-0.558000,-0.801255
3847336925,16.539303,17.724323,41.461887,-0.312827,-0.537822,-0.804523
3847356955,8.495766,19.616348,45.923138,-0.316265,-0.522318,-0.804071
3847376985,1.402774,21.472588,50.294163,-0.317195,-0.492082,-0.818048
3847397014,-4.894895,22.601540,54.679260,-0.309414,-0.494717,-0.811738
3847417044,-11.429619,23.954794,59.752335,-0.312078,-0.499130,-0.817573
3847437073,-17.828482,25.071398,64.835037,-0.319630,-0.487542,-0.828727
3847457103,-24.540821,25.839857,70.019089,-0.307373,-0.498213,-0.839399
3847477133,-33.117947,26.268696,75.394638,-0.294543,-0.519665,-0.845140
3847497171,-42.708546,26.407137,81.098167,-0.290462,-0.496812,-0.863578
3847517191,-51.829041,25.871775,86.360237,-0.273073,-0.456091,-0.883186
