Timestamp (us),Gyroscope X (deg/s),Gyroscope Y (deg/s),Gyroscope Z (deg/s),Accelerometer X (g),Accelerometer Y (g),Accelerometer Z (g)
9145235521,-0.497147,-1.097530,0.006943,-0.033858,0.996116,-0.045061
9145238023,-0.557927,-1.097632,-0.114475,-0.032387,0.997558,-0.045773
9145240525,-0.497104,-1.158665,-0.053636,-0.031666,0.996102,-0.046499
9145243027,-0.497227,-1.219483,0.007196,-0.033119,0.998286,-0.044322
9145245530,-0.436407,-1.158404,0.128488,-0.035348,0.996115,-0.039983
9145248032,-0.436367,-1.097427,0.128361,-0.028790,0.996790,-0.040660
9145250535,-0.375215,-1.036983,0.006831,-0.025163,0.996756,-0.039180
9145253037,-0.375172,-1.098119,-0.053748,-0.030218,0.998982,-0.042118
9145255539,-0.375009,-0.976324,-0.114707,-0.028035,0.999689,-0.041372
9145258060,-0.496821,-0.853940,-0.114973,-0.023693,1.001092,-0.036247
9145260550,-0.557564,-0.670954,-0.176065,-0.022954,1.002538,-0.036237
9145263045,-0.618549,-0.731715,-0.175946,-0.022905,1.006174,-0.039134
9145265547,-0.618507,-0.792851,-0.236525,-0.018565,1.001787,-0.040569
9145268049,-0.496655,-0.854258,-0.236385,-0.020030,1.001795,-0.039126
9145270552,-0.374683,-0.732735,-0.236623,-0.020709,1.009780,-0.036925
9145273054,-0.313780,-0.671814,-0.176037,-0.017055,1.011204,-0.037621
9145275557,-0.313906,-0.610520,-0.054753,-0.019994,1.011940,-0.032551
9145278059,-0.374892,-0.671282,-0.054633,-0.020732,1.011219,-0.031832
9145280561,-0.374851,-0.610305,-0.054760,-0.017780,1.009039,-0.040541
9145283063,-0.435717,-0.488136,-0.055019,-0.013463,1.001749,-0.041986
9145285566,-0.374731,-0.427375,-0.055139,-0.012044,0.996659,-0.042718
9145288068,-0.313743,-0.488726,-0.115711,-0.017152,0.995971,-0.041304
9145290571,-0.252877,-0.610894,-0.115451,-0.019993,0.999638,-0.047129
9145293073,-0.252917,-0.671871,-0.115325,-0.015583,1.003961,-0.048537
9145295575,-0.252960,-0.610735,-0.054746,-0.011978,1.002473,-0.045607
9145298078,-0.252880,-0.488782,-0.054999,-0.016314,1.009755,-0.041255
9145300580,-0.191976,-0.427862,0.005588,-0.018435,1.019927,-0.038331
9145303082,-0.131113,-0.427918,0.066300,-0.016239,1.022809,-0.036851
9145305585,-0.009305,-0.428190,0.127020,-0.018424,1.024997,-0.033953
9145308087,0.051601,-0.489382,0.127153,-0.018412,1.027172,-0.033219
9145310589,0.173579,-0.612083,0.006009,-0.013298,1.028586,-0.034631
9145313092,0.234444,-0.734252,0.006268,-0.014008,1.030769,-0.034629
9145315594,0.295390,-0.734467,0.006275,-0.015449,1.029339,-0.038279
9145318096,0.295511,-0.551537,0.005896,-0.012516,1.027876,-0.043351
9145320599,0.295754,-0.307788,-0.055315,-0.008884,1.027845,-0.042597
9145323101,0.356697,-0.185891,0.005145,-0.006030,1.022735,-0.040412
9145325603,0.417600,-0.124971,0.065731,-0.004605,1.018370,-0.041142
9145328106,0.600315,-0.186435,0.126584,-0.006769,1.016947,-0.045524
9145330608,0.844181,-0.187454,0.065906,-0.006744,1.016956,-0.049158
9145333110,0.905047,-0.309623,0.066166,-0.004590,1.014034,-0.048425
9145335613,0.904964,-0.309464,0.126871,-0.003187,1.008214,-0.047706
9145338115,0.844018,-0.309249,0.126864,-0.003927,1.005320,-0.049174
9145340617,0.783112,-0.248057,0.126731,-0.006156,0.999531,-0.049209
9145343120,0.783193,-0.126103,0.126478,-0.004730,0.995890,-0.049210
9145345622,0.844053,-0.004048,0.247643,-0.004723,0.993722,-0.052851
9145348124,0.844053,-0.004048,0.247643,-0.002569,0.990799,-0.052118
9145350626,0.783112,-0.248057,0.126731,-0.001169,0.986425,-0.049213
9145353129,0.844104,-0.431520,0.005706,-0.001209,0.982068,-0.048500
9145355631,0.904967,-0.431576,0.066419,0.000240,0.981331,-0.048492
9145358134,0.965870,-0.370656,0.127005,-0.001208,0.982792,-0.047771
9145360636,0.965744,-0.309362,0.248289,-0.002713,0.978444,-0.045615
9145363138,0.843935,-0.309090,0.187570,-0.004180,0.976280,-0.046359
9145365641,0.722290,-0.187024,0.065892,-0.004888,0.976293,-0.049272
9145368143,0.661590,-0.065173,-0.055779,-0.001262,0.974812,-0.049250
9145370645,0.600807,0.056837,-0.116744,0.000195,0.972630,-0.052154
9145373148,0.539818,0.118188,-0.056172,-0.003457,0.972654,-0.050000
9145375650,0.478792,-0.003550,-0.055926,-0.006412,0.971938,-0.044208
9145378153,0.356777,-0.063938,0.004892,-0.004922,0.972663,-0.048557
9145380655,0.295914,-0.063882,-0.055821,-0.000540,0.974081,-0.049247
9145383157,0.235048,0.058287,-0.056080,-0.001314,0.972622,-0.044169
9145385659,0.235048,0.058287,-0.056080,-0.003492,0.972642,-0.044912
9145388162,0.235008,-0.002690,-0.055954,-0.002018,0.971913,-0.048538
9145390664,0.234805,-0.185461,0.005131,0.000145,0.971888,-0.045614
9145393166,0.234685,-0.368391,0.005510,0.000869,0.973328,-0.043424
9145395669,0.173699,-0.429153,0.005629,-0.000576,0.973344,-0.044888
9145398171,0.173699,-0.429153,0.005629,0.001577,0.974039,-0.039781
9145400674,0.112876,-0.368120,-0.055210,0.002276,0.974746,-0.034685
9145403176,0.112962,-0.490391,-0.176368,0.002314,0.973313,-0.041959
9145405678,0.051936,-0.612129,-0.176122,0.000876,0.974778,-0.042692
9145408180,-0.009050,-0.672890,-0.176003,-0.002809,0.972619,-0.038364
9145410683,-0.131025,-0.672301,-0.115311,-0.002810,0.976237,-0.033991
9145413185,-0.252960,-0.610735,-0.054746,-0.001326,0.979855,-0.033969
9145415687,-0.253083,-0.671553,0.006086,-0.004218,0.982780,-0.033254
9145418190,-0.192137,-0.671769,0.006093,-0.003493,0.984220,-0.031063
9145420692,-0.131314,-0.732802,0.066932,-0.002007,0.990009,-0.028853
9145423194,-0.131394,-0.854755,0.067185,-0.003414,0.996551,-0.028116
9145425697,-0.070528,-0.976924,0.067445,-0.005597,0.996569,-0.028132
9145428199,-0.070486,-1.038059,0.006866,-0.007043,0.995861,-0.030326
9145430701,-0.070488,-0.915947,0.067318,-0.009186,0.999511,-0.031784
9145433203,-0.131394,-0.854755,0.067185,-0.011400,0.998070,-0.028897
9145435706,-0.131231,-0.732960,0.006227,-0.012893,0.995173,-0.026736
9145438208,-0.131228,-0.855073,-0.054226,-0.015086,0.994463,-0.026028
9145440711,-0.131268,-0.916049,-0.054100,-0.015785,0.998098,-0.026021
9145443213,-0.070320,-1.038377,-0.114546,-0.016559,0.991573,-0.026774
9145445715,-0.070363,-0.977241,-0.053966,-0.018018,0.992307,-0.025329
9145448218,-0.192337,-0.976652,0.006725,-0.022356,0.993800,-0.027537
9145450720,-0.253446,-1.098232,0.067677,-0.023095,0.993078,-0.026818
9145453223,-0.253526,-1.220185,0.067929,-0.020179,0.998123,-0.021692
9145455725,-0.131715,-1.342569,0.068196,-0.017284,0.998093,-0.019490
9145458227,-0.070646,-1.281966,0.007371,-0.017276,1.000991,-0.017300
9145460730,-0.070686,-1.342943,0.007498,-0.019429,1.000296,-0.022406
9145463232,-0.131552,-1.220774,0.007238,-0.023100,0.997419,-0.020988
9145465734,-0.192623,-1.159265,0.128516,-0.018743,0.998827,-0.018044
9145468237,-0.253489,-1.037096,0.128256,-0.019404,1.004647,-0.020939
9145470739,-0.192377,-1.037629,0.006852,-0.019446,1.003185,-0.016582
9145473241,-0.070360,-1.099354,-0.114419,-0.019468,1.001005,-0.015862
9145475743,0.051618,-1.222055,-0.235563,-0.018033,0.997368,-0.017317
9145478246,-0.009451,-1.282658,-0.174738,-0.019505,0.995202,-0.017334
9145480748,-0.070480,-1.282284,-0.114040,-0.019487,0.998104,-0.016598
9145483250,-0.131509,-1.281910,-0.053341,-0.020237,0.995207,-0.016613
9145485753,-0.192375,-1.159741,-0.053601,-0.020268,0.994472,-0.012980
9145488255,-0.192335,-1.098764,-0.053727,-0.020302,0.995183,-0.007163
9145490757,-0.192212,-1.037946,-0.114559,-0.016651,0.994435,-0.010046
9145493260,-0.131226,-0.977185,-0.114679,-0.017386,0.992267,-0.011512
9145495762,-0.009377,-0.916480,-0.054086,-0.022545,0.985771,-0.009390
9145498264,0.051529,-0.977672,-0.053952,-0.021071,0.985042,-0.013016
9145500767,0.051323,-1.038331,0.067585,-0.023209,0.993760,-0.009369
9145503269,0.051200,-1.099149,0.128417,-0.020349,0.989376,-0.007181
9145505771,-0.070774,-1.098560,0.189109,-0.020327,0.990832,-0.008630
9145508274,-0.070774,-1.098560,0.189109,-0.024002,0.988676,-0.005756
9145510776,-0.131720,-1.098345,0.189102,-0.023312,0.986486,-0.002850
9145513279,-0.070897,-1.159378,0.249941,-0.021823,0.990105,-0.003555
9145515781,-0.131677,-1.159480,0.128523,-0.022498,0.996643,-0.003539
9145518283,-0.192500,-1.098447,0.067684,-0.020293,1.003147,0.000859
9145520786,-0.192337,-0.976652,0.006725,-0.018844,1.002409,0.000867
9145523288,-0.131311,-0.854914,0.006479,-0.018860,1.001679,0.002319
9145525790,-0.131065,-0.733278,-0.115185,-0.017344,1.006756,-0.000562
9145528292,-0.070079,-0.672516,-0.115304,-0.016592,1.002417,-0.009294
9145530795,-0.131148,-0.733119,-0.054479,-0.012977,1.004550,-0.003445
9145533297,-0.192217,-0.793722,0.006346,-0.018115,0.999509,-0.002771
9145535799,-0.192380,-0.915517,0.067304,-0.013739,1.000201,-0.003464
9145538302,-0.192460,-1.037470,0.067557,-0.011541,1.005255,0.000203
9145540804,-0.192460,-1.037470,0.067557,-0.011576,1.000900,0.000189
9145543306,-0.192297,-0.915675,0.006599,-0.012994,1.007439,0.002380
9145545809,-0.131394,-0.854755,0.067185,-0.011467,1.008900,-0.006328
9145548311,-0.009542,-0.916162,0.067325,-0.004955,1.008834,-0.001191
9145550814,-0.009625,-0.916003,0.128031,-0.006453,1.005936,0.001696
9145553316,-0.070611,-0.976765,0.128150,-0.006443,1.005939,0.000243
9145555818,-0.070611,-0.976765,0.128150,-0.002804,1.003015,-0.003375
9145558320,0.051280,-0.977195,0.128164,-0.003542,1.003018,-0.001926
9145560823,0.051321,-0.916219,0.128038,-0.007212,1.000864,0.000221
9145563325,0.112389,-0.855616,0.067213,-0.002860,0.997929,-0.001210
9145565827,0.051484,-0.794424,0.067079,-0.001360,1.002276,-0.002639
9145568332,0.051401,-0.794265,0.127785,0.000114,1.001547,-0.006266
9145570832,0.051358,-0.733130,0.188364,-0.002809,1.003738,-0.001919
9145573334,0.112181,-0.794163,0.249203,-0.004287,1.000846,-0.001939
9145575837,0.234075,-0.916705,0.188764,-0.005136,0.989952,0.003110
9145578339,0.295104,-0.917079,0.128066,-0.010924,0.991458,0.000164
9145580842,0.295187,-0.917238,0.067360,-0.004327,0.995766,-0.001955
9145583345,0.295147,-0.978215,0.067487,-0.010899,0.992192,-0.002741
9145585847,0.294984,-1.100009,0.128445,-0.007275,0.989263,-0.004178
9145588350,0.294901,-1.099851,0.189150,-0.010184,0.989286,-0.004199
9145590852,0.234075,-0.916705,0.188764,-0.009476,0.989997,-0.000557
9145593355,0.173293,-0.794696,0.127799,-0.013857,0.988579,0.000134
9145595857,0.112510,-0.672686,0.066834,-0.014607,0.986406,0.000848
9145598359,0.173373,-0.672742,0.127546,-0.021935,0.983551,0.005147
9145600862,0.173373,-0.672742,0.127546,-0.024093,0.987196,0.005870
9145603364,0.173539,-0.673060,0.006135,-0.024068,0.991547,0.007338
9145605866,0.051687,-0.611653,0.005995,-0.023340,0.992265,0.008072
9145608369,-0.070248,-0.550087,0.066560,-0.031352,0.987984,0.004365
9145610871,-0.131196,-0.427759,0.127006,-0.032794,0.995238,0.010920
9145613373,-0.070210,-0.366998,0.126886,-0.030624,0.993044,0.010202
9145615876,-0.070045,-0.367315,0.005475,-0.031357,0.987983,0.005092
9145618378,-0.009056,-0.428666,-0.055097,-0.027649,0.993044,0.000773
9145620880,-0.009016,-0.367689,-0.055223,-0.024021,0.993735,0.002983
9145623383,-0.009018,-0.245577,0.005229,-0.029834,0.990890,-0.001430
9145625885,0.051967,-0.184815,0.005110,-0.029865,0.990155,0.002202
9145628387,0.051967,-0.184815,0.005110,-0.033461,0.990924,-0.002911
9145630890,-0.008938,-0.123624,0.004976,-0.033404,0.997458,-0.003617
9145633392,-0.069681,0.059363,-0.056115,-0.029040,0.996698,-0.004314
9145635894,-0.130587,0.120555,-0.056249,-0.031991,0.995259,0.000021
9145638397,-0.069561,0.242293,-0.056494,-0.034887,0.994564,-0.002910
9145640899,0.052122,0.303316,0.125510,-0.031886,1.004706,-0.004310
9145643402,0.113149,0.425054,0.125264,-0.026849,0.999578,-0.002108
9145645904,0.174298,0.607610,0.064186,-0.029744,0.999607,-0.004310
9145648406,0.174298,0.607610,0.064186,-0.027524,1.002498,-0.006466
9145650908,0.235203,0.546418,0.064319,-0.023167,0.995223,-0.013726
9145653411,0.235038,0.546736,0.185731,-0.025369,0.995233,-0.010834
9145655913,0.174255,0.668746,0.124765,-0.027526,1.000326,-0.008653
9145658416,0.113512,0.851732,0.063673,-0.027520,1.001052,-0.008651
9145660918,0.113715,1.034504,0.002589,-0.032606,0.998201,-0.013059
9145663420,0.174781,1.217219,0.002216,-0.028969,0.997448,-0.013762
9145665922,0.296713,1.277765,0.002104,-0.029724,0.995273,-0.012320
9145668425,0.418605,1.277335,0.002118,-0.028256,0.998160,-0.010847
9145670927,0.418562,1.338470,0.062697,-0.026787,0.997430,-0.013746
9145673429,0.357656,1.399662,0.062564,-0.024627,0.995233,-0.013010
9145675932,0.296954,1.643625,0.001345,-0.021741,0.995924,-0.008625
9145678434,0.236211,1.826612,-0.059746,-0.025373,0.992337,-0.013751
9145680937,0.114482,1.948837,-0.120719,-0.028271,0.993813,-0.013768
9145683439,0.053494,2.010188,-0.060146,-0.025348,0.996689,-0.012284
9145685941,0.053534,2.071164,-0.060273,-0.022455,0.995212,-0.011540
9145688443,0.053411,2.010346,0.000559,-0.022513,0.987954,-0.011563
9145690946,0.114357,2.010131,0.000566,-0.022507,0.988679,-0.011561
9145693448,0.114357,2.010131,0.000566,-0.023964,0.990861,-0.008657
9145695950,0.114397,2.071108,0.000440,-0.020350,0.988652,-0.007910
9145698453,0.053574,2.132141,-0.060399,-0.023244,0.988682,-0.010112
9145700955,0.053614,2.193118,-0.060526,-0.023271,0.987224,-0.007936
9145703457,0.053694,2.315071,-0.060778,-0.018900,0.988639,-0.007173
9145705960,-0.007172,2.437240,-0.061038,-0.015951,0.987906,-0.013696
9145708462,-0.129023,2.498647,-0.061179,-0.015218,0.987902,-0.014418
9145710966,-0.250918,2.621190,-0.000740,-0.014475,0.988625,-0.015864
9145713467,-0.372810,2.621620,-0.000754,-0.015218,0.988626,-0.013688
9145715969,-0.372727,2.621461,-0.061459,-0.015206,0.990077,-0.013684
9145718472,-0.189886,2.498703,-0.121891,-0.013753,0.988617,-0.015132
9145720974,-0.068075,2.376320,-0.121624,-0.013753,0.987893,-0.015861
9145723476,-0.007046,2.375946,-0.182323,-0.011589,0.990040,-0.010750
9145725978,-0.067871,2.559091,-0.182709,-0.013739,0.992241,-0.012939
9145728481,-0.189683,2.681475,-0.182976,-0.012209,0.996599,-0.018730
9145730983,-0.311495,2.803859,-0.183243,-0.010005,0.998036,-0.020163
9145733485,-0.311372,2.864676,-0.244074,-0.009266,0.999482,-0.020153
9145735988,-0.250426,2.864461,-0.244068,-0.012182,0.998056,-0.020906
9145738490,-0.189603,2.803428,-0.183229,-0.012919,0.994440,-0.023831
9145740993,-0.189769,2.803746,-0.061818,-0.010764,0.992241,-0.022368
9145743495,-0.189849,2.681792,-0.061565,-0.011501,0.992243,-0.020919
9145745997,-0.128860,2.620442,-0.122137,-0.013679,0.992263,-0.021662
9145748500,-0.128860,2.620442,-0.122137,-0.010038,0.990787,-0.023821
9145751002,-0.067914,2.620227,-0.122130,-0.010747,0.989352,-0.028193
9145753504,-0.067874,2.681203,-0.122256,-0.012887,0.991557,-0.031836
9145756007,-0.067834,2.742180,-0.122383,-0.012873,0.995180,-0.029644
9145758509,-0.128906,2.803690,-0.001105,-0.012190,0.990816,-0.028199
9145761011,-0.128866,2.864666,-0.001231,-0.011496,0.987903,-0.026749
9145763513,-0.128703,2.986461,-0.062190,-0.009293,0.988617,-0.028911
9145766016,-0.128620,2.986302,-0.122895,-0.010769,0.987897,-0.026743
9145768518,-0.189563,2.864405,-0.183355,-0.013687,0.989365,-0.023852
9145771020,-0.250669,2.620713,-0.182856,-0.017331,0.987945,-0.024611
9145773523,-0.250749,2.498760,-0.182604,-0.016620,0.986486,-0.023883
9145776026,-0.189846,2.559680,-0.122017,-0.018757,0.990862,-0.025339
9145778528,-0.129026,2.620759,-0.000726,-0.019497,0.989416,-0.025349
9145781030,-0.250878,2.682167,-0.000866,-0.015907,0.987198,-0.020968
9145783532,-0.311661,2.804176,-0.061831,-0.012951,0.992257,-0.021657
9145786035,-0.433223,2.926084,-0.244215,-0.009272,0.994414,-0.025258
9145788537,-0.494129,2.987276,-0.244348,-0.006389,0.992209,-0.023790
9145791039,-0.494172,3.048411,-0.183769,-0.008588,0.990773,-0.023084
9145793563,-0.372320,2.987004,-0.183629,-0.013726,0.985732,-0.022410
9145796049,-0.250552,2.925756,-0.122783,-0.021002,0.984344,-0.023922
9145798545,-0.189606,2.925540,-0.122776,-0.022389,0.987275,-0.030465
9145801047,-0.250594,2.986891,-0.062204,-0.019472,0.988701,-0.029713
9145803550,-0.372406,3.109275,-0.062470,-0.015143,0.987929,-0.025321
9145806052,-0.372406,3.109275,-0.062470,-0.012218,0.988635,-0.026752
9145808554,-0.372323,3.109116,-0.123176,-0.010732,0.989358,-0.030373
9145811057,-0.372363,3.048140,-0.123050,-0.012880,0.993006,-0.031105
9145813559,-0.311540,2.987106,-0.062211,-0.015025,0.995933,-0.033292
9145816061,-0.311500,3.048083,-0.062337,-0.015040,0.991585,-0.036214
9145818564,-0.250554,3.047868,-0.062330,-0.016535,0.990859,-0.031138
9145821066,-0.311540,2.987106,-0.062211,-0.015820,0.993019,-0.026764
9145823568,-0.372486,2.987322,-0.062218,-0.013597,0.993740,-0.031835
9145826071,-0.433352,3.109490,-0.062477,-0.009213,0.992988,-0.035440
9145828573,-0.433229,3.170308,-0.123309,-0.007023,0.995868,-0.033234
9145831075,-0.433106,3.231126,-0.184141,-0.013573,0.997367,-0.031096
9145833578,-0.372120,3.291888,-0.184261,-0.017205,0.997399,-0.031850
9145836080,-0.311174,3.291672,-0.184254,-0.015045,0.995926,-0.030384
9145838582,-0.311174,3.291672,-0.184254,-0.015070,0.995192,-0.027479
9145841085,-0.311254,3.169719,-0.184001,-0.012150,0.995896,-0.028182
9145843587,-0.372200,3.169934,-0.184008,-0.007038,0.999480,-0.026680
9145846089,-0.372243,3.231070,-0.123429,-0.004116,1.001632,-0.025924
9145848592,-0.372243,3.231070,-0.123429,-0.004834,1.000918,-0.028113
9145851094,-0.372243,3.231070,-0.123429,-0.007021,1.001658,-0.026673
9145853596,-0.372283,3.170093,-0.123302,-0.006304,1.000924,-0.025943
9145856099,-0.433312,3.170467,-0.062604,-0.004155,0.998000,-0.024482
9145858601,-0.372486,2.987322,-0.062218,-0.002700,0.998712,-0.023742
9145861103,-0.311455,2.864835,-0.183369,-0.001977,0.998704,-0.023010
9145863606,-0.189520,2.803270,-0.243934,-0.001984,0.997254,-0.023742
9145866108,-0.189440,2.925223,-0.244187,-0.004913,0.997271,-0.020855
9145868610,-0.189523,2.925382,-0.183481,-0.005633,1.000174,-0.018671
9145871113,-0.189646,2.864564,-0.122649,-0.004142,1.000899,-0.023019
9145873615,-0.250632,2.803802,-0.122530,-0.003419,1.001615,-0.021558
9145876117,-0.250549,2.803644,-0.183236,-0.000530,1.000860,-0.019358
9145878619,-0.250549,2.803644,-0.183236,0.002384,1.000115,-0.020793
9145881122,-0.250552,2.925756,-0.122783,0.005284,1.000087,-0.019318
9145883624,-0.128743,2.925484,-0.062063,0.004571,0.999375,-0.022233
9145886127,-0.067797,2.925269,-0.062056,0.003098,0.997209,-0.022251
9145888629,0.053975,2.741909,-0.061663,0.003809,0.995750,-0.021523
9145891131,0.175992,2.680184,-0.182934,0.002380,0.996495,-0.024439
9145893634,0.236938,2.679969,-0.182927,-0.002705,0.997986,-0.023745
9145896136,0.175995,2.558072,-0.243387,-0.005614,0.998734,-0.023037
9145898639,-0.007049,2.498058,-0.121870,-0.007778,0.997311,-0.027419
9145901141,-0.128900,2.559465,-0.122010,-0.008491,0.992980,-0.034707
9145903643,-0.189929,2.559839,-0.061312,-0.009226,0.990812,-0.036173
9145906146,-0.128940,2.498488,-0.121884,-0.010700,0.991541,-0.032547
9145908648,-0.128978,2.315399,-0.182210,-0.006327,0.994403,-0.030325
9145911150,-0.128935,2.254264,-0.242790,-0.006328,0.993679,-0.031054
9145913652,-0.189801,2.376432,-0.243049,-0.010657,0.993727,-0.036175
9145916155,-0.189761,2.437409,-0.243176,-0.015035,0.995205,-0.032567
9145918658,-0.311735,2.437998,-0.182484,-0.018656,0.996688,-0.033316
9145921159,-0.372721,2.377237,-0.182365,-0.017217,0.991605,-0.036957
9145923662,-0.372681,2.438214,-0.182491,-0.014276,0.992316,-0.040568
9145926164,-0.311735,2.437998,-0.182484,-0.015001,0.994494,-0.038385
9145928666,-0.311818,2.438157,-0.121779,-0.017962,0.989434,-0.036969
9145931169,-0.311695,2.498975,-0.182611,-0.017986,0.985806,-0.037707
9145933671,-0.372684,2.560326,-0.122038,-0.015056,0.990132,-0.035491
9145936173,-0.311738,2.560111,-0.122031,-0.011412,0.991552,-0.034733
9145938676,-0.372684,2.560326,-0.122038,-0.012827,0.991579,-0.040559
9145941178,-0.372684,2.560326,-0.122038,-0.015752,0.991597,-0.038400
9145943681,-0.372684,2.560326,-0.122038,-0.015020,0.990869,-0.039851
9145946183,-0.372684,2.560326,-0.122038,-0.014275,0.993764,-0.039109
9145948685,-0.311655,2.559952,-0.182737,-0.012082,0.994474,-0.039818
9145951188,-0.372644,2.621303,-0.122165,-0.014310,0.989409,-0.039123
9145953690,-0.311904,2.560428,-0.000620,-0.016488,0.993047,-0.035493
9145956192,-0.372850,2.560643,-0.000627,-0.015725,0.997396,-0.035474
9145958695,-0.372810,2.621620,-0.000754,-0.019288,1.001795,-0.041302
9145961197,-0.433592,2.743630,-0.061719,-0.022974,0.993846,-0.043534
9145963699,-0.494415,2.804663,-0.122558,-0.022250,0.995286,-0.041344
9145966201,-0.494372,2.743528,-0.183137,-0.025883,0.998936,-0.037724
9145968703,-0.433344,2.743154,-0.243836,-0.020808,0.996717,-0.037694
9145971206,-0.311615,2.620929,-0.182863,-0.017147,0.995973,-0.042031
9145973708,-0.189766,2.681634,-0.122270,-0.022929,0.998205,-0.044974
9145976211,-0.189809,2.742769,-0.061691,-0.020024,0.998903,-0.043497
9145978713,-0.189646,2.864564,-0.122649,-0.015705,0.998127,-0.037652
9145981215,-0.189563,2.864405,-0.183355,-0.016439,0.996683,-0.038389
9145983718,-0.250509,2.864620,-0.183362,-0.020778,0.996728,-0.042055
9145986220,-0.311538,2.864994,-0.122663,-0.020780,0.995280,-0.043514
9145988723,-0.311540,2.987106,-0.062211,-0.019339,0.996711,-0.039864
9145991225,-0.311540,2.987106,-0.062211,-0.018650,0.993072,-0.038416
9145993727,-0.189566,2.986517,-0.122902,-0.016435,0.991619,-0.044947
9145996229,-0.128537,2.986143,-0.183601,-0.012851,0.992293,-0.036195
9145998732,-0.067631,2.924951,-0.183468,-0.011373,0.995185,-0.036175
9146001234,-0.067754,2.864133,-0.122636,-0.020051,0.996722,-0.042050
9146003736,-0.067837,2.864292,-0.061930,-0.021520,0.993110,-0.044253
9146006239,-0.006808,2.863918,-0.122629,-0.015720,0.993056,-0.041303
9146008741,-0.006765,2.802783,-0.183208,-0.010628,0.993014,-0.041266
9146011243,-0.006805,2.741806,-0.183081,-0.003343,0.993683,-0.041937
9146013746,0.054141,2.741591,-0.183074,-0.001190,0.994378,-0.036830
9146016248,-0.006765,2.802783,-0.183208,-0.004042,0.996594,-0.042660
9146018750,-0.006765,2.802783,-0.183208,-0.000431,0.995107,-0.040457
9146021253,-0.067631,2.924951,-0.183468,-0.002621,0.997293,-0.036832
9146023755,-0.128580,3.047279,-0.123022,-0.005507,1.000944,-0.036114
9146026257,-0.067717,3.047222,-0.062309,-0.003304,1.001657,-0.038277
9146028760,0.054215,3.107769,-0.062422,-0.002579,1.003822,-0.035357
9146031262,0.054298,3.107610,-0.123127,0.003953,1.003763,-0.033128
9146033764,0.054298,3.107610,-0.123127,0.009825,1.005906,-0.038167
9146036267,-0.006731,3.107984,-0.062429,0.002558,1.003797,-0.041862
9146038769,-0.006811,2.986031,-0.062176,0.002610,1.009605,-0.042570
9146041272,-0.067757,2.986246,-0.062183,0.009129,1.007371,-0.041075
9146043774,-0.128660,2.925325,-0.122769,0.006199,1.006663,-0.038918
9146046276,-0.189769,2.803746,-0.061818,-0.003263,1.006738,-0.038261
9146048778,-0.189929,2.559839,-0.061312,-0.004015,1.003117,-0.039004
9146051281,-0.068075,2.376320,-0.121624,0.003268,1.005955,-0.036761
9146053783,0.053857,2.436866,-0.121737,0.006888,1.003748,-0.036741
9146056285,0.175869,2.619366,-0.122102,0.004710,1.003044,-0.038214
9146058788,0.175869,2.619366,-0.122102,0.000388,0.997306,-0.051349
9146061290,0.175789,2.497412,-0.121849,0.001859,1.002366,-0.047687
9146063792,0.114720,2.436810,-0.061024,0.002552,0.998005,-0.047696
9146066295,0.175709,2.375459,-0.121596,-0.000322,0.999489,-0.051347
9146068797,0.175749,2.436436,-0.121723,-0.003940,1.003144,-0.049908
9146071299,0.114883,2.558604,-0.121983,-0.009720,1.011166,-0.046291
9146073802,0.054018,2.680773,-0.122242,-0.011121,1.010474,-0.055027
9146076304,0.054100,2.680614,-0.182948,-0.008297,1.005354,-0.048479
9146078806,0.236818,2.497038,-0.182548,-0.006829,0.999557,-0.057210
9146081309,0.419616,2.435416,-0.182401,-0.014840,1.000343,-0.055086
9146083811,0.602287,2.435088,-0.060969,-0.019199,1.005446,-0.050013
9146086313,0.602202,2.557359,0.060190,-0.015555,1.002524,-0.054357
9146088816,0.602322,2.740289,0.059811,-0.017025,0.993846,-0.062392
9146091318,0.480511,2.862673,0.059544,-0.022848,0.995340,-0.060249
9146093820,0.419811,2.984524,-0.062127,-0.017041,0.997459,-0.055838
9146096323,0.358907,2.923604,-0.122713,-0.019940,0.993868,-0.061686
9146098825,0.419893,2.984365,-0.122833,-0.024981,0.990310,-0.073366
9146101327,0.541742,3.045071,-0.062240,-0.024305,0.988838,-0.067550
9146103830,0.602646,3.105991,-0.001653,-0.014158,0.990912,-0.059472
9146106332,0.480837,3.106262,-0.062373,-0.015619,0.990198,-0.059485
9146108834,0.419934,3.045342,-0.122959,-0.017090,0.984414,-0.063876
9146111337,0.359073,2.923286,-0.244124,-0.012010,0.982921,-0.063843
9146113839,0.298047,2.801548,-0.243878,-0.012707,0.987280,-0.063108
9146116343,0.358910,2.801492,-0.183166,-0.015679,0.981492,-0.060967
9146118845,0.419936,2.923230,-0.183412,-0.019292,0.980807,-0.065357
9146121348,0.358905,3.045716,-0.062260,-0.014177,0.982945,-0.066040
9146123850,0.176027,2.985385,-0.062155,-0.020083,0.972829,-0.065388
9146126352,0.054135,2.985815,-0.062169,-0.010608,0.975653,-0.064583
9146128854,-0.006725,2.863760,-0.183334,-0.017135,0.975714,-0.067538
9146131357,0.054344,2.924362,-0.244159,-0.017169,0.972807,-0.066094
9146133860,-0.006645,2.985713,-0.183587,-0.020047,0.974290,-0.069018
9146136362,-0.006688,3.046849,-0.123008,-0.009887,0.974922,-0.064580
9146138864,-0.006854,3.047166,-0.001597,-0.012114,0.970581,-0.063156
9146141366,0.054092,3.046951,-0.001590,-0.015007,0.976400,-0.058797
9146143869,0.054175,3.046792,-0.062295,-0.015776,0.974943,-0.054445
9146146371,0.054258,3.046633,-0.123001,-0.015746,0.979296,-0.053704
9146148873,0.054338,3.168587,-0.123254,-0.009185,0.978525,-0.056567
9146151376,-0.067390,3.290812,-0.184226,-0.011327,0.974215,-0.067500
9146153878,-0.067350,3.351789,-0.184352,-0.019388,0.970640,-0.063209
9146156380,-0.128296,3.352004,-0.184359,-0.017937,0.972074,-0.061013
9146158883,-0.128499,3.169232,-0.123275,-0.012810,0.976388,-0.060962
9146161385,-0.250594,2.986891,-0.062204,-0.011338,0.977829,-0.061673
9146163887,-0.372609,2.926504,-0.001386,-0.011300,0.980738,-0.063845
9146166390,-0.494544,2.988070,0.059180,-0.006855,0.985074,-0.070341
9146168892,-0.494667,2.927252,0.120011,0.001213,0.982138,-0.083376
9146171394,-0.494667,2.927252,0.120011,0.010509,0.998647,-0.040366
9146173897,-0.433595,2.865742,-0.001266,-0.011988,0.993061,-0.055088
9146176399,-0.433389,2.926401,-0.122804,-0.022849,1.006918,-0.046400
9146178902,-0.372320,2.987004,-0.183629,0.006993,0.990761,-0.067314
9146181404,-0.372363,3.048140,-0.123050,0.004020,0.987866,-0.061529
9146183906,-0.311583,3.048242,-0.001632,-0.012002,0.990161,-0.056551
9146186408,-0.311663,2.926288,-0.001379,-0.001086,0.989350,-0.057927
9146188911,-0.311663,2.926288,-0.001379,0.008369,0.995785,-0.049841
9146191413,-0.372403,2.987163,-0.122923,0.001112,0.994404,-0.054260
9146193915,-0.372363,3.048140,-0.123050,-0.010520,1.004633,-0.043409
9146196418,-0.311377,3.108901,-0.123169,-0.016384,1.001046,-0.041283
9146198920,-0.372446,3.048298,-0.062344,-0.004065,0.998033,-0.037567
9146201422,-0.372323,3.109116,-0.123176,0.001000,0.992192,-0.040456
9146203925,-0.372360,2.926027,-0.183502,-0.017865,0.995258,-0.044219
9146206427,-0.311412,2.803700,-0.243948,-0.016479,0.995945,-0.033303
9146208929,-0.250383,2.803326,-0.304647,-0.005594,0.994399,-0.031047
9146211432,-0.189480,2.864246,-0.244061,-0.009913,0.999517,-0.031789
9146213934,-0.128617,2.864190,-0.183348,-0.020096,0.996706,-0.035508
9146216437,-0.128783,2.864507,-0.061937,-0.009144,1.006040,-0.030309
9146218939,-0.189852,2.803905,-0.001112,-0.012082,0.993750,-0.040547
9146221441,-0.311826,2.804494,0.059580,-0.009189,0.996615,-0.034701
9146223943,-0.372775,2.926821,0.120025,-0.010658,0.993003,-0.036904
9146226446,-0.433598,2.987854,0.059187,-0.020098,0.999600,-0.031864
9146228948,-0.372569,2.987480,-0.001512,-0.016447,0.998128,-0.035477
9146231450,-0.250715,2.803961,-0.061824,-0.013601,0.998804,-0.025276
9146233953,-0.128697,2.742237,-0.183095,-0.020176,1.001019,-0.018775
9146236455,-0.189520,2.803270,-0.243934,-0.017203,1.003913,-0.024560
9146238957,-0.189563,2.864405,-0.183355,-0.014282,1.008959,-0.020160
9146241459,-0.189729,2.864722,-0.061944,-0.010679,1.005298,-0.019419
9146243962,-0.189769,2.803746,-0.061818,-0.020849,1.009005,-0.017301
9146246464,-0.189769,2.803746,-0.061818,-0.023760,1.008304,-0.018051
9146248967,-0.189769,2.803746,-0.061818,-0.009215,1.013250,-0.011386
9146251469,-0.250757,2.865097,-0.001245,-0.008463,1.017595,-0.009913
9146253971,-0.250798,2.804120,-0.001119,-0.019317,1.015534,-0.020904
9146256474,-0.311824,2.682382,-0.000873,-0.015675,1.015506,-0.021604
9146258976,-0.189889,2.620816,-0.061438,-0.011362,1.009663,-0.020864
9146261478,-0.067957,2.681362,-0.061551,-0.013566,1.008225,-0.019431
9146263981,0.054015,2.802885,-0.061790,-0.017914,1.005372,-0.025287
9146266483,0.054135,2.985815,-0.062169,-0.012095,1.008943,-0.020871
9146268985,0.115284,3.168371,-0.123247,-0.005568,1.008882,-0.017916
9146271488,0.115367,3.168213,-0.183952,-0.012842,1.009665,-0.017240
9146273990,0.054464,3.107292,-0.244538,-0.017169,1.011886,-0.020173
9146276493,0.054424,3.046316,-0.244412,-0.013558,1.010399,-0.017970
9146278995,0.054424,3.046316,-0.244412,-0.009915,1.011095,-0.017941
9146281497,0.054341,3.046474,-0.183706,-0.009906,1.010375,-0.020124
9146283999,0.115204,3.046418,-0.122994,-0.009171,1.012543,-0.018658
9146286502,0.115204,3.046418,-0.122994,-0.005555,1.007440,-0.021555
9146289004,0.115244,3.107395,-0.123120,-0.001961,1.003776,-0.019359
9146291506,0.115121,3.046577,-0.062288,-0.002694,1.003780,-0.018638
9146294009,0.114918,2.863805,-0.001204,-0.003428,1.002336,-0.019375
9146296511,0.297552,2.680389,0.059902,0.002342,0.997928,-0.017165
9146299013,0.419487,2.618823,-0.000663,0.002280,0.992116,-0.015003
9146301516,0.419733,2.740459,-0.122327,-0.000659,0.987787,-0.015765
9146304018,0.358910,2.801492,-0.183166,-0.002099,0.987804,-0.017956
9146306520,0.297798,2.802025,-0.061762,-0.002134,0.983449,-0.017970
9146309023,0.236810,2.863375,-0.001190,-0.002929,0.976918,-0.015816
9146311525,0.297796,2.924137,-0.001309,-0.000035,0.976164,-0.014343
9146314027,0.358742,2.923921,-0.001302,0.001430,0.976156,-0.015786
9146316530,0.419688,2.923706,-0.001295,-0.000035,0.976164,-0.014343
9146319032,0.419688,2.923706,-0.001295,0.000683,0.976155,-0.012884
9146321534,0.297716,2.802183,-0.001056,0.002084,0.973229,-0.008521
9146324037,0.175581,2.558866,0.060141,-0.000142,0.969612,-0.006368
9146326555,0.114391,2.315332,0.121345,-0.003035,0.971813,-0.006382
9146329046,0.114351,2.254356,0.121472,-0.002288,0.971090,-0.010014
9146331545,0.114431,2.376309,0.121219,0.001369,0.971068,-0.012895
9146334045,-0.007217,2.620488,0.059994,0.001402,0.978317,-0.009237
9146336547,-0.068083,2.742656,0.059734,0.001381,0.976862,-0.007788
9146339049,-0.128986,2.681736,-0.000852,-0.002259,0.974720,-0.010002
9146341552,-0.129066,2.559783,-0.000599,-0.002944,0.976912,-0.013635
9146344054,-0.190049,2.376909,-0.060933,0.001418,0.979047,-0.010689
9146346556,-0.250952,2.315989,-0.121519,0.001414,0.979769,-0.009232
9146349059,-0.372801,2.255283,-0.182112,0.000724,0.981959,-0.012138
9146351561,-0.433707,2.316475,-0.182245,0.001453,0.983401,-0.010675
9146354064,-0.372801,2.255283,-0.182112,0.001490,0.989204,-0.009202
9146356566,-0.311979,2.194250,-0.121273,0.003014,0.997902,-0.009164
9146359068,-0.312102,2.133432,-0.060441,0.000845,1.000095,-0.008446
9146361570,-0.312307,2.072773,0.061097,-0.000627,0.998654,-0.007734
9146364073,-0.312307,2.072773,0.061097,0.002258,0.998621,-0.004078
9146366575,-0.312265,2.011637,0.000517,0.003750,1.005136,-0.001866
9146369077,-0.373085,1.950559,-0.120774,0.007454,1.010920,-0.004729
9146371580,-0.373042,1.889423,-0.181353,0.012550,1.010156,-0.006147
9146374082,-0.312093,1.767096,-0.241799,0.008913,1.005844,-0.011276
9146376585,-0.251351,1.584109,-0.180707,0.003054,0.997193,-0.015708
9146379087,-0.251474,1.523291,-0.119875,0.002969,0.988478,-0.013555
9146381589,-0.251474,1.523291,-0.119875,0.004433,0.987745,-0.015728
9146384091,-0.373448,1.523880,-0.059184,0.007355,0.989897,-0.014973
9146386594,-0.495423,1.524469,0.001508,0.010989,0.991314,-0.012761
9146389096,-0.556572,1.341913,0.062586,0.010278,0.992773,-0.013488
9146391598,-0.434718,1.158394,0.002273,0.009557,0.993505,-0.013491
9146394101,-0.373892,0.975248,0.002659,0.008791,0.994944,-0.006223
9146396603,-0.373892,0.975248,0.002659,0.005141,0.997140,-0.001881
9146399106,-0.434798,1.036440,0.002526,0.003675,0.995700,-0.001896
9146401616,-0.495621,1.097474,-0.058313,0.009503,0.994933,-0.004037
9146404110,-0.434672,0.975146,-0.118759,0.007319,0.993503,-0.005511
9146406612,-0.373889,0.853136,-0.057793,0.002935,0.989913,-0.007008
9146409115,-0.374050,0.609229,-0.057288,0.003667,0.989185,-0.008459
9146411617,-0.313184,0.487061,-0.057028,0.003659,0.990629,-0.005547
9146414119,-0.191412,0.303700,-0.056635,-0.001423,0.990674,-0.007038
9146416622,-0.191493,0.181747,-0.056382,-0.004352,0.991414,-0.003423
9146419124,-0.191533,0.120770,-0.056256,-0.005077,0.994316,-0.000511
9146421626,-0.313425,0.121200,-0.056270,-0.004316,0.997217,-0.001950
9146424129,-0.374370,0.121416,-0.056277,-0.002838,1.000108,-0.001930
9146426631,-0.374574,-0.061356,0.004808,-0.004275,1.002298,-0.001934
9146429133,-0.374571,-0.183468,-0.055644,-0.005011,1.003748,0.000973
9146431636,-0.435640,-0.244071,0.005181,-0.006453,1.001593,-0.003406
9146434138,-0.374697,-0.122174,0.065640,-0.010793,1.001638,-0.007073
9146436641,-0.313876,-0.061095,0.186932,-0.011525,0.998024,-0.010724
9146439143,-0.313919,0.000041,0.247511,-0.013693,0.997323,-0.013650
9146441645,-0.313879,0.061018,0.247385,-0.013662,0.998058,-0.017282
9146444148,-0.313796,0.060859,0.186679,-0.015847,1.000246,-0.014384
9146446650,-0.313753,-0.000277,0.126100,-0.017298,1.003878,-0.010748
9146449152,-0.252968,-0.244399,0.126613,-0.017964,1.009696,-0.012916
9146451654,-0.192142,-0.427544,0.126999,-0.018669,1.015499,-0.009268
9146454157,-0.070291,-0.488951,0.127139,-0.020119,1.011895,-0.014378
9146456659,-0.009305,-0.428190,0.127020,-0.020130,1.006101,-0.019485
9146459161,-0.009101,-0.245418,0.065935,-0.016534,0.996649,-0.024577
9146461664,-0.069924,-0.184385,0.005096,-0.018048,0.992297,-0.020967
9146464166,-0.008936,-0.245736,-0.055476,-0.020210,0.988704,-0.028264
9146466668,-0.069919,-0.428610,-0.115810,-0.018745,0.993037,-0.024605
9146469171,-0.070122,-0.611381,-0.054725,-0.018042,0.993746,-0.020236
9146471673,-0.131231,-0.732960,0.006227,0.010055,0.976047,-0.000457
9146474175,-0.131397,-0.732643,0.127638,-0.024664,0.998114,-0.004278
9146476678,-0.192343,-0.732428,0.127631,-0.019520,0.977829,-0.035563
9146479180,-0.131357,-0.671666,0.127511,-0.013581,1.021246,-0.001943
9146481682,-0.131480,-0.732484,0.188343,-0.007072,0.982823,-0.041271
9146484185,-0.131517,-0.915573,0.128017,-0.014973,1.023451,-0.008489
9146486687,-0.131434,-0.915732,0.067311,-0.012769,1.003179,-0.035434
9146489189,-0.070365,-0.855129,0.006486,0.004614,1.028338,0.005483
9146491692,0.051567,-0.794583,0.006374,0.026219,1.002751,0.007742
9146494194,0.112512,-0.794798,0.006381,-0.000638,1.002268,-0.001907
9146496696,0.234281,-0.856046,0.067227,-0.028816,1.004740,-0.027550
9146499199,0.173378,-0.916967,0.006641,-0.008461,1.010359,-0.018659
9146501701,0.234284,-0.978158,0.006774,0.014738,1.014482,-0.001756
9146504203,0.173298,-1.038920,0.006893,0.000222,0.995798,-0.028819
9146506706,0.112269,-1.038546,0.067592,0.005401,1.006643,-0.028747
9146509208,0.112186,-1.038387,0.128298,0.017641,0.999983,-0.017773
9146511710,0.112146,-1.099364,0.128424,0.016155,1.003602,-0.009049
9146514213,0.233918,-1.282724,0.128817,-0.018718,0.999561,-0.020949
9146516715,0.233838,-1.404678,0.129070,-0.021544,1.011194,-0.019480
9146519218,0.294701,-1.404734,0.189783,0.002398,1.016764,-0.003293
9146521720,0.294783,-1.404893,0.129077,0.025708,1.018034,-0.006026
9146524222,0.355729,-1.405108,0.129084,0.020645,1.013020,-0.016256
9146526725,0.294783,-1.404893,0.129077,0.011141,1.006567,-0.017073
9146529227,0.416718,-1.466459,0.068512,0.015449,1.005063,-0.010504
9146531729,0.416721,-1.588571,0.008059,0.014014,1.000016,-0.019254
9146534231,0.477589,-1.832852,-0.052134,0.004567,1.000821,-0.020048
9146536734,0.416520,-1.893455,0.008691,0.003087,0.995758,-0.022255
9146539236,0.416397,-1.954273,0.069523,0.016883,1.003596,-0.009044
9146541738,0.416234,-2.076067,0.130481,0.027793,0.997717,-0.015525
9146544241,0.477060,-2.259213,0.130868,0.026358,0.997736,-0.018443
9146546743,0.537968,-2.442517,0.070548,0.013988,0.994941,-0.021451
9146549246,0.598834,-2.564685,0.070808,0.013223,0.992762,-0.018555
9146551748,0.537885,-2.442358,0.131254,0.015424,0.992028,-0.022176
9146554250,0.476894,-2.258895,0.252279,0.016849,0.996347,-0.012702
9146556753,0.354959,-2.197330,0.312844,0.016098,0.992726,-0.013446
9146559255,0.354922,-2.380418,0.252518,0.021220,0.992695,-0.017770
9146561757,0.415873,-2.624858,0.131619,0.024900,0.995576,-0.020642
9146564260,0.415836,-2.807947,0.071293,0.019761,0.993429,-0.016324
9146566762,0.293864,-2.929470,0.071532,0.002990,0.989209,-0.015734
9146569264,0.232881,-3.112344,0.011198,-0.005733,0.986388,-0.020168
9146571766,0.171935,-3.112128,0.011191,-0.001325,0.989263,-0.023035
9146574269,0.171852,-3.111970,0.071897,0.001550,0.989226,-0.017925
9146576771,0.232672,-3.050891,0.193189,0.007337,0.986996,-0.015709
9146579273,0.354398,-3.051003,0.314614,0.011660,0.981156,-0.016422
9146581775,0.415467,-2.990401,0.253789,0.005158,0.981225,-0.023013
9146584278,0.354644,-2.929368,0.192950,-0.010126,0.983518,-0.019483
9146586780,0.293907,-2.990605,0.010952,-0.012334,0.982803,-0.016593
9146589283,0.172058,-3.051311,-0.049641,-0.015205,0.986459,-0.018057
9146591785,0.171935,-3.112128,0.011191,-0.019541,0.985782,-0.023180
9146594288,0.049877,-3.111381,0.132588,-0.012307,0.984984,-0.018040
9146596790,-0.011192,-3.171983,0.193413,-0.012300,0.982092,-0.022411
9146599292,-0.133081,-3.293665,0.132947,-0.018841,0.979253,-0.026830
9146601795,-0.132958,-3.232847,0.072115,-0.023224,0.976387,-0.027598
9146604297,-0.193743,-2.988725,0.071602,-0.027617,0.977859,-0.021810
9146606799,-0.193580,-2.866930,0.010644,-0.031243,0.978616,-0.022561
9146609301,-0.254526,-2.866715,0.010637,-0.028337,0.979315,-0.021084
9146611804,-0.254566,-2.927692,0.010763,-0.028337,0.979315,-0.021084
9146614306,-0.193580,-2.866930,0.010644,-0.027578,0.981492,-0.023252
9146616808,-0.071565,-2.806543,-0.050174,-0.027578,0.976426,-0.029084
9146619311,-0.071528,-2.623454,0.010152,-0.028297,0.980053,-0.026170
9146621813,-0.132557,-2.623080,0.070851,-0.034080,0.985904,-0.024740
9146624315,-0.254408,-2.561673,0.070710,-0.037707,0.985937,-0.026220
9146626818,-0.315435,-2.683411,0.070956,-0.036980,0.985207,-0.026944
9146629320,-0.315352,-2.683570,0.010251,-0.034059,0.986635,-0.026918
9146631823,-0.315312,-2.622593,0.010124,-0.029645,0.990236,-0.029783
9146634325,-0.254328,-2.439719,0.070458,-0.029673,0.988055,-0.028336
9146636827,-0.254208,-2.256789,0.070078,-0.028968,0.985870,-0.027610
9146639330,-0.254085,-2.195971,0.009246,-0.035512,0.988095,-0.025471
9146641832,-0.254045,-2.134995,0.009120,-0.035443,0.991738,-0.031274
9146644334,-0.254168,-2.195813,0.069952,-0.036899,0.991026,-0.032014
9146646836,-0.315114,-2.195598,0.069945,-0.034695,0.988122,-0.038550
9146649339,-0.376062,-2.073270,0.130391,-0.031802,0.986645,-0.037806
9146651843,-0.376065,-1.951158,0.190844,-0.027449,0.980815,-0.042881
9146654345,-0.375902,-1.829363,0.129885,-0.028120,0.990249,-0.039949
9146656848,-0.436805,-1.890283,0.069299,-0.028889,0.988793,-0.035597
9146659350,-0.619640,-2.011750,0.008825,-0.029619,0.991693,-0.031959
9146661852,-0.680503,-2.011694,-0.051887,-0.029594,0.990978,-0.036322
9146664354,-0.680297,-1.951034,-0.173425,-0.020796,0.994551,-0.042062
9146666857,-0.619188,-1.829455,-0.234376,-0.019274,1.001077,-0.044212
9146669359,-0.619148,-1.768478,-0.234502,-0.017870,0.995256,-0.043493
9146671861,-0.619188,-1.829455,-0.234376,-0.013538,0.993038,-0.041287
9146674364,-0.558200,-1.890806,-0.294948,-0.013462,1.002473,-0.041257
9146676866,-0.558202,-1.768693,-0.234495,-0.013472,0.998852,-0.044176
9146679368,-0.497259,-1.646796,-0.174036,-0.008379,0.999534,-0.043409
9146681871,-0.375370,-1.525115,-0.113569,-0.005414,1.003873,-0.046282
9146684373,-0.314381,-1.586465,-0.174141,-0.006861,1.001716,-0.049934
9146686875,-0.253393,-1.647816,-0.234713,-0.000310,1.005283,-0.046240
9146689378,-0.253556,-1.769611,-0.173755,-0.000304,1.010351,-0.041135
9146691880,-0.314748,-1.891031,-0.052098,-0.000274,1.010362,-0.045497
9146694382,-0.315034,-2.073644,0.069692,-0.000314,1.006005,-0.044784
9146696885,-0.315074,-2.134621,0.069819,0.006246,1.008851,-0.043273
9146699387,-0.315074,-2.134621,0.069819,0.003343,1.010325,-0.042563
9146701889,-0.315074,-2.134621,0.069819,0.005527,1.011755,-0.041088
9146704392,-0.314991,-2.134780,0.009113,-0.001750,1.009642,-0.043329
9146706894,-0.254168,-2.195813,0.069952,-0.004661,1.008942,-0.044080
9146709396,-0.193262,-2.257005,0.070085,-0.004639,1.010397,-0.045529
9146711898,-0.071287,-2.257594,0.009394,-0.006784,1.012600,-0.048445
9146714401,0.050727,-2.197206,-0.051424,0.001984,1.019779,-0.045451
9146716903,0.111713,-2.136445,-0.051544,0.001166,1.014686,-0.038203
9146719406,0.111465,-2.135968,0.130573,0.000404,1.011062,-0.037493
9146721908,0.050433,-2.013482,0.251724,-0.003213,1.011098,-0.040427
9146724410,0.111379,-2.013697,0.251731,-0.004680,1.009659,-0.040443
9146726913,0.233311,-1.953151,0.251619,-0.009772,1.005358,-0.045582
9146729415,0.355368,-1.953899,0.130222,-0.007601,1.003889,-0.045571
9146731917,0.416354,-1.893137,0.130102,-0.001100,0.998753,-0.044812
9146734420,0.416354,-1.893137,0.130102,-0.002548,1.000214,-0.044091
9146736922,0.477137,-2.015147,0.191067,-0.003251,0.999506,-0.048461
9146739424,0.477100,-2.198236,0.130741,-0.004760,0.996603,-0.044119
9146741927,0.416031,-2.258839,0.191566,-0.008417,0.996626,-0.041238
9146744429,0.294099,-2.319385,0.191679,-0.006222,0.994441,-0.045590
9146746932,0.233233,-2.197217,0.191419,-0.003307,0.994419,-0.046296
9146749434,0.233356,-2.136399,0.130587,-0.009138,0.993739,-0.045614
9146751936,0.294508,-2.075955,0.009056,-0.008375,0.998088,-0.045595
9146754439,0.294631,-2.015137,-0.051776,-0.004005,0.998778,-0.045561
9146756941,0.355451,-1.954058,0.069516,-0.002606,0.992956,-0.044115
9146759443,0.355286,-1.953740,0.190927,-0.004793,0.993696,-0.042674
9146761945,0.355243,-1.892605,0.251506,-0.003375,0.987158,-0.044865
9146764448,0.355243,-1.892605,0.251506,-0.007730,0.987197,-0.046351
9146766950,0.294297,-1.892389,0.251499,-0.012832,0.987235,-0.044935
9146769452,0.294340,-1.953525,0.190920,-0.007744,0.987915,-0.043441
9146771955,0.233394,-1.953310,0.190913,-0.006964,0.990824,-0.047788
9146774457,0.233560,-1.953627,0.069502,-0.010620,0.991570,-0.044178
9146776965,0.172654,-1.892435,0.069369,-0.008461,0.988649,-0.044171
9146779462,0.172777,-1.831617,0.008537,-0.010615,0.987230,-0.050007
9146781964,0.111791,-1.892379,0.008656,-0.012835,0.985063,-0.047122
9146784467,0.111874,-1.892538,-0.052049,-0.012163,0.984313,-0.039850
9146786969,0.172903,-1.892912,-0.112748,-0.012848,0.986505,-0.043483
9146789471,0.233929,-1.771173,-0.112994,-0.018624,0.989463,-0.046424
9146791974,0.233886,-1.710038,-0.052415,-0.015059,0.987236,-0.038408
9146794476,0.233843,-1.648902,0.008164,-0.017976,0.985810,-0.039161
9146796978,0.172857,-1.709664,0.008284,-0.022336,0.985123,-0.040649
9146799480,0.172777,-1.831617,0.008537,-0.024479,0.989498,-0.041378
9146801983,0.050885,-1.831187,0.008523,-0.023720,0.990951,-0.044276
9146804485,0.111748,-1.831243,0.069235,-0.025201,0.989506,-0.042111
9146806987,0.111911,-1.709449,0.008277,-0.023074,0.985126,-0.039201
9146809490,0.172977,-1.526734,0.007905,-0.022334,0.987295,-0.038462
9146811992,0.172852,-1.465439,0.129189,-0.027419,0.984444,-0.042870
9146814494,0.172769,-1.465281,0.189895,-0.023783,0.983691,-0.043572
9146816997,0.111823,-1.465066,0.189888,-0.025967,0.986603,-0.039944
9146819499,-0.009860,-1.526088,0.007884,-0.033254,0.984486,-0.040731
9146822002,-0.192535,-1.403648,-0.053095,-0.031053,0.983028,-0.045082
9146824504,-0.192455,-1.281694,-0.053348,-0.028839,0.988811,-0.042866
9146827006,-0.131346,-1.160115,-0.114300,-0.028810,0.993164,-0.042126
9146829509,-0.009497,-1.099410,-0.053707,-0.029574,0.991709,-0.038501
9146832011,-0.009457,-1.038433,-0.053833,-0.030306,0.991713,-0.037779
9146834513,-0.131351,-0.915891,0.006606,-0.032471,0.993909,-0.037788
9146837015,-0.253203,-0.854483,0.006465,-0.033186,0.996090,-0.037060
9146839518,-0.192217,-0.793722,0.006346,-0.028827,0.995329,-0.037030
9146842020,-0.131394,-0.854755,0.067185,-0.027403,0.990240,-0.038490
9146844522,-0.070408,-0.793994,0.067066,-0.027400,0.988794,-0.040675
9146847025,-0.131068,-0.611166,-0.054732,-0.027400,0.988794,-0.040675
9146849527,-0.130948,-0.428236,-0.055111,-0.028197,0.984432,-0.035606
9146852030,-0.130785,-0.306441,-0.116069,-0.032603,0.983005,-0.031281
9146854532,-0.130744,-0.245464,-0.116196,-0.034082,0.983732,-0.026928
9146857034,-0.252553,-0.245193,-0.176915,-0.032631,0.984442,-0.025461
9146859558,-0.374322,-0.183944,-0.237761,-0.031857,0.986625,-0.029810
9146862044,-0.374488,-0.183627,-0.116350,-0.026759,0.986585,-0.030500
9146864540,-0.313502,-0.122865,-0.116469,-0.026029,0.988751,-0.028307
9146867042,-0.191816,-0.183955,0.005082,-0.026005,0.992378,-0.027568
9146869544,-0.191856,-0.244931,0.005208,-0.023108,0.994521,-0.023178
9146872047,-0.252965,-0.366511,0.066160,-0.025289,0.995987,-0.021736
9146874549,-0.313871,-0.305319,0.066026,-0.026721,0.998178,-0.022467
9146877052,-0.313791,-0.183366,0.065774,-0.022335,0.999597,-0.023884
9146879554,-0.374739,-0.061038,0.126219,-0.017944,1.000295,-0.026757
9146882057,-0.435439,0.060813,0.004548,-0.016456,0.998848,-0.033293
9146884558,-0.496262,0.121846,-0.056290,-0.013542,0.998102,-0.034728
9146887061,-0.435276,0.182608,-0.056410,-0.012105,1.000255,-0.029622
9146889563,-0.374165,0.182075,-0.177814,-0.014294,1.003165,-0.025267
9146892066,-0.313179,0.242836,-0.177933,-0.014995,1.004628,-0.027449
9146894568,-0.313219,0.181860,-0.177807,-0.014986,1.003908,-0.029632
9146897070,-0.191367,0.120453,-0.177667,-0.015692,1.004645,-0.031816
9146899573,-0.130461,0.059261,-0.177533,-0.006229,1.006018,-0.031015
9146902075,-0.130461,0.059261,-0.177533,-0.000419,1.005967,-0.029519
9146904577,-0.191410,0.181588,-0.117088,-0.002570,1.007443,-0.032438
9146907080,-0.191247,0.303383,-0.178046,-0.002545,1.007452,-0.036072
9146909582,-0.130303,0.425280,-0.117586,-0.006931,1.006033,-0.034655
9146912084,-0.130221,0.425121,-0.178292,-0.009874,1.003150,-0.033232
9146914586,-0.008452,0.363873,-0.117446,-0.009164,1.000966,-0.033233
9146917089,0.113397,0.424578,-0.056853,-0.009920,0.998067,-0.032521
9146919592,0.235246,0.485283,0.003740,-0.006972,1.000952,-0.034671
9146922094,0.174217,0.485657,0.064439,-0.003313,1.002378,-0.036094
9146924596,0.235083,0.363488,0.064699,-0.002635,0.998012,-0.033922
9146927098,0.234960,0.302670,0.125531,-0.004109,0.995122,-0.034668
9146929601,0.235083,0.363488,0.064699,-0.009924,0.994447,-0.036167
9146932103,0.113354,0.485713,0.003726,-0.011414,0.990104,-0.036192
9146934605,0.052408,0.485928,0.003719,-0.012167,0.985035,-0.038394
9146937108,0.052326,0.486087,0.064425,-0.011450,0.985025,-0.036935
9146939610,0.052368,0.424952,0.003846,-0.014378,0.986490,-0.032590
9146942112,-0.008331,0.546803,-0.117825,-0.016533,0.988689,-0.034053
9146944615,-0.069157,0.729948,-0.118211,-0.016524,0.991586,-0.031863
9146947117,-0.069117,0.790925,-0.118338,-0.016549,0.991577,-0.028228
9146949619,-0.069280,0.669130,-0.057379,-0.018721,0.992323,-0.028969
9146952122,-0.008575,0.303055,-0.056614,-0.017978,0.993046,-0.030415
9146954624,-0.008652,0.058989,-0.116814,-0.016553,0.993023,-0.026043
9146957127,-0.008778,0.120283,0.004471,-0.014385,0.993000,-0.023846
9146959629,-0.069644,0.242452,0.004211,-0.013636,0.994449,-0.025290
9146962131,-0.130632,0.303803,0.064783,-0.014358,0.995181,-0.025293
9146964633,-0.069440,0.425223,-0.056874,-0.015817,0.995915,-0.023847
9146967136,0.052491,0.485770,-0.056986,-0.018023,0.992306,-0.024602
9146969638,0.052531,0.546746,-0.057113,-0.015849,0.989390,-0.026776
9146972141,0.052449,0.546905,0.003593,-0.012911,0.992271,-0.027472
9146974643,0.052408,0.485928,0.003719,-0.012930,0.993712,-0.023106
9146977145,0.052326,0.486087,0.064425,-0.013655,0.995166,-0.021653
9146979648,-0.008577,0.425167,0.003839,-0.012896,0.996619,-0.024551
9146982150,-0.069440,0.425223,-0.056874,-0.014356,0.996629,-0.023835
9146984652,-0.069400,0.486200,-0.057000,-0.014358,0.995181,-0.025293
9146987155,0.052612,0.668700,-0.057365,-0.012219,0.992253,-0.022379
9146989657,0.052652,0.729676,-0.057492,-0.009353,0.988595,-0.020188
9146992159,0.113555,0.790597,0.003094,-0.007868,0.988594,-0.024539
9146994662,0.052569,0.729835,0.003214,-0.010766,0.990069,-0.024556
9146997164,0.052609,0.790812,0.003087,-0.011457,0.991536,-0.028191
9146999666,0.113475,0.668643,0.003347,-0.014369,0.989388,-0.030400
9147002168,0.174421,0.668428,0.003354,-0.015137,0.985037,-0.029692
9147004671,-0.008374,0.607938,-0.057246,-0.012266,0.981380,-0.028229
9147007173,-0.191049,0.730379,-0.118225,-0.013016,0.979207,-0.027514
9147009675,-0.312858,0.730650,-0.178945,-0.015187,0.980676,-0.027525
9147012188,-0.374010,0.670206,-0.057414,-0.012264,0.983552,-0.026041
9147014680,-0.252158,0.608799,-0.057274,-0.010765,0.986451,-0.028929
9147017183,-0.252281,0.547981,0.003558,-0.015858,0.985768,-0.029695
9147019685,-0.191212,0.608584,-0.057267,-0.015912,0.982130,-0.026072
9147022187,-0.191172,0.669561,-0.057393,-0.017381,0.983585,-0.022444
9147024690,-0.190886,0.852173,-0.179184,-0.018049,0.987231,-0.026799
9147027192,-0.190763,0.912991,-0.240016,-0.023070,0.993087,-0.030452
9147029694,-0.190763,0.912991,-0.240016,-0.020864,0.991631,-0.035529
9147032197,-0.130066,0.913252,-0.057892,-0.019459,0.991601,-0.028250
9147034699,-0.069286,0.913355,0.063526,-0.015118,0.993004,-0.023125
9147037201,-0.069203,0.913196,0.002821,-0.010765,0.990793,-0.023826
9147039704,-0.130106,0.852275,-0.057766,-0.007794,0.992239,-0.031070
9147042206,-0.251998,0.852706,-0.057779,-0.002691,0.997267,-0.026655
9147044708,-0.434998,0.731557,0.003158,-0.001986,0.999424,-0.020827
9147047211,-0.495984,0.670795,0.003277,-0.004823,1.002370,-0.028108
9147049713,-0.495941,0.609660,-0.057302,-0.002647,1.000902,-0.028824
9147052215,-0.373927,0.670047,-0.118120,0.003205,1.003037,-0.030955
9147054718,-0.252038,0.791729,-0.057653,0.001008,1.003050,-0.028790
9147057220,-0.191052,0.852491,-0.057772,-0.005547,1.005271,-0.025197
9147059722,-0.130066,0.913252,-0.057892,-0.010605,1.004602,-0.031052
9147062224,-0.130066,0.913252,-0.057892,-0.009155,1.000246,-0.035416
9147064727,-0.130066,0.913252,-0.057892,-0.009166,0.999518,-0.034692
9147067229,-0.251955,0.791570,-0.118359,-0.005500,1.007460,-0.029551
9147069732,-0.312981,0.669832,-0.118113,-0.004080,1.003093,-0.029554
9147072234,-0.252241,0.608958,0.003432,-0.001224,0.999431,-0.025910
9147074736,-0.130306,0.547392,-0.057133,-0.006289,1.001654,-0.027394
9147077239,-0.130266,0.608369,-0.057260,-0.004847,0.998742,-0.028847
9147079741,-0.069277,0.547018,-0.117832,-0.004192,0.992197,-0.025955
9147082243,-0.069360,0.547177,-0.057127,-0.005635,0.989318,-0.031063
9147084746,-0.069277,0.547018,-0.117832,-0.007034,0.990074,-0.038340
9147087248,-0.008168,0.668597,-0.178783,-0.009961,0.987920,-0.038369
9147089750,0.113804,0.790120,-0.179022,-0.009972,0.987193,-0.037644
9147092253,0.174626,0.729087,-0.118183,-0.008507,0.987185,-0.039087
9147094755,0.174544,0.729246,-0.057478,-0.009260,0.991523,-0.030356
9147097257,0.052692,0.790653,-0.057618,-0.012200,0.986470,-0.031847
9147099760,-0.069037,0.912878,-0.118591,-0.007886,0.981350,-0.030378
9147102262,-0.190929,0.913309,-0.118604,-0.002761,0.979874,-0.036887
9147104764,-0.312858,0.730650,-0.178945,-0.002014,0.984217,-0.034687
9147107267,-0.313061,0.547879,-0.117860,-0.004908,0.989312,-0.031058
9147109769,-0.313141,0.425925,-0.117607,-0.007857,0.984979,-0.030366
9147112271,-0.313181,0.364949,-0.117481,-0.007830,0.987160,-0.031813
9147114774,-0.313181,0.364949,-0.117481,-0.006322,0.990063,-0.036154
9147117276,-0.313141,0.425925,-0.117607,-0.007852,0.984981,-0.031093
9147119778,-0.313144,0.548038,-0.057154,-0.008552,0.987168,-0.032545
9147122281,-0.313144,0.548038,-0.057154,-0.009232,0.989362,-0.036905
9147124783,-0.252198,0.547822,-0.057147,-0.009180,0.995895,-0.036884
9147127285,-0.252195,0.425710,-0.117600,-0.009149,0.996630,-0.040516
9147129788,-0.252316,0.242780,-0.117221,-0.010537,1.011863,-0.032482
9147132290,-0.313219,0.181860,-0.177807,-0.005461,1.011092,-0.030993
9147134792,-0.252398,0.242939,-0.056515,-0.010538,1.006797,-0.038314
9147137295,-0.130590,0.242667,0.004204,-0.009149,0.992288,-0.045619
9147139797,-0.130630,0.181690,0.004330,-0.006970,0.998058,-0.038315
9147142300,-0.191533,0.120770,-0.056256,-0.009848,0.990857,-0.051444
9147144802,-0.252396,0.120827,-0.116968,-0.014221,0.993060,-0.047834
9147147304,-0.252356,0.181803,-0.117095,-0.009049,1.001008,-0.049952
9147149806,-0.252316,0.242780,-0.117221,-0.012645,1.006842,-0.049233
9147152309,-0.252316,0.242780,-0.117221,-0.013365,1.004680,-0.052880
9147154811,-0.191493,0.181747,-0.056382,-0.012631,1.006124,-0.052143
9147157313,-0.130753,0.120872,0.065162,-0.011168,1.009010,-0.049943
9147159816,-0.069847,0.059681,0.065296,-0.009718,1.008996,-0.049205
9147162318,0.052208,0.181045,0.004351,-0.009707,1.009724,-0.049930
9147164820,0.174143,0.119479,-0.056214,-0.009663,1.009016,-0.057201
9147167323,0.235254,0.118946,-0.177618,-0.013383,1.001779,-0.053617
9147169825,0.235091,-0.002848,-0.116660,-0.016970,1.006893,-0.055081
9147172327,0.174022,-0.063451,-0.055835,-0.018428,1.004009,-0.058008
9147174830,0.112871,-0.123895,0.065696,-0.019174,1.005455,-0.053648
9147177332,0.173734,-0.123952,0.126408,-0.007484,1.006103,-0.060102
9147179836,0.295668,-0.185517,0.065843,-0.012552,1.009771,-0.059401
9147182338,0.356614,-0.185733,0.065850,-0.013336,1.003967,-0.057971
9147184840,0.417560,-0.185948,0.065857,-0.011144,1.003953,-0.059409
9147187343,0.417560,-0.185948,0.065857,-0.008975,1.001036,-0.060856
9147189845,0.417437,-0.246766,0.126689,-0.012611,1.001789,-0.060153
9147192348,0.356285,-0.307210,0.248220,-0.007521,1.003918,-0.057202
9147194850,0.356122,-0.429005,0.309178,-0.000942,1.001705,-0.064430
9147197352,0.295176,-0.428789,0.309171,-0.006033,0.998129,-0.068840
9147199854,0.356248,-0.490299,0.187893,-0.008206,0.997426,-0.071039
9147202357,0.417319,-0.551808,0.066616,-0.005329,0.995220,-0.068844
9147204859,0.539131,-0.674192,0.066882,-0.008982,0.994520,-0.067419
9147207362,0.600200,-0.613589,0.006057,-0.002383,1.000999,-0.067350
9147209864,0.600154,-0.430342,0.127089,-0.000939,0.999535,-0.067344
9147212366,0.478383,-0.246981,0.126696,-0.001684,0.997364,-0.067357
9147214869,0.417354,-0.246607,0.187395,0.004152,1.003112,-0.062934
9147217371,0.417274,-0.368560,0.187648,0.007784,0.998738,-0.067283
9147219873,0.478305,-0.491047,0.066496,0.007782,0.996567,-0.069471
9147222375,0.539337,-0.613533,-0.054655,0.001282,1.003150,-0.068771
9147224878,0.478474,-0.613476,-0.115368,0.003506,1.008937,-0.068009
9147227380,0.417362,-0.612944,0.006036,0.002739,1.004586,-0.067302
9147229882,0.417319,-0.551808,0.066616,0.004165,1.001669,-0.066573
9147232385,0.478225,-0.613000,0.066749,0.003394,0.998041,-0.064409
9147234887,0.661023,-0.674622,0.066896,0.004205,1.006026,-0.067286
9147237390,0.721846,-0.735656,0.127735,0.011514,1.009598,-0.067948
9147239892,0.721683,-0.857450,0.188694,0.013596,1.000859,-0.063599
9147242394,0.660739,-0.979347,0.128234,0.012179,1.003056,-0.066510
9147244897,0.599919,-1.040426,0.006942,0.011472,1.003793,-0.068694
9147247399,0.539056,-1.040370,-0.053770,0.010739,1.003073,-0.068701
9147249901,0.539056,-1.040370,-0.053770,0.004892,1.000940,-0.067297
9147252403,0.538933,-1.101188,0.007062,-0.001042,0.992261,-0.060825
9147254906,0.538853,-1.223141,0.007314,-0.008309,0.990152,-0.064520
9147257408,0.538730,-1.283959,0.068146,-0.006792,0.996676,-0.065942
9147259911,0.599636,-1.345151,0.068280,0.003397,0.996595,-0.066595
9147262413,0.599759,-1.284333,0.007448,0.010680,0.995091,-0.069454
9147264915,0.660705,-1.284548,0.007455,0.012869,0.992181,-0.073809
9147267418,0.721814,-1.162969,-0.053497,0.004085,0.992956,-0.065147
9147269920,0.721894,-1.041015,-0.053749,-0.003221,0.990833,-0.063027
9147272423,0.721974,-0.919062,-0.054002,0.004053,0.986431,-0.068076
9147274925,0.660863,-0.918529,0.067402,0.009847,0.985651,-0.065128
9147277427,0.660616,-1.040165,0.189066,0.009800,0.983462,-0.060773
9147279929,0.660453,-1.161960,0.250024,0.008337,0.985642,-0.057142
9147282431,0.660373,-1.283913,0.250277,0.003922,0.980594,-0.055737
9147284934,0.538481,-1.283483,0.250263,-0.002624,0.982095,-0.054326
9147287436,0.477618,-1.283427,0.189551,-0.008432,0.987936,-0.049262
9147289939,0.477576,-1.222291,0.250130,-0.010637,0.985774,-0.048558
9147292441,0.660330,-1.222778,0.310856,-0.014315,0.975657,-0.054432
9147294943,0.660453,-1.161960,0.250024,-0.009249,0.970541,-0.056592
9147297446,0.660699,-1.040324,0.128360,-0.004181,0.971214,-0.052191
9147299948,0.477985,-0.978860,0.067507,-0.012288,0.966899,-0.042087
9147302450,0.356133,-0.917453,0.067367,-0.014526,0.961107,-0.040667
9147304958,0.295104,-0.917079,0.128066,-0.016664,0.965483,-0.042123
9147307459,0.295021,-0.916921,0.188771,-0.018159,0.965480,-0.036318
9147309958,0.294978,-0.855785,0.249350,-0.019599,0.965497,-0.038510
9147312459,0.173293,-0.794696,0.127799,-0.024655,0.970618,-0.037804
9147314962,-0.009256,-0.733550,-0.054465,-0.029774,0.973544,-0.030563
9147317464,-0.009133,-0.672732,-0.115297,-0.036336,0.973592,-0.028430
9147319967,-0.009216,-0.672573,-0.054591,-0.035627,0.970685,-0.029161
9147322469,-0.131151,-0.611007,0.005974,-0.032776,0.971363,-0.019687
9147324971,-0.252920,-0.549759,-0.054872,-0.038018,0.971350,0.002083
9147327474,-0.374771,-0.488352,-0.055012,-0.040838,0.958380,-0.026330
9147329976,-0.374771,-0.488352,-0.055012,-0.032647,0.979370,-0.029112
9147332478,-0.435680,-0.305047,0.005307,-0.051712,0.969338,-0.019106
9147334981,-0.435600,-0.183094,0.005054,-0.080157,0.974607,-0.002578
9147337483,-0.435396,-0.000323,-0.056031,-0.053156,0.970801,-0.019112
9147339985,-0.435236,0.243584,-0.056536,-0.015220,0.973427,-0.031183
9147342488,-0.495979,0.426571,-0.117628,-0.029871,0.985088,-0.002903
9147344990,-0.617790,0.548955,-0.117895,-0.032113,0.985083,0.005804
9147347492,-0.739682,0.549385,-0.117909,-0.039239,0.988092,-0.012413
9147349995,-0.922560,0.489054,-0.117803,-0.058888,0.981735,-0.019120
9147352497,-0.922520,0.550031,-0.117930,-0.045161,0.985930,-0.000105
9147355000,-1.044291,0.733391,-0.118323,-0.031296,0.993070,0.002200
9147357502,-0.983142,0.915947,-0.179401,-0.026182,0.995208,0.001518
9147360004,-0.982982,1.159854,-0.179906,-0.021826,0.995893,0.003733
9147362506,-0.861010,1.281377,-0.180145,-0.034905,1.001071,0.007288
9147365009,-0.982902,1.281808,-0.180159,-0.031301,0.997411,0.008030
9147367511,-0.982985,1.281966,-0.119453,-0.030528,1.002487,0.007324
9147370013,-1.043890,1.343158,-0.119587,-0.032677,1.006136,0.006593
9147372516,-0.921999,1.342728,-0.119573,-0.007995,1.000126,0.007482
9147375018,-0.861013,1.403489,-0.119692,0.000702,0.997872,0.009720
9147377521,-0.921919,1.464681,-0.119826,-0.005812,1.000833,0.008228
9147380023,-0.921836,1.464523,-0.180531,-0.010163,1.003768,0.009659
9147382525,-0.982822,1.403761,-0.180412,-0.021081,1.007473,0.014679
9147385027,-0.860887,1.342195,-0.240977,-0.016704,1.008889,0.014716
9147387551,-0.739121,1.403059,-0.119678,-0.010928,1.005931,0.017657
9147390037,-0.556283,1.402413,-0.119658,-0.012459,1.000125,0.021989
9147392533,-0.556366,1.402572,-0.058952,-0.003746,0.999325,0.023504
9147395036,-0.617432,1.219857,-0.058580,-0.008839,0.997918,0.022009
9147397538,-0.739404,1.098334,-0.058341,-0.023410,0.996581,0.023351
9147400040,-0.739444,1.037358,-0.058214,-0.022677,0.992959,0.018257
9147402542,-0.678418,1.159096,-0.058460,-0.017615,0.988565,0.017553
9147405045,-0.556364,1.280460,-0.119405,-0.011829,0.984887,0.018311
9147407547,-0.617146,1.402470,-0.180370,-0.003810,0.986275,0.017647
9147410049,-0.738792,1.524536,-0.302048,-0.003031,0.997143,0.022776
9147412552,-0.799821,1.524910,-0.241349,-0.002277,1.006555,0.030080
9147415054,-0.799944,1.464092,-0.180517,-0.009529,1.009517,0.030036
9147417557,-0.739121,1.403059,-0.119678,-0.016787,1.010306,0.028532
9147420059,-0.678218,1.463979,-0.059092,-0.013909,1.004481,0.026354
9147422561,-0.617232,1.524741,-0.059212,-0.012475,0.999396,0.023440
9147425064,-0.617232,1.524741,-0.059212,-0.004520,0.992800,0.022751
9147427566,-0.678258,1.403003,-0.058966,-0.006693,0.988480,0.016179
9147430068,-0.739204,1.403218,-0.058973,-0.022680,0.990063,0.015340
9147432570,-0.739161,1.342082,-0.119552,-0.027042,0.992271,0.017495
9147435073,-0.739201,1.281106,-0.119426,-0.024052,1.001684,0.016820
9147437575,-0.678295,1.219914,-0.119292,-0.022565,1.003855,0.014657
9147440077,-0.617309,1.280675,-0.119412,-0.014572,1.004511,0.016898
9147442580,-0.617269,1.341652,-0.119538,-0.011622,1.013186,0.021309
9147445082,-0.617269,1.341652,-0.119538,-0.011541,1.023347,0.021342
9147447584,-0.556283,1.402413,-0.119658,-0.015129,1.027013,0.018419
9147450087,-0.495297,1.463175,-0.119777,-0.023872,1.024184,0.016892
9147452589,-0.373365,1.523721,-0.119889,-0.027499,1.028560,0.020514
9147455092,-0.312462,1.584642,-0.059303,-0.027468,1.033637,0.021984
9147457594,-0.190613,1.645347,0.001290,-0.027432,1.039439,0.023456
9147460096,-0.129585,1.644973,-0.059409,-0.028120,1.043078,0.022009
9147462599,-0.068599,1.705734,-0.059528,-0.026627,1.045975,0.019848
9147465101,0.053416,1.766122,-0.120346,-0.026635,1.047419,0.022760
9147467603,0.114236,1.827201,0.000945,-0.030283,1.046721,0.023458
9147470105,0.236045,1.826929,0.061665,-0.025189,1.043786,0.019851
9147472608,0.418843,1.765307,0.061812,-0.017962,1.037196,0.019157
9147475110,0.601723,1.703526,0.001254,-0.019467,1.032848,0.021313
9147477612,0.723741,1.641802,-0.120017,-0.022380,1.029975,0.018375
9147480115,0.784687,1.641586,-0.120010,-0.017273,1.029939,0.016231
9147482617,0.845713,1.763324,-0.120256,-0.013693,1.023376,0.016964
9147485120,0.967522,1.763053,-0.059536,-0.014492,1.013224,0.015472
9147487622,1.089288,1.823917,0.061762,-0.012344,1.008851,0.015474
9147490124,1.211014,1.823804,0.183187,-0.010192,1.004481,0.014750
9147492627,1.271877,1.823748,0.243900,-0.008785,0.997938,0.014012
9147495129,1.271877,1.823748,0.243900,-0.006662,0.989215,0.012547
9147497631,1.211054,1.884781,0.183061,-0.006753,0.979774,0.014697
9147500134,1.150311,2.067767,0.121969,0.000475,0.973908,0.014732
9147502636,1.272452,2.066861,-0.060133,0.003373,0.971709,0.014019
9147505138,1.272372,1.944907,-0.059881,0.003337,0.966630,0.013276
9147507640,1.211265,1.701216,-0.059382,0.004059,0.966622,0.014009
9147510143,1.089290,1.701805,0.001310,0.006234,0.963707,0.011834
9147512645,0.967273,1.763529,0.122580,0.003290,0.960823,0.013258
9147515148,0.845378,1.886072,0.183019,0.002576,0.963729,0.014716
9147517650,0.784310,1.825469,0.243844,0.003328,0.967350,0.015459
9147520152,0.662381,1.642811,0.183504,-0.001766,0.970286,0.019066
9147522654,0.601397,1.459937,0.123171,-0.004696,0.970302,0.021952
9147525157,0.540457,1.215928,0.002258,-0.000313,0.973168,0.022720
9147527659,0.540540,1.215769,-0.058447,0.002657,0.977508,0.019121
9147530162,0.479551,1.277120,0.002125,-0.002439,0.978996,0.021269
9147532664,0.357616,1.338685,0.062690,-0.000988,0.979706,0.022736
9147535166,0.235642,1.339275,0.123382,-0.000924,0.987690,0.022762
9147537669,0.174613,1.339648,0.184080,-0.005271,0.989903,0.022737
9147540171,0.052724,1.217967,0.123614,-0.003767,0.997870,0.024953
9147542673,-0.008219,1.096070,0.063154,-0.007308,1.008066,0.022779
9147545176,0.052812,0.973583,-0.057997,-0.010902,1.011006,0.019854
9147547678,0.174704,0.973153,-0.057984,-0.005722,1.018234,0.015553
9147550180,0.235404,0.851302,0.063687,-0.004994,1.018952,0.016287
9147552682,0.174375,0.851676,0.124386,-0.005723,1.021128,0.019196
9147555185,0.174418,0.790540,0.063807,-0.004976,1.021129,0.016294
9147557687,0.174501,0.790382,0.003101,-0.008547,1.026973,0.013378
9147560190,0.296475,0.789792,-0.057590,-0.010721,1.025546,0.010450
9147562692,0.418284,0.789521,0.003129,-0.009251,1.025540,0.008280
9147565194,0.418282,0.911633,0.063582,-0.008524,1.025534,0.008285
9147567696,0.418322,0.972610,0.063455,-0.011462,1.021928,0.008252
9147570199,0.418445,1.033428,0.002623,-0.009981,1.019031,0.000985
9147572701,0.479308,1.033371,0.063336,-0.008561,1.014665,0.000981
9147575203,0.601079,0.850011,0.063729,-0.013671,1.011805,0.000208
9147577706,0.600959,0.667081,0.064108,-0.011532,1.004534,-0.001980
9147580208,0.722813,0.483561,0.003796,-0.010835,1.000176,-0.002716
9147582710,0.722731,0.483720,0.064502,-0.010906,0.994360,0.000900
9147585213,0.783756,0.605458,0.064256,-0.012360,0.995096,0.001619
9147587715,0.844742,0.666220,0.064136,-0.010226,0.987824,0.000158
9147590217,0.905729,0.726982,0.064017,-0.007395,0.979811,0.002334
9147592720,0.905648,0.605028,0.064270,-0.004502,0.978333,0.003078
9147595223,0.905608,0.544051,0.064396,-0.003795,0.977596,0.005262
9147597725,0.844622,0.483290,0.064515,-0.006774,0.969634,0.005942
9147600227,0.783759,0.483346,0.003803,-0.007513,0.968189,0.005932
9147602729,0.661785,0.483935,0.064495,-0.007525,0.966737,0.005927
9147605231,0.600676,0.362356,0.125446,-0.003888,0.965983,0.005225
9147607734,0.478458,0.119197,0.247349,-0.000991,0.963784,0.004512
9147610236,0.356528,-0.063462,0.187009,-0.003202,0.960897,0.005214
9147612739,0.295583,-0.063246,0.187002,-0.004696,0.957276,0.006645
9147615241,0.234637,-0.063031,0.186995,-0.003936,0.959453,0.004477
9147617743,0.173774,-0.062975,0.126282,-0.001729,0.963786,0.005961
9147620245,0.051965,-0.062703,0.065563,-0.007609,0.958746,0.008809
9147622748,-0.008775,-0.001829,-0.055982,-0.006145,0.958014,0.006637
9147625250,-0.191450,0.120611,-0.116961,-0.008321,0.954415,0.001521
9147627753,-0.374328,0.060280,-0.116856,-0.010481,0.956612,0.000785
9147630255,-0.557411,-0.060710,0.004787,-0.010464,0.954447,-0.004310
9147632757,-0.679549,-0.181916,0.126437,-0.003896,0.959467,-0.001338
9147635260,-0.801441,-0.181485,0.126423,-0.007497,0.960234,-0.005724
9147637762,-0.862221,-0.181588,0.005005,-0.009637,0.967504,-0.003536
9147640264,-0.740206,-0.121200,-0.055813,-0.009651,0.968223,-0.000626
9147642767,-0.618314,-0.121630,-0.055799,-0.014663,0.976978,-0.002090
9147645269,-0.557615,-0.243482,0.065872,-0.013882,0.980610,-0.005707
9147647771,-0.618764,-0.426038,0.126950,-0.017488,0.985716,-0.004264
9147650274,-0.679750,-0.486799,0.127069,-0.014510,0.992954,-0.005673
9147652776,-0.740615,-0.364631,0.126810,-0.015913,0.998775,-0.006392
9147655279,-0.740452,-0.242836,0.065851,-0.015950,0.997314,-0.002762
9147657781,-0.740329,-0.182018,0.005019,-0.014421,1.005289,-0.004180
9147660283,-0.801275,-0.181803,0.005012,-0.008573,1.003805,-0.009957
9147662785,-0.923124,-0.242508,-0.055581,-0.016534,1.009675,-0.009270
9147665288,-0.984113,-0.181157,0.004991,-0.016539,1.009673,-0.008543
9147667790,-0.984196,-0.180999,0.065697,-0.014382,1.008922,-0.005622
9147670292,-0.862427,-0.242247,0.126543,-0.015122,1.011095,-0.001259
9147672795,-0.801398,-0.242621,0.065844,-0.014380,1.011094,-0.003434
9147675297,-0.679383,-0.182233,0.005026,-0.017239,1.016202,-0.004893
9147677799,-0.618274,-0.060654,-0.055925,-0.019420,1.016944,-0.004180
9147680302,-0.435439,0.060813,0.004548,-0.011486,1.014683,0.003141
9147682804,-0.313507,0.121359,0.004436,-0.013615,1.030641,0.014080
9147685306,-0.252521,0.182121,0.004317,-0.002717,1.018245,0.001762
9147687809,-0.191701,0.243200,0.125608,-0.009292,1.011051,-0.002670
9147690311,-0.130838,0.243143,0.186321,-0.018817,1.000248,-0.005682
9147692814,-0.070055,0.121134,0.247286,-0.017316,1.005319,-0.006382
9147695316,-0.008984,0.059624,0.126008,-0.005002,0.994344,-0.011415
9147697818,-0.008901,0.059465,0.065303,-0.019550,0.999528,-0.005690
9147700320,-0.008775,-0.001829,-0.055982,-0.023895,1.003189,-0.004256
9147702823,-0.069804,-0.001455,0.004717,-0.012280,1.004533,0.000922
9147705326,-0.191779,-0.000866,0.065408,-0.014446,1.005280,-0.000545
9147707829,-0.191779,-0.000866,0.065408,-0.015152,1.006742,-0.002000
9147710331,-0.069927,-0.062273,0.065549,-0.015151,1.011808,0.003832
9147712833,0.052045,0.059250,0.065310,-0.018040,1.008220,-0.003470
9147715336,0.052165,0.242180,0.064931,-0.014428,1.008182,0.000191
9147717838,0.052411,0.363816,-0.056733,-0.013710,1.003830,-0.003452
9147720340,-0.008452,0.363873,-0.117446,-0.018788,1.007495,-0.001297
9147722843,-0.008409,0.302737,-0.178025,-0.018753,1.007508,-0.006386
9147725345,-0.069558,0.120181,-0.116947,-0.012201,1.003838,-0.011438
9147727847,-0.069598,0.059204,-0.116821,-0.012266,0.994406,-0.012922
9147730350,0.052294,0.058774,-0.116807,-0.011473,1.003832,-0.011432
9147732852,0.113443,0.241330,-0.177885,-0.013733,1.001651,-0.002732
9147735355,0.113523,0.363284,-0.178138,-0.014449,0.998042,-0.008565
9147737857,0.113480,0.424419,-0.117558,-0.017268,1.003889,-0.015110
9147740359,0.174466,0.485181,-0.117678,-0.012901,1.000959,-0.018722
9147742862,0.235246,0.485283,0.003740,-0.017959,1.001014,-0.023847
9147745364,0.235120,0.546577,0.125025,-0.014350,0.997355,-0.023832
9147747866,0.174052,0.485974,0.185850,-0.013658,0.997336,-0.018738
9147750368,0.113066,0.425213,0.185969,-0.012950,0.989363,-0.025301
9147752871,0.113149,0.425054,0.125264,-0.009995,0.989356,-0.031822
9147755373,0.113271,0.485872,0.064432,-0.010677,0.994444,-0.032538
9147757876,-0.008537,0.486144,0.003712,-0.013615,0.990839,-0.032571
9147760378,-0.008537,0.486144,0.003712,-0.012869,0.990116,-0.036202
9147762880,-0.008620,0.486302,0.064418,-0.007024,0.985736,-0.044897
9147765383,-0.069443,0.547336,0.003579,-0.009212,0.985752,-0.044186
9147767885,-0.130306,0.547392,-0.057133,-0.009192,0.990101,-0.041991
9147770387,-0.069358,0.425065,-0.117579,-0.005539,0.990077,-0.044145
9147772889,0.052371,0.302839,-0.056607,-0.001140,0.985712,-0.054304
9147775392,0.113274,0.363760,0.003979,-0.001123,0.987166,-0.055026
9147777894,0.052326,0.486087,0.064425,-0.001142,0.987882,-0.051389
9147780397,-0.069566,0.486518,0.064411,0.006101,0.986364,-0.048433
9147782899,-0.130592,0.364779,0.064657,0.002463,0.986394,-0.048460
9147785401,-0.130713,0.181849,0.065036,0.005382,0.984926,-0.051351
9147787904,-0.130836,0.121031,0.125868,0.007567,0.987804,-0.048418
9147790406,-0.008821,0.181419,0.065050,0.008327,0.989981,-0.050586
9147792908,-0.069684,0.181475,0.004337,0.011234,0.991403,-0.048380
9147795411,-0.069561,0.242293,-0.056494,0.006171,0.990732,-0.053508
9147797913,-0.130464,0.181373,-0.117081,0.004722,0.987851,-0.057889
9147800415,-0.191450,0.120611,-0.116961,0.011264,0.987796,-0.057114
9147802918,-0.191653,-0.062160,-0.055876,0.012705,0.988503,-0.054194
9147805420,-0.252845,-0.183581,0.065781,0.014151,0.989211,-0.052000
9147807922,-0.252722,-0.122763,0.004949,0.013452,0.992122,-0.052723
9147810424,-0.191570,-0.062319,-0.116582,0.010589,0.994334,-0.057099
9147812927,-0.130541,-0.062693,-0.177281,0.007634,0.989276,-0.056409
9147815429,-0.069676,-0.184861,-0.177021,0.010552,0.992150,-0.054198
9147817932,-0.008936,-0.245736,-0.055476,0.012072,1.001570,-0.052703
9147820434,0.051967,-0.184815,0.005110,0.009222,1.005957,-0.056345
9147822936,0.051885,-0.184657,0.065815,0.007752,1.000898,-0.060007
9147825438,-0.009224,-0.306236,0.126767,0.006284,0.998010,-0.061480
9147827941,-0.070250,-0.427974,0.127013,0.006309,1.003085,-0.059283
9147830446,-0.253168,-0.549282,0.127245,0.004115,1.000927,-0.060033
9147832946,-0.314194,-0.671021,0.127490,0.003390,0.999487,-0.062224
9147835448,-0.253246,-0.793348,0.067045,-0.000990,0.998793,-0.060804
9147837950,-0.192420,-0.976493,0.067431,-0.001006,0.998064,-0.059353
9147840452,-0.070526,-1.099036,0.006992,-0.000999,0.995171,-0.063724
9147842955,-0.009620,-1.160228,0.007125,-0.002363,1.001006,-0.070258
9147845457,-0.070606,-1.220989,0.007245,-0.007471,0.999594,-0.069573
9147847960,-0.131552,-1.220774,0.007238,-0.008231,0.997417,-0.067405
9147850462,-0.192581,-1.220400,0.067936,-0.008986,0.995242,-0.065963
9147852964,-0.070689,-1.220831,0.067950,-0.008248,0.995964,-0.066682
9147855467,-0.009660,-1.221205,0.007252,-0.006756,0.997413,-0.070302
9147857969,-0.070523,-1.221148,-0.053461,-0.009647,0.996720,-0.073960
9147860471,-0.131509,-1.281910,-0.053341,-0.013253,0.998208,-0.076890
9147862973,-0.131592,-1.281751,0.007364,-0.014011,0.997479,-0.073263
9147865476,-0.131635,-1.220616,0.067943,-0.013989,0.999658,-0.073983
9147867978,-0.131554,-1.098662,0.067691,-0.018356,0.997522,-0.076202
9147870480,-0.070609,-1.098877,0.067698,-0.020541,0.998986,-0.074033
9147872983,-0.009786,-1.159910,0.128536,-0.016903,0.999680,-0.073277
9147875485,0.051080,-1.282079,0.128796,-0.017646,0.995339,-0.076204
9147877987,0.051163,-1.282238,0.068091,-0.022729,0.999002,-0.073322
9147880491,-0.070606,-1.220989,0.007245,-0.021978,1.001899,-0.073307
9147882992,-0.070526,-1.099036,0.006992,-0.019778,1.004059,-0.073284
9147885495,-0.009457,-1.038433,-0.053833,-0.017608,1.001865,-0.074002
9147887997,0.112475,-0.977887,-0.053945,-0.017629,0.996792,-0.076926
9147890499,0.173464,-1.039237,-0.114518,-0.018332,0.996807,-0.080566
9147893002,0.173258,-1.099897,0.007020,-0.016168,0.997506,-0.076913
9147895504,0.172889,-1.282351,0.189516,-0.011064,0.999640,-0.076142
9147898006,0.172849,-1.343327,0.189642,-0.008161,0.998167,-0.076852
9147900509,0.233795,-1.343542,0.189649,-0.006680,0.998888,-0.079747
9147903011,0.355810,-1.283155,0.128831,-0.007393,0.998175,-0.082662
9147905513,0.355850,-1.222178,0.128705,-0.008920,0.992372,-0.079057
9147908016,0.294781,-1.282781,0.189530,-0.009670,0.990198,-0.078342
9147910518,0.172972,-1.282509,0.128810,-0.010342,0.994566,-0.081241
9147913034,0.112026,-1.282294,0.128803,-0.006697,0.993092,-0.084127
9147915529,0.112026,-1.282294,0.128803,-0.006010,0.988006,-0.084138
9147918023,0.111863,-1.404089,0.189762,-0.007459,0.988743,-0.084146
9147920526,0.172892,-1.404463,0.129063,-0.008924,0.988752,-0.082703
9147923028,0.294783,-1.404893,0.129077,-0.008195,0.990194,-0.081239
9147925531,0.294947,-1.283098,0.068119,-0.007441,0.990921,-0.084139
9147928033,0.355975,-1.283472,0.007420,-0.008862,0.990222,-0.089968
9147930535,0.356015,-1.222496,0.007294,-0.009610,0.989496,-0.087794
9147933038,0.417001,-1.161734,0.007174,-0.012539,0.990237,-0.084179
9147935540,0.417001,-1.161734,0.007174,-0.012554,0.990231,-0.081998
9147938042,0.356015,-1.222496,0.007294,-0.009667,0.988028,-0.081257
9147940545,0.233961,-1.343860,0.068238,-0.011080,0.989503,-0.085624
9147943048,0.172892,-1.404463,0.129063,-0.016160,0.987378,-0.090030
9147945549,0.172809,-1.404304,0.189769,-0.014717,0.985914,-0.090024
9147948052,0.172932,-1.343486,0.128937,-0.010364,0.983703,-0.090726
9147950554,0.112069,-1.343430,0.068224,-0.008195,0.980786,-0.092173
9147953056,0.051123,-1.343214,0.068217,-0.008938,0.980786,-0.089998
9147955559,0.112069,-1.343430,0.068224,-0.011157,0.979343,-0.086384
9147958061,-0.009906,-1.342840,0.128916,-0.014065,0.980815,-0.084947
9147960563,-0.070935,-1.342467,0.189614,-0.016932,0.987367,-0.083493
9147963066,-0.131923,-1.281116,0.250186,-0.013301,0.990954,-0.078367
9147965568,-0.131964,-1.342093,0.250313,-0.011114,0.994556,-0.074704
9147968070,-0.070895,-1.281490,0.189488,-0.011832,0.994565,-0.076164
9147970573,-0.131677,-1.159480,0.128523,-0.012563,0.991675,-0.079086
9147973075,-0.070526,-1.099036,0.006992,-0.016219,0.992422,-0.075476
9147975578,0.051363,-0.977354,0.067459,-0.019865,0.993896,-0.072590
9147978079,0.051446,-0.977513,0.006753,-0.017672,0.998224,-0.068925
9147980582,0.051403,-0.916377,0.067332,-0.015513,0.999645,-0.063816
9147983084,-0.009582,-0.977139,0.067452,-0.016965,0.998210,-0.066012
9147985587,-0.070734,-1.037583,0.188982,-0.016948,0.999664,-0.066735
9147988089,-0.070817,-1.037424,0.249688,-0.015508,0.999646,-0.064543
9147990591,-0.070737,-0.915471,0.249435,-0.017699,1.001109,-0.061647
9147993094,0.051192,-0.732812,0.309775,-0.019194,1.001106,-0.055842
9147995596,0.112341,-0.550256,0.248697,-0.014833,1.001792,-0.054354
9147998099,0.173616,-0.428994,0.066335,-0.014072,1.001075,-0.060166
9148000601,0.112796,-0.490073,-0.054957,-0.017760,0.996021,-0.058755
9148003103,0.112796,-0.490073,-0.054957,-0.015641,0.992361,-0.053663
9148005605,-0.009222,-0.428348,0.066314,-0.012004,0.992331,-0.053636
9148008108,0.051598,-0.367269,0.187606,-0.015625,0.993814,-0.054385
9148010610,0.112544,-0.367485,0.187613,-0.017828,0.993101,-0.052223
9148013112,0.295505,-0.307312,0.126802,-0.018599,0.990196,-0.049329
9148015615,0.295874,-0.124858,-0.055694,-0.017144,0.990184,-0.049319
9148018117,0.235091,-0.002848,-0.116660,-0.014968,0.988717,-0.050034
9148020619,0.113240,0.058559,-0.116800,-0.013526,0.985805,-0.051487
9148023122,0.052336,-0.002362,-0.177386,-0.012821,0.984344,-0.050032
9148025624,0.113242,-0.063554,-0.177253,-0.015020,0.982909,-0.049326
9148028126,0.174103,0.058502,-0.056087,-0.015034,0.982903,-0.047145
9148030629,0.235086,0.241376,0.004246,-0.015790,0.980004,-0.046433
9148033131,0.174260,0.424521,0.003860,-0.017241,0.979294,-0.047900
9148035634,0.052411,0.363816,-0.056733,-0.018727,0.977847,-0.045007
9148038136,-0.130424,0.242350,-0.117207,-0.016546,0.977105,-0.045721
9148040638,-0.191493,0.181747,-0.056382,-0.017300,0.975654,-0.043550
9148043140,-0.252481,0.243097,0.004190,-0.020996,0.972043,-0.039227
9148045643,-0.191578,0.304018,0.064776,-0.021686,0.974234,-0.042133
9148048145,-0.130592,0.364779,0.064657,-0.018070,0.973473,-0.039928
9148050648,-0.191415,0.425812,0.003818,-0.018106,0.972736,-0.035568
9148053150,-0.374127,0.365164,-0.117488,-0.018058,0.979267,-0.034821
9148055652,-0.556882,0.365651,-0.178214,-0.018774,0.985066,-0.029719
9148058154,-0.678857,0.366240,-0.117523,-0.018074,0.987221,-0.023164
9148060657,-0.678982,0.427534,0.003762,-0.019475,0.995213,-0.021696
9148063159,-0.618079,0.488454,0.064348,-0.022327,1.002495,-0.021694
9148065661,-0.557136,0.610351,0.124808,-0.023077,1.003940,-0.016606
9148068164,-0.435121,0.670739,0.063990,-0.023822,1.001768,-0.016618
9148070666,-0.313187,0.609173,0.003425,-0.022325,1.008285,-0.015133
9148073168,-0.313147,0.670150,0.003298,-0.025190,1.017009,-0.011492
9148075671,-0.313149,0.792262,0.063751,-0.024450,1.019179,-0.010753
9148078173,-0.313029,0.975192,0.063372,-0.020068,1.021321,-0.010714
9148080675,-0.251920,1.096772,0.002420,-0.020082,1.022039,-0.007804
9148083178,-0.190931,1.035421,-0.058152,-0.020817,1.019872,-0.009270
9148085680,-0.130108,0.974388,0.002687,-0.019309,1.022774,-0.013611
9148088182,-0.008380,0.852163,0.063659,-0.018578,1.025664,-0.010689
9148090685,0.113552,0.912709,0.063547,-0.017887,1.024197,-0.007054
9148093187,0.296596,0.972723,-0.057970,-0.015737,1.026339,0.000238
9148095689,0.418530,0.911157,-0.118535,-0.006222,1.033520,0.000331
9148098192,0.479433,0.972077,-0.057949,-0.009859,1.021247,-0.014274
9148100694,0.479228,0.911418,0.063589,-0.010636,1.021235,-0.007010
9148103196,0.418239,0.972769,0.124161,-0.009953,1.012528,-0.010667
9148105699,0.418199,0.911792,0.124287,-0.000473,1.011013,-0.015691
9148108201,0.418199,0.911792,0.124287,0.004594,1.010962,-0.012019
9148110703,0.418282,0.911633,0.063582,0.003056,1.008049,-0.003316
9148113206,0.479268,0.972395,0.063462,0.006647,1.002213,-0.003308
9148115708,0.540214,0.972179,0.063469,0.011752,1.000729,-0.006910
9148118210,0.601039,0.789034,0.063856,0.008102,1.002201,-0.003297
9148120713,0.600959,0.667081,0.064108,0.003772,1.002249,-0.008418
9148123215,0.600879,0.545127,0.064361,0.005171,0.997151,-0.006242
9148125717,0.539853,0.423389,0.064607,0.008026,0.988423,-0.008430
9148128220,0.539895,0.362254,0.004028,0.007304,0.988431,-0.009162
9148130722,0.418087,0.362525,-0.056692,0.005790,0.984803,-0.004823
9148133224,0.296235,0.423932,-0.056832,0.008689,0.984052,-0.004077
9148135727,0.296112,0.363114,0.004000,0.013806,0.984019,-0.007674
9148138229,0.357058,0.362899,0.004007,0.011574,0.980401,-0.004794
9148140731,0.417841,0.240889,0.064972,0.004281,0.981177,-0.001210
9148143234,0.478747,0.179697,0.065106,0.006470,0.978990,-0.004836
9148145736,0.478583,0.057903,0.126064,0.005026,0.979006,-0.006300
9148148238,0.417597,-0.002859,0.126184,0.003606,0.979031,-0.011399
9148150741,0.295708,-0.124541,0.065717,0.006491,0.979722,-0.007014
9148153243,0.234762,-0.124326,0.065710,0.006498,0.981172,-0.006283
9148155746,0.173819,-0.246223,0.005250,0.001470,0.984855,-0.011397
9148158248,0.051887,-0.306769,0.005363,-0.002182,0.984879,-0.009243
9148160750,-0.009139,-0.428507,0.005608,-0.002246,0.981237,-0.004166
9148163253,-0.070205,-0.611222,0.005981,-0.002187,0.985601,-0.007787
9148165755,-0.070371,-0.610905,0.127392,-0.000717,0.985595,-0.009957
9148168257,-0.009342,-0.611279,0.066693,-0.003664,0.983434,-0.007077
9148170759,0.051767,-0.489699,0.005742,-0.005065,0.987084,-0.010711
9148173262,0.051807,-0.428722,0.005615,-0.008678,0.986399,-0.015101
9148175764,0.051724,-0.428564,0.066321,-0.005772,0.987097,-0.013624
9148178266,-0.009345,-0.489166,0.127146,-0.003597,0.985629,-0.014339
9148180769,-0.070494,-0.671723,0.188224,-0.010845,0.986422,-0.017298
9148183271,-0.192589,-0.854064,0.249295,-0.011541,0.992229,-0.015104
9148185773,-0.253452,-0.854007,0.188582,-0.010051,0.997296,-0.014350
9148188276,-0.314192,-0.793133,0.067038,-0.007186,0.992189,-0.013618
9148190778,-0.314069,-0.732315,0.006206,-0.007894,0.996545,-0.011429
9148193280,-0.192011,-0.733063,-0.115191,-0.008585,0.998011,-0.015064
9148195784,-0.131188,-0.794096,-0.054353,-0.008562,1.000191,-0.015784
9148198285,-0.131188,-0.794096,-0.054353,-0.011487,1.000209,-0.013625
9148200787,-0.131271,-0.793937,0.006353,-0.015195,0.995147,-0.009306
9148203289,-0.131188,-0.794096,-0.054353,-0.012998,0.995135,-0.011471
9148205792,-0.009379,-0.794368,0.006367,-0.015864,0.998793,-0.013661
9148208294,-0.009256,-0.733550,-0.054465,-0.015891,0.996612,-0.012214
9148210797,-0.009053,-0.550778,-0.115550,-0.016630,0.995166,-0.012224
9148213299,-0.069879,-0.367633,-0.115936,-0.016575,0.999528,-0.015118
9148215801,-0.070002,-0.428451,-0.055104,-0.013655,0.999508,-0.016551
9148218303,-0.009342,-0.611279,0.066693,-0.010813,0.992947,-0.014370
9148220806,0.051481,-0.672312,0.127532,-0.013736,0.994413,-0.010752
9148223308,-0.009342,-0.611279,0.066693,-0.012250,0.995860,-0.013644
9148225811,-0.070288,-0.611063,0.066686,-0.013723,0.992970,-0.014391
9148228313,-0.070411,-0.671881,0.127518,-0.018084,0.995902,-0.011506
9148230816,-0.009588,-0.732915,0.188357,-0.018136,0.990094,-0.010797
9148233319,-0.009425,-0.611120,0.127399,-0.017368,0.995168,-0.010776
9148235822,-0.009382,-0.672255,0.066820,-0.021734,0.998098,-0.007164
9148238324,-0.070491,-0.793835,0.127771,-0.023225,0.996649,-0.003545
9148240826,-0.070574,-0.793676,0.188477,-0.026839,0.995964,-0.007935
9148243328,-0.070577,-0.671564,0.248929,-0.028311,0.993798,-0.007953
9148245831,-0.009428,-0.489008,0.187852,-0.023952,0.993037,-0.007923
9148248334,0.112584,-0.306508,0.187486,-0.030496,0.991644,-0.010156
9148250836,0.112748,-0.184713,0.126528,-0.027602,0.990891,-0.008684
9148253338,0.112665,-0.184554,0.187233,-0.026873,0.987991,-0.012322
9148255841,0.051639,-0.306293,0.187479,-0.029047,0.986564,-0.015250
9148258342,-0.009390,-0.305919,0.248178,-0.027597,0.990893,-0.009411
9148260845,-0.009267,-0.245101,0.187346,-0.034125,0.993847,-0.008722
9148263347,-0.069967,-0.123250,0.065675,-0.034811,0.995316,-0.013084
9148265850,-0.130707,-0.062375,-0.055869,-0.029733,0.995993,-0.010137
9148268352,-0.191570,-0.062319,-0.116582,-0.035533,0.996048,-0.013087
9148270854,-0.252433,-0.062262,-0.177294,-0.035528,0.996049,-0.013814
9148273357,-0.191324,0.059317,-0.238246,-0.034088,0.996032,-0.011623
9148275859,-0.191407,0.059476,-0.177540,-0.034088,0.996032,-0.011623
9148278361,-0.130504,0.120396,-0.116954,-0.034730,1.005477,-0.013052
9148280864,-0.191533,0.120770,-0.056256,-0.034723,1.006927,-0.012320
9148283366,-0.191535,0.242882,0.004197,-0.029685,1.003247,-0.008660
9148285868,-0.313390,0.426402,0.064510,-0.028927,1.003976,-0.012287
9148288370,-0.313064,0.669991,-0.057407,-0.031100,1.003274,-0.014486
9148290873,-0.312943,0.852921,-0.057786,-0.032569,1.004004,-0.011587
9148293375,-0.251794,1.035477,-0.118864,-0.031079,1.004729,-0.015935
9148295878,-0.190851,1.157374,-0.058405,-0.031107,1.001824,-0.015218
9148298380,-0.068834,1.095650,-0.179675,-0.026013,1.003230,-0.013722
9148300882,0.053184,1.033925,-0.300946,-0.025979,1.006861,-0.014437
9148303385,0.053184,1.033925,-0.300946,-0.029629,1.003991,-0.015927
9148305887,-0.007682,1.156094,-0.301206,-0.024552,1.003944,-0.013709
9148308389,0.053218,1.339126,-0.180167,-0.020953,0.996664,-0.016613
9148310892,0.053256,1.522215,-0.119841,-0.022411,0.993780,-0.019541
9148313394,0.053419,1.644010,-0.180799,-0.017357,0.990830,-0.017332
9148315897,0.053582,1.765804,-0.241757,-0.012324,0.983530,-0.017318
9148318399,0.114694,1.765272,-0.363162,-0.028255,0.985858,-0.025424
9148320901,0.175682,1.703921,-0.423734,-0.036987,0.996783,-0.012369
9148323403,0.175562,1.520991,-0.423354,-0.008671,0.997256,-0.003436
9148325906,0.175522,1.460014,-0.423228,0.011712,0.992030,-0.011299
9148328408,0.114533,1.521365,-0.362656,0.016819,0.987652,-0.018545
9148330910,0.053585,1.643692,-0.302210,0.014592,0.978969,-0.022223
9148333413,0.114488,1.704613,-0.241624,-0.008701,0.979153,-0.020213
9148335915,0.175557,1.765215,-0.302449,-0.024710,0.979282,-0.019603
9148338417,0.236586,1.764841,-0.363148,-0.026839,0.982214,-0.023971
9148340919,0.175680,1.826033,-0.363281,-0.026079,0.988733,-0.021038
9148343422,0.053702,1.948735,-0.242137,-0.012245,0.990796,-0.020202
9148345924,-0.007452,2.010403,-0.060153,0.000107,0.991413,-0.017202
9148348427,-0.068441,2.071754,0.000419,-0.003528,0.992891,-0.015770
9148350929,-0.129264,2.132787,-0.060420,-0.007896,0.990031,-0.018719
9148353432,-0.190047,2.254797,-0.121385,-0.010034,0.994407,-0.020175
9148355934,-0.250827,2.254694,-0.242803,-0.010782,0.993682,-0.018002
9148358446,-0.250787,2.315671,-0.242930,-0.009308,0.992953,-0.021628
9148360939,-0.311815,2.316045,-0.182231,-0.012902,0.995893,-0.024553
9148363441,-0.311941,2.377339,-0.060947,-0.013696,0.990085,-0.021669
9148365943,-0.372970,2.377713,-0.000248,-0.012210,0.990809,-0.025291
9148368445,-0.312107,2.377657,0.060465,-0.016538,0.993029,-0.028224
9148370948,-0.312024,2.377498,-0.000241,-0.019473,0.992319,-0.025340
9148373450,-0.250955,2.438101,-0.061066,-0.020916,0.994507,-0.024616
9148375952,-0.250875,2.560054,-0.061319,-0.020918,0.996677,-0.021702
9148378455,-0.250752,2.620872,-0.122151,-0.020891,0.998858,-0.023149
9148380957,-0.250712,2.681849,-0.122277,-0.023786,0.998163,-0.026080
9148383459,-0.311618,2.743041,-0.122411,-0.023796,0.994541,-0.028999
9148385962,-0.433550,2.682495,-0.122298,-0.024515,0.997445,-0.026814
9148388464,-0.494538,2.743845,-0.061726,-0.027408,0.998922,-0.027558
9148390966,-0.494418,2.926775,-0.062105,-0.029594,0.995320,-0.031220
9148393468,-0.433395,3.170626,-0.001898,-0.039004,0.997585,-0.035644
9148395971,-0.372288,3.414318,-0.002397,-0.041920,0.996883,-0.035668
9148398474,-0.250151,3.535523,-0.124047,-0.036857,0.996831,-0.031269
9148400976,-0.189207,3.657420,-0.063587,-0.032447,1.001878,-0.031947
9148403478,-0.189373,3.657738,0.057824,-0.033903,1.000442,-0.033417
9148405980,-0.250402,3.658112,0.118522,-0.033964,0.995354,-0.030525
9148408483,-0.189416,3.718873,0.118403,-0.033225,0.996800,-0.030515
9148410985,-0.067401,3.779260,0.057585,-0.035353,1.001179,-0.033425
9148413487,0.054819,3.900307,-0.124771,-0.039006,1.000479,-0.032000
9148415990,0.116011,4.021728,-0.246427,-0.039795,0.994673,-0.029843
9148418492,0.055228,4.143738,-0.307393,-0.036141,0.996097,-0.030539
9148420994,-0.066543,4.327098,-0.307786,-0.034648,0.998270,-0.033429
9148423497,-0.066503,4.388075,-0.307912,-0.034652,0.995374,-0.036346
9148425999,-0.005600,4.448995,-0.247326,-0.032482,0.993181,-0.037064
9148428501,0.055383,4.631869,-0.186993,-0.033964,0.991012,-0.035627
9148431004,-0.005482,4.754038,-0.187253,-0.036877,0.992481,-0.033463
9148433506,-0.066142,4.936866,-0.309050,-0.037595,0.992491,-0.034923
9148436008,-0.187911,4.998114,-0.369896,-0.033937,0.992469,-0.037804
9148438511,-0.309720,4.998385,-0.430615,-0.031766,0.991723,-0.037063
9148441013,-0.370500,4.998283,-0.552033,-0.033970,0.990286,-0.035630
9148443535,-0.370500,4.998283,-0.552033,-0.033971,0.989562,-0.036359
9148446021,-0.248568,5.058829,-0.552146,-0.031053,0.991712,-0.034877
9148448519,-0.126762,5.180670,-0.430974,-0.032547,0.988815,-0.032716
9148451021,-0.065653,5.302250,-0.491925,-0.029620,0.990245,-0.033417
9148453523,-0.004670,5.485123,-0.431592,-0.024513,0.990209,-0.035561
9148456026,-0.004712,5.546259,-0.371013,-0.017954,0.991607,-0.035508
9148458528,-0.065658,5.546474,-0.371020,-0.013589,0.992296,-0.034747
9148461030,-0.065615,5.485339,-0.431599,-0.013587,0.989402,-0.038391
9148463533,-0.126481,5.607507,-0.431859,-0.013551,0.990862,-0.042021
9148466035,-0.187184,5.851470,-0.493077,-0.012052,0.994485,-0.044179
9148468537,-0.187187,5.973583,-0.432624,-0.009880,0.993740,-0.043439
9148471040,-0.187392,5.912923,-0.311086,-0.007732,0.990091,-0.042707
9148473542,-0.187638,5.791288,-0.189423,-0.012827,0.991579,-0.040559
9148476045,-0.126733,5.730096,-0.189289,-0.014251,0.993049,-0.043473
9148478547,-0.126775,5.791232,-0.128710,-0.014250,0.993773,-0.042744
9148481049,-0.187684,5.974535,-0.068391,-0.017887,0.993803,-0.042770
9148483551,-0.187564,6.157465,-0.068770,-0.018600,0.993090,-0.045686
9148486054,-0.248387,6.218499,-0.129609,-0.015720,0.989438,-0.045676
9148488556,-0.248304,6.218340,-0.190314,-0.011344,0.990130,-0.046369
9148491059,-0.248221,6.218181,-0.251020,-0.013561,0.990135,-0.041296
9148493561,-0.309084,6.218238,-0.311732,-0.015737,0.991602,-0.040580
9148496063,-0.309044,6.279214,-0.311859,-0.012757,0.996670,-0.044904
9148498565,-0.248098,6.278999,-0.311852,-0.015631,1.001049,-0.044912
9148501068,-0.248058,6.339976,-0.311978,-0.020030,1.001795,-0.039126
9148503570,-0.309046,6.401327,-0.251406,-0.017120,1.001772,-0.039105
9148506073,-0.309169,6.340509,-0.190574,-0.011288,0.999558,-0.043431
9148508575,-0.370198,6.340883,-0.129876,-0.008406,0.997353,-0.041963
9148511077,-0.370158,6.401859,-0.130002,-0.008431,0.997344,-0.038328
9148513579,-0.370078,6.523813,-0.130255,-0.005546,0.997311,-0.034672
9148516082,-0.309092,6.584575,-0.130374,-0.002637,0.996564,-0.035380
9148518584,-0.187240,6.523167,-0.130234,-0.003370,0.995844,-0.035388
9148521086,-0.126252,6.461817,-0.190806,-0.003368,0.998016,-0.033200
9148523589,-0.065303,6.339489,-0.251252,-0.000471,0.995092,-0.034642
9148526091,-0.004274,6.339115,-0.311950,0.000223,0.992180,-0.033192
9148528593,0.056629,6.400035,-0.251364,-0.000479,0.997261,-0.031000
9148531096,0.117655,6.521774,-0.251610,0.002437,0.997963,-0.030977
9148533598,0.178681,6.643512,-0.251856,0.003893,0.995057,-0.034610
9148536101,0.117652,6.643886,-0.191157,0.006085,0.994319,-0.036777
9148538603,0.178478,6.460741,-0.190771,0.011125,0.992087,-0.031658
9148541105,0.178398,6.338787,-0.190518,0.011800,0.990615,-0.025842
9148543607,0.178401,6.216675,-0.250971,0.009662,0.994267,-0.028027
9148546110,0.117332,6.156072,-0.190146,0.008949,0.993555,-0.030943
9148548612,-0.004600,6.095526,-0.190034,0.007484,0.993563,-0.029499
9148551115,-0.126615,6.035138,-0.129216,0.001657,0.991436,-0.031003
9148553617,-0.126529,5.912867,-0.250374,-0.001275,0.989281,-0.030304
9148556119,-0.065541,5.851517,-0.310946,0.001605,0.989246,-0.025921
9148558621,-0.004718,5.790483,-0.250107,0.001604,0.988522,-0.026651
9148561124,-0.004758,5.729506,-0.249981,0.003087,0.991415,-0.027358
9148563626,-0.065744,5.668746,-0.249861,0.001655,0.994330,-0.027359
9148566128,-0.126647,5.607825,-0.310447,-0.001232,0.996534,-0.028100
9148568631,-0.126647,5.607825,-0.310447,-0.004148,0.995831,-0.028124
9148571133,-0.065864,5.485815,-0.249482,-0.007783,0.997309,-0.026692
9148573636,-0.065904,5.424839,-0.249356,-0.004866,0.999459,-0.025210
9148576138,-0.126890,5.364077,-0.249236,-0.000492,0.998703,-0.027361
9148578640,-0.126890,5.364077,-0.249236,-0.001206,0.997991,-0.030276
9148581142,-0.126973,5.364235,-0.188531,-0.001248,0.995804,-0.026649
9148583645,-0.127096,5.303418,-0.127699,-0.002738,0.991461,-0.026673
9148586147,-0.127011,5.181147,-0.248857,-0.006373,0.992938,-0.025241
9148588649,-0.005159,5.119739,-0.248717,-0.007812,0.998022,-0.021601
9148591152,0.055787,5.119524,-0.248710,-0.005579,1.003812,-0.022294
9148593654,0.055827,5.180501,-0.248836,-0.004125,1.003077,-0.023012
9148596157,-0.005119,5.180716,-0.248843,-0.005584,0.998745,-0.027398
9148598659,-0.066311,5.059296,-0.127186,-0.004155,0.998000,-0.024482
9148601161,-0.188366,4.937931,-0.066242,-0.003459,0.996535,-0.021574
9148603663,-0.188446,4.815978,-0.065989,-0.004184,0.994371,-0.024494
9148606166,-0.188483,4.632889,-0.126315,-0.004913,0.992929,-0.025958
9148608668,-0.066506,4.510188,-0.247460,-0.003409,0.997277,-0.028114
9148611171,-0.005477,4.509813,-0.308158,-0.003427,0.998718,-0.023748
9148613673,0.055592,4.570416,-0.368983,-0.001999,0.997249,-0.021561
9148616175,0.055509,4.570575,-0.308278,-0.002019,0.996517,-0.019382
9148618677,0.055386,4.509757,-0.247446,-0.004922,0.998715,-0.017943
9148621180,-0.005723,4.388177,-0.186494,-0.004205,0.997981,-0.017213
9148623682,-0.005886,4.266383,-0.125536,-0.004904,0.992208,-0.028141
9148626184,-0.005723,4.388177,-0.186494,-0.000556,1.003745,-0.012079
9148628687,-0.005683,4.449154,-0.186621,-0.002798,0.986373,-0.023782
9148631189,0.116292,4.448565,-0.247312,0.000199,1.001579,-0.018623
9148633691,0.177158,4.326396,-0.247053,-0.002729,0.990741,-0.028856
9148636194,0.116172,4.265635,-0.246933,-0.003533,0.997231,-0.009941
9148638696,-0.005843,4.205247,-0.186115,0.002226,0.984136,-0.016482
9148641199,-0.127895,3.961771,-0.185623,0.002309,0.990679,-0.020823
9148643701,-0.128139,3.718022,-0.124412,0.000103,0.987794,-0.020848
9148646203,-0.128342,3.535252,-0.063327,0.007313,0.983369,-0.016447
9148648705,-0.189328,3.474490,-0.063208,0.000827,0.989234,-0.018657
9148651219,-0.189368,3.413513,-0.063082,-0.002803,0.987095,-0.022326
9148653710,-0.189408,3.352536,-0.062955,-0.006484,0.987832,-0.015081
9148656213,-0.128542,3.230368,-0.062695,-0.006460,0.987117,-0.019445
9148658715,-0.067676,3.108199,-0.062436,-0.005687,0.991470,-0.020879
9148661217,-0.067634,3.047064,-0.123015,-0.007188,0.986400,-0.020179
9148663720,-0.128457,3.108097,-0.183854,-0.007908,0.988579,-0.018724
9148666222,-0.128293,3.229892,-0.244812,-0.007916,0.990023,-0.015811
9148668724,-0.006362,3.290438,-0.244925,-0.009388,0.988582,-0.015100
9148671227,0.054662,3.534288,-0.184718,-0.010084,0.994389,-0.012906
9148673729,0.054659,3.656401,-0.124265,-0.012192,0.993710,-0.024555
9148676231,-0.067193,3.717807,-0.124405,-0.008601,0.992940,-0.018715
9148678733,-0.250191,3.474546,-0.123921,-0.010727,0.993702,-0.025998
9148681236,-0.311257,3.291831,-0.123548,-0.013665,0.995886,-0.019470
9148683738,-0.372366,3.170252,-0.062597,-0.013664,0.996610,-0.018741
9148686241,-0.372366,3.170252,-0.062597,-0.009299,0.996575,-0.018709
9148688743,-0.311377,3.108901,-0.123169,-0.007860,0.995834,-0.017247
9148691245,-0.189525,3.047494,-0.123029,-0.012952,0.987191,-0.027489
9148693748,-0.250592,2.864779,-0.122656,-0.012245,0.991520,-0.019473
9148696250,-0.250672,2.742826,-0.122404,-0.004239,0.990008,-0.021600
9148698752,-0.311618,2.743041,-0.122411,-0.003510,0.987108,-0.025239
9148701255,-0.311658,2.682064,-0.122284,-0.007147,0.987138,-0.025265
9148703757,-0.250672,2.742826,-0.122404,0.000191,0.990721,-0.030289
9148706259,-0.311618,2.743041,-0.122411,0.002398,0.999396,-0.023703
9148708761,-0.311658,2.682064,-0.122284,-0.000582,0.989986,-0.024481
9148711264,-0.250792,2.559896,-0.122024,0.000914,0.995055,-0.024454
9148713766,-0.250915,2.499078,-0.061192,0.001666,0.995058,-0.028084
9148716269,-0.190052,2.499021,-0.000480,0.002368,1.003003,-0.014968
9148718771,-0.189969,2.498862,-0.061185,0.005243,0.989941,-0.025165
9148721273,-0.189966,2.376750,-0.121638,0.006022,0.996467,-0.025139
9148723776,-0.128895,2.315241,-0.242916,-0.000480,1.000879,-0.026627
9148726278,-0.068029,2.193072,-0.242656,0.005334,1.000106,-0.026587
9148728780,-0.068195,2.193389,-0.121245,0.003134,1.002288,-0.021507
9148731283,-0.068318,2.132571,-0.060413,0.002392,0.997946,-0.024434
9148733785,-0.068401,2.132730,0.000292,0.009667,0.998611,-0.023652
9148736288,-0.129304,2.071810,-0.060294,0.005308,0.999372,-0.023681
9148738790,-0.129384,1.949857,-0.060041,0.003889,1.004463,-0.022949
9148741292,-0.129424,1.888880,-0.059914,0.006093,1.005901,-0.024382
9148743794,-0.068438,1.949641,-0.060034,0.000936,1.001576,-0.020072
9148746297,-0.007409,1.949268,-0.120732,0.000993,1.007386,-0.021507
9148748799,0.053416,1.766122,-0.120346,0.003926,1.006648,-0.025850
9148751301,0.114325,1.582818,-0.180666,0.008987,1.005148,-0.022909
9148753804,0.053216,1.461238,-0.119714,0.008236,1.002250,-0.022924
9148756306,-0.007853,1.400636,-0.058889,0.008986,1.004423,-0.023639
9148758808,-0.129788,1.462201,0.001676,0.008972,1.000800,-0.025831
9148761311,-0.129708,1.584155,0.001423,0.006096,1.004454,-0.026568
9148763814,-0.129750,1.645290,0.062002,0.003864,0.995770,-0.029519
9148766317,-0.190776,1.523552,0.062248,0.003809,0.995750,-0.021523
9148768819,-0.129911,1.401384,0.062508,0.003815,0.996476,-0.021521
9148771322,-0.068962,1.279056,0.002062,0.002400,0.996502,-0.027347
9148773824,0.052892,1.095537,-0.058250,0.003132,0.995774,-0.028797
9148776326,0.113718,0.912392,-0.057864,-0.001251,0.992908,-0.029566
9148778828,0.235407,0.729190,0.003235,-0.002685,0.994375,-0.031025
9148781331,0.174255,0.668746,0.124765,0.001642,0.991431,-0.028822
9148783833,0.174212,0.729881,0.185344,-0.003465,0.991467,-0.026679
9148786336,0.113346,0.852050,0.185085,-0.005677,0.987132,-0.027435
9148788838,-0.008463,0.852321,0.124365,-0.000547,0.989999,-0.029570
9148791340,-0.069323,0.730266,0.003200,-0.002031,0.990724,-0.024489
9148793842,-0.130306,0.547392,-0.057133,-0.002779,0.985656,-0.027419
9148796345,-0.069358,0.425065,-0.117579,-0.002741,0.988565,-0.029590
9148798847,-0.069440,0.425223,-0.056874,-0.002021,0.986385,-0.031046
9148801349,-0.069523,0.425382,0.003832,-0.002744,0.986393,-0.031778
9148803852,-0.069606,0.425541,0.064537,-0.003497,0.981324,-0.033980
9148806354,-0.069646,0.364564,0.064664,-0.004940,0.982787,-0.033986
9148808856,-0.069727,0.242611,0.064917,-0.004207,0.983507,-0.033979
9148811359,-0.069847,0.059681,0.065296,-0.005657,0.983521,-0.034716
9148813861,-0.069764,0.059522,0.004590,0.000168,0.983475,-0.035400
9148816364,-0.130750,-0.001240,0.004710,0.005305,0.987792,-0.036803
9148818866,-0.252559,-0.000968,-0.056010,0.001692,0.991449,-0.036091
9148821368,-0.313628,-0.061571,0.004815,0.004642,0.992164,-0.041156
9148823871,-0.313628,-0.061571,0.004815,0.002477,0.993635,-0.041894
9148826373,-0.191696,-0.001025,0.004703,0.001698,0.992175,-0.036089
9148828875,-0.130710,0.059737,0.004583,-0.000481,0.995813,-0.032459
9148831377,-0.191776,-0.122978,0.004956,0.003163,0.992891,-0.036803
9148833881,-0.313748,-0.244501,0.005194,0.000998,0.995086,-0.036812
9148836382,-0.374734,-0.305263,0.005314,0.000282,0.995820,-0.037542
9148838885,-0.374694,-0.244286,0.005187,0.000953,0.990004,-0.036101
9148841387,-0.313582,-0.244819,-0.116217,-0.002635,0.993669,-0.039024
9148843889,-0.313662,-0.366772,-0.115964,-0.002591,1.001646,-0.036091
9148846392,-0.191974,-0.549974,-0.054865,-0.001879,1.001635,-0.033905
9148848893,-0.070411,-0.671881,0.127518,-0.001134,0.999464,-0.038995
9148851396,-0.009711,-0.793733,0.249189,-0.001866,1.004534,-0.032441
9148853898,0.051155,-0.915901,0.249449,-0.005491,1.006015,-0.032463
9148856401,-0.009708,-0.915845,0.188736,-0.010556,1.008238,-0.033948
9148858903,-0.131517,-0.915573,0.128017,-0.010599,1.005327,-0.031049
9148861405,-0.131600,-0.915414,0.188722,-0.012787,1.004619,-0.031068
9148863908,-0.070697,-0.854494,0.249309,-0.014235,1.002463,-0.034720
9148866411,0.051358,-0.733130,0.188364,-0.017140,1.002488,-0.035468
9148868912,0.173373,-0.672742,0.127546,-0.015656,1.006106,-0.035446
9148871415,0.295184,-0.795126,0.127813,-0.014962,1.002469,-0.034725
9148873917,0.294898,-0.977738,0.249603,-0.012787,1.001001,-0.035441
9148876419,0.233706,-1.099159,0.371260,-0.019342,0.998157,-0.037679
9148878922,0.172843,-1.099103,0.310548,-0.018632,0.995973,-0.037680
9148881424,0.172926,-1.099262,0.249842,-0.017905,0.995244,-0.038404
9148883926,0.172886,-1.160238,0.249968,-0.014992,0.993774,-0.040568
9148886429,0.111983,-1.221159,0.189382,-0.014256,0.996666,-0.038373
9148888935,0.051037,-1.220944,0.189375,-0.012069,0.996650,-0.039084
9148891434,-0.009786,-1.159910,0.128536,-0.010653,0.993005,-0.037631
9148893936,0.051037,-1.220944,0.189375,-0.010655,0.991557,-0.039089
9148896438,0.111940,-1.160023,0.249962,-0.007728,0.993711,-0.039061
9148898940,0.172843,-1.099103,0.310548,-0.004823,0.993685,-0.038313
9148901443,0.172966,-1.038285,0.249716,-0.004864,0.988605,-0.038329
9148903945,0.173089,-0.977467,0.188884,-0.005592,0.987887,-0.039064
9148906448,0.112349,-0.916593,0.067339,-0.006288,0.989352,-0.041972
9148908950,0.112309,-0.977569,0.067466,-0.007751,0.986466,-0.044173
9148911452,0.051323,-1.038331,0.067585,-0.004863,0.989329,-0.037600
9148913954,0.051077,-1.159967,0.189249,-0.001976,0.986402,-0.037588
9148916459,0.111983,-1.221159,0.189382,-0.002694,0.990030,-0.034674
9148918959,0.051200,-1.099149,0.128417,-0.002609,0.995127,-0.041200
9148921461,-0.009582,-0.977139,0.067452,-0.001148,0.995840,-0.041187
9148923964,-0.070405,-0.916106,0.006613,0.001007,0.993642,-0.039724
9148926466,-0.070322,-0.916265,-0.054093,0.001763,0.996541,-0.040436
9148928969,-0.009417,-0.977456,-0.053959,0.001079,1.000181,-0.042611
9148931471,0.051529,-0.977672,-0.053952,-0.000416,0.995836,-0.041909
9148933973,0.051406,-1.038490,0.006880,-0.002586,0.998030,-0.041191
9148936476,0.051203,-1.221261,0.067964,-0.004009,0.999501,-0.044104
9148938978,0.051000,-1.404032,0.129049,-0.000367,0.999473,-0.044805
9148941480,0.050920,-1.525986,0.129302,0.000364,0.998021,-0.046985
9148943983,0.111948,-1.526360,0.068603,0.001828,0.997289,-0.049157
9148946485,0.234043,-1.344019,0.007532,-0.000363,0.998027,-0.046990
9148948987,0.295070,-1.222281,0.007287,-0.000397,0.995120,-0.045546
9148951489,0.295193,-1.161463,-0.053545,-0.000401,0.991500,-0.049192
9148953992,0.295112,-1.283416,-0.053293,0.001053,0.990040,-0.050640
9148956494,0.233923,-1.526949,0.007912,0.003235,0.990022,-0.050624
9148958996,0.233763,-1.770856,0.008417,0.002505,0.987856,-0.052817
9148961499,0.233683,-1.892809,0.008670,0.004633,0.984200,-0.049178
9148964001,0.172654,-1.892435,0.069369,0.006057,0.982730,-0.046264
9148966504,0.050885,-1.831187,0.008523,0.004600,0.981293,-0.047733
9148969006,-0.009941,-1.648042,0.008137,0.006760,0.979096,-0.046997
9148971529,-0.070806,-1.525873,0.007877,0.006773,0.977654,-0.050636
9148974015,-0.009943,-1.525929,0.068589,0.006056,0.977664,-0.052096
9148976512,-0.010066,-1.586747,0.129421,0.008228,0.977642,-0.050626
9148979014,-0.131998,-1.647294,0.129534,0.008212,0.976913,-0.049174
9148981516,-0.192984,-1.708055,0.129653,0.003111,0.977674,-0.047028
9148984019,-0.253970,-1.768817,0.129773,0.005312,0.980558,-0.046276
9148986521,-0.253887,-1.768975,0.069067,0.009691,0.980528,-0.048425
9148989023,-0.314790,-1.829896,0.008481,0.006783,0.982000,-0.046988
9148991526,-0.375611,-1.890975,-0.112811,0.004583,0.983458,-0.042638
9148994029,-0.436514,-1.951895,-0.173397,0.003892,0.989267,-0.041171
9148996530,-0.375568,-1.952110,-0.173390,0.003914,0.991446,-0.041891
9148999033,-0.253882,-2.013200,-0.051838,0.000994,0.990742,-0.041187
9149001535,-0.254048,-2.012882,0.069573,-0.003372,0.994396,-0.036846
9149004037,-0.254171,-2.073700,0.130405,-0.004076,1.001647,-0.031740
9149006540,-0.315117,-2.073485,0.130398,-0.001107,1.005263,-0.036068
9149009042,-0.375939,-2.012452,0.069559,-0.002559,1.003829,-0.038264
9149011544,-0.314911,-2.012826,0.008860,-0.005516,1.001664,-0.033931
9149014046,-0.193019,-2.013256,0.008874,-0.004736,1.003849,-0.039007
9149016549,-0.132236,-2.135266,0.069840,-0.002515,1.007463,-0.040434
9149019051,-0.193222,-2.196028,0.069959,-0.004728,1.011088,-0.031715
9149021553,-0.254248,-2.317766,0.070205,-0.008366,1.014736,-0.027369
9149024056,-0.254371,-2.378584,0.131037,-0.006876,1.015461,-0.031717
9149026558,-0.193588,-2.500594,0.192002,-0.006156,1.013281,-0.033173
9149029061,-0.132765,-2.561627,0.252841,-0.009799,1.016203,-0.028828
9149031563,-0.132640,-2.622921,0.131556,-0.009775,1.019830,-0.028090
9149034065,-0.071734,-2.684113,0.131690,-0.007578,1.019818,-0.030255
9149036568,-0.010745,-2.745464,0.071118,-0.008313,1.017650,-0.031721
9149039070,-0.010828,-2.745305,0.131823,-0.011245,1.015495,-0.031022
9149041572,-0.010951,-2.806123,0.192655,-0.014158,1.013346,-0.033231
9149044075,-0.011114,-2.927917,0.253613,-0.014159,1.011898,-0.034690
9149046577,0.171683,-2.989540,0.253761,-0.014187,1.009717,-0.033243
9149049079,0.354644,-2.929368,0.192950,-0.013432,1.011892,-0.034684
9149051581,0.537605,-2.869195,0.132139,-0.014116,1.014809,-0.037588
9149054084,0.598428,-2.930228,0.192977,-0.014854,1.014087,-0.036869
9149056586,0.598225,-3.113000,0.254062,-0.013440,1.008995,-0.036874
9149059089,0.597979,-3.234636,0.375726,-0.015648,1.003937,-0.039087
9149061591,0.597938,-3.295612,0.375853,-0.017112,1.000327,-0.042017
9149064093,0.597981,-3.356748,0.315273,-0.010587,0.998819,-0.040520
9149066596,0.537038,-3.478645,0.254814,-0.006205,1.000237,-0.041210
9149069098,0.597861,-3.539678,0.315653,-0.008423,0.995176,-0.041969
9149071600,0.597698,-3.661473,0.376611,-0.007014,0.990081,-0.041248
9149074103,0.719469,-3.844833,0.377004,-0.002678,0.987141,-0.040499
9149076605,0.658609,-3.966889,0.255839,0.001671,0.986376,-0.039015
9149079107,0.597952,-3.906173,0.073589,0.000174,0.984201,-0.035398
9149081609,0.415114,-3.905528,0.073568,0.001623,0.983464,-0.035390
9149084112,0.354045,-3.966131,0.134393,0.003076,0.982004,-0.036838
9149086614,0.353797,-3.965654,0.316510,0.007375,0.976878,-0.033187
9149089116,0.353757,-4.026631,0.316636,0.011717,0.974664,-0.032435
9149091619,0.414660,-3.965711,0.377222,0.015345,0.974630,-0.030955
9149094121,0.353840,-4.026790,0.255930,0.016810,0.975346,-0.031669
9149096624,0.292896,-4.148686,0.195471,0.016869,0.978262,-0.036748
9149099126,0.353682,-4.392808,0.195983,0.018329,0.978976,-0.036735
9149101628,0.353685,-4.514921,0.135531,0.020497,0.978953,-0.034538
9149104131,0.292578,-4.758613,0.136029,0.021230,0.979673,-0.034531
9149106633,0.231592,-4.819374,0.136149,0.024117,0.977470,-0.033789
9149109135,0.170483,-4.940954,0.197100,0.026308,0.980350,-0.031583
9149111638,0.109415,-5.001556,0.257925,0.017596,0.986940,-0.026538
9149114140,0.048429,-5.062318,0.258045,0.022746,0.994157,-0.026478
9149116642,0.109334,-5.123510,0.258178,0.024974,0.989814,-0.038106
9149119144,0.170240,-5.184702,0.258311,0.022735,0.988363,-0.031585
9149121647,0.170200,-5.245679,0.258438,0.020557,0.988383,-0.032327
9149124149,0.109174,-5.367416,0.258684,0.022076,0.992013,-0.037394
9149126651,0.109220,-5.550664,0.137652,0.025001,0.991995,-0.039553
9149129154,0.048153,-5.733379,0.138024,0.019137,0.992750,-0.032324
9149131656,0.108979,-5.916525,0.138410,0.016284,0.998583,-0.033781
9149134159,0.108899,-6.038478,0.138663,0.022117,1.001436,-0.032275
9149136661,0.108733,-6.038161,0.260074,0.022122,1.001437,-0.033002
9149139163,0.047744,-5.976810,0.320646,0.014150,1.001513,-0.037422
9149141666,0.108567,-6.037843,0.381485,0.014134,1.000784,-0.035971
9149144168,0.169393,-6.220989,0.381871,0.017041,0.998588,-0.038137
9149146670,0.230261,-6.465270,0.321678,0.016323,0.997874,-0.040325
9149149172,0.169401,-6.587326,0.200513,0.011219,0.995740,-0.041096
9149151675,0.108292,-6.708905,0.261465,0.017725,0.986264,-0.046167
9149154178,0.230021,-6.831130,0.322437,0.026494,0.994892,-0.041714
9149156680,0.290884,-6.831186,0.383149,0.007554,0.993588,-0.039676
9149159182,0.291007,-6.770368,0.322317,-0.004104,0.999466,-0.030293
9149161684,0.230267,-6.709494,0.200773,0.006093,0.997217,-0.034587
9149164187,0.108252,-6.769881,0.261591,-0.000444,0.992931,-0.041191
9149166689,0.047349,-6.830802,0.201005,-0.007041,0.988624,-0.039072
9149169191,0.108212,-6.830858,0.261717,0.001615,0.984908,-0.032477
9149171694,0.108255,-6.891994,0.201138,0.006718,0.986318,-0.032436
9149174196,0.108051,-7.074765,0.262223,0.002389,0.987090,-0.036827
9149176698,0.046902,-7.257321,0.323301,-0.006346,0.990778,-0.031791
9149179200,0.046905,-7.379434,0.262848,-0.013625,0.991559,-0.030388
9149181703,-0.014121,-7.501172,0.263094,-0.008571,0.988609,-0.028179
9149184205,-0.014078,-7.562307,0.202515,-0.012263,0.984276,-0.025312
9149186708,0.046868,-7.562522,0.202522,-0.016594,0.987219,-0.026788
9149189210,0.046702,-7.562205,0.323933,-0.010746,0.990076,-0.027463
9149191713,-0.075150,-7.500798,0.323792,-0.004188,0.987133,-0.032513
9149194215,-0.136098,-7.378470,0.384238,-0.014415,0.984305,-0.029689
9149196717,-0.197044,-7.378255,0.384231,-0.019502,0.988690,-0.025351
9149199219,-0.196921,-7.317437,0.323399,-0.018757,0.990862,-0.025339
9149201721,-0.196838,-7.317596,0.262694,-0.007866,0.990766,-0.022351
9149204224,-0.135850,-7.378947,0.202122,-0.010053,0.990782,-0.021640
9149206726,-0.074944,-7.440138,0.202255,-0.015100,0.995182,-0.023118
9149209229,-0.136056,-7.439606,0.323659,-0.012882,1.000243,-0.022358
9149211731,-0.318896,-7.316848,0.384091,-0.015043,1.001716,-0.023824
9149214234,-0.318773,-7.256030,0.323259,-0.022313,1.005395,-0.020231
9149216736,-0.196718,-7.134666,0.262315,-0.028121,1.002552,-0.025371
9149219238,-0.013798,-7.135470,0.201630,-0.028142,1.001820,-0.023193
9149221740,0.108257,-7.014106,0.140685,-0.022337,1.002491,-0.020240
9149224243,0.108255,-6.891994,0.201138,-0.026661,1.003266,-0.025358
9149226745,0.047392,-6.891937,0.140426,-0.030283,1.003301,-0.027565
9149229247,-0.013677,-6.952540,0.201251,-0.028895,0.996751,-0.025395
9149231750,-0.074583,-6.891348,0.201117,-0.028862,0.999658,-0.026839
9149234252,-0.013680,-6.830428,0.261703,-0.029541,1.006918,-0.025368
9149236755,0.108172,-6.891835,0.261844,-0.031739,1.006931,-0.023203
9149239257,0.230066,-7.014378,0.201405,-0.026666,1.003264,-0.024631
9149241759,0.230026,-7.075354,0.201531,-0.032486,1.006929,-0.020301
9149244261,0.230066,-7.014378,0.201405,-0.035401,1.006951,-0.019595
9149246764,0.169075,-6.830915,0.322430,-0.040484,1.006272,-0.021815
9149249266,0.108166,-6.647610,0.382749,-0.040467,1.007726,-0.022538
9149251768,0.108164,-6.525498,0.443202,-0.031780,1.001126,-0.023948
9149254271,0.169150,-6.464737,0.443083,-0.029621,0.998205,-0.023942
9149256773,0.169273,-6.403919,0.382251,-0.031103,0.996760,-0.021776
9149259275,0.108367,-6.342727,0.382117,-0.031880,0.992405,-0.019615
9149261778,0.108450,-6.342885,0.321412,-0.032612,0.988067,-0.023995
9149264280,0.108533,-6.343044,0.260706,-0.036975,0.985209,-0.027671
9149266782,0.169601,-6.282442,0.199881,-0.036202,0.994627,-0.023274
9149269285,0.108613,-6.221091,0.260453,-0.033307,0.994598,-0.021072
9149271787,0.108736,-6.160273,0.199621,-0.031159,0.990950,-0.020341
9149274289,0.108776,-6.099296,0.199495,-0.031910,0.988052,-0.020356
9149276792,0.108816,-6.038320,0.199369,-0.033400,0.988051,-0.015278
9149279294,0.230705,-5.916638,0.259835,-0.024707,0.982178,-0.016686
9149281796,0.169799,-5.855446,0.259702,-0.025366,0.989445,-0.018122
9149284299,0.109016,-5.733436,0.198736,-0.025404,0.986537,-0.015951
9149286801,-0.073741,-5.610837,0.198463,-0.019596,0.985761,-0.015184
9149289303,-0.134650,-5.427533,0.258782,-0.018164,0.982846,-0.015182
9149291807,-0.073707,-5.305635,0.319242,-0.013713,0.988632,-0.020947
9149294310,-0.012763,-5.183739,0.379702,-0.021698,0.990151,-0.021728
9149296812,0.048306,-5.123136,0.318877,-0.019504,0.991584,-0.021707
9149299314,-0.012517,-5.062103,0.258038,-0.017328,0.995183,-0.016591
9149301817,-0.073423,-5.000911,0.257904,-0.020979,0.995931,-0.013708
9149304319,-0.073340,-5.001070,0.197199,-0.023146,1.000296,-0.010802
9149306821,-0.134286,-5.000854,0.197192,-0.019475,1.003898,-0.011491
9149309323,-0.195109,-4.939821,0.136353,-0.021634,1.002477,-0.016600
9149311826,-0.134203,-5.001013,0.136486,-0.019448,1.001737,-0.018040
9149314328,-0.073217,-4.940251,0.136367,-0.023056,1.005395,-0.018055
9149316831,-0.012068,-4.757696,0.075289,-0.025968,1.007589,-0.015162
9149319333,0.110190,-4.453560,-0.046740,-0.022395,0.999576,-0.015161
9149321835,0.171256,-4.270845,-0.047113,-0.028861,1.004724,-0.021008
9149324337,0.232119,-4.270901,0.013600,-0.028905,1.001090,-0.018839
9149326840,0.231910,-4.209448,0.195590,-0.022376,0.998859,-0.018798
9149329342,0.292936,-4.087710,0.195344,-0.015085,0.999529,-0.020196
9149331844,0.293057,-3.904780,0.194965,-0.021615,1.001760,-0.020237
9149334347,0.232234,-3.843747,0.134126,-0.022344,1.000318,-0.021701
9149336849,0.110385,-3.904452,0.073533,-0.020878,1.001034,-0.022415
9149339351,0.171208,-3.965485,0.134372,-0.023076,1.001046,-0.020250
9149341854,0.292934,-3.965598,0.255797,-0.023111,0.996691,-0.020264
9149344356,0.414740,-3.843757,0.376969,-0.019418,1.001024,-0.023131
9149346858,0.353957,-3.721747,0.316004,-0.025290,0.994539,-0.023194
9149349361,0.293217,-3.660873,0.194460,-0.025308,0.992361,-0.023201
9149351863,0.171491,-3.660760,0.073035,-0.025312,0.993083,-0.021745
9149354366,0.110668,-3.599727,0.012196,-0.028243,0.992376,-0.019588
9149356868,0.049760,-3.416423,0.072515,-0.033304,0.993152,-0.023258
9149359370,0.110620,-3.294367,0.193680,-0.035455,0.994629,-0.026177
9149361873,0.110617,-3.172255,0.254133,-0.035520,0.989539,-0.022558
9149364375,0.171520,-3.111335,0.314719,-0.036303,0.985183,-0.019670
9149366877,0.171641,-2.928404,0.314340,-0.040655,0.987394,-0.018968
9149369380,0.171804,-2.806610,0.253381,-0.044280,0.985257,-0.023363
9149371882,0.232913,-2.685030,0.192430,-0.041382,0.983782,-0.023346
9149374384,0.233036,-2.624212,0.131598,-0.040649,0.983778,-0.024068
9149376887,0.172253,-2.502202,0.070633,-0.041382,0.983782,-0.023346
9149379389,0.111344,-2.318898,0.130952,-0.042842,0.983792,-0.022630
9149381891,0.050439,-2.257707,0.130819,-0.040662,0.980878,-0.025531
9149384393,-0.010507,-2.257491,0.130812,-0.038451,0.984489,-0.025503
9149386896,-0.132399,-2.257061,0.130798,-0.041366,0.984511,-0.024798
9149389398,-0.193265,-2.134892,0.130538,-0.040669,0.983770,-0.021160
9149391901,-0.132159,-1.891201,0.130039,-0.043579,0.983794,-0.021182
9149394403,0.050839,-1.647939,0.129555,-0.042807,0.988147,-0.022616
9149396905,0.233961,-1.343860,0.068238,-0.039163,0.989567,-0.021858
9149399408,0.173301,-1.161032,-0.053559,-0.036952,0.992454,-0.022560
9149401910,0.051612,-0.977830,-0.114658,-0.039154,0.993188,-0.018939
9149404412,-0.131105,-0.794255,-0.115058,-0.039108,0.998271,-0.019649
9149406915,-0.313946,-0.671497,-0.054626,-0.040564,0.997559,-0.020389
9149409417,-0.313948,-0.549385,0.005826,-0.038381,0.997541,-0.020373
9149411919,-0.313785,-0.427590,-0.055132,-0.038345,0.998278,-0.024732
9149414430,-0.191773,-0.245090,-0.055497,-0.039775,0.998299,-0.028378
9149416924,-0.130667,-0.001399,-0.055996,-0.034701,1.000422,-0.023245
9149419427,-0.130630,0.181690,0.004330,-0.031044,1.004742,-0.021024
9149421929,-0.191495,0.303859,0.004071,-0.028846,1.004730,-0.023189
9149424431,-0.191455,0.364836,0.003944,-0.028841,1.004731,-0.023915
9149426934,-0.130344,0.364303,-0.117460,-0.028850,1.001834,-0.026106
9149429436,-0.069355,0.302952,-0.178032,-0.031759,1.002581,-0.025398
9149431938,-0.069272,0.302794,-0.238738,-0.028166,0.998193,-0.023931
9149434441,-0.069272,0.302794,-0.238738,-0.026707,0.997459,-0.025377
9149436943,-0.008166,0.546485,-0.239236,-0.021583,0.998877,-0.028242
9149439445,0.052858,0.790336,-0.179029,-0.020157,0.995960,-0.027514
9149441948,0.053015,1.156355,-0.119082,-0.020897,0.993790,-0.028253
9149444450,-0.007810,1.339500,-0.119468,-0.018710,0.993050,-0.029693
9149446952,-0.068716,1.400692,-0.119602,-0.020190,0.993053,-0.026069
9149449454,-0.068590,1.339398,-0.240886,-0.020927,0.993779,-0.023892
9149451957,-0.007645,1.339183,-0.240880,-0.016554,0.992299,-0.026772
9149454459,-0.007727,1.339341,-0.180174,-0.012943,0.990813,-0.024569
9149456962,-0.007853,1.400636,-0.058889,-0.017327,0.991565,-0.020964
9149459464,0.053216,1.461238,-0.119714,-0.019534,0.991573,-0.017346
9149461966,0.053216,1.461238,-0.119714,-0.015856,0.996625,-0.017303
9149464468,0.053259,1.400103,-0.180293,-0.013684,0.995879,-0.016562
9149466971,0.114207,1.277776,-0.240739,-0.014453,0.990804,-0.016584
9149469473,0.114247,1.338752,-0.240866,-0.014458,0.990079,-0.016586
9149471976,-0.007647,1.461295,-0.180427,-0.014416,0.996607,-0.015111
9149474479,-0.068516,1.705576,-0.120234,-0.012939,0.998775,-0.015821
9149476980,-0.068395,1.888506,-0.120613,-0.015151,0.994439,-0.016578
9149479483,-0.129258,1.888562,-0.181326,-0.016607,0.993727,-0.017317
9149481985,-0.129175,1.888403,-0.242031,-0.016605,0.995175,-0.015859
9149484487,-0.129258,1.888562,-0.181326,-0.023863,0.996688,-0.016635
9149486990,-0.068272,1.949324,-0.181445,-0.026793,0.992362,-0.018851
9149489492,-0.068275,2.071436,-0.120992,-0.026062,0.990910,-0.021031
9149491994,-0.068195,2.193389,-0.121245,-0.027485,0.992381,-0.023944
9149494497,-0.068032,2.315184,-0.182203,-0.029688,0.991667,-0.021782
9149497017,-0.067912,2.498114,-0.182583,-0.026799,0.990912,-0.019582
9149499512,-0.067871,2.559091,-0.182709,-0.026089,0.988729,-0.019584
9149502002,-0.007091,2.559194,-0.061291,-0.033366,0.987340,-0.021095
9149504505,-0.007008,2.559035,-0.121997,-0.037719,0.988103,-0.021852
9149507007,-0.067954,2.559250,-0.122004,-0.038434,0.991009,-0.020394
9149509509,-0.067997,2.620385,-0.061424,-0.034779,0.993157,-0.020361
9149512012,-0.068203,2.559726,0.060113,-0.033306,0.996046,-0.019614
9149514514,-0.068080,2.620544,-0.000719,-0.031834,0.997488,-0.020325
9149517016,-0.128820,2.681419,-0.122263,-0.028904,0.998196,-0.022483
9149519518,-0.189480,2.864246,-0.244061,-0.028920,0.996742,-0.021760
9149522021,-0.128374,3.107938,-0.244559,-0.029665,0.994570,-0.021773
9149524523,0.054544,3.229246,-0.244791,-0.028938,0.994565,-0.021767
9149527026,0.115490,3.229031,-0.244784,-0.028915,0.996744,-0.022487
9149529528,0.054504,3.168269,-0.244665,-0.027450,0.997460,-0.023201
9149532030,-0.006608,3.168802,-0.123261,-0.026730,0.999622,-0.019554
9149534533,-0.128459,3.230209,-0.123401,-0.028160,1.003985,-0.018097
9149537035,-0.067596,3.230153,-0.062688,-0.027409,1.006882,-0.018083
9149539537,0.054296,3.229722,-0.062675,-0.023050,1.006121,-0.018053
9149542040,0.054255,3.168746,-0.062548,-0.020889,1.004648,-0.016588
9149544542,0.054461,3.229405,-0.184086,-0.021642,1.003921,-0.013688
9149547044,-0.128213,3.351845,-0.245065,-0.020915,1.003915,-0.013682
9149549546,-0.128090,3.412663,-0.305897,-0.018710,1.001734,-0.019489
9149552049,-0.067310,3.412765,-0.184479,-0.017258,0.999551,-0.021666
9149554551,0.054499,3.412494,-0.123759,-0.020179,1.002465,-0.016589
9149557054,0.176513,3.472881,-0.184577,-0.018720,1.001731,-0.018035
9149559556,0.237500,3.533643,-0.184697,-0.013652,0.998062,-0.018736
9149562058,0.298608,3.655222,-0.245648,-0.016576,0.998804,-0.015847
9149564561,0.298526,3.655381,-0.184943,-0.018734,1.002449,-0.015125
9149567063,0.237580,3.655596,-0.184950,-0.013641,1.003132,-0.014358
9149569565,0.176348,3.473199,-0.063166,-0.007867,0.998726,-0.012876
9149572067,0.176348,3.473199,-0.063166,-0.007172,0.995813,-0.011426
9149574570,0.237457,3.594778,-0.124118,-0.008661,0.992194,-0.010721
9149577072,0.298523,3.777493,-0.124490,-0.010115,0.988588,-0.015105
9149579575,0.237657,3.899661,-0.124750,-0.007178,0.990745,-0.016531
9149582077,0.237617,3.838685,-0.124623,-0.002872,0.987070,-0.012149
9149584579,0.176714,3.777764,-0.185209,-0.002877,0.987068,-0.011422
9149587082,0.176594,3.594835,-0.184830,-0.000634,0.992138,-0.014297
9149589584,0.115608,3.534073,-0.184711,0.000818,0.989954,-0.016474
9149592086,0.054499,3.412494,-0.123759,0.002245,0.987761,-0.015017
9149594589,0.054378,3.229563,-0.123380,0.002226,0.988478,-0.011380
9149597091,0.054298,3.107610,-0.123127,-0.002143,0.988512,-0.010685
9149599593,0.054421,3.168428,-0.183959,0.000771,0.987766,-0.012120
9149602095,-0.006485,3.229620,-0.184093,0.005863,0.987724,-0.012083
9149604598,-0.067430,3.229835,-0.184100,0.005146,0.988458,-0.012812
9149607100,-0.006688,3.046849,-0.123008,0.003672,0.989187,-0.009186
9149609603,-0.067711,2.802998,-0.183215,0.003628,0.985552,-0.007017
9149612105,-0.128654,2.681101,-0.243674,0.003634,0.986278,-0.007015
9149614607,-0.189517,2.681157,-0.304387,0.003648,0.989901,-0.004822
9149617110,-0.250629,2.681690,-0.182983,-0.000013,0.987028,-0.004858
9149619612,-0.250632,2.803802,-0.122530,-0.005111,0.986343,-0.004898
9149622114,-0.250592,2.864779,-0.122656,-0.008020,0.986367,-0.004919
9149624616,-0.250552,2.925756,-0.122783,-0.009494,0.987096,-0.001293
