Timestamp (us),Gyroscope X (deg/s),Gyroscope Y (deg/s),Gyroscope Z (deg/s),Accelerometer X (g),Accelerometer Y (g),Accelerometer Z (g)
4883442810,-0.256360,0.039668,0.051349,0.998486,0.003871,0.037539
4883462855,0.209813,0.123347,0.026666,0.999719,0.008054,0.035332
4883482901,0.217066,0.123029,0.041599,0.998772,0.010688,0.033710
4883502948,0.231514,0.130309,0.026003,0.999047,0.013964,0.033972
4883522993,0.307196,0.114810,0.016802,0.997958,0.014236,0.034353
4883543038,0.234981,0.197809,-0.134710,0.996960,0.014235,0.034733
4883563084,0.282006,0.174788,-0.035997,0.996134,0.011140,0.034299
4883583129,0.121863,0.029761,0.021105,0.995956,0.014052,0.034751
4883603175,-0.009882,0.037163,-0.060392,0.996186,0.014238,0.037288
4883623221,-0.154235,0.044656,-0.026903,0.997979,0.013510,0.035443
4883643264,-0.184109,0.059795,-0.011102,0.998695,0.012153,0.039428
4883663310,-0.000390,0.120632,-0.014816,1.000172,0.009792,0.040133
4883683355,0.314465,0.113001,0.078314,0.997801,0.012882,0.040531
4883703401,0.106149,0.234345,0.005382,0.999429,0.013792,0.039685
4883723446,0.037066,0.279178,-0.008627,0.998270,0.016241,0.036523
4883743492,-0.263192,0.194490,-0.124712,0.993452,0.016692,0.037785
4883763537,-0.313873,-0.026597,-0.008077,0.995132,0.013604,0.039486
4883783583,-0.075175,-0.094654,0.063865,0.997077,0.009151,0.040640
4883803628,0.144323,-0.094702,-0.062634,0.997865,0.006519,0.043536
4883823674,0.205829,-0.086758,-0.017928,0.996094,0.003337,0.046295
4883843719,0.566548,0.012842,0.104530,0.996797,0.003427,0.044830
4883863766,0.710127,-0.040413,0.101646,0.995342,0.008611,0.045482
4883883812,1.027908,-0.063344,0.034216,0.995249,0.009976,0.045481
4883903857,1.233390,-0.100878,0.137050,0.994486,0.013156,0.043946
4883923903,1.337352,-0.161418,0.150063,0.995437,0.013980,0.046016
4883943948,1.242069,-0.260026,0.136596,0.997928,0.017616,0.042700
4883963994,1.154551,-0.076803,0.106708,0.996817,0.014429,0.041725
4883984039,1.296928,-0.106976,0.118986,0.997374,0.013976,0.042170
4884004084,1.056473,-0.000345,0.092365,0.996647,0.015158,0.042453
4884024129,0.854830,-0.099360,0.073510,0.997777,0.017429,0.039525
4884044174,0.671602,0.076176,0.183066,0.996034,0.017334,0.039101
4884064219,0.499176,-0.114641,0.049152,0.997185,0.015431,0.041899
4884084265,0.339965,-0.083736,0.174168,0.992881,0.011329,0.041071
4884104310,0.183855,-0.175121,0.039577,0.995063,0.010240,0.040491
4884124356,0.341802,-0.289087,-0.054764,0.995878,0.010877,0.040113
4884144401,0.222429,-0.204239,0.130498,0.999467,0.012241,0.036782
4884164447,0.305353,-0.249447,0.113503,1.001275,0.013697,0.035841
4884184492,0.120148,-0.127174,0.040040,1.001820,0.016973,0.035917
4884204538,-0.072463,-0.134714,-0.032604,1.000704,0.018980,0.039836
4884224583,-0.131819,0.056191,0.044379,1.000639,0.017345,0.041111
4884244630,-0.271347,0.177351,-0.090853,0.997918,0.015059,0.037167
4884264676,-0.469355,0.131268,-0.086642,0.996430,0.012416,0.035562
4884284721,-0.628576,0.016669,-0.090558,0.998177,0.013967,0.036256
4884304767,-0.473628,0.077645,-0.062961,0.997213,0.008510,0.038097
4884324812,-0.259028,0.008888,-0.081977,0.993690,0.007963,0.040155
4884344858,-0.059052,-0.082266,-0.039516,0.996565,0.008690,0.037654
4884364903,-0.019584,-0.005847,0.020574,0.996427,0.010969,0.040194
4884384947,0.011389,-0.036164,0.042933,0.997329,0.008967,0.039456
4884404992,0.079378,0.009494,0.003252,0.998584,0.008967,0.038164
4884425038,0.254955,-0.043695,0.007598,0.996701,0.009241,0.040102
4884445084,0.330322,-0.058838,-0.009087,0.997049,0.009603,0.039188
4884465129,0.490921,-0.149874,0.049157,0.997437,0.011508,0.035637
4884485175,0.428566,-0.149545,0.050213,0.997435,0.011872,0.035546
4884505220,0.632851,-0.103503,0.000123,1.002237,0.015060,0.033643
4884525266,0.463450,0.109876,0.010279,1.004130,0.021346,0.037595
4884545311,0.179451,0.269350,-0.007618,0.998241,0.019514,0.035157
4884565357,-0.120439,0.237832,-0.100960,0.995216,0.018053,0.034484
4884585402,-0.501419,0.214430,-0.062743,0.993656,0.015593,0.033970
4884605449,-0.392158,0.137982,0.004267,0.997886,0.013328,0.035354
4884625495,-0.583314,0.160266,-0.075993,0.997033,0.014424,0.038635
4884645540,-0.450922,0.144815,-0.009615,0.997027,0.013696,0.038273
4884665586,-0.595560,0.121416,-0.044836,0.997839,0.010784,0.037538
4884685631,-0.386242,0.037712,0.043152,0.996073,0.009323,0.035846
4884705676,-0.555140,0.098227,-0.060748,0.995343,0.008876,0.040670
4884725722,-0.470249,-0.016308,-0.084758,0.997039,0.007965,0.038555
4884745766,-0.231691,0.021980,-0.051145,0.997663,0.008419,0.037727
4884765812,-0.000597,-0.069183,0.028829,0.995718,0.010151,0.041297
4884785857,0.136947,0.037658,0.033256,0.996350,0.012153,0.041011
4884805902,0.090859,0.068011,0.034081,0.999399,0.009522,0.042688
4884825948,0.127764,0.029546,-0.027669,0.998096,0.008699,0.041350
4884845993,0.463990,0.022108,0.004090,0.998263,0.008334,0.040531
4884866039,0.409097,0.021988,-0.010170,0.994704,0.009785,0.040770
4884886084,0.605403,0.029361,-0.082697,0.997149,0.009877,0.039639
4884906130,0.841606,0.029488,-0.026084,0.998508,0.011789,0.039159
4884926175,0.772265,0.105733,0.058999,0.999146,0.015156,0.039324
4884946221,0.656236,0.113164,0.084018,0.996211,0.016424,0.038737
4884966268,0.469145,0.112426,-0.034760,0.995861,0.017790,0.039648
4884986313,0.415048,0.036157,-0.002896,0.995772,0.018882,0.039829
4885006359,-0.005765,-0.017235,0.020745,0.996116,0.020700,0.038822
4885026404,-0.280365,-0.002012,0.033606,0.994711,0.018602,0.036852
4885046450,-0.418037,-0.070686,-0.009423,0.995412,0.018327,0.035207
4885066495,-0.684922,-0.101113,-0.049837,0.995458,0.014502,0.032580
4885086540,-0.645055,-0.116083,-0.050366,0.999514,0.011054,0.034332
4885106585,-0.834331,0.021223,-0.054652,0.999753,0.009422,0.037235
4885126630,-0.480256,0.059333,-0.015760,0.999494,0.010970,0.038145
4885146676,-0.509962,0.165747,-0.038318,0.996580,0.010056,0.038559
4885166721,-0.508779,0.165363,-0.045871,0.996466,0.009053,0.037292
4885186767,-0.424435,0.035413,-0.100314,0.996538,0.008878,0.041104
4885206812,-0.246618,0.058323,-0.034925,0.994891,0.008694,0.040951
4885226858,-0.306246,-0.101586,0.020311,0.996306,0.011338,0.043464
4885246903,-0.053470,0.073778,0.007141,0.996840,0.012339,0.042818
4885266948,-0.169372,-0.093979,-0.058747,0.995391,0.009699,0.043301
4885286994,0.093483,-0.093472,0.081356,0.994502,0.010147,0.039775
4885307039,0.206702,-0.085651,0.025478,0.996360,0.010425,0.041467
4885327086,0.283425,-0.047250,0.069572,0.996277,0.012154,0.042011
4885347132,0.306627,-0.115505,0.130208,0.998336,0.014064,0.039884
4885367177,0.344486,-0.084702,0.151887,0.997742,0.015159,0.042344
4885387223,0.371474,-0.023965,-0.001813,0.998095,0.017706,0.041880
4885407268,-0.203938,0.074711,-0.090237,0.997898,0.023337,0.036609
4885427314,-0.583299,0.036603,0.016701,0.997187,0.018971,0.037354
4885447359,-0.642940,0.112656,0.017579,0.997585,0.017336,0.038984
4885467409,-0.740653,0.005776,0.019860,0.996595,0.016063,0.039729
4885487449,-0.732610,-0.085773,-0.063993,0.996025,0.010874,0.038204
4885507494,-0.807163,0.043847,-0.062784,0.996086,0.009961,0.036571
4885527540,-0.605598,-0.077886,-0.005017,0.996221,0.009420,0.038839
4885547585,-0.709449,-0.031867,0.073226,0.999682,0.010607,0.038415
4885567631,-0.532923,-0.001418,0.016137,1.000790,0.008335,0.038854
4885587676,-0.317806,0.051898,0.011694,0.998141,0.008331,0.038899
4885607722,-0.056178,0.029057,0.075435,0.997867,0.009786,0.038992
4885627767,-0.057837,0.051733,-0.016363,0.997639,0.011146,0.036633
4885647813,-0.056170,0.143072,0.059600,0.997675,0.010513,0.038540
4885667858,0.286300,0.089356,-0.015670,0.997408,0.011059,0.038907
4885687904,0.432809,0.089456,0.103698,0.994697,0.009602,0.040408
4885707951,0.690385,0.020665,0.052791,0.998316,0.006602,0.038354
4885727996,0.849281,0.005496,0.064875,0.995859,0.009510,0.039026
4885748041,0.693697,-0.025160,0.021996,0.994050,0.011875,0.040143
4885768087,0.860524,-0.070707,0.056995,0.997754,0.010876,0.037903
4885788133,0.690247,-0.032420,0.059994,0.999616,0.013065,0.039864
4885808178,0.734777,0.020932,0.074006,0.995043,0.022239,0.035297
4885828223,0.236611,-0.062969,0.091367,0.994601,0.027144,0.031484
4885848267,-0.590721,-0.245922,0.000859,0.990520,0.038861,0.024090
4885868313,-1.537168,-0.359916,-0.048961,0.988135,0.039402,0.023586
4885888358,-2.190279,-0.686432,-0.050391,0.994441,0.023507,0.032491
4885908404,-2.680764,-0.692500,-0.025245,0.992897,0.027682,0.028335
4885928449,-3.227259,-0.744885,-0.014384,0.998505,0.021035,0.020171
4885948495,-3.991597,-0.767918,0.000524,0.996079,0.041489,0.013824
4885968540,-5.255092,-0.791367,-0.104785,1.005351,0.047148,0.016652
4885988586,-6.569839,-0.738332,-0.087092,1.002985,0.036509,0.021340
4886008631,-7.756306,-0.685483,-0.163584,0.998829,0.038582,0.014145
4886028677,-8.920025,-0.708855,-0.247905,0.992045,0.050480,0.008704
4886048722,-10.809966,-0.930533,-0.317475,0.994220,0.070853,0.004185
4886068769,-13.068188,-0.954347,-0.464613,0.993505,0.084319,0.005899
4886088815,-15.680712,-0.902388,-0.757957,1.006633,0.091623,0.009839
4886108860,-19.258856,-0.523304,-1.186483,1.009748,0.104647,0.016028
4886128906,-23.318689,0.053781,-1.621604,1.016104,0.101386,0.018648
4886148951,-27.810640,0.562646,-1.849434,1.012021,0.120506,0.031032
4886168997,-32.264626,0.629507,-2.076530,1.019415,0.138093,0.041589
4886209086,-43.962479,0.610190,-2.476078,0.975119,0.211881,0.031782
4886229132,-50.178207,0.418067,-2.446525,0.973027,0.179464,0.015713
4886249177,-55.820839,-0.361704,-2.838774,0.981522,0.167094,0.010051
4886269223,-61.549435,-0.493020,-2.933497,0.998626,0.151845,0.015232
4886289268,-67.694382,-0.670619,-3.218665,0.993276,0.164660,0.013214
4886309314,-74.251808,-0.901621,-3.480369,0.994821,0.190939,0.004701
4886329359,-80.953751,-1.079219,-3.701238,0.993060,0.189089,-0.011333
4886349404,-87.596840,-1.188520,-4.053382,0.997957,0.189795,-0.027758
4886369450,-94.375809,-1.190944,-4.311548,0.991512,0.207605,-0.034213
4886389495,-101.341309,-1.567210,-4.725320,0.985229,0.197109,-0.048432
4886409541,-107.959541,-2.156336,-4.954085,0.981919,0.170245,-0.060949
4886429588,-114.056244,-2.752734,-5.093607,0.988614,0.171605,-0.069144
4886449633,-119.783508,-3.188689,-5.103287,0.997751,0.160485,-0.089162
4886469679,-125.802628,-2.969544,-5.208822,1.031957,0.168065,-0.100923
4886489724,-131.185547,-1.874676,-5.681125,1.023705,0.166612,-0.092973
4886509770,-136.123444,-2.005368,-5.600157,1.012487,0.149168,-0.122256
4886529815,-141.231339,-1.398158,-6.068531,1.011355,0.157227,-0.143129
4886549861,-146.523666,-1.065450,-6.578261,1.031577,0.125919,-0.167477
4886569905,-151.031128,-0.724266,-6.812874,1.005495,0.122155,-0.165483
4886589950,-154.928360,-1.030830,-7.103021,0.998183,0.076610,-0.192879
4886609996,-157.642044,-1.145784,-7.065264,1.021882,0.064688,-0.215686
4886630041,-159.537369,-0.133664,-7.475061,1.033853,0.057560,-0.191549
4886650086,-161.358688,-0.760219,-7.964894,1.010925,0.032953,-0.198017
4886670132,-161.788773,-0.072770,-7.248183,1.021110,0.024957,-0.200900
4886690178,-163.563156,0.207645,-7.711379,1.019245,0.060193,-0.234787
4886710223,-166.159668,-0.044119,-7.530254,0.975514,0.098019,-0.260430
4886730268,-171.029617,-1.029376,-7.890963,0.975392,0.165449,-0.301662
4886750314,-177.324799,-1.283862,-8.448051,0.997942,0.171915,-0.316491
4886770359,-182.800095,-2.795256,-8.864037,0.984879,0.125048,-0.314556
4886790406,-187.123505,-3.513176,-9.029922,1.006840,0.083116,-0.329658
4886810452,-189.634567,-3.377096,-9.210894,1.033639,0.051215,-0.334600
4886830497,-191.122543,-3.332382,-9.472545,1.014357,0.004339,-0.333104
4886850543,-190.560120,-3.461222,-9.230861,1.020127,-0.050514,-0.335654
4886870593,-188.843903,-3.216451,-9.043375,0.975130,-0.095843,-0.312298
4886890634,-186.299744,-5.022038,-9.086732,0.965884,-0.083857,-0.317516
4886910679,-184.154663,-6.111618,-9.239349,0.994326,-0.092191,-0.321074
4886930723,-181.354691,-5.834351,-8.316498,1.018443,-0.083288,-0.296082
4886950769,-179.873993,-6.365730,-7.594599,1.004072,-0.045810,-0.285642
4886970814,-178.765137,-6.797781,-6.720627,1.109707,-0.041890,-0.317134
4886990860,-177.485245,-3.190642,-5.832856,1.047317,-0.044344,-0.263959
4887010905,-176.929337,-2.071587,-6.420477,1.050132,0.010967,-0.266278
4887030951,-176.551849,-1.369055,-5.864674,1.059982,-0.062585,-0.300819
4887050996,-175.099503,0.407816,-5.524340,1.034212,-0.045468,-0.271178
4887071042,-173.523468,0.559780,-5.899293,1.015583,-0.057604,-0.276559
4887091087,-171.793991,0.369930,-5.809957,1.009778,-0.069957,-0.260554
4887111133,-170.306335,0.110810,-5.983148,0.991755,-0.074782,-0.247802
4887131178,-168.394470,-0.857406,-6.353246,0.985727,-0.090704,-0.243860
4887151225,-165.761887,-1.686012,-5.767331,1.013293,-0.112345,-0.260815
4887171271,-163.142715,-1.449520,-5.964128,0.998219,-0.088024,-0.230279
4887191316,-160.937042,-1.181742,-5.770935,1.003261,-0.085715,-0.214574
4887211361,-159.480759,-0.815113,-5.586452,1.030841,-0.071746,-0.209167
4887231414,-158.210907,-0.015547,-6.003469,1.011761,-0.045735,-0.197265
4887251452,-157.583298,-0.770700,-6.364640,0.995110,-0.051693,-0.208772
4887271498,-156.496246,-0.593978,-5.874344,1.006543,-0.063412,-0.208675
4887291548,-155.324219,-1.324930,-5.726540,1.019781,-0.079332,-0.219768
4887311587,-154.011902,-1.309700,-5.881960,1.007466,-0.060819,-0.183732
4887331633,-152.882034,-1.826810,-5.535373,1.004591,-0.059736,-0.185954
4887351678,-152.395142,-1.705072,-5.675131,1.039607,-0.041966,-0.197746
4887371724,-152.275040,-0.814741,-6.253534,1.006644,-0.017067,-0.185878
4887391769,-152.442108,-0.593647,-6.197539,1.013649,-0.044354,-0.189039
4887411815,-152.347763,-0.151309,-6.070937,1.005543,-0.037548,-0.192271
4887431860,-152.518860,0.054023,-6.236413,0.999469,-0.039637,-0.185083
4887451906,-152.325287,-0.798097,-5.648940,0.979377,-0.046871,-0.195077
4887471951,-151.809677,-1.430016,-5.442881,0.997476,-0.062509,-0.205073
4887491997,-150.685501,-1.795461,-5.417629,1.002845,-0.088134,-0.193139
4887512042,-148.930237,-2.038277,-5.168147,0.974234,-0.092247,-0.179936
4887532089,-147.055450,-2.540516,-5.065309,1.028377,-0.104395,-0.201354
4887552135,-144.447495,-1.434778,-5.066104,1.035270,-0.148920,-0.177523
4887572180,-141.034073,-0.634288,-5.333681,1.027060,-0.164265,-0.153574
4887592226,-137.370148,0.562295,-5.714417,1.045356,-0.178784,-0.148143
4887612271,-133.004959,1.622610,-5.787368,1.083018,-0.188371,-0.147226
4887632317,-128.528061,2.865458,-6.031205,1.015391,-0.182192,-0.095157
4887652362,-124.045425,2.210593,-6.314685,0.993609,-0.183874,-0.102408
4887672406,-119.457062,1.725221,-5.828994,1.003900,-0.178957,-0.108583
4887692452,-115.000145,1.368175,-5.853157,0.990155,-0.150115,-0.094508
4887712497,-110.977249,0.759775,-5.768722,0.988067,-0.150372,-0.084123
4887732543,-105.863808,0.191388,-4.994926,1.008508,-0.192799,-0.068334
4887752588,-101.966782,0.542657,-5.140487,1.029183,-0.059657,-0.005000
4887772634,-101.696404,1.593704,-5.447249,1.037321,0.034317,0.040185
4887792679,-103.113602,2.743644,-5.637539,1.010526,0.030042,0.062526
4887812725,-103.276962,2.690887,-5.366743,0.981324,-0.005723,0.027771
4887832770,-104.885651,1.455566,-5.491885,0.913320,0.096020,-0.051032
4887852815,-108.582047,-0.976756,-5.595457,0.922837,0.057829,-0.101058
4887872861,-111.343498,-2.127341,-5.201819,0.971479,0.003648,-0.067847
4887892908,-112.269585,-2.379180,-5.244142,1.019720,0.000893,-0.018737
4887912953,-112.634003,-2.180813,-5.107826,1.026885,-0.010002,-0.012396
4887932999,-112.927635,-1.259233,-5.311516,1.051972,0.004646,-0.032638
4887953045,-113.332863,-0.047707,-5.353535,1.040082,0.010953,-0.057409
4887973099,-114.665184,0.820404,-5.491044,1.022453,0.039561,-0.070228
4887993135,-116.416130,1.383835,-5.512434,1.008432,0.034996,-0.068075
4888013181,-117.944504,1.032002,-5.878960,1.000419,0.037625,-0.066581
4888033229,-119.801537,0.582026,-5.810863,0.969088,0.039126,-0.066503
4888053271,-121.707184,-0.386504,-5.877640,0.973866,0.029631,-0.089899
4888073316,-123.231392,-1.285466,-5.569980,0.951005,0.024574,-0.101302
4888093361,-126.123207,-2.574295,-5.616556,0.963620,0.066750,-0.132179
4888113407,-129.845825,-3.048623,-5.970663,0.995755,0.054041,-0.143599
4888133452,-132.991440,-2.881234,-5.726787,1.033270,0.046979,-0.155211
4888153498,-135.766129,-2.082732,-6.134093,1.056044,0.049398,-0.143712
4888173543,-138.874161,-0.850556,-6.811465,1.030183,0.065571,-0.133584
4888193589,-140.880524,-0.675239,-6.566798,1.011866,0.029039,-0.148190
4888213634,-142.850784,-0.463081,-6.865496,1.006736,0.011072,-0.169496
4888233680,-143.909698,-1.218270,-7.048754,0.960371,-0.015633,-0.159492
4888253727,-144.352081,-2.727075,-6.935808,0.957418,-0.024283,-0.161606
4888273772,-144.591675,-3.389449,-6.630937,0.974405,-0.035913,-0.167323
4888293818,-144.186798,-4.250485,-6.620644,0.978524,-0.059627,-0.153737
4888313863,-143.124771,-4.805590,-6.219124,0.985269,-0.073985,-0.150561
4888333917,-141.587311,-5.093678,-5.751303,0.999606,-0.089531,-0.156589
4888353954,-139.750961,-4.772958,-5.688665,1.021033,-0.101157,-0.164197
4888374000,-137.435303,-4.390467,-5.337517,1.009387,-0.087372,-0.126894
4888394044,-136.064774,-4.298406,-5.234513,1.053306,-0.068203,-0.126585
4888414089,-135.066040,-2.957333,-5.441751,1.054841,-0.014697,-0.119347
4888434135,-135.064056,-1.669239,-5.377306,1.060882,-0.008782,-0.123182
4888454180,-134.975006,-0.793227,-5.557703,1.033285,-0.021197,-0.124597
4888474226,-134.541321,-0.289452,-5.269780,1.040393,-0.031850,-0.135866
4888494271,-133.802399,0.190472,-5.438545,1.026110,-0.040392,-0.118724
4888514317,-132.935059,0.449239,-5.685479,1.014606,-0.058952,-0.109873
4888534362,-130.871155,0.365905,-5.709967,1.003622,-0.079432,-0.107473
4888554408,-128.515182,0.221883,-5.648223,1.012057,-0.093536,-0.116399
4888574453,-125.813736,0.201055,-5.089258,1.003218,-0.103837,-0.120770
4888594498,-122.800476,0.240063,-5.048518,0.975971,-0.095102,-0.097353
4888614544,-120.768562,-0.376884,-5.131741,0.988083,-0.073269,-0.107672
4888634591,-118.775337,-0.764301,-4.825263,0.994877,-0.076250,-0.101156
4888654637,-116.979744,-0.565846,-4.898973,1.000475,-0.075131,-0.089997
4888674682,-115.163818,-0.558232,-5.109988,1.010044,-0.087649,-0.077340
4888694727,-110.349884,-0.602061,-4.851746,1.014461,-0.326920,-0.036894
4888714773,-95.764702,-0.176474,-3.775998,1.026743,-0.563622,0.009041
4888734818,-77.811554,-0.025814,-3.330154,0.958837,-0.373566,-0.029877
4888754864,-70.639366,-0.520164,-3.719847,1.041405,-0.116749,0.058612
4888774908,-64.893677,1.282228,-2.736969,1.009656,-0.183249,0.085680
4888794954,-59.120544,0.788514,-2.694519,1.013187,-0.171189,0.060454
4888814999,-52.413506,1.446856,-2.207898,1.016000,-0.200184,0.072256
4888835044,-45.819920,1.921449,-2.069970,1.007483,-0.166089,0.068350
4888855090,-38.927692,1.695110,-1.882014,0.984270,-0.157754,0.068187
4888875136,-31.381182,1.309486,-1.446414,0.984599,-0.176573,0.074840
4888895181,-23.799803,1.113945,-1.203159,0.979031,-0.181650,0.089286
4888915226,-16.668676,0.682164,-0.904532,0.973517,-0.175383,0.087917
4888935272,-9.798071,0.082592,-0.630858,0.981643,-0.161577,0.069146
4888955318,-4.156586,-0.166530,-0.265727,0.976497,-0.139859,0.059122
4888975363,0.631119,-0.552715,0.246332,0.980039,-0.097839,0.050912
4888995410,3.615088,-0.917424,0.373039,0.987356,-0.046357,0.039990
4889015455,5.135680,-1.160990,0.329061,0.995073,-0.016773,0.044167
4889035501,6.284331,-1.236656,0.429288,1.002382,-0.013933,0.049303
4889055546,7.345902,-0.779308,0.346035,1.012428,-0.020370,0.053681
4889075592,8.217507,-0.542848,0.335976,0.998851,-0.012405,0.041372
4889095637,8.331409,-0.641984,0.295889,1.002654,0.011847,0.016757
4889115683,8.039781,-0.306908,0.224018,1.015941,0.012763,0.009358
4889135727,8.154428,-0.070652,0.213365,1.004473,-0.013015,0.000246
4889155772,9.458133,0.067369,0.424493,0.996262,-0.007104,0.006004
4889175818,10.105672,-0.054689,0.297713,1.009461,-0.005070,0.013401
4889195864,10.510960,0.044491,0.297160,0.999236,0.008779,0.033977
4889215909,10.259068,0.151163,0.316975,0.990274,0.017161,0.048550
4889235954,9.886499,-0.054416,0.439511,0.986500,0.030717,0.052677
4889256000,9.021617,-0.214791,0.395695,0.983638,0.042737,0.061511
4889276045,8.142316,-0.542704,0.406208,0.985707,0.036030,0.074014
4889296091,7.376360,-0.741215,0.337675,0.990822,0.042414,0.079272
4889316136,6.540275,-0.871333,0.193862,0.993225,0.039617,0.090311
4889336182,5.984234,-0.894069,0.311707,0.992360,0.017338,0.096354
4889356229,6.077000,-0.992976,0.371368,0.987973,0.002484,0.085560
4889376274,7.556145,-1.235979,0.572719,0.969070,-0.084920,0.060973
4889396320,10.250290,-2.918990,0.785854,0.920091,0.010187,-0.031397
4889436411,2.155329,-8.308470,1.090777,0.874059,0.036308,0.014189
4889456456,1.623311,-14.479678,1.908715,0.822296,0.034507,0.015619
4889476502,0.662255,-20.226358,1.816591,1.052539,0.000699,-0.104809
4889496569,0.048446,-20.234421,1.698624,1.033579,-0.008315,-0.093577
4889516591,1.002174,-20.172472,2.008494,1.075114,-0.042500,-0.116469
4889536637,1.790784,-17.337353,1.968470,1.090468,-0.023419,-0.090528
4889556682,2.808508,-14.206011,1.479810,1.080837,-0.036240,-0.078905
4889576728,3.104159,-9.809326,1.184343,1.108501,-0.030651,-0.079204
4889596773,3.596612,-5.025203,0.341225,1.088820,-0.005555,-0.070196
4889616819,3.478122,-1.154597,-0.005586,1.041280,0.013122,-0.066420
4889636864,3.041411,0.864559,-0.126097,1.019582,0.015310,-0.098098
4889656909,2.802155,1.633859,-0.276845,1.000626,0.030654,-0.099707
4889676955,1.885054,2.029924,-0.268009,0.977125,0.020262,-0.092027
4889697001,1.626835,0.962241,-0.557461,0.984285,-0.001967,-0.115805
4889717046,2.284219,0.696676,-0.133770,0.997392,-0.010521,-0.128541
4889737093,2.350150,0.521052,-0.287294,1.000015,0.007958,-0.123896
4889757138,2.883370,1.214387,-0.422212,1.041991,-0.025011,-0.128189
4889777184,3.859052,2.593541,-0.636772,1.017854,-0.046304,-0.111220
4889797229,4.283266,2.548411,-0.430893,0.994295,-0.009888,-0.128036
4889817275,3.443539,2.318756,-0.772982,1.016754,0.019861,-0.146261
4889837320,2.894352,3.560894,-0.743537,1.017707,-0.009729,-0.160570
4889857366,3.161394,4.178140,-0.796622,1.009698,-0.003849,-0.173243
4889877410,3.342606,4.863722,-0.947608,1.000910,-0.010770,-0.169814
4889897455,4.054388,5.708870,-1.361589,1.036432,-0.002747,-0.189315
4889917501,3.595284,7.805285,-1.031077,1.042068,0.026382,-0.184103
4889937546,2.251578,8.986334,-0.963087,1.012958,0.032298,-0.157927
4889957592,0.610944,8.962461,-1.206265,0.983383,0.021331,-0.162397
4889977637,0.271423,8.161833,-1.349840,1.004072,0.004400,-0.185325
4889997683,0.644482,8.124618,-1.013090,0.996364,-0.029434,-0.174698
4890017728,1.019691,7.644709,-0.965283,0.997010,-0.008888,-0.182823
4890037774,0.766940,6.973995,-0.965787,0.987919,0.037950,-0.182473
4890057819,-0.936625,5.868781,-0.844995,0.962995,0.050132,-0.166454
4890077865,-2.252688,4.351856,-0.844973,0.965950,0.035534,-0.141335
4890097911,-3.422022,3.300000,-0.780574,1.010209,0.013708,-0.174098
4890117957,-4.617919,3.224061,-0.527873,1.003536,0.014980,-0.169448
4890138002,-5.927541,2.735727,-0.630739,0.975318,0.036172,-0.148304
4890158048,-8.107275,2.209255,-0.647822,0.991254,0.055968,-0.130272
4890178093,-10.529952,1.896312,-0.576846,0.991150,0.064692,-0.135277
4890198139,-12.539821,1.713016,-0.514312,0.998764,0.032300,-0.145248
4890218184,-14.791479,1.590991,-0.294460,1.013508,0.047371,-0.122830
4890238229,-16.760044,2.215860,-0.090230,1.046031,0.039785,-0.118198
4890258274,-18.781967,3.336058,0.105744,1.050904,0.030134,-0.126798
4890278320,-20.557064,5.377671,-0.034720,1.123589,-0.004469,-0.154487
4890298365,-21.520781,11.068768,-0.676849,1.248428,-0.051708,-0.168520
4890318410,-21.601240,21.705225,-1.696446,1.441991,-0.053790,-0.168186
4890338456,-21.178658,39.854267,-3.492036,1.246222,-0.092010,0.353282
4890358501,-17.694109,14.252600,-1.854429,0.043594,-0.022440,0.458822
4890378547,-15.657540,5.241623,-0.114056,0.892890,-0.016015,0.094383
4890398592,-20.898581,2.442097,-0.637278,0.722920,0.285709,-0.041564
4890418638,-29.188286,-1.608706,-1.425760,1.066410,0.036707,-0.438712
4890438683,-30.886034,-0.647061,-0.631873,1.115657,-0.189211,-0.447074
4890458730,-28.525246,0.526870,-0.773287,0.982767,-0.188532,-0.208153
4890478776,-23.965176,-0.875631,-1.399646,1.046571,-0.263348,-0.074131
4890498821,-17.474606,-0.995921,-1.441133,0.958053,-0.328398,0.101325
4890518866,-10.204634,-2.578178,-1.034390,0.929508,-0.277142,0.199222
4890538912,-5.188530,-2.577776,-1.437383,1.011862,-0.056974,0.191461
4890558958,-5.130165,-0.323496,-2.095544,1.048244,0.026371,0.168915
4890579003,-5.896258,0.301963,-1.777103,0.988130,0.040094,0.159478
4890599049,-6.507769,0.934308,-1.790267,1.000475,0.061179,0.137174
4890619093,-6.960803,0.430995,-1.879139,0.975089,0.040515,0.150895
4890639138,-6.981619,-0.208844,-1.739059,0.997600,0.034041,0.123470
4890659183,-6.436329,0.027848,-1.612882,1.008268,0.019111,0.160441
4890679229,-7.027624,0.119793,-1.334263,0.998695,0.061555,0.198024
4890699275,-7.262536,-0.084753,-0.786481,1.018526,-0.017177,0.261724
4890719320,-6.522504,2.338502,-0.961737,1.128373,-0.004904,0.425772
4890739366,-4.499703,6.446960,-0.869479,0.966505,-0.069035,0.615731
4890759411,-1.391809,4.367916,-0.594281,0.810562,-0.047825,0.440885
4890779457,0.169714,1.548046,-0.821512,0.918990,0.032561,0.227391
4890799502,-0.514167,2.187531,-1.031973,1.067611,0.059813,0.132219
4890819548,-2.898555,2.720462,-0.987480,0.991760,0.077556,0.145919
4890839594,-4.274068,1.860085,-0.491797,0.981884,0.021035,0.190481
4890859640,-4.131410,0.862512,-0.177944,0.995926,0.019390,0.174449
4890879685,-3.734359,0.649180,-0.200221,0.992520,0.025669,0.178309
4890899731,-3.193752,0.520479,0.103017,0.964303,0.000659,0.206337
4890919776,-2.337108,-0.355591,0.150442,0.935691,0.010385,0.225237
4890939822,-1.891141,-1.246726,0.320509,0.946466,0.009814,0.254194
4890959867,-1.221798,-1.407027,0.132301,0.960065,0.019528,0.283357
4890979911,-0.991480,-1.551630,0.189445,0.985391,0.027193,0.275378
4890999957,-1.232921,-0.880686,0.344725,0.983075,0.046318,0.289457
4891020002,-1.273234,-1.170540,0.239492,0.964574,0.029455,0.285715
4891040048,-0.635821,-0.949016,0.386857,0.981706,0.006475,0.291906
4891060093,0.375599,-0.658892,0.496170,0.977106,0.011346,0.324475
4891080139,2.023526,-0.628435,0.295980,1.013658,-0.012584,0.343227
4891100184,4.028113,0.545810,0.329588,1.030104,-0.009012,0.343667
4891120230,5.498316,1.399966,0.420479,1.011237,-0.008623,0.321566
4891140275,6.875554,1.766237,0.461309,1.009426,-0.009858,0.293186
4891160321,7.894004,1.949599,0.540275,1.009539,-0.005440,0.270300
4891180366,8.674498,1.805101,0.579101,0.990410,0.015148,0.250077
4891200413,8.791433,1.706360,0.707065,0.977619,0.009471,0.239865
4891220459,8.962417,1.356230,0.873025,0.953610,0.012175,0.245626
4891240504,8.931800,0.799933,0.890754,0.943371,0.012415,0.235451
4891260550,9.223758,0.076262,0.994479,0.951041,-0.005159,0.219645
4891280595,10.065965,-0.281518,1.071025,0.967541,-0.013102,0.241708
4891300641,10.263288,-0.319757,0.990909,0.964085,0.020336,0.273756
4891320686,9.251708,-0.648004,0.874084,0.962641,0.081262,0.312441
4891340730,7.289762,-0.946319,0.630414,0.934836,0.072907,0.343975
4891360775,5.955258,-1.953095,0.438058,0.929509,0.089379,0.299739
4891380821,4.294007,-2.990176,0.359125,0.966609,0.086648,0.319808
4891400867,2.880933,-2.815103,0.431810,1.000486,0.117269,0.374554
4891420912,1.039710,-2.861132,0.513539,0.967777,0.095234,0.338747
4891440957,-0.082735,-3.082227,0.604829,1.010847,0.103669,0.288343
4891461003,-1.380794,-2.510823,0.681604,0.992205,0.075619,0.286166
4891481048,-1.203572,-2.426775,0.754300,1.005742,0.026163,0.293824
4891501094,0.343465,-1.831642,0.875129,1.009304,0.003266,0.306964
4891521139,2.138842,-1.762761,0.794213,0.972060,0.017820,0.284790
4891541185,3.044734,-2.365040,0.595245,0.947307,0.038749,0.256945
4891581277,1.153997,-4.209952,0.538737,0.971806,0.058593,0.191135
4891601322,-0.188859,-4.530992,0.283129,0.997123,0.037291,0.161508
4891621368,-1.016057,-3.937015,0.182581,1.033930,0.027271,0.175240
4891641413,-1.028399,-2.412568,0.292367,1.043972,0.014135,0.198420
4891661459,-1.535206,-0.987983,0.121705,1.011295,0.055520,0.221694
4891681505,-2.955166,-0.798565,-0.187597,1.007244,0.096726,0.222512
4891701548,-3.967199,-0.235291,-0.360870,1.035851,0.014892,0.169781
4891721594,-4.441592,0.313201,-0.399340,1.017874,0.015891,0.131869
4891741639,-4.650460,0.762430,-0.549612,1.031010,0.012542,0.130743
4891761685,-5.187757,1.371643,-0.686402,1.003369,0.017790,0.137832
4891781730,-5.675205,1.622236,-1.014001,0.984248,0.036453,0.161638
4891801776,-6.049191,1.111660,-0.959196,0.969776,0.041367,0.174404
4891821821,-5.832837,0.868161,-0.825037,0.989880,0.043283,0.160442
4891841867,-6.050812,1.752549,-0.647999,1.004921,0.029728,0.148225
4891861912,-6.284216,1.669133,-0.444514,0.954949,0.037255,0.124010
4891881958,-6.582213,1.105173,-0.413930,0.982760,0.064915,0.103701
4891902003,-6.966210,0.792415,-0.497135,0.979958,0.050977,0.094694
4891922050,-6.782377,0.762026,-0.477676,0.952771,0.011735,0.098854
4891942095,-6.133210,-0.501879,-0.050503,0.940859,0.013625,0.096966
4891962141,-5.813724,-2.101285,0.338337,0.968132,0.068581,0.078889
4891982187,-7.025483,-2.559310,0.149414,0.970847,0.092667,0.064460
4892002232,-8.492894,-3.115910,0.202666,0.980253,0.046942,0.076086
4892022277,-9.660573,-3.687469,0.341848,0.985383,0.066180,0.044013
4892042323,-10.846920,-3.428856,0.264668,1.027543,0.040566,0.084096
4892062367,-11.636449,-2.583469,0.124345,1.064826,0.052475,0.100234
4892082413,-12.037351,-0.435072,-0.134838,1.077770,0.044129,0.103114
4892102458,-12.185273,1.820163,-0.361078,1.040748,0.039276,0.115917
4892122503,-12.484452,2.559128,-0.441788,1.049956,0.047590,0.076621
4892142549,-13.249700,3.731377,-0.942819,1.002603,0.047344,0.079426
4892162595,-13.656946,3.578600,-1.049030,0.987522,0.027817,0.058292
4892182640,-13.683170,2.168405,-1.181373,0.945434,-0.004086,0.057429
4892202685,-12.913519,0.881431,-0.855798,0.979837,0.001014,0.031688
4892222731,-11.971666,1.255262,-0.791263,1.008802,0.007417,0.027734
4892242776,-11.097002,1.057761,-0.616541,0.970691,-0.005634,0.035487
4892262822,-9.897133,0.364562,-0.622233,0.948461,0.008450,0.044284
4892282869,-9.219111,-0.153759,-0.740644,0.998299,0.011306,0.023187
4892302914,-8.495128,-0.252938,-0.868984,0.995415,-0.001449,0.014724
4892322960,-7.314377,0.647004,-0.719138,0.977392,-0.018384,0.021868
4892343005,-6.352910,-0.083548,-0.376215,1.034230,0.008100,-0.018997
4892363059,-5.444010,0.709086,-0.457621,1.003260,0.011703,-0.014208
4892383096,-5.238028,0.518573,-0.476267,0.993813,0.007417,-0.011680
4892403141,-5.094215,0.328906,-0.126919,1.010401,0.014890,-0.017966
4892423196,-5.014278,0.084536,-0.349259,1.004894,0.019875,-0.023963
4892443231,-5.312741,0.389234,-0.375048,1.041509,0.019456,-0.034390
4892463277,-5.629700,0.868779,-0.584455,0.977948,0.018050,-0.004619
4892483322,-6.500524,-0.167715,-0.502975,0.989764,0.015407,-0.017615
4892503367,-7.261810,-0.259926,-0.740063,0.954238,0.031940,-0.001696
4892523413,-7.995101,-1.616449,-0.652545,0.989587,0.035324,-0.020913
4892543459,-8.902217,-0.847674,-0.950802,1.008418,0.050108,-0.009549
4892563504,-9.842987,-0.779385,-0.970982,0.999940,0.032009,-0.000024
4892583549,-9.969949,-1.121943,-0.791625,0.977882,0.026912,0.016701
4892603595,-10.032215,-1.152583,-0.851446,1.001868,0.014561,0.009141
4892623640,-9.811223,-1.106898,-0.894094,0.991049,0.021837,0.017120
4892643687,-9.467380,-1.182046,-0.480236,1.017538,0.011223,0.011602
4892663733,-8.506278,-0.868659,-0.194270,0.998694,-0.000428,0.024016
4892683778,-8.227995,-1.188245,-0.015211,1.004759,0.034149,0.023220
4892703824,-8.435971,-0.868446,-0.111579,1.011716,0.063085,0.020966
4892723869,-9.823383,-1.082642,-0.297905,0.952013,0.102567,-0.033093
4892743914,-14.172635,-3.143117,-1.001363,0.908974,0.153050,-0.157262
4892763960,-16.153828,-4.949785,-0.987470,1.004085,-0.124637,-0.207170
4892784004,-9.305646,-4.701454,0.132018,1.017718,-0.273698,-0.142249
4892804049,-4.089367,-4.815124,-0.190424,1.036424,-0.006598,-0.102434
4892824095,-5.853878,-4.925038,-1.363168,0.968574,0.085663,-0.037523
4892844141,-6.917976,-6.211347,-0.543527,0.977939,0.017897,-0.092581
4892864186,-7.753974,-6.805301,-0.242594,0.934212,0.033683,-0.080515
4892884232,-9.279314,-11.734577,0.567560,0.789560,0.057051,-0.018900
4892904277,-10.497310,-19.848875,1.573390,0.762710,0.046830,-0.014431
4892924322,-10.063073,-28.122663,2.624105,0.796011,0.035170,-0.051291
4892944368,-10.234727,-35.308144,3.109845,0.825483,0.066398,-0.114209
4892964413,-10.442538,-39.391884,3.601243,1.351137,-0.003392,-0.352995
4892984459,-10.048992,-29.050514,3.436914,1.158014,-0.042339,-0.249783
4893004506,-9.513434,-23.678982,2.843172,1.195923,-0.061774,-0.158530
4893024551,-8.201857,-15.198645,1.926005,1.195994,-0.042639,-0.036921
4893044597,-6.823475,-5.241198,0.421874,1.230135,-0.031341,-0.003299
4893064642,-6.299343,4.480062,-0.957914,1.189879,0.008055,-0.018927
4893084688,-6.611347,11.450793,-1.968456,1.102780,0.014829,-0.025987
4893104733,-7.371164,16.412048,-1.878532,1.121690,0.100827,-0.025453
4893124779,-10.309846,19.482903,-1.709470,1.008564,0.117390,-0.031631
4893144824,-14.378058,19.703718,-1.325606,1.009292,0.203542,-0.031333
4893164869,-21.236666,18.900723,-1.732391,0.961277,0.209158,-0.005015
4893184914,-25.943834,14.777212,-1.436287,0.957895,0.100006,-0.045898
4893204959,-27.984007,12.422149,-1.281879,0.884073,0.019938,-0.095523
4893225005,-28.067406,8.222421,-1.518447,0.881466,-0.069622,-0.118297
4893245050,-25.629419,3.880337,-1.001113,0.899855,-0.108394,-0.143419
4893265096,-23.419491,0.634701,-0.872719,0.940786,-0.037426,-0.172557
4893285141,-23.516443,-1.278705,-1.093711,0.979499,0.033364,-0.144740
4893305186,-25.857275,-2.482507,-0.692775,0.973222,0.099362,-0.114968
4893325232,-30.223724,-3.724882,-0.260046,0.966327,0.193042,-0.121269
4893345278,-37.509487,-4.459276,-0.612921,0.975949,0.294536,-0.147382
4893365323,-45.471691,-4.188435,-1.200544,1.025529,0.258262,-0.174947
4893385370,-52.304611,-2.482983,-1.119483,1.019101,0.138210,-0.203596
4893405416,-56.569592,-0.891290,-1.095514,1.041401,0.093902,-0.225145
4893425461,-60.691059,0.860241,-1.174201,1.058647,0.075589,-0.202895
4893445507,-64.345200,2.345306,-1.192295,1.028630,0.050201,-0.129720
4893465552,-68.055656,2.283064,-1.311126,1.017630,0.105169,-0.108926
4893485598,-72.948151,2.456145,-1.690537,1.020896,0.141175,-0.122477
4893505643,-78.707199,2.545829,-1.785406,0.997511,0.126410,-0.118604
4893525687,-83.885941,2.315510,-1.913393,0.999972,0.111947,-0.119802
4893545732,-88.684647,2.725110,-2.188431,1.034374,0.122886,-0.135476
4893565778,-93.777145,4.277261,-2.683174,1.064192,0.128739,-0.142711
4893585823,-99.037354,6.553362,-3.177073,1.077905,0.090209,-0.129900
4893605869,-102.884155,9.179246,-4.165692,1.098477,0.054875,-0.116394
4893625914,-106.160057,13.070920,-4.917435,1.130054,0.017178,-0.110515
4893645960,-108.253716,17.747433,-5.855201,1.145100,-0.066680,-0.112176
4893666005,-104.699883,17.073629,-7.610677,0.448211,-0.185414,0.252755
4893686051,-96.258347,-1.967944,-3.951491,1.059267,-0.388648,-0.154840
4893706096,-88.900314,1.249163,-4.341863,0.960755,-0.088792,-0.065786
4893726142,-86.414787,0.249660,-5.120345,1.004343,-0.040045,-0.110455
4893746188,-86.723610,-0.222278,-4.845330,0.975253,0.028293,-0.127956
4893766234,-90.789314,-0.802266,-4.718659,0.998399,0.090303,-0.165945
4893786279,-94.882828,-0.483691,-4.892457,1.032699,0.019989,-0.138635
4893806325,-96.881073,-0.088315,-5.053676,1.050789,-0.030949,-0.097827
4893826370,-96.562263,0.391551,-5.199006,0.985768,-0.062768,-0.030943
4893846416,-94.752502,-0.164550,-5.308686,1.016579,-0.103480,-0.031946
4893866461,-91.764839,0.400904,-5.009394,0.995368,-0.133776,-0.015375
4893886507,-88.234093,0.355912,-5.100679,0.983270,-0.156898,-0.014132
4893906551,-84.328682,0.190089,-4.763270,0.980474,-0.172448,-0.008340
4893926596,-80.679909,-0.212594,-4.656977,0.982094,-0.170967,0.005065
4893946642,-76.263329,-0.805163,-4.366274,0.981382,-0.165499,0.011241
4893966687,-71.245575,-1.313124,-3.812424,1.010089,-0.202194,0.020072
4893986733,-63.528927,-0.883076,-3.298785,1.024597,-0.276454,0.097290
4894006778,-53.292244,-0.734708,-2.947729,0.892790,-0.221249,0.042347
4894026824,-53.062172,-5.282905,-2.325735,0.875684,0.209135,-0.311563
4894046869,-57.394440,-5.741895,-2.568726,1.109374,-0.075942,-0.176548
4894066915,-55.035297,-4.337583,-1.962013,1.022166,-0.099106,-0.084336
4894086960,-51.117302,-4.160838,-1.786459,1.028453,-0.146105,0.033464
4894107006,-46.435837,-5.141335,-1.209229,0.903711,-0.089310,0.101855
4894127052,-42.583717,-9.970787,-0.694789,0.923029,-0.076719,0.002920
4894147098,-40.073177,-12.179664,-0.468699,0.947374,-0.076394,-0.091722
4894167144,-38.628963,-14.144444,-0.024053,0.931668,-0.063599,-0.149028
4894187189,-38.757278,-13.868937,0.481855,1.153922,-0.041325,-0.239003
4894207234,-39.118069,-11.781249,0.329077,1.035488,-0.046172,-0.154731
4894227280,-38.101986,-9.959822,0.219240,1.068252,-0.089716,-0.163751
4894247325,-35.298775,-6.820852,-0.472203,1.088682,-0.101284,-0.136937
4894267369,-31.906803,-3.937837,0.117187,1.065578,-0.154474,-0.101052
4894287415,-29.250689,-0.980048,0.178063,1.079109,-0.127400,-0.132736
4894307461,-26.862097,1.883260,-1.024036,1.032404,-0.137726,-0.120303
4894327506,-23.308336,2.707003,-1.141585,0.989786,-0.133201,-0.098524
4894347551,-19.413368,2.228381,-0.948119,0.978229,-0.111626,-0.080298
4894367597,-16.245661,1.429393,-0.792965,0.997719,-0.108163,-0.092891
4894387642,-13.523580,1.155808,-0.776101,1.014957,-0.105683,-0.094097
4894407688,-10.537516,1.317175,-0.551847,0.982062,-0.095409,-0.069769
4894427733,-6.938652,0.930188,-0.245960,1.034368,-0.125937,-0.039383
4894447779,-2.183948,2.555449,0.061365,1.054237,-0.167267,-0.019955
4894467825,3.649202,5.856530,-0.093379,1.059764,-0.184663,0.015474
4894487872,10.386873,10.110694,-0.154225,1.109755,-0.166417,0.003426
4894507917,15.254792,21.746933,-1.127982,1.424730,-0.053159,-0.104802
4894527962,17.025177,27.684189,-1.105687,1.310149,0.116625,-0.096322
4894548008,14.598346,46.076645,-2.770382,1.475328,0.240271,0.034553
4894568053,9.106019,25.426708,-0.913941,-0.302717,0.138770,0.700390
4894588099,4.323947,5.362628,0.452999,0.945250,0.218285,0.129412
4894608144,2.036951,3.326281,0.053310,0.980202,0.003040,-0.162675
4894648234,-4.177599,4.604044,-0.327050,0.944236,0.040296,-0.261253
4894668279,-4.479983,1.312426,-0.019849,0.883417,-0.105432,-0.152766
4894688325,-1.038484,-0.560153,0.515639,0.973056,-0.110632,-0.131955
4894708370,1.835293,-0.711931,0.460381,0.972903,-0.083298,-0.055744
4894728416,4.850931,-2.288124,0.689846,0.949115,-0.092978,-0.004941
4894748461,7.645713,-3.057498,0.515914,0.993139,-0.056943,0.016580
4894768506,9.738312,-3.909732,0.837294,0.976261,-0.023964,0.005102
4894788552,11.373577,-3.047328,1.177123,1.071762,0.022166,-0.018662
4894808598,11.855786,-1.858360,1.163808,0.983604,0.046282,0.059962
4894828643,12.082080,-2.285438,1.008010,1.016432,0.047112,0.091083
4894848689,12.666186,-1.004673,1.129958,1.045294,0.022020,0.128305
4894868735,13.868843,-1.164086,1.259981,0.963724,-0.014794,0.213453
4894888781,16.263233,-1.773905,0.925175,0.994182,-0.045580,0.218613
4894908827,21.007950,-1.109113,1.136552,0.968912,-0.122031,0.220442
4894928872,23.449015,-2.874131,2.157223,0.846005,0.203872,0.033634
4894948917,13.090380,-5.472577,0.219627,1.069982,0.391425,-0.119735
4894968963,6.613291,-3.935135,0.110948,1.002014,0.058562,0.043924
4894989008,4.443333,-4.246966,0.627862,0.982449,0.052984,0.096100
4895009064,2.792587,-2.944231,0.624990,1.059340,0.085965,0.111710
4895029098,0.852683,-1.909097,0.284755,1.060798,0.101615,0.112476
4895049143,-1.664302,0.711432,0.110911,1.068077,0.134889,0.093597
4895069189,-4.883085,2.615672,0.052407,1.057458,0.116228,0.096078
4895089234,-7.204268,3.269819,-0.218030,0.992947,0.082693,0.117023
4895109279,-8.709207,2.713300,-0.125843,0.958539,0.003508,0.123369
4895129325,-8.715123,2.119137,-0.009129,0.959151,-0.039653,0.099829
4895149370,-7.948971,1.220345,0.108902,0.909034,-0.021131,0.068517
4895169416,-8.355483,-1.112745,-0.303364,0.929141,0.034345,-0.010077
4895189461,-11.763500,-2.813718,-0.552512,1.012059,0.076214,-0.066935
4895209507,-16.950436,-2.304936,-0.736292,1.055092,0.149353,-0.052085
4895229554,-23.155230,-1.050749,-1.422420,1.118928,0.146857,-0.023758
4895249599,-28.646854,0.791659,-1.589444,1.016389,0.093384,0.072216
4895269645,-31.797314,0.927936,-1.612822,0.963544,0.032230,0.104718
4895289690,-33.265270,0.027358,-2.001619,0.954931,-0.000985,0.106100
4895309735,-33.048294,-0.330364,-1.828885,0.952005,-0.114268,0.147551
4895329781,-29.798042,-1.288567,-1.330938,0.981280,-0.159877,0.156841
4895349827,-24.850092,-1.271865,-1.274175,1.016006,-0.210121,0.164320
4895369893,-19.008944,-0.370150,-0.901467,1.008196,-0.182976,0.139263
4895389916,-14.409750,-0.223612,-0.685540,0.990419,-0.144371,0.172636
4895409962,-11.169968,0.028457,-0.810376,1.033298,-0.078471,0.261483
4895430007,-8.519279,1.561530,-0.576540,0.996419,-0.058602,0.366019
4895450053,-6.595471,1.036850,-0.298823,0.947629,0.077999,0.227917
4895470098,-6.510937,1.593213,-0.294674,1.021094,-0.054714,0.279444
4895490144,-4.676863,3.560620,0.007052,1.011571,0.085067,0.262490
4895510189,-5.265740,3.094612,-0.407891,1.003582,0.024119,0.271079
4895530235,-2.911751,3.446647,-0.049743,1.016163,-0.062563,0.269284
4895550280,-0.311336,4.018973,-0.025693,1.001191,-0.025903,0.228265
4895570325,1.608368,3.310872,0.031111,0.958028,-0.029812,0.162195
4895590371,2.623038,2.298341,0.366300,0.958185,-0.001933,0.133370
4895610418,2.585027,1.216271,0.416489,0.898108,0.044095,0.181341
4895630463,1.359769,-1.649551,0.411598,0.900962,0.067481,0.130509
4895650509,-0.722507,-3.090689,0.319254,0.951282,0.086592,0.092309
4895670554,-2.295770,-3.319488,0.426959,1.032189,0.032104,0.131507
4895710645,-1.920881,-0.278842,0.333147,1.021572,-0.005937,0.288433
4895730691,-0.998507,0.719308,0.143814,1.026066,-0.004447,0.304058
4895750735,0.368286,2.449254,-0.018372,1.014507,-0.038749,0.362501
4895770780,3.846699,3.106466,0.355149,0.930003,-0.115068,0.332841
4895790826,7.638853,1.523416,0.821737,0.922081,-0.057681,0.225854
4895810872,7.748960,0.821780,0.592693,1.013275,0.072514,0.157997
4895830917,5.165850,1.254611,0.221095,1.032152,0.085757,0.171724
4895850962,4.132583,1.650453,0.148130,1.037264,0.037959,0.197769
4895871008,3.948171,2.115126,0.081388,0.993603,-0.006479,0.209662
4895891053,5.030921,1.788349,0.351841,0.976897,-0.019786,0.209334
4895911099,6.100400,1.742790,0.300674,1.010037,-0.004124,0.189952
4895931144,6.054538,1.979010,0.293137,0.967902,0.032245,0.161652
4895951190,5.031506,1.125455,0.407527,0.913409,0.046121,0.130513
4895971237,4.603609,-0.573958,0.482619,0.932320,-0.007215,0.151703
4895991282,6.165044,-1.045784,0.591438,0.987478,-0.031409,0.212713
4896011328,6.764124,-1.266263,0.748659,0.910830,0.003881,0.272603
4896031373,7.649927,-2.819728,1.164564,0.921075,-0.007646,0.330999
4896051418,8.395350,-3.489629,1.396856,0.927474,0.034681,0.392185
4896071464,6.595776,-4.245877,0.845901,0.942390,0.167465,0.411591
4896091509,3.300044,-4.645047,-0.005793,1.007759,0.147235,0.389177
4896111560,2.112181,-3.662699,-0.192333,1.033706,0.059367,0.374356
4896131599,3.494430,-2.975721,0.114782,1.050254,-0.012989,0.341514
4896151645,4.310983,-1.732598,0.408099,1.028052,0.022865,0.314237
4896171690,4.730898,-1.100077,0.351996,1.008564,0.029160,0.288597
4896191735,5.252546,-0.901584,0.440552,0.988996,0.013447,0.267079
4896211781,6.428905,-0.924274,0.379594,0.974460,0.010214,0.251628
4896231826,7.460245,-1.312746,0.345592,0.956780,0.004006,0.253392
4896251872,8.892349,-1.929309,0.495609,0.968576,-0.008293,0.233876
4896271917,9.723192,-2.523805,0.374486,0.970889,-0.009512,0.211053
4896291963,10.857925,-2.478363,0.123073,1.004489,-0.020862,0.195067
4896312008,13.115192,-1.615445,0.611301,0.994354,-0.074292,0.187068
4896332055,14.900072,-1.370677,0.789813,0.992951,-0.029732,0.178394
4896352101,15.472957,-1.279152,0.755467,0.997225,-0.000912,0.164566
4896372146,15.683407,-0.889938,0.964049,1.002616,-0.010548,0.164036
4896392192,16.445568,-0.333764,0.809862,1.020047,-0.032931,0.147254
4896412237,17.218361,0.375206,0.815430,1.010821,-0.012465,0.153369
4896432282,18.163387,0.757070,1.055631,1.004928,-0.017647,0.160286
4896452328,18.622164,1.205804,0.617314,1.023690,-0.019297,0.137819
4896472390,18.835100,1.495285,0.543445,0.968123,-0.007476,0.180686
4896492418,18.719597,0.969345,0.516871,0.998373,-0.039053,0.150357
4896512463,19.456345,1.381396,0.654033,0.989787,-0.025435,0.141494
4896532509,19.140820,1.236260,0.546017,0.981561,0.015222,0.143746
4896552554,18.369669,0.740873,0.623761,0.960975,-0.000716,0.150659
4896572600,18.288010,0.146782,0.780152,0.971122,0.017263,0.123041
4896592645,17.266796,-0.660814,0.993693,0.961322,0.051760,0.089745
4896612690,15.443407,-0.692259,0.792294,0.994538,0.021895,0.047289
4896632736,14.773277,-1.423640,0.968203,0.957077,-0.019623,0.058709
4896652781,14.554676,-1.972949,0.737388,0.992624,0.009428,0.046707
4896672827,14.361231,-1.767549,0.602912,1.005272,-0.027676,0.095300
4896692873,15.445990,-1.240588,0.954540,1.020947,-0.029417,0.127353
4896712919,16.456303,-0.958228,1.002769,1.020182,-0.034872,0.130007
4896732965,17.672850,0.291943,1.005566,1.024144,-0.045649,0.101998
4896753010,17.782560,0.817130,0.711314,1.025246,0.026451,0.077622
4896773056,17.483438,1.282761,1.067075,0.981987,0.018004,0.069387
4896793101,16.272575,0.802983,1.351977,0.977527,0.033614,0.051736
4896813147,15.108330,0.101332,1.262282,1.011062,0.035185,0.037908
4896833192,13.569352,1.190348,1.105125,1.027590,0.025573,0.041908
4896853236,12.753454,1.190417,1.227937,0.977550,-0.007574,0.064966
4896873282,12.361147,0.915673,1.106559,0.987494,-0.025128,0.058381
4896893327,13.247575,0.824402,1.082021,1.012661,-0.045700,0.030480
4896913373,14.129665,1.586045,0.787277,1.025500,-0.039069,0.014183
4896933418,14.677408,1.189575,0.648064,1.000272,-0.027834,0.009057
4896953464,15.255759,1.334161,0.491172,1.029987,-0.036093,-0.004508
4896973509,15.625709,2.019481,0.206620,1.030229,-0.031555,-0.010784
4896993554,15.515369,1.600897,0.462322,0.935711,0.048786,-0.029004
4897013600,11.730537,0.363391,-0.346524,0.976958,0.079634,-0.058353
4897033645,8.684252,-1.342814,0.383073,0.915704,0.054253,-0.111461
4897053691,4.531523,-1.719437,-0.505557,1.096431,0.186295,-0.134551
4897073738,-1.006291,-0.076202,-1.106585,0.979747,0.120136,-0.101860
4897093783,-5.705942,-1.060150,-0.928060,1.077085,0.039204,-0.059994
4897113828,-6.889934,1.034279,-1.362904,1.064268,-0.047064,0.040042
4897133874,-5.888001,2.329054,-1.814578,1.001947,0.008192,0.008061
4897153920,-6.065245,1.726820,-1.870265,0.957377,0.025155,-0.034327
4897173965,-6.533150,0.371071,-1.482241,0.937549,0.052773,-0.091315
4897194011,-8.186526,-0.878356,-1.117417,0.992771,0.132923,-0.083675
4897214054,-13.895508,-0.301406,-1.421197,1.047067,0.281476,0.024811
4897254145,-29.711941,0.935861,-1.722086,0.980260,0.236879,0.068781
4897274191,-36.273281,0.864379,-2.205847,0.948165,0.243957,0.033368
4897294236,-42.978306,-0.372848,-2.560676,0.955673,0.245176,-0.004525
4897314282,-49.527882,-1.190586,-2.790012,1.001425,0.272716,-0.056822
4897334327,-57.617928,-1.110009,-3.252257,1.018751,0.315830,-0.075163
4897354373,-66.399147,-0.991912,-3.884610,0.983243,0.321711,-0.063764
4897374418,-75.138863,-2.236425,-3.863709,0.986122,0.299916,-0.096639
4897394464,-83.653427,-2.628941,-4.530103,0.977025,0.334189,-0.102259
4897414509,-92.638779,-2.944958,-5.019503,1.029014,0.348929,-0.144293
4897434556,-101.342117,-2.209406,-5.594292,1.008307,0.329903,-0.134285
4897454602,-110.195267,-2.395552,-5.964427,1.007641,0.361462,-0.138593
4897474647,-118.661072,-2.086611,-6.496555,0.990322,0.342456,-0.171854
4897494692,-127.377640,-2.692968,-7.334070,0.978970,0.384983,-0.190068
4897514738,-136.305252,-4.099120,-7.973791,0.949249,0.351066,-0.208568
4897534783,-144.124802,-5.321175,-8.230628,0.989885,0.319767,-0.245157
4897554829,-151.388565,-5.049800,-8.671335,1.024209,0.336505,-0.274365
4897574873,-158.645462,-5.524326,-8.704694,0.988502,0.299068,-0.271424
4897594918,-164.236511,-5.960430,-8.793430,1.025939,0.234655,-0.305271
4897614964,-168.509338,-5.284195,-9.171258,1.011494,0.237305,-0.286329
4897635009,-173.284363,-4.660131,-8.988983,1.054320,0.256993,-0.300436
4897655055,-178.740387,-3.305757,-9.284978,1.046659,0.302574,-0.292120
4897675100,-183.362442,-2.994080,-9.089348,1.027554,0.239932,-0.306487
4897695146,-185.865967,-2.260651,-8.026897,1.110976,0.160552,-0.353711
4897715191,-187.658325,-0.669892,-8.685144,0.998603,0.226456,-0.341102
4897735237,-189.238892,-1.249183,-8.545567,1.061163,0.090602,-0.359736
4897755282,-187.753479,-0.318833,-8.462864,0.998959,0.054823,-0.323031
4897775328,-184.075455,-0.584512,-8.434011,0.968836,-0.044031,-0.279506
4897795375,-179.045929,-1.093920,-8.499343,1.113151,-0.009870,-0.321421
4897815420,-174.669418,0.994629,-8.828104,1.063483,-0.007311,-0.324936
4897835465,-171.023605,0.743970,-8.890371,1.002915,-0.050185,-0.289155
4897855511,-164.761307,1.164802,-8.891024,1.014206,-0.122244,-0.251737
4897875556,-157.503510,1.175598,-8.367085,1.035379,-0.133081,-0.224211
4897895602,-150.837982,0.682835,-8.021014,1.044095,-0.116157,-0.177365
4897915647,-143.843796,1.941825,-8.168564,1.037314,-0.205667,-0.116008
4897935692,-132.243484,2.022321,-7.667989,0.971697,-0.329138,-0.125396
4897955737,-116.603531,0.992657,-6.562014,1.000620,-0.454125,-0.144563
4897975782,-99.448982,0.815978,-5.870343,0.994394,-0.407542,-0.084167
4897995828,-86.218185,1.331515,-5.280590,1.044548,-0.124972,0.035787
4898015873,-79.454308,1.951211,-5.031828,1.008193,-0.160474,0.052987
4898035919,-69.943520,1.468940,-3.785820,0.962177,-0.221722,0.026005
4898055964,-59.884403,1.259873,-3.093904,0.960221,-0.191448,0.016093
4898076010,-50.284359,0.127590,-2.810287,0.949160,-0.180482,0.001739
4898096055,-40.233974,-0.767450,-2.154126,0.948602,-0.183876,-0.013587
4898116101,-30.673569,-1.868452,-1.525979,0.945346,-0.186541,-0.026599
4898136146,-22.153637,-2.779308,-0.939406,0.993012,-0.214041,-0.029091
4898156193,-14.384631,-2.890440,-0.470830,1.004766,-0.222644,-0.016568
4898176239,-7.413306,-2.811603,-0.147878,1.000348,-0.197509,0.002620
4898196284,-2.169280,-3.076056,0.225016,1.007293,-0.169160,0.028870
4898216330,1.976608,-2.708934,0.311458,1.002506,-0.067055,0.052657
4898236375,2.885221,-2.655511,0.240159,1.006699,0.020649,0.052712
4898256421,2.111957,-2.030984,0.161387,1.051547,0.060803,0.035722
4898276466,0.902732,-0.720762,0.050584,1.056815,0.054530,0.033737
4898296512,-0.343976,0.665750,-0.021538,1.016263,0.036491,0.052250
4898316556,-0.657837,0.536071,-0.037940,0.991951,0.005082,0.059253
4898336601,-0.018938,0.224365,0.210510,0.996901,-0.043485,0.062063
4898356647,2.628235,0.202432,0.304404,0.984797,-0.138393,0.058524
4898376692,8.336539,-0.115514,0.561487,0.983215,-0.184111,0.083318
4898396738,16.133352,0.237842,0.859866,0.993909,-0.290723,0.130608
4898416783,21.887730,-1.383144,1.173883,0.803047,0.175456,-0.105656
4898436829,8.422064,-7.903291,0.914337,0.931903,0.416188,-0.306148
4898476919,-1.362446,-7.257891,1.017993,0.919052,0.013039,0.039876
4898496965,-1.304904,-12.942125,1.440797,0.832689,-0.030257,0.064024
4898517011,0.441825,-19.640474,1.444487,0.868979,-0.114581,-0.066175
4898537057,3.759789,-20.796930,1.888290,1.213841,-0.105235,-0.315990
4898557103,5.775519,-16.757975,1.591204,1.028368,-0.023052,-0.245425
4898577148,4.182910,-14.693585,1.393632,1.111495,0.062576,-0.249527
4898597193,0.940489,-10.527193,0.793154,1.122572,0.115798,-0.152581
4898617239,-2.019172,-5.713017,0.162109,1.093565,0.077649,-0.094471
4898637285,-3.031739,-2.002613,-0.151536,1.070039,0.013476,-0.096323
4898657347,-2.729461,0.969929,-0.029752,1.045458,-0.028273,-0.123703
4898677374,-2.714286,2.111976,-0.499977,0.997921,-0.013789,-0.124914
4898697420,-3.363258,1.898554,-0.440825,0.984805,-0.006625,-0.127335
4898717465,-4.304843,1.029436,-0.473151,0.988755,-0.014707,-0.121761
4898737511,-5.196436,0.289419,-0.705555,0.990752,-0.011157,-0.122254
4898757556,-5.244852,-0.320551,-0.824848,1.002518,-0.013415,-0.123268
4898777601,-5.552671,-0.595223,-0.924941,1.005159,0.002649,-0.147033
4898797647,-6.005896,-0.709924,-1.038027,1.007583,0.001722,-0.159055
4898817692,-6.611251,-0.268279,-1.127090,1.011850,0.007565,-0.150332
4898837738,-7.925282,0.310653,-1.088237,1.014629,0.060789,-0.149833
4898857783,-9.401187,0.912232,-1.122733,1.011120,0.041219,-0.153099
4898877829,-10.668954,1.956067,-1.078683,1.016297,-0.007161,-0.147933
4898897876,-10.590880,2.893599,-1.022188,1.030567,-0.009058,-0.151804
4898917921,-10.478438,3.609649,-1.171941,0.998536,-0.010921,-0.150347
4898937967,-10.360656,3.305269,-0.989819,0.982823,-0.017669,-0.145983
4898978058,-10.919937,1.827619,-0.576691,1.003694,0.001629,-0.156992
4898998103,-11.343432,1.546160,-0.307728,0.988985,0.006810,-0.147127
4899018149,-11.963286,1.439239,-0.333551,1.001960,-0.006653,-0.157402
4899038193,-12.084410,2.033750,-0.287331,1.046541,-0.041533,-0.164096
4899058238,-11.441278,4.182971,-0.314607,1.038034,-0.049783,-0.140970
4899078284,-10.264807,6.034898,-0.435299,1.048045,-0.084155,-0.140176
4899098329,-7.943452,8.586950,-1.115438,1.082715,-0.127515,-0.149864
4899118374,-3.990885,11.909437,-1.676966,1.102711,-0.208137,-0.126106
4899138420,2.645881,14.921264,-1.777566,1.083683,-0.260090,-0.062786
4899158466,11.301319,17.599348,-1.434815,1.352521,-0.223206,-0.108191
4899178511,18.892357,31.484465,-2.423050,1.174486,-0.092255,0.064745
4899198557,18.890179,14.613751,-1.526283,0.179054,0.177401,0.383649
4899218602,14.993010,4.480928,0.225985,1.094504,0.296964,-0.001804
4899238648,7.421407,5.758836,0.062993,1.016258,0.336923,-0.080148
4899258694,-3.829922,6.432495,-0.614976,0.958048,0.301279,-0.073922
4899278740,-12.020145,0.567097,-1.758495,0.810232,0.163155,-0.122643
4899298785,-11.197124,-0.640703,-0.173381,1.059953,-0.269578,-0.266524
4899318831,-2.562137,0.697511,0.777902,1.011299,-0.381012,-0.169649
4899338876,8.649487,-0.238417,0.112620,0.953308,-0.360107,-0.080278
4899358922,20.281239,-1.644760,0.288953,0.994749,-0.348169,0.001603
4899378967,29.560009,-1.922679,0.958032,0.963735,-0.152448,0.050010
4899399011,33.832886,-2.127437,0.898727,1.019413,0.067491,0.037076
4899419057,32.769779,-1.211340,1.695733,1.013185,0.249893,0.096066
4899439102,27.466982,-0.777952,1.873601,1.015939,0.352873,0.093488
4899459148,20.146568,-0.589830,1.686439,0.999621,0.318677,0.112523
4899479193,14.372500,-0.050517,1.590366,1.004583,0.237795,0.104222
4899499239,10.902843,0.131647,1.672368,0.979642,0.139870,0.102812
4899519284,9.474957,-0.410525,1.373298,0.979000,0.029417,0.095835
4899539330,9.682783,-1.813423,1.075919,0.938526,-0.035926,0.115606
4899559375,12.511418,-2.291800,1.496394,0.985330,-0.112742,0.107946
4899579421,15.833376,-1.986617,1.262806,1.019606,-0.105875,0.104717
4899599466,18.552742,-1.468039,1.101332,0.984813,-0.040887,0.152952
4899619513,19.620892,-1.666177,0.981927,0.994644,0.029592,0.131153
4899639558,18.749611,-0.966287,0.553299,1.022559,0.099544,0.104417
4899659604,16.868813,-0.014236,0.525493,0.984692,0.140543,0.118793
4899679649,14.159002,-0.426870,0.365488,0.981274,0.137085,0.121398
4899699695,11.244785,-0.305872,0.299370,1.029961,0.147742,0.088143
4899719740,9.220922,0.554983,0.396907,0.992217,0.100707,0.118186
4899739786,7.861207,-0.717815,0.511584,0.971441,0.059367,0.113434
4899759830,7.604300,-0.839413,0.685086,1.010795,0.031631,0.086666
4899779875,8.288891,-0.588218,0.479930,1.002123,-0.013691,0.084165
4899799921,9.326267,-0.412992,0.336954,1.016049,0.002554,0.101966
4899819966,10.177538,-0.458152,0.481056,1.000823,-0.045257,0.085965
4899840012,11.222996,-0.480996,0.369149,1.010234,0.044648,0.091646
4899860057,10.740237,0.730370,0.267503,1.057940,0.071898,0.080076
4899880103,9.681463,2.262293,0.435776,1.012419,0.080358,0.117784
4899900148,7.829419,1.964379,0.350443,0.993822,0.108092,0.126316
4899920194,3.908355,2.450204,-0.018294,0.997130,0.241222,0.145284
4899940239,-2.631256,2.691005,-0.579930,0.974118,0.206849,0.172694
4899960284,-7.324383,2.500420,-0.067950,0.973589,0.135406,0.208134
4899980331,-11.387093,1.431138,-0.604514,0.948385,0.138580,0.223264
4900000377,-15.441490,0.667750,-0.691412,0.952016,0.046922,0.192127
4900020422,-16.782610,0.247872,-0.847386,1.000083,-0.032070,0.188352
4900040468,-15.300439,1.086359,-0.940069,1.013525,-0.101506,0.267487
4900060520,-11.535157,1.522180,-0.762414,0.994016,-0.146266,0.334797
4900080558,-6.953504,1.820829,-0.676559,0.959175,-0.103664,0.379075
4900100604,-3.673208,1.273070,-0.646689,0.946195,0.004170,0.356060
4900120650,-3.925182,0.754863,-0.609509,1.001836,0.069151,0.273303
4900140694,-6.193958,1.660351,-0.950572,1.034098,0.076567,0.221270
4900160739,-8.189300,2.315196,-0.959883,1.027190,0.066527,0.207879
4900180784,-9.298228,2.475883,-0.556827,0.999670,0.049479,0.210283
4900200830,-8.784636,1.958008,-0.465730,0.989034,0.018830,0.172207
4900220875,-7.295260,1.898232,-0.127642,0.981704,-0.008818,0.130439
4900240921,-5.394748,1.693554,0.118895,0.967554,-0.014595,0.115893
4900260967,-3.688418,1.374125,0.201471,0.956706,-0.020440,0.111821
4900281012,-2.243664,0.726741,0.206158,0.965413,-0.011782,0.113928
4900301058,-1.027933,0.315573,0.222143,0.958412,-0.011954,0.125394
4900321103,0.106221,-0.544889,0.394037,0.943401,-0.009488,0.143348
4900341148,0.824154,-1.230628,0.374748,0.959760,-0.001150,0.163752
4900361196,1.283500,-1.603825,0.420567,0.976195,0.015566,0.188771
4900381241,0.936636,-1.642383,0.266955,0.980485,0.050957,0.239384
4900401286,0.339064,-1.436948,0.193811,0.984688,0.054813,0.307752
4900421332,-0.259251,-1.323055,0.082778,0.997356,0.047064,0.339775
4900441377,-0.711422,-0.805131,0.005772,1.012341,0.030453,0.348715
4900461423,0.030333,-0.180051,-0.010702,1.005480,0.008135,0.337068
4900501512,1.390813,0.369906,0.366065,0.986853,0.027840,0.280345
4900521558,1.458394,0.186876,0.304231,0.996443,0.023982,0.250867
4900541603,1.831097,0.384852,0.189360,0.988429,0.007081,0.217081
4900561649,2.773499,0.034823,0.309785,0.971283,-0.004629,0.193427
4900581694,3.625229,-0.170304,0.484977,0.970810,0.002175,0.183257
4900601739,4.143902,-0.589446,0.430459,0.980863,0.030949,0.190209
4900621785,3.205922,-0.567508,0.142929,0.983718,0.059987,0.198101
4900641831,2.394207,-0.590749,0.074701,0.973123,0.030121,0.191432
4900661876,2.781386,-0.978648,0.358855,0.964405,0.013455,0.188250
4900681921,2.642426,-1.222709,0.293590,0.973516,0.017370,0.182369
4900701968,2.816663,-1.535307,0.214836,0.992347,-0.002717,0.177088
4900722014,3.849137,-1.390208,0.224884,0.993116,-0.041636,0.186399
4900742059,6.115791,-1.671103,0.426363,1.000657,-0.064166,0.197473
4900762105,8.946869,-1.601490,0.539309,0.960297,-0.079094,0.226418
4900782150,12.203553,-2.614183,0.548260,0.954556,-0.079488,0.266005
4900802196,15.097406,-2.590067,0.751836,1.016954,-0.011762,0.290246
4900822241,15.882610,-2.079596,0.604996,0.983714,0.047305,0.333199
4900842306,15.372351,-2.239498,0.722409,0.962170,0.052907,0.329381
4900862331,15.260748,-2.460117,0.901063,0.988194,0.018238,0.302488
4900882376,18.282434,-2.489587,0.987715,0.997744,-0.096938,0.239698
4900902422,23.567101,-1.900239,1.463959,1.016701,-0.082277,0.180073
4900922467,25.493488,-1.533004,1.853277,0.995443,0.005302,0.181924
4900942513,25.369370,-1.350381,1.748097,1.010802,0.019709,0.188356
4900962558,25.606812,-0.961626,1.757479,1.008422,-0.020566,0.205076
4900982603,26.498108,-0.259749,1.974732,1.015290,-0.025823,0.210505
4901002649,27.449339,0.151419,1.710379,1.005700,-0.052156,0.194372
4901022695,27.967451,0.197045,1.608476,0.982512,-0.043522,0.156717
4901042740,28.524206,0.029366,1.537099,0.982926,-0.046389,0.129936
4901062787,28.614868,0.105452,1.473955,0.989127,-0.022973,0.145405
4901082832,28.848845,0.327101,1.720845,1.023925,-0.046009,0.104908
4901102878,29.069113,0.555581,1.631754,1.005690,-0.043081,0.077708
4901122923,29.107635,0.608971,1.646112,0.977620,-0.013166,0.092661
4901142969,29.005606,0.524779,1.503185,0.996594,-0.011892,0.076813
4901163014,28.982948,0.517188,1.518932,1.010895,-0.039277,0.063270
4901183060,29.751471,0.144508,1.749787,0.957625,-0.057198,0.056401
4901203116,30.967503,-0.564806,1.369404,0.974885,-0.061253,0.012178
4901223149,32.560822,-1.394610,1.562852,0.968734,-0.070147,0.029454
4901243195,33.238213,-0.846166,1.372128,1.041872,0.028289,0.126446
4901263240,31.212265,0.227787,1.346733,1.044531,0.038403,0.185934
4901283285,29.511034,1.156514,1.101560,1.037093,0.029695,0.154122
4901303331,27.924761,2.726406,1.272301,1.051224,-0.013216,0.106294
4901323377,26.974550,3.990853,1.110777,0.968373,-0.006258,0.096802
4901343422,27.085026,2.589186,1.350184,0.957971,-0.070457,0.069126
4901363468,28.776186,1.851642,1.877650,0.983545,-0.118930,0.056334
4901383513,31.507261,1.768743,1.962478,0.996008,-0.124922,0.053227
4901403558,34.108791,0.923832,2.098205,0.932937,-0.102901,0.057080
4901423604,36.435211,-0.081161,2.247445,0.984842,-0.110087,0.014086
4901443651,37.970093,0.101886,2.132997,0.996582,-0.101538,0.002615
4901463696,39.498398,-0.019744,2.088463,0.990677,-0.112132,-0.015785
4901483741,40.913864,0.133169,2.136902,1.043488,-0.115744,-0.044367
4901503787,42.393684,0.827556,2.342761,1.070793,-0.118948,-0.078959
4901523833,44.658936,2.177229,2.408934,1.032900,-0.127546,-0.073851
4901543878,46.517757,2.162599,2.456970,0.973929,-0.063421,-0.082574
4901563924,46.446312,1.348846,3.187003,0.976288,-0.001306,-0.147623
4901583967,42.085991,0.894822,1.813606,1.042049,0.240389,-0.108659
4901604013,32.810081,0.983597,1.733492,0.991627,0.314957,-0.031216
4901624059,19.711586,0.491257,1.271001,0.991538,0.300155,0.036076
4901644104,11.856188,1.235549,1.077085,1.016445,0.028064,0.071143
4901664149,7.252439,0.844568,0.617534,1.015641,0.120375,0.004917
4901684195,0.445902,1.046291,-0.328507,0.964651,0.225844,-0.038324
4901704240,-10.016232,0.059144,-0.855790,0.925382,0.302585,-0.028251
4901724285,-21.338102,-1.591643,-1.547577,0.943025,0.279667,-0.038681
4901744331,-31.378086,-3.204326,-2.386627,0.952534,0.227111,-0.031675
4901764376,-40.588860,-3.345614,-3.086197,0.992237,0.264469,-0.031052
4901784422,-49.021690,-3.889831,-3.455654,0.981971,0.226736,-0.010934
4901804469,-55.694321,-4.105688,-3.745738,1.017563,0.276378,-0.004724
4901824514,-62.046795,-3.673858,-4.112965,1.000804,0.277806,-0.006892
4901844560,-68.426987,-3.066395,-4.327408,1.032691,0.340901,-0.056016
4901864605,-75.971832,-2.429085,-4.679823,1.035883,0.349043,-0.084951
4901884651,-82.997757,-1.927939,-4.659781,1.000922,0.349614,-0.093433
4901904696,-90.141785,-2.356947,-4.794821,1.004325,0.362771,-0.115663
4901924742,-98.460060,-2.832568,-5.174371,0.991068,0.356729,-0.126411
4901944787,-106.112961,-3.436540,-5.115560,0.990881,0.328142,-0.138161
4901984876,-120.864464,-3.721785,-4.820727,1.008329,0.345958,-0.161273
4902004922,-128.370346,-3.693995,-5.110737,1.023852,0.342861,-0.176330
4902024967,-135.410706,-3.254697,-5.464640,1.012426,0.288858,-0.199557
4902045013,-140.505585,-2.731601,-6.055250,1.009106,0.242878,-0.218668
4902065058,-144.261002,-1.955500,-6.153075,1.031657,0.212687,-0.230804
4902085104,-147.301132,-0.799625,-6.877360,1.060836,0.197912,-0.224650
4902105150,-150.446533,1.705251,-7.550603,1.107228,0.256216,-0.216733
4902125195,-153.024292,4.637257,-8.136943,1.044110,0.202157,-0.176351
4902145240,-155.438873,2.608807,-8.404279,0.947339,0.163683,-0.195425
4902165287,-156.760254,0.933148,-7.845799,1.000632,0.170065,-0.231747
4902185333,-159.026382,0.429215,-7.991186,1.034843,0.197875,-0.276041
4902205378,-161.458618,1.373379,-8.069397,1.033349,0.177772,-0.274166
4902225424,-164.106964,1.378924,-8.652266,1.009077,0.190385,-0.272049
4902245469,-165.972275,0.668780,-9.033987,0.968129,0.154692,-0.256222
4902265515,-167.329895,0.286841,-9.258540,0.996568,0.152337,-0.274132
4902285560,-168.262405,-0.583080,-9.634905,0.964175,0.147067,-0.243524
4902305605,-168.298004,-1.817245,-9.446710,1.002817,0.100126,-0.275332
4902325649,-167.479752,-1.557916,-9.448168,1.016484,0.112746,-0.300732
4902345695,-167.679535,-2.198206,-9.480368,0.983068,0.090721,-0.330445
4902365740,-167.097885,-3.005732,-9.420193,1.007051,0.125374,-0.354695
4902385786,-168.149826,-2.647444,-9.255786,1.061548,0.088131,-0.368544
4902405831,-167.946106,-1.389394,-9.027042,1.052619,0.056162,-0.330484
4902425877,-167.286896,-0.520285,-8.966311,1.055965,0.074966,-0.297076
4902445922,-166.245453,0.044109,-8.896703,1.030144,0.052617,-0.258018
4902465968,-164.274750,0.091097,-8.583591,1.007316,0.001868,-0.231582
4902486013,-161.119751,-0.388496,-8.719630,0.933864,-0.066759,-0.241381
4902506059,-154.665649,-3.136593,-8.147986,0.978250,-0.158415,-0.305712
4902546151,-130.991165,-3.416489,-6.719001,1.088804,-0.504010,-0.184474
4902566197,-112.154510,-1.002795,-6.542361,1.037447,-0.395640,-0.076933
4902586242,-104.461731,-2.059831,-6.451230,1.028523,0.052707,-0.101218
4902606288,-103.233459,-0.692838,-5.379246,1.062960,-0.055757,-0.039806
4902626333,-98.139496,0.780474,-4.909886,0.987122,-0.123054,-0.016069
4902646378,-90.164680,0.776994,-4.055948,0.980894,-0.207602,0.021577
4902666424,-81.282928,0.514282,-3.356291,0.994228,-0.171545,0.028552
4902686468,-72.666595,0.348865,-3.385387,0.980428,-0.112345,0.026965
4902706514,-64.692841,0.206096,-3.432655,0.979365,-0.107976,0.028973
4902726559,-57.993637,-0.194815,-2.919431,0.990581,-0.146737,0.015864
4902746604,-51.656452,-0.405660,-2.560286,0.987656,-0.168503,0.004694
4902766650,-46.294712,-0.716403,-2.441689,0.976716,-0.161918,-0.018097
4902786695,-41.331787,-1.492253,-2.374938,0.994426,-0.171728,-0.024102
4902806741,-37.240120,-1.894891,-2.300163,0.996867,-0.092481,-0.020553
4902826786,-34.501617,-1.634901,-2.239546,1.025806,-0.092225,-0.001984
4902846832,-29.910435,-1.304532,-1.626720,1.032065,-0.155461,-0.013060
4902866877,-23.733999,-0.486698,-1.313729,1.054128,-0.137765,-0.004479
4902886923,-18.374439,0.444390,-1.359695,1.020698,-0.120740,0.030649
4902906970,-12.135963,0.660347,-0.977131,0.994480,-0.211909,0.044320
4902927015,-2.249006,0.923183,-0.520331,0.995287,-0.343012,0.088914
4902947061,6.614411,-0.443883,0.473734,0.846055,0.035547,-0.085914
4902967106,-0.184613,-4.683839,0.100160,0.975896,0.321776,-0.333248
4902987158,-6.123354,-3.230662,-0.255570,0.989000,0.015150,-0.111738
4903007197,-5.585768,-5.049487,0.786933,0.976868,-0.017634,-0.069174
4903027242,-5.021976,-6.620377,0.307453,0.921938,-0.069532,0.003653
4903047286,-2.653776,-11.976110,0.806590,0.900205,-0.138471,-0.019736
4903067332,0.354397,-14.816263,1.514179,0.907557,-0.132405,-0.094763
4903087378,2.526390,-18.398159,1.247073,0.893636,-0.057180,-0.140675
4903107423,3.438719,-22.056347,1.088719,1.140592,0.019770,-0.249498
4903127468,2.230379,-16.433895,0.451566,1.184594,0.027782,-0.230926
4903147514,0.425440,-12.303229,0.702081,1.064285,0.037808,-0.119051
4903167559,-0.492714,-8.599084,0.959733,1.113844,0.025040,-0.126864
4903187605,-0.273062,-3.928029,0.680111,1.109241,0.007396,-0.120130
4903207650,0.202837,0.057774,0.642324,1.044345,0.005356,-0.088519
4903227696,1.025374,2.389400,0.381716,1.024388,-0.012940,-0.077436
4903247741,2.300595,3.654503,0.245779,1.015612,-0.006311,-0.077388
4903267787,2.989517,4.005326,0.277092,0.989334,-0.000359,-0.085211
4903287834,2.775597,3.205155,0.314472,0.975653,-0.007582,-0.094316
4903307879,2.288593,1.932732,0.488629,0.971646,-0.011408,-0.093878
4903327924,1.999810,0.400203,0.216601,0.974300,-0.025059,-0.099347
4903347970,2.100837,-1.260791,0.365358,0.966047,-0.028640,-0.111002
4903368015,2.536972,-2.121731,0.413252,0.984243,-0.014890,-0.118869
4903388061,2.496954,-2.617296,0.331622,1.018806,0.013533,-0.124952
4903408106,1.354544,-1.383519,0.112797,1.041291,0.035022,-0.132543
4903428151,0.462777,0.452115,-0.219876,1.025745,0.000689,-0.140481
4903448196,0.417886,2.136325,-0.224612,1.036117,-0.012748,-0.133737
4903468241,0.319446,3.500463,-0.219601,1.033683,0.000080,-0.131266
4903488287,-0.019467,5.435614,-0.425787,1.062527,0.007208,-0.136762
4903508332,-0.356743,7.340496,-0.540206,1.017466,0.005875,-0.133541
4903528378,-0.685764,7.431821,-0.557050,1.005208,0.004772,-0.129699
4903548423,-1.075940,7.987970,-0.589538,1.005901,-0.002120,-0.117535
4903568469,-0.920722,8.139724,-0.891071,1.040937,-0.042452,-0.112437
4903588514,0.853432,9.496659,-0.922373,1.071137,-0.112797,-0.099128
4903608560,3.809943,13.726419,-1.207784,1.255220,-0.146348,-0.138613
4903628605,7.586606,23.091776,-1.984694,1.302909,-0.134979,-0.127734
4903648652,12.097833,29.346325,-3.468515,0.513089,-0.126493,0.442456
4903668698,16.809120,4.328539,0.030782,0.980156,-0.120719,0.128654
4903688743,18.893021,7.636870,0.147443,0.775912,0.124339,0.026972
4903708788,16.417227,0.084646,0.495719,1.004512,0.178775,-0.248349
4903728834,10.784652,2.428535,-0.296838,1.104888,0.246072,-0.293292
4903748879,4.371835,4.262597,-0.667562,0.999145,0.214994,-0.133122
4903768925,0.285607,2.616072,-0.368829,0.954878,0.083610,-0.003336
4903788970,0.176839,1.708999,-0.432472,0.923049,-0.100105,0.051162
4903809014,6.200280,0.005443,0.388576,0.925098,-0.283734,0.022474
4903849105,25.498362,-0.803795,0.826801,1.009306,-0.297436,-0.027505
4903869151,33.764748,-0.275626,0.870959,1.040683,-0.172527,-0.051305
4903889196,38.352417,0.420062,1.276317,0.995328,0.012494,-0.023061
4903909242,39.011971,-0.630115,1.847766,0.949796,0.132207,0.011195
4903929287,36.433617,-1.514983,1.786121,0.975440,0.275522,0.009067
4903949333,31.535938,-1.867389,1.561388,0.991895,0.306384,0.060297
4903969378,26.418980,-1.829906,1.882156,0.994834,0.283704,0.093781
4903989424,21.645386,-0.985658,1.712164,0.994418,0.239987,0.117554
4904009469,18.148582,-1.421294,1.582789,1.003745,0.123678,0.135199
4904029516,16.448030,-0.987801,1.392742,1.006582,0.053354,0.131182
4904049562,16.670231,-0.278990,1.393712,1.026901,-0.040307,0.137255
4904069607,18.507946,0.727737,1.507530,1.022947,-0.049513,0.130439
4904089652,19.673231,0.491230,1.264104,0.964821,0.001127,0.161030
4904109698,19.594591,0.247075,1.151821,0.996600,0.083304,0.151092
4904129743,18.226742,0.757371,1.176664,1.019903,0.093876,0.142598
4904149789,16.155901,1.115128,1.230939,0.984194,0.107108,0.143730
4904169846,13.610524,0.709668,0.861400,0.979431,0.133112,0.139773
4904189878,11.063048,0.838351,0.780498,0.985188,0.115362,0.129084
4904209924,8.945888,0.632133,0.829908,0.988504,0.091788,0.119353
4904229969,6.831666,0.638674,0.611102,0.998152,0.087514,0.112388
4904250015,5.150362,0.767872,0.650937,0.977133,0.054109,0.119519
4904270060,4.533381,0.143143,0.802535,0.989555,0.019347,0.102753
4904290106,4.636527,0.386515,0.578121,1.016950,-0.001210,0.081622
4904310151,4.877356,1.529132,0.325118,1.017540,0.000176,0.093683
4904330197,5.387105,1.521321,0.185348,0.981054,-0.007597,0.100764
4904350242,6.007822,0.729153,0.290563,0.985761,-0.006826,0.069364
4904370288,6.160186,0.576716,0.265189,0.997575,0.041116,0.059370
4904390335,4.672406,1.253947,-0.006213,1.036813,0.074412,0.078798
4904410380,2.620921,1.870335,-0.159494,1.015985,0.088486,0.133051
4904430425,0.529497,2.608416,-0.411744,1.008081,0.064694,0.216469
4904450471,0.030902,2.623314,-0.501457,0.978081,0.004311,0.254390
4904470517,1.683710,2.373446,0.002205,0.964998,-0.032236,0.226714
4904490562,2.722280,1.984922,-0.054862,0.973161,0.017908,0.178107
4904510607,2.897725,2.335451,-0.089999,0.996714,-0.000867,0.190809
4904530656,4.326142,2.123279,0.265063,0.963904,-0.007962,0.218613
4904550697,5.110572,1.764931,0.105847,0.970083,0.027908,0.228797
4904570742,5.679735,0.767256,0.327368,0.963300,-0.001062,0.211168
4904590788,6.025506,1.300994,0.402937,1.039249,0.049226,0.240927
4904610833,5.622879,2.367079,0.086260,0.990522,0.065440,0.293201
4904630879,5.283003,2.253226,0.322478,0.988040,0.046493,0.281474
4904650924,5.578160,2.535856,0.567977,0.971968,0.021607,0.265540
4904670970,6.366693,2.360930,0.629673,0.985042,0.031336,0.252229
4904691015,6.151684,2.063560,0.588987,0.985503,0.054794,0.244194
4904711061,5.476209,1.872529,0.449901,0.974051,0.049199,0.227423
4904731106,5.112246,1.423226,0.634212,0.974396,0.010396,0.199613
4904751152,5.593670,1.248052,0.625454,0.991688,0.011639,0.167181
4904771199,6.043097,1.232714,0.532728,0.977836,0.019693,0.154786
4904791244,5.771280,0.942522,0.309725,0.971689,0.014231,0.157895
4904811289,5.586412,0.614621,0.245631,0.977783,0.013700,0.161333
4904831335,5.064044,0.362692,0.119060,0.970038,0.028538,0.172969
4904851385,3.860137,0.026621,-0.062780,0.967842,0.048013,0.178874
4904871426,2.457914,-0.317062,-0.217821,0.973103,0.057513,0.196924
4904891471,1.318826,-0.500236,-0.202750,0.976125,0.052614,0.201874
4904911522,0.460389,-0.584561,-0.315717,0.981975,0.031888,0.205712
4904931561,0.341496,-0.667970,-0.122096,0.984066,0.009335,0.208618
4904951606,0.536559,-0.697891,0.095821,0.988091,0.033733,0.215318
4904971652,0.082724,-0.675506,-0.055918,0.992979,0.049675,0.223650
4904991697,-0.742109,-0.523200,-0.009854,0.982579,0.040124,0.233466
4905011743,-1.118513,-0.683555,-0.101355,0.982177,0.027639,0.221057
4905031788,-1.469216,-0.820685,-0.040603,0.989135,0.019329,0.197077
4905051833,-1.575830,-0.858759,-0.015483,0.986696,0.026208,0.179497
4905071879,-1.935682,-0.736994,-0.047113,0.993679,0.020482,0.176482
4905091925,-1.952433,-0.645744,-0.131148,0.991290,0.026582,0.180961
4905111970,-2.836693,-0.622774,0.015838,0.992116,0.064150,0.178615
4905132015,-4.364663,-0.502093,-0.344628,0.993707,0.064156,0.180676
4905152062,-5.719140,-0.441643,-0.410245,0.983736,0.062411,0.179759
4905172108,-6.687776,-0.564509,-0.696698,0.995329,0.044314,0.173419
4905192153,-7.176173,-0.183501,-0.657924,1.009154,0.017025,0.163697
4905212199,-6.669215,-0.144961,-0.530343,0.988575,0.000599,0.151548
4905232244,-6.533373,-0.289943,-0.624194,0.997877,0.008311,0.131769
4905252290,-6.616574,-0.206024,-0.577010,0.988792,0.026970,0.145237
4905272335,-7.133785,-0.602069,-0.412826,0.928870,0.043567,0.165657
4905292379,-7.584708,-1.989067,-0.353610,0.940535,0.058835,0.199202
4905312425,-9.852304,-2.386503,-0.583378,0.966835,0.170271,0.278634
4905332470,-14.980788,-2.487685,-0.896166,0.971353,0.260225,0.369095
4905352516,-20.313314,-2.482917,-1.503363,0.957553,0.132931,0.419196
4905372561,-18.556099,-2.831172,-0.718666,0.968432,-0.119720,0.345719
4905392607,-14.030862,-2.219489,-0.380590,1.031408,-0.058180,0.317673
4905412652,-11.657375,-1.465009,-0.650759,1.004800,-0.005213,0.300065
4905432697,-10.568580,-1.320524,-0.909252,0.998500,-0.024809,0.284410
4905452743,-9.131420,-1.540172,-0.493204,0.994736,0.001981,0.260736
4905472789,-9.241399,-1.570071,-0.231161,1.006804,0.055612,0.225765
4905492834,-10.404402,-0.831318,-0.302751,1.008810,0.086557,0.232306
4905512881,-11.743715,-0.504168,-0.384832,0.987869,0.075771,0.220698
4905532926,-12.435353,-0.542910,-0.577601,0.973433,0.080316,0.230468
4905552972,-13.436491,-1.382345,-0.945094,0.940363,0.066472,0.248848
4905573017,-13.099919,-2.593869,-0.894102,0.940085,-0.004108,0.205396
4905593063,-11.367334,-2.990056,-1.048665,1.015360,-0.011750,0.142215
4905613108,-9.339021,-2.005218,-0.541117,0.985483,-0.035672,0.169453
4905633154,-7.705724,-2.544220,0.162564,0.967848,0.016781,0.162677
4905653199,-8.287487,-2.628287,0.128283,1.016701,0.062897,0.169574
4905673243,-11.103519,-1.404455,-0.890951,1.018945,0.146048,0.221232
4905693289,-13.718418,-1.062240,-0.902482,1.014912,0.094545,0.217301
4905713334,-14.983388,-0.293366,-1.117381,0.997823,0.064643,0.195583
4905733379,-15.831904,0.224613,-1.125565,1.007464,0.050468,0.197349
4905753425,-16.452757,0.780532,-1.229991,1.011320,0.051013,0.193560
4905773471,-16.538282,0.894630,-1.312767,0.978924,0.045030,0.180233
4905793516,-16.396910,0.300767,-1.084290,0.981250,0.025266,0.113233
4905813562,-15.504219,0.209319,-1.185363,0.954662,0.030577,0.103420
4905833607,-15.027197,-0.803672,-0.984928,0.986475,0.022054,0.041072
4905853652,-14.728688,-1.032161,-0.959393,0.970561,0.031747,0.030888
4905873698,-14.898945,-1.093435,-1.070508,0.987954,0.079829,-0.007887
4905893745,-15.593708,-0.604796,-0.607807,1.052526,0.062975,-0.023848
4905913790,-16.990747,0.629605,-0.531318,0.983006,0.087787,0.020960
4905933836,-17.291077,-0.047971,-0.202294,1.022706,0.054509,-0.002356
4905953881,-17.020664,0.676397,-0.072407,1.020955,0.028458,-0.019349
4905973929,-16.336712,0.775102,-0.307609,1.016314,0.016111,-0.053200
4905993972,-15.985167,0.598916,-0.734124,0.941477,0.022220,-0.034868
4906014018,-15.284534,-1.572063,-0.388984,1.009583,-0.012481,-0.063205
4906034068,-14.393366,-0.474937,-0.616248,1.020683,-0.004719,-0.055328
4906054107,-13.629319,-1.198735,-0.621023,0.975861,0.001083,-0.029246
4906074153,-13.133824,-1.092111,-0.707407,1.030619,0.006717,-0.026558
4906094198,-12.828404,-0.672964,-0.745295,1.012534,0.023193,-0.006034
4906114244,-12.580399,0.241975,-0.592683,1.031039,0.009785,0.010557
4906134289,-11.959174,0.813914,-0.507302,0.982379,0.020131,0.036878
4906154335,-11.370300,0.212084,-0.478518,0.979465,0.014305,0.037029
4906194426,-10.378876,0.943572,-0.645379,1.041276,0.034937,0.027044
4906214471,-10.775231,1.064559,-1.004880,0.961747,0.050623,0.063687
4906234517,-10.028683,0.196676,-0.703177,0.983733,-0.005045,0.049061
4906254562,-9.538244,-0.129733,-0.207272,1.001640,0.006917,0.059720
4906274609,-9.907466,0.722366,-0.783694,1.035624,0.015460,0.026447
4906294654,-8.208303,0.853589,-0.266918,0.937411,-0.005694,0.028973
4906314700,-10.810132,-0.259965,-0.350270,0.997617,0.227207,-0.014379
4906334745,-15.050274,-0.102626,-1.017380,1.029929,0.123109,-0.056061
4906354791,-18.166946,0.210336,-0.445968,0.940468,0.080538,-0.031498
4906374836,-22.803791,-1.209725,-1.008431,1.009346,0.236361,-0.147946
4906394882,-28.032734,-0.815749,-1.397332,1.046734,0.054821,-0.104164
4906414926,-28.178379,-0.494791,-1.005860,0.993924,-0.073574,-0.078813
4906434971,-25.390617,-0.554403,-0.746457,0.996108,-0.084011,-0.118775
4906455017,-22.459988,-2.041276,-1.417331,0.969248,-0.031745,-0.120673
4906475062,-21.600216,-2.269210,-1.219294,0.987840,0.014887,-0.105454
4906495108,-21.978941,-3.008021,-0.995525,0.999974,0.054713,-0.074590
4906515153,-23.196379,-2.932370,-1.094417,0.984921,0.062213,-0.039125
4906535199,-24.228930,-2.963173,-1.112486,0.994318,0.034302,-0.036606
4906555244,-23.747482,-3.107863,-1.121346,1.030147,0.007435,-0.032180
4906575290,-22.941504,-3.122478,-0.945900,0.979436,0.037889,-0.001954
4906595335,-22.150314,-3.816233,-1.142338,0.993713,0.049550,-0.004667
4906615380,-21.805614,-4.181834,-1.094319,0.995648,0.045508,-0.028296
4906635428,-22.341845,-4.357378,-1.144461,0.995953,0.059646,-0.059824
4906655473,-23.994244,-4.115077,-1.625182,1.002633,0.074850,-0.058239
4906675519,-26.596552,-3.422674,-1.798593,1.018248,0.068555,-0.029718
4906695564,-29.902868,-2.494304,-2.012620,1.051394,0.118676,-0.007763
4906715610,-33.652187,-0.803961,-2.228229,1.038643,0.072326,-0.023264
4906735655,-35.321609,-0.126539,-2.396768,0.996807,0.028906,-0.055158
4906755700,-35.934376,-0.233529,-2.453294,1.001739,0.035132,-0.088840
4906775746,-36.309025,-0.454619,-2.445289,1.006061,0.057150,-0.090766
4906795790,-37.730000,-0.729181,-2.370953,0.993568,0.109863,-0.057234
4906815835,-41.170383,-1.370175,-2.332627,0.987605,0.169363,-0.050060
4906835881,-45.664524,-1.919828,-2.220668,0.982864,0.167304,-0.078934
4906855926,-49.368694,-2.668076,-2.390826,0.971993,0.099820,-0.112315
4906875972,-50.762238,-3.606008,-2.467644,0.956342,0.026130,-0.152594
4906896017,-50.462486,-5.023108,-2.331197,0.956738,0.030691,-0.145800
4906916063,-50.878414,-6.630513,-2.019758,0.959673,0.068496,-0.118498
4906936108,-52.303143,-8.535323,-1.672471,0.954553,0.076264,-0.094004
4906956154,-53.468258,-10.165776,-1.354060,0.975281,0.109377,-0.111751
4906976199,-56.722260,-11.310281,-1.562200,0.974008,0.144362,-0.133574
4906996244,-59.834782,-12.886623,-0.694204,1.087730,0.085586,-0.180895
4907016291,-62.648224,-8.147495,-0.846425,1.100259,0.113091,-0.173529
4907036337,-66.323174,-4.041757,-1.262555,1.116899,0.109173,-0.138948
4907056383,-70.330147,-0.400377,-1.418528,1.086157,0.151051,-0.095283
4907076428,-72.480614,1.967724,-2.034207,1.043520,-0.050488,-0.184454
4907096474,-72.078583,5.382319,-1.908188,1.071493,0.102517,-0.057189
4907116519,-75.532677,7.985805,-2.743881,1.007518,0.109227,-0.068364
4907136565,-77.975616,7.176889,-2.930670,1.012900,0.053494,-0.106218
4907156611,-79.487747,7.664416,-2.849462,1.040479,0.055237,-0.121034
4907176654,-81.337135,9.476686,-3.285738,1.059116,0.073850,-0.105133
4907196700,-84.399475,11.402304,-3.996871,1.001797,0.158010,0.053112
4907216745,-89.323479,4.011236,-2.890972,0.812363,0.085876,0.058913
4907236790,-92.153595,1.097380,-3.697480,0.910419,0.098051,-0.083756
4907256836,-93.697136,-0.953775,-3.996924,1.042337,0.009078,-0.195154
4907276881,-94.302574,0.768074,-4.136096,1.097165,-0.017830,-0.229632
4907296927,-95.440430,3.958886,-5.018690,1.005842,0.014649,-0.100223
4907316973,-95.862076,0.575200,-4.961036,0.893546,0.018357,-0.019248
4907337018,-96.684029,-0.506615,-4.712241,1.004247,0.045397,-0.047052
4907377109,-99.060654,0.468313,-4.677011,1.002453,0.034190,-0.055717
4907397156,-99.274323,0.110154,-4.641108,0.975909,0.004833,-0.070194
4907417201,-98.247200,-0.544585,-4.475464,0.998930,-0.026838,-0.096315
4907437247,-96.116257,-0.087088,-4.617675,1.049000,-0.080377,-0.113419
4907457292,-92.503738,0.660154,-4.866014,1.022903,-0.145479,-0.072289
4907477338,-87.453140,0.387733,-4.619245,0.998046,-0.162099,-0.035073
4907497383,-81.425621,-0.418077,-4.450788,0.988578,-0.243928,-0.053022
4907517428,-72.671616,-0.559599,-4.054713,0.949432,-0.323798,-0.070377
4907537473,-61.721500,-1.545173,-3.110050,1.067738,-0.281590,-0.066836
4907557518,-54.228043,0.538240,-2.735131,1.041042,-0.123360,0.024315
4907577563,-49.989887,0.790155,-3.039809,0.988393,-0.104843,0.096443
4907597609,-44.598495,-0.748566,-3.353262,0.952196,-0.095195,0.129724
4907617654,-39.268681,-1.658522,-2.017061,0.966862,-0.142607,0.056567
4907637700,-35.044365,-2.036926,-1.371833,0.978363,-0.117698,-0.015203
4907657745,-31.073469,-1.951691,-1.227567,0.979080,-0.101893,-0.029584
4907677791,-26.786028,-2.346056,-0.896810,0.998147,-0.100469,-0.011302
4907697836,-22.530321,-2.359562,-0.643120,1.011781,-0.094399,0.014690
4907717882,-18.379885,-1.863296,-0.732949,1.009709,-0.086169,0.041037
4907737927,-14.822342,-1.412458,-0.627728,1.017810,-0.096415,0.053443
4907757974,-11.394257,-0.854902,-0.497425,1.018638,-0.096786,0.048891
4907778020,-8.054373,-0.275040,-0.594729,1.018282,-0.057242,0.032401
4907798065,-5.807448,0.350303,-0.670977,1.012309,-0.052705,0.030770
4907818111,-3.647576,0.458050,-0.468720,0.996526,-0.046366,0.027307
4907838156,-1.711110,0.397873,-0.353266,0.990525,-0.034371,0.024666
