Timestamp (us),Gyroscope X (deg/s),Gyroscope Y (deg/s),Gyroscope Z (deg/s),Accelerometer X (g),Accelerometer Y (g),Accelerometer Z (g)
2448974516,-3.165545,-46.769363,-1.089224,0.908065,-0.035720,0.006950
2448994568,-2.789634,-55.723511,0.366342,0.890563,-0.058497,0.017995
2449014620,-5.688148,-64.365669,1.723454,0.933965,-0.041511,0.023832
2449034672,-6.551198,-72.139793,0.189280,0.947624,-0.028451,0.020051
2449054724,-2.876158,-74.297882,-3.919945,0.907097,-0.044327,-0.010317
2449074777,1.700988,-73.246765,-6.896121,0.887430,-0.066727,-0.081087
2449094829,1.774913,-74.294403,-6.968326,0.848236,-0.061895,-0.131316
2449134933,-3.545186,-85.986916,0.713416,0.892994,-0.035933,-0.159019
2449154985,-0.831842,-89.273682,2.777689,0.996492,-0.046031,-0.220606
2449175037,3.412879,-93.419907,3.010280,1.094103,-0.041500,-0.249322
2449195089,0.547283,-100.219498,2.784608,1.180595,0.009705,-0.239759
2449215141,-1.460285,-96.094490,2.884781,1.177696,0.032223,-0.176421
2449235193,-0.931811,-74.436226,0.991016,1.062069,-0.033261,-0.169757
2449255245,-2.524837,-62.267548,-1.096676,0.921182,-0.088592,-0.275723
2449275297,-1.233045,-65.421997,2.945746,0.883881,-0.069812,-0.329373
2449295350,-0.767962,-80.983879,6.243001,0.896049,-0.008593,-0.351716
2449315402,0.172883,-92.292824,5.705639,0.944698,0.040248,-0.323672
2449355505,0.013661,-90.469177,-1.053440,1.023681,0.005293,-0.327706
2449375558,-1.164975,-91.777092,1.020535,0.956676,-0.008336,-0.336566
2449395611,-2.596415,-90.278351,4.191455,0.931103,-0.008317,-0.344109
2449415663,-1.740269,-89.948097,5.107071,0.934265,-0.052219,-0.441734
2449435715,-0.138487,-91.141724,3.185568,0.887290,-0.109215,-0.455676
2449455768,0.609736,-95.431580,4.723459,0.861166,-0.076402,-0.463421
2449475820,7.501938,-96.479225,8.392870,0.854898,-0.048167,-0.527866
2449495872,11.519861,-90.384277,8.847937,0.886560,-0.099215,-0.538230
2449515924,7.672217,-82.448212,9.648045,0.918921,-0.083894,-0.545539
2449535976,3.373563,-77.382263,10.844725,0.857977,0.028235,-0.624703
2449556028,-2.787557,-80.106400,11.417112,0.822071,0.032531,-0.706803
2449576080,-4.928731,-70.561829,11.506237,0.849395,-0.059615,-0.718630
2449596132,-6.026363,-56.599503,11.617667,0.925091,-0.047070,-0.729872
2449616184,-10.393456,-40.770256,12.602968,0.925529,0.024331,-0.871293
2449636236,-10.243270,-35.271633,11.598705,0.857984,-0.007799,-0.903301
2449656288,-9.169920,-19.210804,9.974141,0.932094,-0.182537,-0.845950
2449676340,-5.313072,-3.294890,12.555424,0.960592,-0.241802,-0.903410
2449696407,3.436142,6.029119,16.916027,0.945249,-0.070926,-0.921855
2449716443,9.927609,26.601513,16.016758,0.939450,-0.072418,-1.051481
2449736495,11.223449,43.368359,9.372415,0.909881,-0.116099,-1.070997
2449756547,5.302536,60.427681,2.418853,0.884728,-0.052852,-0.964119
2449776599,-10.336615,76.248741,2.960971,0.851741,0.037040,-0.918224
2449796651,-27.363926,109.685135,2.935086,0.863919,0.134863,-0.851833
2449816703,-39.091221,148.174347,4.110145,0.917930,0.041224,-0.423391
2449836755,-15.009605,183.912216,-2.198284,0.729638,-0.278766,-0.521723
2449856807,1.569072,177.139786,-3.825386,0.201163,-0.548533,-0.575333
2449876860,17.452337,120.797440,3.100892,0.359454,-0.446879,-0.677451
2449896911,24.328671,69.928825,0.173976,0.861750,-0.166495,-0.735664
2449916964,31.434528,51.369457,-6.767517,1.050678,-0.043879,-0.678214
2449937016,32.226933,54.668098,-4.588842,0.975471,-0.024177,-0.533378
2449957068,26.089226,61.866371,3.141777,0.893889,-0.005596,-0.357856
2449977120,20.233446,65.305748,3.245660,0.840915,-0.005178,-0.294708
2449997172,21.972996,68.483200,-7.474965,0.804010,-0.028203,-0.317242
2450017224,25.193518,79.825424,-17.951401,0.761688,-0.092119,-0.390510
2450037276,28.672380,94.225533,-19.366451,0.711861,-0.142440,-0.605495
2450057328,23.166683,91.544754,-16.225176,0.598061,-0.054421,-0.691571
2450077380,11.999160,54.739918,-9.515908,0.635314,0.034467,-0.497116
2450097432,4.969174,33.357273,-13.721877,0.982481,0.026377,-0.308247
2450117484,11.454438,65.455330,-22.770344,1.207621,-0.189871,-0.318145
2450137536,13.246515,99.655067,-22.388603,1.127937,-0.310460,-0.396929
2450157588,10.555031,104.274597,-11.838515,0.953954,-0.155039,-0.327708
2450177642,9.151140,109.484528,-2.897648,0.988213,-0.057550,-0.326594
2450197694,10.143900,122.204285,-8.140991,0.973036,-0.080485,-0.416412
2450217746,9.218986,112.895462,-18.173445,0.891141,-0.169595,-0.242644
2450237798,-0.979643,90.649704,-13.955109,0.962216,-0.313647,0.037088
2450257850,-8.672744,102.875137,2.785270,0.901673,-0.246948,-0.118980
2450277902,-6.735557,112.760712,11.739171,0.659990,0.033396,-0.429310
2450297954,-4.374587,67.145683,5.104781,0.555840,0.355960,-0.334809
2450318006,4.400544,10.110793,-16.817156,0.970662,0.403808,-0.222269
2450338058,-8.406987,11.093711,-43.744091,1.328542,0.218918,-0.124072
2450358110,-19.384701,29.172434,-48.744026,1.204653,0.003637,-0.095193
2450378162,-15.761301,30.757919,-31.122103,0.931507,-0.329577,-0.081731
2450398214,-17.451895,14.220646,1.350672,0.769560,-0.476830,-0.157154
2450418287,-2.778477,-4.969669,24.777588,0.761075,-0.350006,-0.297190
2450438319,15.708834,-6.479510,16.636517,0.842366,-0.057097,-0.329723
2450458371,18.128614,-7.679362,-1.473905,0.798786,0.210480,-0.213980
2450478423,16.777754,-17.921289,-15.747211,0.734812,0.267776,-0.200100
2450498473,17.496307,-14.219794,-18.200640,0.880320,-0.088866,-0.256742
2450518526,14.751037,-11.170277,-7.364701,1.068095,-0.320102,-0.401240
2450538578,15.619272,-17.060190,3.910043,1.081574,-0.116306,-0.454035
2450558630,13.265071,-25.873247,4.092814,1.006881,0.087275,-0.348587
2450578682,7.239927,-28.773609,-0.518246,1.069007,0.126516,-0.282164
2450598734,1.877101,-16.965675,-4.126745,1.080842,0.048117,-0.302439
2450618786,-0.636439,-4.879224,-6.259305,1.034087,-0.012605,-0.367596
2450638838,-1.929542,-2.002975,-6.283922,1.028565,-0.016730,-0.356590
2450658890,-6.554497,-3.750190,-4.085963,0.969787,0.020888,-0.270557
2450678942,-13.215130,-4.520108,-2.504555,0.982659,0.034084,-0.264620
2450698994,-13.585030,9.349617,-6.970750,1.005023,0.030995,-0.268061
2450719046,-16.227957,22.072626,-10.348407,0.984254,-0.029071,-0.271966
2450739098,-9.156672,18.043098,-5.403097,0.968805,-0.119296,-0.250764
2450759150,-6.269011,9.517724,1.218962,1.019357,-0.084602,-0.182826
2450779202,-7.277691,17.810259,1.433267,1.110602,0.056428,-0.188992
2450799255,-1.921883,25.088150,0.292207,1.122469,0.025666,-0.207365
2450819307,6.488599,25.612656,2.500510,1.061953,-0.114010,-0.187364
2450839359,16.368639,23.944681,5.829961,0.980885,-0.092506,-0.132112
2450859411,21.351402,27.936010,5.177830,0.971334,0.027345,-0.149017
2450879463,20.767519,24.005049,6.025266,0.945882,0.049728,-0.219438
2450899515,20.187908,11.335310,10.351236,0.936095,-0.035406,-0.218067
2450919567,21.251640,-2.397750,14.104297,0.961510,-0.035545,-0.167899
2450939619,16.232607,1.783341,12.985119,0.988188,0.056122,-0.223574
2450959671,9.022604,15.646553,7.361760,0.937855,0.143882,-0.203498
2450979725,-3.467930,31.813786,-0.609586,0.896717,0.159611,-0.145260
2450999777,-17.973036,28.630821,-7.520707,0.914220,0.111848,-0.152490
2451019829,-18.801739,12.876766,-12.839612,0.958441,0.005989,-0.147316
2451039881,-15.750966,2.503941,-12.789779,1.026285,-0.169196,-0.171619
2451059933,-6.721344,3.903225,-7.356071,0.999133,-0.248811,-0.149986
2451079985,2.612749,-9.032605,2.249880,0.930295,-0.232996,-0.094218
2451100037,18.428207,-17.327696,10.306621,0.971432,-0.230290,-0.114770
2451120089,29.723637,-19.832556,9.500349,1.069242,-0.127270,-0.117814
2451140141,33.244728,-15.542427,2.405587,1.103061,0.086356,-0.115048
2451160193,38.326878,-8.656827,-4.046875,1.028572,0.125713,-0.102399
2451180245,42.251270,-13.133553,-2.926296,0.981860,-0.080670,-0.117791
2451200298,49.982830,-22.830246,1.947364,0.986505,-0.060155,-0.049469
2451220349,44.867321,-35.947269,3.866357,1.082958,0.084704,0.142486
2451240402,29.266884,-28.195662,2.064054,1.096357,0.038531,0.088040
2451260454,13.616969,-20.701151,-0.722611,0.915266,0.056264,-0.132027
2451280517,2.328086,-33.377808,0.386077,0.842102,0.061699,-0.173052
2451300556,-1.727855,-42.026413,1.917933,0.952148,0.030266,-0.081205
2451320608,-4.139360,-48.610607,5.261048,1.029806,-0.019235,0.054882
2451340660,-8.211691,-48.723415,8.430867,1.062859,0.005021,0.049564
2451360713,-11.072935,-40.983280,10.838043,1.104257,0.099444,0.032042
2451380765,-5.468432,-30.345882,10.064267,1.091390,0.091553,-0.086380
2451400817,-1.220669,-26.693544,5.798399,1.037541,0.040649,-0.143703
2451420869,2.039511,-31.270809,4.918713,0.982951,0.003950,-0.128397
2451440921,8.289532,-35.033764,6.058756,0.937149,-0.037741,-0.101337
2451460973,12.031436,-27.297325,7.061526,1.011511,-0.023023,-0.119248
2451481025,12.576918,-13.205396,4.367720,1.044700,0.029170,-0.115072
2451501077,12.811097,-9.716316,1.240664,0.995999,0.009263,-0.101827
2451521129,14.717957,-7.010518,3.360359,0.937788,-0.092608,-0.151775
2451541181,9.025722,-9.008164,6.673662,0.947220,-0.122022,-0.221894
2451561233,3.993662,-18.464689,7.511378,0.982989,-0.066615,-0.177384
2451581285,5.508224,-23.815647,6.142337,1.010424,-0.080329,-0.091781
2451601337,7.035422,-16.285450,4.440906,1.048897,-0.125936,-0.084801
2451621390,6.863325,2.639592,2.041434,1.050684,-0.056859,-0.159840
2451641442,5.976794,5.267244,-1.688578,1.003833,-0.012927,-0.136415
2451661494,3.080178,-2.179662,-3.397484,0.960269,-0.116880,-0.117889
2451681546,0.417112,-6.211276,-1.912342,0.959052,-0.126949,-0.122961
2451701598,-2.870723,-9.960513,-0.746270,1.022316,-0.035214,-0.090129
2451721650,-1.955152,-7.020483,-1.370617,1.049195,-0.007426,-0.101621
2451741702,1.978481,-1.138265,-3.249108,1.036326,-0.051469,-0.123651
2451781807,-2.002920,1.750196,-5.758723,0.972630,-0.018324,-0.191649
2451801859,-0.528212,-3.555557,-3.550638,0.963843,0.011782,-0.200785
2451821911,-1.933830,-10.364533,-3.170472,0.952384,0.008239,-0.141478
2451841964,-0.280705,-11.339523,-1.795900,0.979908,-0.016078,-0.034848
2451862016,1.771738,-1.395507,0.692909,0.987810,-0.040773,-0.079585
2451882068,-0.140974,7.996373,4.003536,0.947474,-0.027360,-0.094840
2451902120,-5.662431,1.972516,7.929389,1.024773,-0.019784,-0.066024
2451922172,-15.432912,-11.127073,11.411217,1.141656,-0.016097,-0.022886
2451942225,-20.123549,-11.044982,20.810486,1.161648,0.053476,-0.155332
2451962276,-5.537985,-9.889030,24.045189,1.049276,0.051986,-0.191647
2451982328,8.004102,-10.660617,10.522244,0.843786,-0.065851,-0.178835
2452002380,12.196409,-20.784817,-1.676774,0.834588,-0.119981,-0.029041
2452022432,18.025135,-24.195173,-3.160118,1.042803,-0.079558,-0.017036
2452042484,25.770361,-6.942516,0.294356,1.103654,0.017952,-0.088804
2452062536,17.529316,2.348264,-1.023195,1.008572,0.153989,-0.110684
2452082587,-6.164262,14.378391,-4.565410,0.919737,0.277577,-0.165548
2452102639,-29.173401,9.902965,-5.398354,0.800495,0.253585,-0.153937
2452122691,-49.306950,0.497912,-10.800589,0.834181,0.083618,-0.170181
2452142743,-55.108730,-2.786277,-12.719873,0.925835,-0.072699,-0.206620
2452162795,-51.860733,-4.424881,-2.711141,1.022256,-0.193997,-0.202715
2452182847,-54.057167,-9.307169,11.395734,1.152308,-0.236971,-0.158853
2452202899,-55.879223,-8.881381,20.557865,1.225423,-0.264470,-0.129660
2452222952,-50.236881,-0.950407,25.136568,1.136118,-0.263593,-0.105310
2452243004,-40.432732,28.903458,32.283325,1.016111,-0.264600,-0.176767
2452263056,-43.970287,31.878683,34.616207,0.843966,-0.176853,-0.247439
2452283108,-49.879154,10.906847,25.800426,0.780493,-0.032962,-0.175483
2452303160,-59.181282,-3.946200,19.261171,0.831187,-0.101687,-0.064631
2452323212,-67.299538,-0.723215,17.502167,0.880618,-0.168981,-0.127575
2452343264,-72.531700,3.981085,21.292425,0.993382,0.067957,-0.229127
2452363316,-72.503624,3.432452,17.353251,1.225425,0.205011,-0.255516
2452383368,-56.466557,12.365546,0.446093,1.258658,-0.242351,-0.087237
2452403420,-37.511814,19.724926,0.527781,1.021763,-0.574777,-0.068619
2452423472,-27.505419,16.782520,13.456538,0.889443,-0.477537,-0.110400
2452443524,-27.903830,11.315787,22.138266,0.950627,-0.262163,-0.142269
2452463576,-21.789267,6.382535,16.052061,1.059680,-0.152644,-0.169210
2452483629,-1.225782,1.812776,5.700173,1.030111,-0.176370,-0.120795
2452503681,20.595846,-2.762006,0.440921,0.983209,-0.198946,-0.039979
2452523733,36.666336,6.991858,-4.395796,0.952676,-0.226303,-0.074233
2452543785,43.074020,9.511749,-8.696413,0.918042,-0.152434,-0.081514
2452563838,45.275322,10.591199,-14.332068,0.921378,-0.052971,-0.109270
2452583890,45.739319,11.903761,-19.725395,0.937534,-0.009229,-0.134474
2452603942,51.215641,5.947253,-21.305944,0.999146,-0.031508,-0.151774
2452623994,56.364521,0.716382,-24.245516,1.083467,-0.112578,-0.032452
2452644046,49.230762,-1.395733,-25.524162,1.146463,-0.137406,0.026358
2452664099,45.607040,11.272834,-23.308020,1.143990,-0.046794,-0.047871
2452684151,45.080799,20.281034,-19.678240,1.026002,0.030943,-0.083325
2452704203,41.291714,18.122759,-16.122524,0.929657,0.050167,-0.064690
2452724255,30.275438,16.638781,-12.513547,0.933669,-0.004523,-0.084115
2452744307,25.020657,8.336596,-10.186676,0.936447,-0.033257,-0.092578
2452764359,21.301739,3.396792,-10.759511,0.889585,-0.061191,-0.062686
2452784411,24.291553,2.572763,-8.506767,0.894275,-0.099554,0.011771
2452804463,25.334110,9.032373,-6.142020,0.978586,-0.086040,0.054565
2452824515,20.008389,21.022526,-3.801678,1.037109,-0.048978,-0.025246
2452844567,11.756526,28.869802,1.903862,0.932042,0.004963,-0.106775
2452864619,9.189817,13.919845,7.852705,0.831811,0.113634,-0.014133
2452884670,-0.406923,-10.632440,4.484664,1.025916,0.307384,0.042076
2452904722,-17.830360,-6.508470,-3.625351,1.301880,0.417286,0.048214
2452924774,-41.505962,18.100918,-6.028602,1.322202,0.245914,0.088513
2452944826,-72.404091,39.893265,2.524399,1.073541,-0.053776,0.091764
2452964878,-87.412407,42.710648,10.947746,0.837251,-0.123991,-0.030339
2452984930,-93.387329,31.149387,18.454948,0.836712,0.068779,-0.127912
2453004982,-109.088402,16.135347,23.051979,1.072572,0.247680,-0.048968
2453025035,-124.263451,11.572023,21.830069,1.173783,0.212741,0.027679
2453045087,-139.928848,15.666700,16.864805,1.086311,0.097206,0.030759
2453065139,-156.161224,23.598480,11.803150,0.965010,-0.044383,-0.029627
2453085191,-168.796570,23.324432,15.135681,0.861706,-0.096182,-0.110284
2453105243,-181.915710,14.348158,22.227215,0.866538,-0.049041,-0.118339
2453125295,-190.823257,7.208545,24.892414,0.953043,-0.043954,-0.118966
2453145347,-192.113586,1.428868,19.865196,0.961823,-0.124977,-0.067798
2453165399,-195.024994,-2.157443,16.407412,0.947968,-0.224251,-0.018669
2453205503,-195.640991,15.027289,15.378303,0.833583,-0.120613,-0.137193
2453225555,-190.629776,19.837166,16.875767,0.880866,-0.212956,-0.070171
2453245607,-192.016708,4.921701,13.880906,0.961264,-0.174142,0.020926
2453265659,-181.706497,-11.741837,9.288815,1.132819,-0.162809,0.018284
2453285711,-158.266785,-4.211251,11.391926,1.129690,-0.221632,-0.009504
2453305764,-144.259521,4.907506,13.879391,1.089023,-0.178528,-0.045282
2453325815,-140.559540,-5.646448,13.429411,1.057785,-0.058168,-0.048532
2453345867,-147.224289,-9.559259,13.831755,1.061641,-0.055570,-0.038992
2453365921,-150.720886,-4.922470,14.764370,0.977445,-0.117422,-0.139482
2453385973,-148.381485,-5.869538,12.652286,0.807453,-0.191124,-0.216723
2453406025,-144.629730,-13.033766,9.159022,0.814607,-0.183133,-0.243666
2453426077,-143.882996,-21.098927,6.761285,0.888460,-0.185351,-0.212943
2453446129,-143.836853,-39.328613,12.394619,0.985945,-0.185203,-0.000402
2453466181,-130.163818,-37.525105,22.910789,1.083739,-0.167873,0.104244
2453486233,-109.367935,-1.024473,28.931849,1.027489,-0.212022,0.017562
2453506285,-100.084328,27.888933,27.184332,0.814158,-0.077697,-0.157550
2453526338,-99.424477,27.190861,20.577656,0.867479,0.174766,-0.250615
2453546394,-105.886513,30.695065,13.572465,1.027871,0.407799,-0.154928
2453566442,-96.609619,25.631512,6.424550,1.169857,0.381925,-0.117995
2453586494,-90.238029,24.412079,2.697674,1.128619,-0.037172,-0.058906
2453606546,-89.350929,20.365362,14.898271,0.981278,-0.213450,-0.107625
2453626598,-68.922745,13.502640,20.204878,1.013652,-0.224349,-0.150712
2453646650,-47.407890,9.501418,14.723967,1.158514,-0.261728,-0.054278
2453666702,-19.839813,19.800354,13.352509,1.141916,-0.392332,-0.003715
2453686753,-7.938549,18.975416,13.457288,0.954987,-0.359480,0.080011
2453706805,5.078872,2.208254,10.084819,0.840189,-0.199522,-0.058436
2453726857,17.787352,-16.356640,0.087065,0.822802,-0.159553,-0.113734
2453746909,27.668623,-30.661724,-8.059955,0.827314,-0.208908,0.011926
2453766961,28.321287,-42.533665,-10.884120,0.821085,-0.205213,0.061825
2453787013,28.170624,-52.676365,-9.553116,0.811583,-0.196448,-0.016686
2453807065,36.372993,-64.279213,-6.461687,0.808581,-0.289487,-0.188947
2453827117,52.830086,-79.904892,-5.769395,0.804586,-0.357095,-0.189102
2453847169,51.229313,-101.699631,-9.922791,0.867353,-0.210810,-0.083288
2453867221,42.536484,-110.644485,-19.195885,0.831294,0.110528,-0.111074
2453887273,41.370533,-119.721771,-18.807985,0.689367,0.172669,-0.191688
2453907325,28.055223,-121.647491,-14.249315,0.625968,-0.115308,-0.243244
2453927377,10.484491,-127.341537,-8.145218,0.845381,-0.249101,-0.312756
2453947430,3.713820,-126.101753,-3.190481,1.209548,-0.122777,-0.353807
2453967482,5.986068,-120.322563,-10.024673,1.408344,0.028020,-0.252080
2453987534,11.669779,-106.040085,-19.094837,1.305155,-0.067796,-0.361309
2454007586,15.763124,-87.053192,-19.730118,0.980332,-0.313805,-0.456012
2454027638,21.261789,-90.541786,-14.058542,0.966863,-0.216404,-0.415337
2454047690,18.000257,-92.946213,-7.963212,1.034817,0.029052,-0.326266
2454067742,4.164238,-86.851761,-5.940628,0.935368,0.133651,-0.302825
2454087794,-1.031301,-68.856499,-3.727130,0.889232,0.038243,-0.347490
2454107846,0.094469,-54.176659,-5.293900,0.880897,-0.062442,-0.430361
2454127898,3.013977,-57.729702,-5.926891,0.858066,-0.062542,-0.516953
2454147950,6.139389,-66.497528,-5.458193,0.900833,-0.093175,-0.550104
2454168004,8.295704,-77.219162,-3.224106,0.868888,-0.083733,-0.532899
2454188055,0.842022,-77.371902,-5.259708,0.997697,0.075491,-0.517742
2454208108,-0.977972,-59.010849,-5.110130,1.072839,0.047038,-0.600676
2454228160,3.749812,-43.014580,-3.923956,0.935912,-0.221844,-0.684511
2454248212,3.745964,-46.413086,-4.708035,0.824924,-0.257564,-0.706606
2454268264,-0.821462,-44.900986,-4.575225,0.897637,-0.017879,-0.711046
2454288316,-1.574009,-32.326412,0.209505,0.925963,0.018202,-0.740164
2454308368,0.670250,-18.984488,4.391803,0.927621,-0.106438,-0.758523
2454328420,-8.313306,-10.280798,5.835275,0.946009,-0.104722,-0.832392
2454348472,-22.524158,5.529764,10.431671,1.020390,0.009057,-0.918613
2454368525,-35.122478,32.548588,17.406569,1.168727,0.078793,-1.001982
2454388576,-37.100891,70.337074,17.746944,1.166816,0.025189,-1.084625
2454408629,-31.084602,91.837021,10.372215,1.063035,-0.018270,-1.025965
2454428681,-37.402332,109.162628,0.325661,1.127846,0.045399,-0.698877
2454448733,-48.346687,144.911575,-1.642958,1.089219,0.158135,-0.246851
2454468793,-23.743546,194.885818,1.374545,0.812971,-0.010474,-0.330562
2454488835,-10.371916,209.442810,-2.257566,0.281824,-0.211546,-0.709081
2454508888,2.970324,151.393463,7.464540,0.155803,-0.439507,-0.792040
2454528940,16.964851,78.590134,11.219564,0.557901,-0.207043,-0.716173
2454548992,20.662502,46.968231,2.255222,0.889478,0.036732,-0.575136
2454569044,14.626683,55.626591,-2.895875,1.008613,0.073308,-0.372679
2454589096,13.344923,67.896439,1.071563,1.071557,-0.051235,-0.208471
2454609148,14.180788,80.944763,5.899577,1.057866,-0.103360,-0.210873
2454629200,17.487488,84.583496,12.426522,0.958671,0.033208,-0.277776
2454649252,6.232512,87.259163,9.003132,0.829939,0.104934,-0.421208
2454669304,-4.173285,85.142563,-1.581313,0.715103,0.092720,-0.482864
2454689356,2.347866,78.917946,-3.418992,0.729135,-0.095617,-0.465316
2454709408,18.422218,58.818027,6.815602,0.841683,-0.257001,-0.331050
2454729461,12.696199,41.141697,12.282314,0.943092,-0.096734,-0.168048
2454749512,4.227650,47.767387,3.955909,0.933516,0.069151,-0.110325
2454769564,-6.334237,77.471252,-10.701923,1.005536,0.119415,-0.228637
2454789616,-11.288576,104.405060,-19.023746,1.015781,0.072828,-0.273377
2454809668,-16.956867,92.938324,-18.474459,0.994656,0.074731,-0.232105
2454829720,-21.506557,88.531815,-16.699364,1.008557,-0.023742,-0.143799
2454849773,-20.733440,89.785469,-8.958261,1.027379,-0.267050,-0.076049
2454869825,-16.036190,77.366119,3.072801,0.908658,-0.334324,-0.162816
2454889877,-0.582924,58.465603,12.735057,0.669255,-0.277809,-0.221516
2454909929,18.144543,41.657269,14.938843,0.561165,-0.094018,-0.365281
2454929981,18.966904,-8.145540,7.948052,0.737790,0.293670,-0.238914
2454950033,-0.249572,-41.063728,-15.396241,1.228077,0.336429,-0.291463
2454970086,-14.862064,-24.280664,-28.219500,1.374565,0.086368,-0.226365
2454990139,-17.653326,-1.262357,-20.529408,1.149840,-0.178475,-0.140371
2455010191,-15.520645,18.973997,-4.085338,0.823851,-0.431061,-0.141576
2455030243,-17.916061,15.435040,13.753404,0.656867,-0.286754,-0.203323
2455050295,-11.927969,2.308632,19.503490,0.736182,0.011852,-0.243752
2455070347,-10.918894,-1.297544,4.084809,0.881607,0.147194,-0.345260
2455090399,-15.695654,0.879521,-10.419566,0.930683,0.076181,-0.299194
2455110451,-19.455534,3.572211,-6.918470,0.991318,-0.087817,-0.327857
2455130503,-19.163776,-2.930229,7.723642,1.028216,-0.175317,-0.295682
2455150555,-11.467532,-13.642316,10.539338,1.100219,-0.079040,-0.340820
2455170607,-9.638748,-13.619544,-2.118241,1.101200,0.110150,-0.307103
2455190659,-15.760593,-8.903615,-13.531100,1.105015,0.167274,-0.271110
2455210711,-22.145092,4.037775,-15.725882,1.071464,0.056509,-0.324234
2455230763,-22.269239,6.719262,-8.163699,0.989723,-0.160892,-0.361468
2455250815,-15.909573,-5.430665,5.131537,0.947679,-0.292042,-0.370882
2455270873,-1.996056,-11.071194,13.551165,0.946102,-0.256728,-0.321588
2455290918,11.120672,-7.072100,14.116372,0.979916,-0.106514,-0.286460
2455310970,17.955196,3.600074,5.588772,0.979403,0.055794,-0.264440
2455331022,17.807962,16.210936,-6.073173,0.992492,0.149601,-0.288972
2455351074,10.578221,27.423172,-10.709704,0.952540,0.057107,-0.270189
2455371127,4.792955,19.951399,-4.982556,0.962361,-0.095484,-0.236453
2455391179,0.408133,11.060605,0.597412,1.031540,-0.097706,-0.186132
2455411231,0.091145,13.218865,1.272192,1.076061,-0.013966,-0.233410
2455431283,5.241689,21.878235,0.308338,1.043553,-0.022339,-0.235815
2455451335,10.684581,26.103840,3.800929,1.006932,-0.118551,-0.223419
2455471387,9.010572,17.985592,7.497705,1.031650,-0.059100,-0.193122
2455491439,0.046961,19.344696,3.600576,1.031692,0.116711,-0.148078
2455511491,-8.101206,31.793060,-1.494631,1.012358,0.142910,-0.206685
2455531543,-12.666478,21.733603,-0.442788,0.953552,0.003112,-0.182763
2455551595,-10.190044,18.620098,1.651286,0.980452,-0.124193,-0.213544
2455571647,-8.080254,23.343302,0.853640,0.953128,-0.121657,-0.203497
2455591699,-2.014991,15.654978,4.508329,0.911927,-0.099491,-0.184597
2455611752,2.979222,28.863245,11.115392,0.854152,-0.063857,-0.206322
2455631804,8.439147,32.694588,14.669968,0.795895,-0.049463,-0.073211
2455651856,14.916393,13.542052,10.610743,0.867957,-0.053168,-0.031850
2455671908,11.212191,-10.262007,5.426689,1.026971,-0.103140,-0.088401
2455691960,9.349530,-16.533194,4.888107,1.099002,-0.157704,-0.109435
2455712012,12.690083,-6.911049,4.376307,1.072897,-0.063320,-0.151247
2455732064,20.330719,2.496888,1.567315,1.004430,0.053611,-0.147087
2455752117,15.897732,-13.690997,-1.406935,0.977897,0.027830,0.037428
2455772169,11.598320,-18.157238,-2.125198,1.081719,-0.156531,0.007670
2455792221,17.504110,-14.029814,-3.816439,1.023645,-0.213028,-0.103694
2455812273,19.209164,-18.439030,-4.127737,0.907798,-0.061977,-0.012107
2455832326,14.690550,-24.313139,3.222938,0.948256,-0.000445,-0.055157
2455852378,10.835779,-27.622164,4.956113,1.001758,-0.092282,-0.100429
2455872430,13.268066,-38.500320,3.772534,1.091222,-0.068998,0.053621
2455912533,-1.053891,-59.971725,-3.318158,1.117309,-0.029449,0.000363
2455932586,-12.317259,-57.380604,-3.307985,1.074521,-0.023270,-0.152698
2455952638,-20.338627,-50.639103,-2.214300,0.899024,0.058877,-0.239689
2455972690,-16.805407,-59.868511,-5.518475,0.786478,0.017172,-0.133033
2455992742,-7.884460,-63.000790,-8.239229,0.854149,-0.079686,-0.073538
2456012794,-5.301822,-44.472431,-6.598715,0.980513,-0.080773,-0.105621
2456032846,-7.061844,-28.298491,-1.833614,1.075505,-0.010864,-0.155743
2456052898,-8.652281,-16.994942,-0.280426,1.089839,0.015629,-0.141407
2456072953,-6.674952,-17.349234,4.062845,1.089665,-0.065728,-0.086754
2456093001,-6.316198,-14.271431,6.583486,1.109887,-0.097387,-0.099149
2456113053,-5.843794,-6.950988,4.019145,1.027852,0.048718,-0.143411
2456133105,-5.443425,-14.716572,2.529971,0.981363,0.040897,-0.155919
2456153157,-6.432475,-15.811556,4.466725,0.991807,-0.090159,-0.192409
2456173209,-12.558389,-8.634501,7.642459,0.974300,-0.140610,-0.197857
2456193261,-20.314344,-9.222358,11.527627,0.964992,-0.071758,-0.152914
2456213313,-16.292614,-17.147379,11.091210,0.960497,-0.035175,-0.135283
2456233365,-9.190396,-11.868169,6.629263,0.951889,-0.086641,-0.149653
2456253417,-6.422507,-1.075529,4.529628,0.913157,-0.099210,-0.254481
2456273470,-5.302265,-3.755820,3.310681,0.905772,-0.065701,-0.177852
2456293521,-1.824147,-17.348915,0.309561,1.032684,-0.082973,-0.108679
2456313574,-2.244116,-12.834251,-2.032588,1.045332,-0.113175,-0.042985
2456333626,-4.293090,-3.737554,1.559525,1.037818,-0.120342,-0.079400
2456353678,-0.892187,-0.033790,3.879891,1.019440,-0.076601,-0.061042
2456373730,-6.338110,-0.596664,3.338052,0.992792,-0.065510,-0.139520
2456393782,-14.828419,-1.540083,3.389750,0.915417,-0.080493,-0.120627
2456413834,-15.597169,-7.367788,5.812629,0.929229,-0.132295,-0.149286
2456433886,-13.798724,-13.678700,8.403012,0.960880,-0.144573,-0.161461
2456453938,-9.860999,-21.521099,7.913289,0.995641,-0.123516,-0.130012
2456473990,-9.421340,-19.972538,2.648002,1.050770,-0.087890,-0.112220
2456494042,-12.839890,-11.204292,-2.239127,1.083241,-0.023693,-0.209343
2456514094,-12.877712,-1.753235,-5.894422,1.035718,-0.039019,-0.212775
2456534146,-11.696105,-10.657926,-7.046469,0.969544,-0.089300,-0.205210
2456554200,-11.128284,-22.576948,-0.449799,0.891177,-0.122059,-0.132769
2456574252,-10.875173,-20.705870,7.024096,0.917854,-0.210175,-0.129470
2456594304,-7.705540,-15.301673,7.171102,0.960607,-0.164385,-0.136241
2456614356,-4.853539,-10.939130,2.607696,1.010380,-0.009045,-0.228661
2456634408,-1.605348,-17.904856,-3.781237,0.951627,0.037440,-0.260244
2456654460,-4.279407,-33.587845,-7.962896,1.009966,0.052135,-0.219829
2456674512,-11.724264,-28.205854,-12.344315,1.157554,0.083025,-0.140434
2456694564,-14.681315,-8.003891,-17.619637,1.191232,0.031957,-0.152510
2456714617,-6.226762,18.626772,-18.138783,1.145126,-0.148983,-0.206091
2456734669,3.243699,21.818548,-7.042345,1.051808,-0.369040,-0.211113
2456754721,9.541096,9.360188,10.354193,0.905737,-0.396828,-0.162023
2456774773,17.060015,0.361929,16.642784,0.830800,-0.123649,-0.158627
2456794825,32.638729,1.613652,6.424160,0.892787,0.065827,-0.158926
2456814877,41.072662,11.259708,-12.324477,0.950600,0.137615,-0.135081
2456834929,41.542747,8.684647,-21.418097,0.974115,0.143853,-0.121717
2456854981,41.149967,14.943344,-22.917421,0.968903,0.048365,-0.133554
2456875035,39.014027,19.061083,-20.240334,0.932068,-0.038199,-0.151900
2456895084,35.946083,17.279795,-16.640696,0.957449,-0.096757,-0.191031
2456915136,41.205402,2.066940,-13.528217,1.103681,-0.122038,-0.023565
2456935188,46.587646,28.389290,-11.612380,1.345413,-0.116647,0.120139
2456955240,44.568848,72.271866,-10.360778,1.125245,0.065256,-0.094379
2456975292,41.616863,32.669380,-13.929392,0.801140,0.096809,-0.278902
2456995344,38.314915,8.656572,-9.351169,0.623107,-0.013350,-0.241536
2457015396,28.417419,-21.043678,-4.152302,0.722727,0.073209,-0.265189
2457035449,18.469208,-29.308796,-3.112337,0.970112,0.148440,-0.047728
2457055512,12.614280,-19.898882,-6.060611,1.098876,0.135742,0.029766
2457075552,12.066481,-6.551931,-11.373787,1.013768,0.011755,-0.101821
2457095604,10.539802,-7.537281,-10.748382,0.936157,-0.074655,-0.115822
2457115656,5.579755,-13.950399,-5.335907,0.987686,-0.069066,-0.184321
2457135709,-2.446018,-16.968601,-1.328586,1.093171,0.034346,-0.097157
2457155761,-13.152409,-8.074850,0.736309,1.218847,0.154500,-0.088023
2457175813,-23.594156,10.516789,-0.551890,1.196166,0.176739,-0.117979
2457195865,-25.803335,20.611046,-4.693695,1.116827,0.076861,-0.094846
2457215917,-25.260075,28.953266,-4.229999,1.065160,0.013089,-0.067027
2457235969,-26.210655,28.970989,-1.652881,1.037370,-0.023185,-0.051536
2457256021,-24.388958,27.289455,0.663857,1.003785,-0.038919,-0.021963
2457276073,-18.330257,25.934666,3.447881,0.972062,-0.067826,0.007502
2457296125,-16.470383,26.536419,4.240948,0.962424,-0.047197,-0.022615
2457316177,-12.005785,19.881845,3.762104,0.971779,-0.056192,-0.043257
2457336230,-8.087921,8.998798,5.063919,0.992660,-0.092744,-0.010149
2457356282,-7.450842,-0.589368,6.832315,1.010853,-0.062540,0.028165
2457376335,-5.215751,3.976095,4.974115,0.982343,-0.008919,-0.049364
2457396387,-5.857289,5.810552,5.202966,0.959943,-0.005102,-0.071379
2457416439,-5.033720,-1.435204,9.828072,0.975889,-0.013608,-0.096979
2457436491,0.019440,-13.011077,12.041353,1.012679,-0.047762,-0.057334
2457456543,3.295328,-8.208949,10.515446,1.059194,-0.118180,0.005431
2457476595,-4.546976,6.119633,13.083558,1.007726,-0.103879,0.022350
2457496647,-19.268089,8.715319,19.771986,0.924963,-0.064286,-0.062127
2457516699,-28.912872,8.226453,26.848219,0.889667,0.017692,-0.131580
2457536752,-30.536623,-5.095348,29.986904,0.934232,0.044981,-0.142577
2457556804,-28.195412,-20.117880,33.797016,0.966410,0.015442,-0.065210
2457576856,-27.236219,-18.413500,33.411854,0.987002,-0.041383,0.011846
2457596908,-36.820145,-10.000696,29.111694,1.110163,0.055385,-0.051474
2457616960,-50.926521,0.110424,15.955034,1.183129,0.269324,-0.179672
2457637012,-67.288940,2.498147,7.107892,1.144896,0.276812,-0.177485
2457657064,-86.310989,12.782547,10.777645,1.045279,0.064254,-0.075849
2457677116,-107.643600,28.381966,20.546112,0.972023,-0.136142,0.001658
2457697168,-114.692009,38.957005,26.575308,0.798780,-0.180853,-0.157555
2457717219,-124.744209,25.330843,31.112522,0.702736,-0.043551,-0.218082
2457737271,-137.994171,14.415265,36.604046,0.993135,0.105320,-0.221200
2457757323,-150.369202,22.323797,38.263660,1.185025,0.109250,-0.236426
2457777375,-159.454422,27.022337,30.755060,1.210202,0.026681,-0.213389
2457797427,-168.197571,24.331076,20.020430,1.050318,-0.004570,-0.201255
2457817479,-176.283005,22.712137,14.890307,0.862891,-0.061335,-0.298628
2457837531,-180.622681,13.541896,18.258165,0.793953,-0.132663,-0.275661
2457857583,-175.197876,7.906418,24.255486,0.865558,-0.185572,-0.225009
2457877636,-165.049454,8.653735,25.090622,0.940382,-0.208926,-0.147411
2457897688,-161.572403,9.955281,17.248276,0.999850,-0.207625,-0.090656
2457917740,-168.177902,17.538860,4.817703,1.034269,-0.086005,-0.066553
2457937792,-178.366409,46.943512,2.446260,1.103582,0.002771,-0.255493
2457957844,-205.358536,60.562820,8.684158,0.939223,0.240633,-0.236418
2457977896,-222.171204,32.348625,18.314014,0.920024,0.199299,-0.284153
2457997948,-225.574097,10.518991,10.515892,0.925278,-0.111562,-0.294333
2458018000,-199.179901,-15.147299,2.675081,0.977438,-0.278568,-0.073271
2458038052,-165.110458,-15.044047,8.968489,1.097678,-0.330832,0.047154
2458058104,-153.750504,-11.806818,19.298634,1.122637,-0.310456,-0.006072
2458078156,-157.120941,-12.803871,23.570202,1.097432,-0.241576,-0.142011
2458098208,-155.843704,-12.394690,29.313194,0.950583,-0.132440,-0.137227
2458118260,-139.053131,5.817564,35.891308,0.843683,-0.146977,-0.120730
2458138312,-128.804810,7.208122,35.102291,0.881193,-0.153425,-0.062405
2458158364,-129.138626,-2.907882,27.664415,1.038110,0.033783,-0.019653
2458178417,-119.275673,12.064660,14.164297,1.101103,0.380949,-0.099295
2458198470,-111.182991,37.174534,-5.516665,1.035641,0.427978,-0.059678
2458218522,-129.402222,57.159012,-16.182112,0.945141,0.471084,-0.132344
2458238574,-148.034607,47.024158,-8.925495,0.906113,0.765441,-0.402229
2458258626,-152.114685,15.438044,-18.592083,1.030957,0.122750,-0.336648
2458278678,-129.800095,-1.569307,-16.752657,1.081318,-0.770607,-0.208074
2458298730,-83.028763,-11.632820,1.356615,1.090479,-0.888001,-0.203651
2458318782,-46.498337,-13.934761,23.285259,1.091015,-0.410276,-0.222627
2458338835,-19.562315,-18.490200,30.165640,0.968006,-0.090983,-0.253006
2458358887,-3.339188,-25.273920,24.734064,0.814933,-0.052392,-0.224637
2458378939,13.081548,-18.865578,11.541583,0.807159,-0.129933,-0.181534
2458398990,29.178190,-7.810860,-0.082792,0.889637,-0.105372,-0.204954
2458419043,44.501808,-17.978989,-4.350389,0.907914,-0.055752,-0.174952
2458439095,44.428959,-27.420406,-5.045411,0.881575,-0.083263,-0.022680
2458459147,43.531322,-23.614769,-3.777366,0.949130,-0.024749,-0.052052
2458479199,40.598072,-13.339342,-4.941010,0.963830,-0.079574,-0.152922
2458499258,32.678005,-10.610723,-5.849536,0.944806,-0.158216,-0.243031
2458519302,33.206192,-22.631144,1.558446,1.000538,-0.173207,-0.194112
2458539354,40.710079,-32.488461,6.478213,0.974013,-0.129764,-0.169901
2458559406,44.335068,-41.830807,3.227448,0.907690,-0.036204,-0.193084
2458599510,36.409485,-31.270699,-13.737556,0.802021,0.111218,-0.249707
2458619562,38.024723,-30.412642,-18.962982,0.780316,0.010006,-0.182344
2458639614,40.392933,-41.838375,-17.840649,0.822229,-0.087320,-0.145475
2458659666,35.206295,-42.978199,-17.448378,0.850099,-0.081240,-0.143894
2458679718,34.333920,-41.746613,-15.080103,0.984761,0.033110,-0.218424
2458719822,23.141993,-57.338188,-16.416986,1.141254,0.041959,-0.169794
2458739875,20.861040,-46.310440,-18.136713,1.017727,-0.021558,-0.247186
2458759927,39.891369,-47.313786,-16.404339,0.688886,-0.177805,-0.354317
2458779979,40.216843,-71.462952,-19.110298,0.668131,-0.265256,-0.424705
2458800031,39.365620,-64.472336,-12.464604,1.142331,-0.103973,-0.311695
2458820083,30.144718,-54.102669,-1.863830,1.459893,0.054188,-0.132140
2458840135,18.006279,-47.349041,1.792943,1.258926,0.097459,-0.131430
2458860187,18.156099,-27.549932,-3.171341,0.949031,0.001065,-0.281290
2458880239,14.778818,-16.254866,-8.294559,0.798085,-0.046753,-0.432402
2458900291,11.730027,-58.007973,-8.513409,0.758843,0.000545,-0.480124
2458920343,3.362226,-84.117264,-1.288711,0.818588,0.011199,-0.257702
2458940395,-3.154714,-81.599663,0.190372,1.004808,-0.016247,-0.114466
2458960447,0.022360,-69.843857,-0.093776,1.097610,-0.009284,-0.195049
2458980501,7.834895,-66.504318,-4.685709,0.967120,-0.064460,-0.317302
2459000553,7.836691,-78.251060,-6.251972,0.917861,-0.049521,-0.319733
2459020605,5.752064,-77.191422,0.179642,1.011106,0.063378,-0.311017
2459040657,2.726956,-69.896080,2.050302,1.014090,0.106117,-0.328123
2459060709,2.246587,-61.825157,1.492132,0.937756,-0.002604,-0.377847
2459080761,5.409352,-60.828423,6.959598,0.874240,-0.036561,-0.443068
2459100813,7.689672,-69.057762,9.412422,0.759242,-0.054404,-0.536379
2459120865,5.190202,-83.306435,8.560499,0.734354,-0.070105,-0.544099
2459140917,4.607975,-79.158318,10.835255,0.885311,-0.048917,-0.521371
2459160969,1.433900,-68.816505,14.400736,0.924493,-0.003435,-0.587511
2459181021,-3.854401,-65.897552,16.848112,0.859237,0.026392,-0.760908
2459201073,0.343932,-65.179619,16.791115,0.822944,0.014771,-0.831376
2459221126,1.036178,-63.644241,13.973788,0.940255,-0.110097,-0.781384
2459241177,-7.402718,-57.774181,13.357777,1.036413,-0.064507,-0.784866
2459261229,-14.485373,-36.073406,14.043378,1.061423,0.024258,-0.865512
2459281282,-10.426551,-12.915072,12.810154,0.981878,-0.128412,-0.983186
2459301336,-9.296979,-1.251322,9.700089,0.894782,-0.204134,-0.908584
2459321384,-10.255493,9.651029,11.982018,0.924684,-0.034702,-0.837625
2459341437,-14.270082,31.119087,15.903560,0.952942,0.006647,-0.873258
2459361489,-18.719677,56.025295,16.539295,0.883448,-0.096848,-1.003790
2459381541,-19.365868,67.918983,16.801697,0.713841,-0.093541,-1.045292
2459401593,-18.737507,84.506508,18.479898,0.736621,-0.029509,-0.935356
2459421645,-26.495777,101.857056,15.050194,0.881840,0.023991,-0.805435
2459441697,-42.381481,127.424545,9.647226,0.953055,0.267820,-0.556548
2459461749,-37.176323,155.760117,14.360403,0.748976,0.031045,-0.320863
2459481801,-8.381160,176.572083,12.679444,0.537093,-0.297386,-0.434078
2459501853,12.815087,148.233292,18.544840,0.526414,-0.674257,-0.585750
2459521905,31.266314,87.286255,12.601857,0.819644,-0.295355,-0.673488
2459541957,28.264690,49.448967,-10.647795,1.011718,0.077108,-0.655352
2459562009,17.599684,49.644650,-16.677586,0.975205,0.145696,-0.541708
2459582061,11.875389,66.906288,-8.693787,0.914284,-0.024424,-0.375216
2459602113,13.872355,75.175476,-2.091393,0.867254,-0.182442,-0.267113
2459622166,19.777296,68.627144,-0.471736,0.773375,-0.165271,-0.201540
2459642218,24.981258,71.340355,-1.778909,0.735647,-0.141367,-0.278155
2459662270,23.675489,88.910919,-4.703843,0.721845,-0.214763,-0.421819
2459682322,24.682817,85.304077,1.318346,0.714973,-0.274512,-0.495065
2459702374,27.787542,66.591553,5.474376,0.775208,-0.209220,-0.430048
2459722426,27.972725,49.678009,1.826483,0.904299,-0.074257,-0.357623
2459742478,22.067163,52.924961,-2.025169,1.064201,0.000666,-0.301554
2459762530,17.660761,71.857735,-3.627394,1.107412,-0.042734,-0.357275
2459782582,16.226715,77.138489,-3.834563,0.999714,-0.152904,-0.312412
2459802636,15.350852,74.333260,-1.149217,0.972603,-0.183666,-0.228907
2459822688,16.642159,74.745689,-0.893406,0.964213,-0.154423,-0.196496
2459842740,17.055593,79.650238,-2.471716,0.943436,-0.134369,-0.207872
2459862792,20.102026,84.862434,-7.333698,0.914868,-0.161211,-0.250934
2459882844,13.835541,86.863091,-19.388939,0.850614,-0.104210,-0.251413
2459902896,5.930146,85.818153,-27.567846,0.701959,0.007367,-0.266392
2459922948,8.769417,61.098965,-20.996073,0.624133,0.006948,-0.162421
2459943000,17.171465,39.152390,-10.328009,0.823505,-0.155209,-0.095875
2459963052,14.678780,26.926311,-5.896790,1.041103,-0.190635,-0.122551
2459983108,4.014603,27.164642,-6.401668,0.881831,0.047746,-0.131711
2460003156,0.097577,14.193432,-9.061288,0.783554,0.222143,-0.094255
2460023208,-11.928876,4.082311,-13.251293,0.888116,0.197815,-0.128041
2460043260,-18.999887,-23.160637,-19.725899,1.017225,0.029875,-0.125091
2460063312,-27.035629,-35.076923,-24.176344,1.180297,-0.137480,-0.130995
2460083364,-30.769867,-17.941677,-20.217236,1.210008,-0.224996,-0.194573
2460103419,-29.289263,-4.883974,-8.591155,1.049008,-0.249587,-0.244234
2460123467,-20.070389,-10.000950,1.033368,0.941654,-0.223930,-0.263469
2460143519,-13.381922,-14.260003,7.290763,0.876998,-0.043036,-0.272656
2460163571,-9.131257,-14.753933,4.032025,0.924815,0.072589,-0.276109
2460183623,-6.399185,-7.284551,-7.302474,0.927881,0.095088,-0.266169
2460203675,-0.259337,-1.605786,-17.199574,0.929080,0.036442,-0.301381
2460223727,2.117003,3.647676,-22.046303,0.889242,-0.024208,-0.317866
2460243780,-0.425144,-5.671201,-18.830141,0.869296,-0.039596,-0.297925
2460263831,-2.809795,-11.935398,-11.744132,0.946889,-0.020109,-0.294056
2460283884,-5.382784,-12.802938,-7.026130,1.039608,-0.041788,-0.299510
2460303936,-0.203316,-8.080314,-2.701475,1.064141,-0.041426,-0.348054
2460323988,6.063248,-8.003553,-0.650036,1.075342,-0.043057,-0.298424
2460344040,1.811750,-9.265651,-2.546516,1.115538,-0.017201,-0.294530
2460364092,-0.971092,-7.873885,-6.468659,1.074075,0.028086,-0.304437
2460384144,-3.209207,-6.714364,-5.676080,1.028614,0.034397,-0.281657
2460404196,-2.291547,3.148819,-2.792490,1.047890,0.007058,-0.290383
2460424248,-2.589043,15.438255,-2.736206,1.015550,-0.001821,-0.290055
2460444300,-4.726785,18.210873,-2.669222,0.971599,-0.028508,-0.275153
2460464352,-3.273926,18.841249,-0.534637,0.950687,-0.051988,-0.210774
2460484405,-0.370245,17.471502,0.749910,0.940647,-0.022335,-0.130210
2460504457,3.570982,25.378593,-5.061461,1.004151,0.065544,-0.183217
2460524509,-1.154935,33.627781,-12.636874,1.043846,0.140418,-0.227063
2460544561,-6.181435,24.127388,-7.948897,1.025591,0.028718,-0.214176
2460564613,0.924405,15.382482,1.605498,0.993375,-0.057760,-0.118520
2460584665,6.363625,23.002739,2.888495,1.095716,-0.043834,-0.087873
2460604719,13.621718,45.865147,-1.618937,1.133081,-0.000372,-0.231890
2460624771,18.902191,37.274048,-1.841288,0.994223,0.001406,-0.277065
2460644823,23.766985,9.814231,3.837322,0.892812,-0.026176,-0.086244
2460664875,23.236900,-1.578648,7.143296,0.943419,0.043532,-0.060608
2460684927,22.967619,19.178408,6.420075,0.978761,0.116741,-0.169721
2460704979,17.110672,31.375093,4.765779,0.843722,0.036102,-0.312070
2460725031,12.707622,10.089212,11.911837,0.776712,-0.056270,-0.063361
2460745083,21.419403,-7.946462,18.852627,0.927080,-0.045357,-0.028340
2460765135,20.169193,-15.673155,16.818213,1.073004,0.021099,-0.118323
2460785187,14.734553,-6.392002,13.483709,0.967384,0.003678,-0.240928
2460805239,3.834296,-23.146391,16.432842,0.880095,-0.055933,-0.125888
2460825291,7.530907,-29.373297,20.735115,1.000318,-0.046075,-0.064621
2460845343,10.183876,-27.412619,18.317322,1.131652,-0.027171,-0.052548
2460865396,5.486733,-16.200905,8.594425,1.187653,0.061094,-0.147510
2460885447,-3.736431,-0.358494,3.495479,1.029070,0.087768,-0.215107
2460905517,-13.561172,-5.886467,7.451446,0.907998,-0.020007,-0.082845
2460925550,-12.431415,-14.573929,8.284355,0.874963,-0.114905,-0.029722
2460945602,-7.436907,-34.373421,1.901140,0.936707,-0.123749,-0.060628
2460965654,0.807197,-33.068810,-0.796772,0.983597,-0.160389,-0.063234
2460985706,6.070401,-29.534107,2.872578,0.967993,-0.146626,-0.191924
2461005759,5.551658,-35.049835,5.150295,0.950717,-0.019041,-0.232331
2461025810,-0.247256,-41.782795,2.894260,1.017911,0.037430,-0.136989
2461045862,-4.110038,-41.566277,-2.076930,1.061763,-0.003730,-0.054496
2461065915,0.918313,-40.978745,-2.004925,1.010345,-0.105811,-0.050044
2461085967,2.854555,-40.122128,-1.803923,0.951654,-0.096928,-0.151081
2461106019,8.709567,-48.418449,-4.020757,0.916146,-0.070995,-0.187532
2461126070,15.490664,-51.502342,-6.483245,0.993747,-0.102757,-0.190522
2461146123,15.697002,-53.126411,-6.606563,1.059088,-0.126486,-0.112260
2461166175,6.805573,-51.154053,-1.267081,1.124567,-0.076882,-0.109825
2461186227,-0.405291,-38.530350,4.755111,1.097116,0.011429,-0.214287
2461206279,-2.466908,-22.800014,3.329837,0.985929,0.021850,-0.256548
2461226331,-5.337880,-16.542862,0.550541,0.903907,-0.038618,-0.215350
2461246383,-5.489601,-19.071995,-0.660903,0.936869,-0.029993,-0.150597
2461266435,-0.257886,-22.894230,-3.029357,1.021524,-0.029358,-0.144551
2461286487,5.533171,-20.307104,-4.472723,1.049085,-0.059528,-0.181178
2461306539,7.204058,-11.967702,-4.418674,0.995180,-0.055820,-0.225137
2461326592,9.591219,-9.733093,-1.676050,0.930000,-0.054424,-0.257516
2461346643,11.848077,-2.214452,0.032834,0.968263,-0.037215,-0.292707
2461366696,13.566294,-6.776036,0.821004,0.991262,-0.019336,-0.259305
2461406801,13.782096,-14.515725,0.013913,1.011594,0.004845,-0.178463
2461426853,15.004544,-1.280625,-0.820333,1.035926,-0.021516,-0.272596
2461446905,14.571770,12.499620,-1.375456,1.013582,0.032704,-0.251479
2461507062,8.554062,0.834530,-12.587904,0.994304,0.022301,-0.130255
2461527114,3.314745,4.833089,-13.532061,1.050513,-0.017087,-0.212560
2461547166,6.607704,-0.031040,-11.796029,1.090985,-0.078127,-0.134679
2461567218,9.472008,-4.479983,-4.005692,1.032289,-0.093404,-0.005135
2461587270,5.414535,-11.888166,7.571588,0.977281,-0.083052,-0.035364
2461607322,9.172966,-6.247073,12.143682,0.956398,-0.022150,-0.157911
2461627374,18.320080,2.021626,2.918712,0.941339,-0.006290,-0.209551
2461647426,28.458065,-3.964687,-5.772433,1.002439,-0.019648,-0.206328
2461667478,25.609785,2.244044,-5.436619,1.045642,-0.024146,-0.280131
2461687530,13.408668,-1.353751,1.264691,0.957140,0.074635,-0.239459
2461707595,5.111235,-10.520649,4.452030,0.884818,0.093630,-0.259822
2461727633,2.156951,-8.831392,-1.464343,0.843769,0.050271,-0.280515
2461747685,-2.297606,2.271833,-10.588213,0.875551,-0.007922,-0.307700
2461767737,-9.293657,5.407696,-10.482884,0.956736,-0.092871,-0.320137
2461787789,-10.940159,-6.643847,-0.951926,1.042475,-0.137987,-0.305102
2461807841,-8.704372,-19.776800,7.634030,1.108678,-0.110597,-0.197342
2461827893,-8.462175,-20.210392,6.051438,1.107008,-0.069752,-0.104034
2461847945,-6.698434,-2.819653,2.731943,1.018508,-0.042235,-0.167963
2461867997,-4.803711,14.545246,4.778393,0.903293,-0.053912,-0.242897
2461888049,-7.443775,18.836458,7.796113,0.889717,-0.094044,-0.270885
2461908101,-15.049289,7.107929,7.369296,0.931562,-0.066848,-0.268903
2461928153,-20.256277,1.631648,6.336514,0.953086,-0.018660,-0.263401
2461948206,-16.871405,-1.129932,6.723793,0.964131,-0.088006,-0.215624
2461968258,-11.215012,-0.169237,7.529450,1.000046,-0.159767,-0.194544
2461988310,-7.056024,11.832928,6.774215,1.021374,-0.130831,-0.239443
2462008362,-3.871198,10.076585,3.073041,0.950441,-0.090615,-0.211692
2462028413,-5.465771,-12.839537,1.651931,0.972769,-0.088962,-0.118032
2462048466,-1.128181,-14.297018,1.988909,1.026349,-0.097625,-0.109373
2462068518,-4.797630,4.643942,0.916925,0.963253,-0.116506,-0.207030
2462088570,-15.568962,18.278461,7.194565,0.901525,-0.035018,-0.479337
2462108622,-15.301899,-26.220753,13.464027,0.909918,0.029416,-0.326065
2462128674,-11.197971,-34.950745,3.329290,1.007128,-0.044846,0.001577
2462148726,-7.191755,-9.454659,-2.717029,1.013875,-0.057396,0.070025
2462168778,-5.660177,18.681360,-1.738305,0.956237,-0.036763,-0.061042
2462188832,-5.644755,28.844948,-0.833542,0.891865,-0.017413,-0.255670
2462208884,-4.783177,9.021523,-4.335224,0.817724,-0.045831,-0.268409
2462228936,-7.167149,-3.891182,-5.335790,0.898965,-0.071704,-0.164470
2462248988,-8.568852,0.998775,-2.555514,1.064855,-0.069809,-0.082429
2462269040,-3.507325,19.774448,-0.386192,1.316726,-0.065900,0.089720
2462289092,0.207296,73.981461,0.888458,1.457221,-0.071236,0.044154
2462309144,-2.174661,79.610909,1.574737,1.089499,0.025842,-0.119624
2462329196,-0.690156,34.821377,-3.273558,0.972094,-0.016970,-0.038892
2462369300,8.350686,14.283419,-6.972695,0.693252,-0.123597,-0.146515
2462389353,7.572233,-0.855804,-6.374570,0.814709,-0.070318,-0.022031
2462409405,3.439336,-13.600667,-5.442469,1.027270,-0.042350,0.110116
2462429457,7.111243,-12.208267,-6.342869,1.066616,-0.097891,0.050964
2462449509,15.831607,-10.191538,-6.178555,0.891839,-0.145993,-0.078139
2462469561,13.814837,-23.496632,-1.198101,0.873849,-0.055937,-0.086852
2462489613,12.255063,-30.403324,3.085618,1.098100,0.043508,-0.009525
2462509664,6.661060,-16.498064,2.425767,1.306700,0.149858,0.012808
2462529716,-4.280893,8.766127,-0.833042,1.269382,0.169542,-0.053939
2462549768,-7.305593,18.625195,-4.109749,1.076116,0.057628,-0.061012
2462569820,-7.398747,12.529264,-6.369977,1.034278,-0.009856,0.049261
2462589872,-8.256432,25.429632,-2.776230,1.121805,-0.014169,0.096646
2462609924,-3.047374,50.448898,0.940371,1.097763,-0.018977,-0.014166
2462629976,-3.676227,50.445171,-0.196240,0.984815,-0.062336,-0.055636
2462650028,-2.250118,38.255505,-1.246105,0.871743,-0.060325,-0.005384
2462670080,1.652097,14.712539,-1.833295,0.896201,-0.054249,0.002808
2462690132,8.493509,0.476591,-3.128111,1.076197,-0.054921,0.074709
2462710185,16.349575,6.547093,-3.303359,1.188480,-0.111020,0.092787
2462730237,15.830584,7.180632,-1.031673,1.072708,-0.127959,0.037631
2462750289,9.218486,-1.109473,2.205107,0.940567,-0.074919,-0.090340
2462770341,2.177746,-7.638155,5.905864,0.956122,-0.027235,-0.170487
2462790393,-6.593719,-18.891357,11.002876,1.024147,0.048309,-0.133253
2462810444,-12.942780,-16.621166,12.801068,1.028134,0.032357,-0.105593
2462850549,-23.002304,-8.008188,21.399767,0.844305,-0.062829,-0.113338
2462870601,-23.365425,-1.856288,23.379539,0.780306,-0.109842,-0.182956
2462890653,-19.643520,-7.331617,25.261524,0.799819,-0.162547,-0.141855
2462910705,-10.582774,-24.803293,28.600246,0.950390,-0.040729,-0.134563
2462930757,-1.216596,-23.198761,18.170372,1.101996,0.100934,-0.220559
2462950809,-2.056722,-14.861477,-5.853042,1.014823,0.130643,-0.092193
2462970861,-10.395368,-9.477127,-14.925530,1.003448,-0.010915,0.037058
2462990913,-33.184517,18.877769,-2.244713,1.148678,-0.184174,-0.017074
2463010967,-65.422707,39.934288,19.748783,1.146844,-0.159306,-0.120892
2463031019,-87.785210,39.201118,32.537262,0.829802,0.008142,-0.225232
2463051071,-89.289474,17.397984,29.353968,0.681983,0.214549,-0.305921
2463071123,-93.250595,0.385150,19.114176,0.961255,0.263321,-0.273605
2463091175,-106.608185,1.619479,13.240907,1.242512,0.167180,-0.196700
2463111227,-130.328323,13.568525,11.305719,1.177599,0.064715,-0.191612
2463131279,-155.373184,16.920160,11.371149,0.924683,0.030905,-0.217280
2463151332,-174.241913,10.144311,12.234791,0.822625,0.037476,-0.244163
2463171384,-183.212112,8.347274,17.041603,0.877762,0.077578,-0.307765
2463191437,-182.539032,4.980543,19.372129,0.911562,0.029735,-0.342234
2463211487,-189.367722,-0.771426,16.044443,0.923720,-0.123108,-0.364918
2463231540,-186.971634,-2.116394,13.380445,0.925449,-0.132142,-0.297638
2463251592,-185.361343,10.987507,7.021456,1.023892,-0.084394,-0.194429
2463271644,-189.824936,20.339293,1.852261,1.158809,-0.127605,-0.187156
2463291696,-208.645874,29.578705,3.342805,1.149386,-0.077091,-0.268876
2463331799,-213.666428,19.833942,26.948700,0.979306,-0.159860,-0.248948
2463351851,-198.099899,6.114419,29.855370,0.991832,-0.168658,-0.173141
2463371903,-171.299942,-3.272725,27.968435,1.063995,-0.119556,-0.066500
2463391955,-148.742935,3.651910,25.215832,0.985250,-0.073577,-0.124211
2463412007,-144.407394,3.904988,31.920820,0.918617,-0.103462,-0.126246
2463432059,-145.792084,4.107980,34.232185,0.959497,-0.189425,-0.012083
2463452111,-140.638794,15.336113,36.094009,1.060349,-0.139602,0.083302
2463472164,-133.727646,34.903831,36.751743,1.039677,-0.010449,-0.031581
2463492215,-146.799255,44.261421,28.205326,0.950196,0.112151,-0.162236
2463512267,-155.000061,59.771412,13.929049,0.765947,0.183260,-0.212716
2463532319,-167.658386,45.472572,6.062742,0.650474,0.392508,0.003621
2463552371,-188.259186,36.888741,6.137429,0.957490,0.899942,-0.478037
2463572423,-216.478928,10.179982,-3.234354,1.247344,0.189082,-0.363147
2463592476,-190.228973,18.362316,2.973321,1.314301,-0.818461,-0.178240
2463612528,-121.768707,29.502850,20.319826,1.212270,-0.950784,-0.171433
2463632580,-73.714523,31.754351,27.722622,1.046244,-0.320323,-0.017315
2463652632,-53.105385,22.370785,20.812992,0.912933,0.070210,0.056744
2463672684,-51.451042,-6.402619,4.631961,0.738696,-0.033759,-0.058984
2463692736,-36.861767,-33.760326,-0.371936,0.623188,-0.256726,-0.009599
2463712788,-7.013821,-34.347923,3.090800,0.792800,-0.370134,0.039449
2463732840,12.945395,-29.740702,2.711725,0.907838,-0.207604,0.084735
2463752892,9.551599,-33.476765,-2.314220,0.932193,-0.075767,-0.014501
2463772944,0.431382,-48.968075,-4.341859,0.934671,-0.183431,-0.072312
2463792996,1.358984,-64.522560,-0.355107,0.973138,-0.444140,-0.081291
2463813050,12.004712,-70.020821,2.744747,0.977451,-0.417960,-0.068204
2463833102,18.689342,-68.444000,5.071291,0.898924,-0.144847,-0.151991
2463853154,27.468191,-75.523682,0.151133,0.724859,0.086882,-0.262424
2463873206,36.539200,-86.158600,-13.813731,0.657748,0.097736,-0.172413
2463893258,42.014091,-101.787811,-22.704962,0.841122,0.003840,-0.101408
2463913310,42.778168,-105.636337,-28.201870,0.962424,-0.062612,-0.046067
2463933362,33.247135,-93.758286,-27.231462,0.901135,-0.064839,-0.180439
2463953414,14.699028,-91.903786,-25.730722,0.601157,0.017995,-0.385106
2463973466,9.894904,-128.251450,-10.953669,0.490628,0.246281,-0.523859
2463993518,17.766546,-123.726532,-8.258751,0.990989,0.161969,-0.396551
2464013571,31.379658,-108.749023,-35.614532,1.731131,-0.282672,-0.216294
2464033623,31.073345,-82.843109,-40.827061,1.678666,-0.404677,-0.194442
2464053675,17.891171,-75.450439,-14.336731,0.979897,-0.060771,-0.430405
2464073727,28.537333,-88.257202,-6.080740,0.660994,0.042027,-0.589178
2464093779,41.772949,-103.036613,-18.259306,0.901564,-0.083547,-0.492953
2464113831,40.880650,-94.826942,-27.639717,1.177460,0.029051,-0.258909
2464133883,32.038242,-70.851097,-21.936493,1.103966,0.104887,-0.294298
2464153934,24.474445,-65.008972,-13.495858,0.807927,0.036162,-0.410934
2464173986,18.846809,-73.981316,-9.916018,0.631950,-0.013070,-0.568206
2464194038,19.635607,-75.348801,-12.079165,0.815104,0.003058,-0.561278
2464214090,18.822468,-65.920753,-10.186312,1.103042,-0.006405,-0.485329
2464234142,18.872042,-53.250523,-6.705773,1.070970,-0.061525,-0.522999
2464254194,15.151992,-53.763718,-3.587751,0.932561,-0.055958,-0.646829
2464274246,15.282189,-55.242157,-1.021014,0.947248,-0.007271,-0.688278
2464294298,24.904663,-53.259129,-2.312061,0.931122,-0.107505,-0.546634
2464314351,31.405811,-43.766678,-6.181999,0.872956,-0.205989,-0.543725
2464334403,30.166370,-33.043949,-6.794515,0.821335,-0.147012,-0.662742
2464354455,33.318146,-29.001879,-5.937966,0.776198,-0.066718,-0.778778
2464374507,33.803722,-30.580774,-5.212695,0.855849,-0.058772,-0.762582
2464394559,32.654377,-20.982887,-6.116945,0.908136,-0.097143,-0.689696
2464414611,24.097408,-0.931970,-9.085782,0.975799,-0.123344,-0.772890
2464434663,10.087747,15.441820,-6.863610,0.888215,-0.100599,-1.006348
2464454715,0.242175,20.454916,2.490154,0.870493,-0.043150,-1.091025
2464474767,-4.997955,30.510208,4.905343,0.956653,-0.047326,-1.059374
2464494820,-1.578665,43.628254,2.501888,1.026171,-0.149714,-0.954633
2464514871,6.739222,64.438820,-4.621165,1.112284,-0.266222,-0.765634
2464534923,2.408051,89.275772,-11.435347,1.094095,-0.188358,-0.392311
2464554975,-15.007895,122.553551,-16.917400,1.135517,0.073327,-0.186466
2464595080,-3.609842,174.833786,-4.171837,0.134303,-0.020100,-0.972908
2464615132,-11.348477,104.528732,-1.857813,0.386180,-0.054830,-0.860114
2464635184,-15.334380,60.361832,-17.809509,0.730583,-0.135665,-0.738860
2464655237,-13.128614,54.745407,-21.049883,0.848282,-0.213618,-0.514183
2464675289,-6.665793,69.430267,-14.160420,0.971290,-0.223847,-0.358053
2464695341,1.788086,81.939034,-7.696160,1.004554,-0.264795,-0.335622
2464715394,5.003664,89.685516,2.613720,0.910402,-0.199506,-0.387577
2464735446,4.462692,79.492264,16.723158,0.891345,0.071495,-0.475643
2464755498,-4.373655,75.503319,18.134525,0.915542,0.241732,-0.551604
2464775550,-9.287715,86.423584,-1.409621,0.894781,0.112746,-0.584613
2464795602,-3.758641,89.422722,-20.210127,0.873425,-0.104639,-0.534261
2464815654,0.315786,80.757050,-18.976639,0.888657,-0.192272,-0.367456
2464835706,1.648897,79.349060,-7.740238,0.922980,-0.085383,-0.242030
2464855758,-1.674234,92.538986,-5.025784,0.912510,-0.134798,-0.188546
2464875810,-3.095115,114.508514,-1.319091,0.849460,-0.189400,-0.229714
2464895862,-3.687137,130.909988,10.584195,0.774891,-0.091280,-0.403786
2464915914,-3.160039,124.924805,15.568850,0.790639,-0.057563,-0.354442
2464935966,-4.043296,92.384842,7.821908,0.876591,-0.075155,-0.218393
2464956019,1.290948,78.720856,-3.478574,0.849481,-0.035183,-0.418993
2464976069,5.196536,60.643425,-4.152809,0.833581,0.111334,-0.361454
2464996121,-2.351582,32.915066,-7.669782,0.934836,0.326615,-0.246260
2465016173,-24.920261,33.657253,-24.186562,0.859805,0.489183,-0.156153
2465056277,-44.751324,41.512615,-26.813850,0.882274,-0.228660,-0.178041
2465076330,-45.385216,28.739307,-10.035275,0.870636,-0.486162,-0.132609
2465096381,-39.437805,1.656569,6.100618,0.874336,-0.333572,-0.155707
2465116433,-26.267036,-14.299144,9.614571,0.898666,-0.104649,-0.174725
2465136485,-19.884062,-15.824081,7.980535,0.980358,0.034597,-0.183482
2465176590,-24.265385,-13.118916,-1.470633,0.902894,0.013474,-0.161884
2465196642,-29.978556,-12.886570,-3.235330,0.989115,-0.057584,-0.169357
2465216694,-24.270647,-15.441592,-3.796946,1.026993,-0.037298,-0.218219
2465236746,-16.606077,-21.115360,-7.342189,1.088378,-0.003396,-0.271525
2465256798,-12.012025,-13.027184,-12.805780,1.143683,0.016573,-0.306991
2465276850,-13.745813,-4.239230,-18.716726,1.114481,0.017919,-0.271678
2465296902,-18.343414,1.223745,-20.446787,0.990581,-0.026361,-0.248505
2465316954,-12.758040,-0.145717,-17.094122,0.920085,-0.033901,-0.224742
2465337007,-3.796089,2.728427,-14.856216,0.935730,-0.050551,-0.241615
2465357059,0.648538,4.606955,-9.331605,0.927862,-0.055553,-0.234343
2465377111,4.228097,2.034152,-2.123984,0.939398,-0.070945,-0.219541
2465397163,6.577023,0.706835,7.618728,0.938045,-0.080234,-0.201721
2465417215,14.315835,-0.392294,16.661503,0.983770,-0.052770,-0.270877
2465437267,19.014376,-7.692510,12.296795,1.038136,0.021818,-0.266811
2465457319,19.940580,-17.881348,0.455354,1.035710,0.093336,-0.246298
2465477372,19.203033,-18.412693,-4.756879,1.071409,0.088672,-0.221998
2465497425,16.208637,-6.180091,-3.699033,1.103499,0.063881,-0.194127
2465517477,9.593703,6.550989,-1.709426,1.104546,0.068276,-0.172722
2465537529,2.298504,20.518305,-3.998372,1.098601,0.033391,-0.260972
2465557581,-1.494030,34.497845,-6.773640,1.033484,-0.010189,-0.312643
2465577633,-4.862389,31.227371,-1.857606,0.958941,-0.119184,-0.247745
2465597685,-7.273228,11.804300,2.484699,0.942842,-0.065495,-0.047717
2465617737,-12.621511,16.580425,0.961902,1.008627,-0.013327,-0.114200
2465637789,-6.554599,37.865486,3.940753,1.038867,-0.006602,-0.252935
2465657841,6.005999,33.145157,6.825045,1.023970,-0.098617,-0.185176
2465677893,7.060789,12.415632,9.882215,0.981959,-0.079332,-0.010926
2465697946,8.238351,6.463716,13.456844,1.003480,0.011911,0.051335
2465717998,12.764675,41.026154,9.554262,1.104034,0.090680,-0.143356
2465738049,12.527927,59.109283,1.359812,0.973880,0.115468,-0.207367
2465758101,-0.220250,8.986296,-2.623856,0.922765,0.103668,-0.019825
2465778154,-3.533753,-1.856914,-4.343650,0.967337,0.054278,-0.056110
2465798213,-3.181829,4.495742,-2.569451,0.970270,-0.018892,-0.084325
2465818257,-0.328786,8.746511,1.575751,1.007751,-0.043394,-0.151939
2465838309,3.624834,10.309123,3.281826,0.930198,-0.133863,-0.189431
2465858360,14.421885,-6.066225,10.110061,0.861790,-0.275979,-0.097024
2465878413,25.080427,-18.131037,18.030018,0.948489,-0.248305,-0.157713
2465898465,30.933477,-15.400126,18.844664,1.007566,-0.071448,-0.246317
2465918517,29.722368,-11.949171,18.378460,0.961623,0.039319,-0.193576
2465938569,18.123056,-9.102757,18.289341,0.956695,0.134980,-0.084930
2465958621,0.365727,-16.538692,14.478653,0.989635,0.169483,-0.091548
2465978673,-4.533944,-16.301970,4.187329,0.994670,0.012669,-0.187944
2465998725,-9.445187,-9.970910,-1.592775,0.986284,-0.133619,-0.161771
2466018777,-16.252094,-14.070963,4.145849,0.988898,-0.154263,-0.099622
2466038829,-18.394011,-18.561718,8.110710,1.052436,-0.060817,-0.067898
2466058881,-19.739391,-17.540232,5.371658,1.050185,-0.025475,-0.105949
2466078933,-20.120478,-11.253931,2.227599,0.942110,0.024054,-0.107561
2466098985,-14.939190,-16.050856,0.643155,0.910485,-0.018437,-0.087844
2466119037,-13.314137,-33.700497,-2.047758,0.956698,-0.112206,0.006907
2466139090,-12.753787,-39.969448,-3.534565,1.046344,-0.064489,-0.037634
2466159142,-14.173107,-26.885330,-3.905049,1.072833,-0.029080,-0.235166
2466179194,-20.589100,-28.582228,-3.896955,0.991614,-0.062090,-0.173558
2466199246,-26.981773,-46.300320,-5.523771,0.954998,-0.027562,-0.071882
2466219298,-24.435234,-63.296585,-6.693887,0.897578,-0.011958,-0.019938
2466239350,-11.560222,-67.199585,-3.342626,0.914938,-0.106264,-0.041626
2466259402,-3.646444,-53.877731,1.406178,1.006211,-0.141214,-0.104739
2466279454,-4.080552,-41.609066,4.312269,1.077759,-0.051512,-0.177796
2466299507,-4.718398,-33.229984,2.229722,1.103328,-0.033867,-0.225079
2466319560,-4.896223,-34.757500,-2.623064,1.014335,-0.157075,-0.160756
2466339612,-6.497128,-33.895981,-0.397259,0.963113,-0.180466,-0.104591
2466359664,-12.108487,-23.828791,4.276549,1.023484,-0.007966,-0.116429
2466379716,-19.097122,-13.827741,5.927063,1.065793,0.057474,-0.166055
2466399768,-21.207409,-13.353137,2.735425,1.050837,-0.050420,-0.173455
2466419820,-15.793875,-11.008434,0.565447,1.061566,-0.184159,-0.226180
2466439872,-10.234447,-11.864103,1.165187,0.993117,-0.173253,-0.234517
2466459924,-6.342384,-15.908993,2.178184,0.911580,-0.094792,-0.205466
2466479976,-7.547049,-13.988560,2.179568,0.878759,-0.040211,-0.170158
2466500037,-8.136054,-10.746001,2.926496,0.912080,-0.021923,-0.218212
2466520080,-8.969791,-10.940090,1.911877,0.983358,0.014078,-0.234028
2466540132,-7.252479,-9.144421,-0.421652,1.014789,-0.009967,-0.249432
2466560184,-8.780075,-11.218495,-0.285128,1.027956,-0.003743,-0.197152
2466580237,-16.977379,-7.426785,3.918577,1.041734,0.043585,-0.129529
2466600289,-20.438999,-5.429087,5.261960,1.040725,-0.048359,-0.129199
2466620341,-21.261700,-5.965342,6.544940,0.962118,-0.153810,-0.165890
2466640392,-18.278500,-6.368316,10.554551,0.913865,-0.166160,-0.170724
2466660444,-14.685065,-3.144791,9.973763,0.968207,-0.069451,-0.189271
2466680495,-17.685320,-0.079165,4.461928,0.999055,0.038691,-0.217933
2466700548,-20.173475,-1.848090,-1.359324,1.017051,0.029942,-0.235336
2466720600,-19.653183,1.538023,-3.061282,1.003276,-0.108265,-0.195935
2466740652,-16.829756,-1.082010,2.267186,0.968014,-0.205460,-0.150709
2466760704,-9.857716,-1.197246,5.637778,0.975491,-0.148069,-0.179494
2466780756,-8.571668,7.097876,1.500949,0.998175,-0.019305,-0.194365
2466800808,-6.595275,3.263665,-7.778332,1.089843,0.054863,-0.161674
2466820860,-4.082367,12.740801,-14.739036,1.144719,0.020234,-0.190239
2466840912,-5.136182,21.020317,-11.743193,1.043831,-0.127553,-0.152981
2466860964,-13.660322,23.589970,-2.381472,0.944572,-0.241993,-0.192441
2466881016,-10.877854,4.213840,9.992547,0.938801,-0.228291,-0.148016
2466901069,-3.805575,-3.349892,15.495721,0.986920,-0.148950,-0.153773
2466921121,4.311344,-0.893059,12.657462,0.928530,-0.073340,-0.137158
2466941173,15.755990,-1.758013,0.939367,0.896138,-0.019961,-0.096926
2466961225,25.416061,2.416138,-4.436722,0.997234,0.039600,-0.032370
2466981277,30.420759,5.967353,-3.882289,1.056752,0.032092,-0.026408
2467001329,35.145905,9.298112,-6.676898,1.020586,-0.046939,-0.115726
2467021381,39.996460,18.030989,-12.499013,0.922227,-0.087182,-0.221474
2467041433,44.329674,17.053038,-14.354006,0.912555,-0.085225,-0.267644
2467061485,48.577328,9.101492,-10.826613,1.021664,-0.051489,-0.141931
2467081537,53.501991,22.481098,-13.042024,1.201407,-0.061318,0.039954
2467101589,50.151638,91.120888,-12.724107,1.229322,-0.037948,0.056240
2467121641,53.491890,86.688049,-12.459897,0.834694,0.126295,-0.216750
2467141695,45.375076,41.093204,-14.687315,0.891965,0.115656,-0.028180
2467161747,36.762012,22.616346,-12.763785,0.912008,0.069838,-0.065134
2467181799,37.381882,1.133401,-16.729561,0.860383,0.026881,-0.023923
2467201851,30.755135,2.893610,-18.446148,0.953073,0.054910,0.137457
2467221903,22.143814,11.459051,-16.441490,1.058526,0.131267,0.181309
2467241955,13.279249,20.372820,-14.316677,1.113391,0.103134,0.104863
2467262007,3.543671,24.917559,-14.283455,1.051547,0.036783,0.003947
2467282059,-8.549658,18.457039,-11.384534,1.038513,0.023564,0.041179
2467302112,-15.722808,13.160791,-5.944817,1.161281,0.073954,0.192244
2467322163,-18.648300,29.175705,-3.505500,1.314519,0.112723,0.236960
2467342216,-19.015104,61.187492,-5.927261,1.252475,0.124594,0.193213
2467362268,-10.943701,83.244492,-11.379573,1.005785,0.043523,0.139962
2467382320,-7.679924,62.660484,-9.202837,0.865274,-0.035481,0.183686
2467402372,-11.547320,32.511726,-0.738005,0.898327,-0.024973,0.278592
2467422424,-10.242311,19.595757,2.322470,0.995580,0.025564,0.303417
2467442476,-4.740634,26.999046,0.453346,1.023896,0.035701,0.257967
2467462528,5.162772,38.268593,-0.839482,0.843529,-0.063677,0.159320
2467482579,6.757432,20.235832,3.125260,0.769458,-0.073785,0.156367
2467502631,2.394062,-6.077533,7.560202,0.906677,0.023063,0.198753
2467522683,1.678632,-20.239149,5.426512,1.031076,0.049584,0.223685
2467542735,1.480411,-20.798193,3.670189,1.067098,0.027261,0.232833
2467562787,0.769397,-10.721226,6.030665,1.039969,0.001023,0.161690
2467582839,-0.128563,-7.462230,8.490489,0.986422,0.015213,0.113614
2467602891,1.097826,-16.664425,8.264085,0.964402,0.021728,0.134286
2467622943,0.493899,-14.318688,7.672634,0.992043,-0.018904,0.167034
2467642996,-5.863067,8.475078,11.166005,0.970493,-0.023934,0.097777
2467663047,-20.432129,11.717134,16.669836,0.892490,0.033962,0.047385
2467683100,-26.088186,-5.002400,19.707960,0.933981,0.054805,0.081883
2467703152,-33.596745,-9.695785,21.197081,1.028044,-0.022220,0.139154
2467723204,-40.682037,-17.393431,23.772617,1.092723,0.041731,0.115515
2467743256,-38.839691,-13.171224,12.487510,1.107438,0.130353,0.064789
2467763307,-38.612274,-3.714914,-2.581805,0.914856,0.104515,0.053725
2467783360,-51.319057,-11.431856,1.549452,0.849219,0.058512,0.138406
2467803412,-68.403793,-9.232132,16.470821,1.092150,0.140435,0.086103
2467823464,-89.043510,3.668338,22.519499,1.048678,0.059629,0.077551
2467843516,-114.810211,8.466646,25.194939,0.902265,0.002799,0.090622
2467863568,-125.327766,9.870944,21.646828,0.846879,0.123231,-0.069940
2467883620,-131.339798,-1.163376,12.925680,0.924096,0.189449,-0.134142
2467903672,-148.259872,-9.842493,14.530355,1.019179,0.073076,-0.122305
2467923724,-165.938965,-12.259675,17.917511,1.140792,-0.015002,-0.015997
2467943777,-173.774918,-6.914263,11.762879,1.120082,-0.082416,-0.057443
2467963829,-182.488861,-4.998441,4.415320,0.872802,-0.102838,-0.164750
2467983882,-184.831329,-4.950956,3.544397,0.691589,-0.026619,-0.175733
2468003934,-184.031372,-7.875509,0.052716,0.810856,-0.016450,-0.169097
2468023986,-185.540894,-8.059130,-4.599602,1.071824,-0.068873,-0.043219
2468044039,-199.445480,-5.057843,-5.423603,1.298130,-0.086764,-0.071218
2468064091,-210.502625,-0.255214,-4.064489,1.204111,-0.039204,-0.136781
2468084143,-204.660858,-0.496127,1.004618,1.020495,0.006287,-0.142335
2468104195,-189.839508,-2.041514,6.598023,0.966477,0.004158,-0.117610
2468124247,-176.149338,-11.384652,8.406481,0.953557,-0.067060,-0.101881
2468144299,-161.106674,-26.227894,7.042675,0.937949,-0.100841,-0.066338
2468164351,-152.348999,-30.635263,8.131006,0.979311,-0.085811,-0.038044
2468184403,-154.447540,-18.338665,9.976530,1.095544,-0.085720,-0.068758
2468204455,-161.464890,-8.904477,12.053431,1.049058,-0.078601,-0.135970
2468224508,-158.257187,-10.425019,16.779236,0.944961,-0.025787,-0.118052
2468244559,-147.385986,-0.355658,20.363472,0.914190,0.002073,-0.185847
2468264611,-146.802429,10.178659,15.696227,0.896492,0.000699,-0.151966
2468284664,-137.765060,9.227507,10.823071,0.986745,0.033763,-0.121717
2468304717,-127.204018,19.222988,7.867031,1.080895,0.083105,-0.033553
2468324766,-143.611633,40.437336,3.714617,1.113950,0.402595,-0.093365
2468344818,-167.640320,40.254482,3.246186,1.019740,0.858377,-0.299072
2468364870,-171.116653,15.695688,-0.275555,1.049457,0.446001,-0.372522
2468384922,-156.835052,14.681805,-4.885068,1.078529,-0.360861,-0.279000
2468404974,-120.922272,12.117037,0.181518,1.077359,-0.706610,-0.217840
2468425026,-89.406670,-0.721843,15.372637,0.969716,-0.454292,-0.130185
2468445078,-67.935944,-10.726792,26.904453,0.956683,-0.141973,-0.131256
2468465131,-49.682961,-15.673181,27.779108,0.952782,-0.089263,-0.129713
2468485183,-32.507511,-15.681367,14.767631,0.901470,-0.147223,-0.134132
2468505235,-9.959107,-17.601725,-0.042930,0.881268,-0.182128,-0.138597
2468525287,6.417483,-18.793726,-4.970880,0.919174,-0.161162,-0.145933
2468545339,19.609591,-16.228275,-4.294653,0.975114,-0.116115,-0.162235
2468565391,27.281204,-15.542310,-2.200332,0.976999,-0.086489,-0.187558
2468585443,25.171064,-23.443979,-1.012785,0.941722,-0.080516,-0.113533
2468605495,24.909561,-24.710020,-0.462646,0.957187,-0.094375,-0.132076
2468625547,28.710249,-22.231804,-0.267884,0.948984,-0.139182,-0.125527
2468645599,30.066668,-21.458202,0.608134,0.992443,-0.164813,-0.139282
2468665652,30.006407,-18.172256,2.862941,1.030005,-0.133393,-0.139833
2468685704,29.275024,-19.015324,4.753263,1.065167,-0.045301,-0.147965
2468705756,30.939516,-14.266783,2.424735,1.043695,0.043130,-0.168227
2468725808,30.172840,-9.552780,-1.645983,0.992216,0.029555,-0.182067
