Timestamp (us),Gyroscope X (deg/s),Gyroscope Y (deg/s),Gyroscope Z (deg/s),Accelerometer X (g),Accelerometer Y (g),Accelerometer Z (g)
7205433754,4.516953,-1.673589,-4.517235,0.646493,-0.586351,0.466191
7205453755,3.396779,-1.382775,-4.961797,0.649594,-0.590600,0.466105
7205473755,3.124581,-0.819692,-5.373470,0.646992,-0.588065,0.467864
7205493756,4.169011,-1.039744,-4.518519,0.654761,-0.584998,0.471361
7205513758,3.916745,-1.168188,-4.417993,0.661209,-0.589662,0.472592
7205533759,2.434100,-1.730362,-4.864632,0.666815,-0.586681,0.473242
7205553759,2.626948,-1.214666,-5.346609,0.674645,-0.573601,0.471386
7205573760,2.573406,-1.266997,-5.156144,0.672894,-0.579388,0.471002
7205593761,2.275851,-1.266796,-5.291574,0.666233,-0.585280,0.481333
7205613761,2.439333,-2.109907,-6.124425,0.663095,-0.573266,0.471356
7205633760,1.012707,-2.151793,-6.155715,0.673873,-0.568184,0.467647
7205653761,0.394911,-0.539249,-5.742240,0.678228,-0.575443,0.462329
7205673762,1.056074,0.535651,-5.392964,0.668453,-0.579701,0.467952
7205693762,1.343111,1.579116,-5.467400,0.658691,-0.581421,0.466694
7205713763,2.615470,1.277254,-5.661826,0.651716,-0.578291,0.459096
7205733763,2.931471,1.919444,-5.111429,0.643691,-0.575328,0.457328
7205753764,2.916967,1.962739,-4.017255,0.638562,-0.565022,0.464780
7205773765,2.828274,0.787344,-2.689237,0.651015,-0.553142,0.462169
7205793765,2.543017,-0.072134,-0.776605,0.662282,-0.561696,0.465515
7205813766,4.135228,-0.752261,1.483807,0.668781,-0.566003,0.472761
7205833768,5.056247,-1.269224,2.363467,0.669402,-0.566853,0.484183
7205853769,4.280108,-0.804263,1.863348,0.666025,-0.571966,0.483954
7205873769,5.034962,0.940144,0.324526,0.664293,-0.572865,0.482126
7205893770,7.327085,1.778795,0.051877,0.658347,-0.564150,0.485124
7205913771,7.198263,1.925634,0.393770,0.662183,-0.544472,0.487415
7205933771,5.647170,1.285053,1.072500,0.661803,-0.538944,0.491978
7205953772,3.327808,1.126193,1.577772,0.660968,-0.541743,0.498489
7205973771,2.503983,0.996730,2.744820,0.672898,-0.551887,0.506062
7205993772,0.167034,0.400491,2.651807,0.663306,-0.556041,0.500101
7206013772,-2.063380,-0.278712,2.817061,0.676594,-0.565996,0.497560
7206033773,-1.669462,-0.815809,2.338938,0.679516,-0.566551,0.494861
7206053774,-1.196851,-0.885700,2.352295,0.677098,-0.565817,0.491724
7206073774,-1.479178,-0.944260,2.703419,0.652530,-0.561203,0.491862
7206093775,-1.597466,-1.811728,3.011866,0.641027,-0.564088,0.489236
7206113775,-0.754693,-1.079248,3.620242,0.656880,-0.563625,0.487929
7206133776,-2.120593,-1.109334,2.889482,0.652952,-0.570698,0.483346
7206153777,-2.753820,-1.035532,1.987719,0.662151,-0.580007,0.481667
7206173779,-1.174711,-0.980110,1.744675,0.660452,-0.575764,0.477115
7206193780,0.558993,-0.548768,2.084370,0.655064,-0.577496,0.475171
7206213780,0.900845,-0.810725,1.711628,0.654646,-0.574160,0.478947
7206233781,0.543089,-0.627607,1.522449,0.661408,-0.570099,0.474209
7206253781,1.093756,-0.382180,2.157165,0.661092,-0.566709,0.488293
7206273782,0.659409,-0.391675,3.124308,0.656342,-0.562684,0.489369
7206293781,-1.524305,-0.792241,2.573748,0.657484,-0.570575,0.485944
7206313782,-1.522317,-0.299413,1.978756,0.664878,-0.580440,0.480880
7206333782,-0.328058,0.627538,1.991897,0.661330,-0.574969,0.483132
7206353783,0.176131,0.727868,2.551490,0.652073,-0.565720,0.480525
7206373783,-1.112944,0.680533,3.066749,0.655719,-0.565999,0.479106
7206393784,-1.442206,0.341235,3.685337,0.657105,-0.572709,0.482325
7206413785,-1.685396,0.503434,3.982086,0.655341,-0.580280,0.490633
7206433785,-2.526823,0.068032,3.311563,0.652626,-0.580815,0.487330
7206453786,-3.090343,0.319181,2.872237,0.661766,-0.589523,0.483177
7206473786,-3.332645,0.781667,2.164509,0.649841,-0.597195,0.475695
7206493789,-2.181823,0.579700,2.061377,0.650691,-0.596707,0.472960
7206513789,-0.610630,0.537553,2.145583,0.647819,-0.594266,0.474079
7206533790,-0.405763,0.337267,1.833982,0.641552,-0.580417,0.473347
7206553790,-0.919981,-0.434981,2.698556,0.650275,-0.584942,0.474964
7206573791,-1.279929,-0.739204,2.648385,0.657954,-0.587760,0.486395
7206593792,-1.730492,-0.764543,1.852627,0.660229,-0.601070,0.487079
7206613793,-1.911526,-0.029588,-0.878039,0.660175,-0.612686,0.475764
7206633792,-0.887742,0.691336,-4.252490,0.674346,-0.615969,0.470575
7206653792,1.167063,1.713050,-7.906589,0.693816,-0.640460,0.477806
7206673793,2.654561,3.992328,-13.646015,0.689712,-0.663855,0.488523
7206693794,6.885849,7.562047,-20.604521,0.679475,-0.667789,0.484284
7206713794,12.360709,11.247391,-28.177176,0.712634,-0.661778,0.483431
7206733795,16.343781,13.991592,-35.715954,0.737971,-0.660334,0.482113
7206753796,23.545752,16.514532,-41.353397,0.696999,-0.611757,0.493542
7206773796,27.739529,16.277296,-42.275799,0.614606,-0.540999,0.494453
7206793797,22.224594,12.435935,-37.103645,0.565053,-0.480037,0.494751
7206813799,11.917837,4.781349,-30.083675,0.541191,-0.427150,0.470620
7206833799,2.374744,-4.499701,-21.479153,0.575538,-0.439247,0.457561
7206853800,0.340463,-9.815669,-13.230882,0.641446,-0.477243,0.472855
7206873801,4.377110,-11.927884,-5.951983,0.692344,-0.485583,0.505422
7206893802,8.971848,-11.901138,-0.744749,0.721752,-0.469919,0.531839
7206913802,10.034918,-11.564775,1.703455,0.724431,-0.441474,0.541554
7206933802,6.942676,-8.888366,1.485067,0.708884,-0.437855,0.549095
7206953802,3.908204,-5.142473,0.098869,0.694672,-0.432493,0.553339
7206973803,4.266955,-1.737943,-0.503352,0.705407,-0.416805,0.547460
7206993803,1.687405,-0.454087,0.186551,0.704408,-0.435631,0.545458
7207013804,-1.614979,-0.426171,0.908248,0.699646,-0.462068,0.539523
7207033804,-1.644113,-0.099504,0.633324,0.715071,-0.461269,0.535652
7207053805,-3.258336,0.500765,0.843159,0.735707,-0.473229,0.530844
7207073805,-8.265914,1.587375,-1.335101,0.723622,-0.483505,0.525408
7207093806,-7.866085,2.455223,-3.020314,0.712866,-0.507097,0.525297
7207113807,-3.967923,4.203980,-3.372819,0.706942,-0.516401,0.514252
7207133807,-4.113134,5.804853,-3.538999,0.699650,-0.497356,0.506680
7207153809,-5.976008,5.480695,-3.863391,0.675900,-0.487235,0.486309
7207173810,-7.046349,3.149858,-2.366065,0.670697,-0.506218,0.486092
7207193811,-5.282305,1.728071,-0.437447,0.694732,-0.529123,0.483858
7207213811,-4.017319,1.355397,0.523580,0.704723,-0.533571,0.486399
7207233812,-3.568492,1.153280,-0.032306,0.699349,-0.537122,0.478007
7207253813,-1.304753,0.846544,-0.672001,0.692020,-0.536002,0.475544
7207273817,2.936483,0.865493,-0.592669,0.693584,-0.515714,0.478988
7207293812,4.016536,0.074691,0.523085,0.698360,-0.510807,0.485894
7207333814,5.681925,-1.071859,0.923440,0.694745,-0.512585,0.489716
7207353814,7.744153,-0.453998,0.584447,0.685670,-0.521163,0.499425
7207373815,10.393401,0.093578,0.243092,0.669275,-0.544350,0.500072
7207393816,19.507250,6.263134,1.032219,0.670000,-0.537956,0.458843
7207413816,32.514408,12.573979,6.643697,0.646484,-0.496750,0.476581
7207433817,41.390785,14.593603,13.380203,0.613932,-0.470947,0.516266
7207453818,48.274879,14.761942,19.260277,0.642946,-0.436536,0.594384
7207473820,37.942513,12.330674,18.178595,0.678257,-0.439422,0.667392
7207493821,20.035583,10.226175,13.945910,0.723516,-0.458898,0.624911
7207513821,17.120590,13.407956,12.660515,0.688127,-0.495225,0.600393
7207533822,26.553253,16.152075,11.624674,0.656827,-0.502090,0.582487
7207553823,34.963490,16.774473,14.433186,0.620660,-0.475511,0.563107
7207573823,43.966637,13.703003,16.875767,0.616574,-0.451152,0.601184
7207593824,50.652489,15.504752,22.992521,0.707032,-0.428907,0.657122
7207613823,50.026020,21.536964,26.053368,0.732439,-0.368491,0.704886
7207633824,42.054321,28.148306,24.631136,0.693937,-0.335019,0.757072
7207653824,31.012640,34.429005,19.151184,0.649909,-0.279559,0.781317
7207673825,7.704940,34.174000,12.586592,0.630564,-0.231667,0.783305
7207693825,-22.167900,26.148418,6.809148,0.599054,-0.313845,0.692213
7207713825,-35.067101,16.722103,1.933236,0.520740,-0.374403,0.556169
7207733826,-39.289028,5.559804,-8.590353,0.446748,-0.372145,0.470922
7207753827,-41.614933,-6.002718,-22.023733,0.460399,-0.426889,0.458127
7207773827,-27.531956,-12.408852,-34.970291,0.502453,-0.486185,0.455175
7207793828,-10.177596,-13.078463,-42.159512,0.609285,-0.504688,0.546474
7207813830,-11.262936,-8.627211,-26.915266,0.801105,-0.624904,0.713712
7207833831,-22.188654,-11.103561,5.944601,0.878903,-0.874677,0.723715
7207853831,6.094999,-19.835800,9.540666,0.830865,-0.829404,0.595471
7207873832,28.584385,-27.066738,-10.029180,0.718702,-0.474988,0.547940
7207893833,25.928261,-28.545444,-14.759928,0.568629,-0.267692,0.594417
7207913833,30.065285,-23.063318,0.683768,0.568534,-0.262911,0.699698
7207933832,31.920473,-17.864853,1.419262,0.726550,-0.243674,0.766122
7207953833,29.561970,-12.682672,-3.844597,0.725475,-0.115379,0.848971
7207973834,21.982273,-11.617278,-8.837964,0.627566,0.031205,0.852939
7207993834,-15.889738,-11.505976,-24.069326,0.683604,0.077767,0.765676
7208013835,-55.634811,-7.298088,-40.002243,0.762468,0.022785,0.686771
7208033835,-67.354401,-1.586541,-53.440624,0.778092,-0.088105,0.672942
7208053836,-59.983013,3.759242,-66.766960,0.856334,-0.146331,0.664956
7208073837,-43.038391,15.676004,-79.604477,1.019676,-0.116722,0.612875
7208093837,-20.432722,30.640303,-87.944855,0.994910,0.053592,0.668296
7208113838,-30.576036,42.837849,-105.926239,0.899022,0.314393,0.811368
7208133840,-95.361008,47.096394,-132.574066,0.870017,0.515725,0.779250
7208153841,-172.209900,40.810963,-161.284775,0.881423,0.558580,0.595543
7208173841,-225.415268,35.409710,-188.899231,1.037259,0.571299,0.482804
7208193842,-265.632965,30.327780,-194.285583,1.181893,0.379114,0.194682
7208213843,-247.380707,52.964733,-193.438065,1.161924,0.072623,0.041294
7208233843,-192.654816,64.556038,-202.624207,1.034119,0.036470,0.012650
7208253844,-155.686386,60.803230,-221.402054,1.013513,0.159844,-0.048653
7208273843,-132.908325,48.510777,-242.112976,1.006201,0.296453,-0.111940
7208293844,-126.846329,27.122055,-261.391632,0.991636,0.443544,-0.082421
7208313844,-135.492249,8.162950,-275.438934,1.074944,0.533832,-0.065821
7208333845,-164.609344,-5.971708,-284.330658,1.319967,0.510153,-0.029787
7208353845,-197.125031,-1.731820,-289.102936,1.492678,0.567449,-0.045348
7208373846,-241.031982,5.897453,-285.236084,1.524254,0.563304,-0.148497
7208393847,-270.517731,-2.034526,-280.574219,1.511080,0.479047,-0.262359
7208413847,-250.113770,-25.679766,-291.153717,1.534728,0.486686,-0.322442
7208433848,-246.474518,-29.349344,-286.138153,1.667202,0.491567,-0.261527
7208453848,-316.014221,-33.862339,-221.904831,1.776971,0.075152,-0.357373
7208473851,-335.992401,-25.342648,-150.380417,1.865489,-0.682648,-0.289835
7208493851,-247.496780,6.099087,-98.096603,1.475282,-1.375127,-0.172113
7208513852,-86.160675,3.142071,-88.872650,1.067252,-1.166715,0.002190
7208533854,6.206738,-21.481405,-116.958527,1.030954,-0.308241,0.135584
7208553853,-4.641048,-36.720680,-114.681679,1.054995,0.381394,0.299363
7208573854,-42.634373,-55.700043,-88.842735,0.991773,0.634271,0.318284
7208613853,-142.496490,-66.853889,-57.323120,0.900756,0.453816,0.253004
7208633854,-178.307205,-69.760635,-56.371235,0.939416,0.340389,0.311964
7208653855,-191.271118,-69.587013,-66.146339,0.980741,0.285057,0.330835
7208673855,-187.070053,-65.276497,-79.377510,1.000042,0.302661,0.293634
7208693856,-177.297119,-61.541656,-80.320610,1.040577,0.339275,0.231543
7208733857,-144.940353,-45.998001,-58.447613,1.041387,0.317283,0.245937
7208753858,-135.401337,-35.513435,-55.932137,0.990754,0.360312,0.268300
7208773858,-145.981659,-25.388435,-59.227818,0.943890,0.375771,0.250077
7208793860,-166.399948,-19.179871,-67.825935,0.939117,0.360761,0.216874
7208813861,-183.710648,-17.279541,-76.213539,0.988453,0.325387,0.193833
7208833862,-196.876617,-18.571209,-79.878807,1.006358,0.277042,0.177152
7208853863,-202.508331,-19.073814,-79.866013,1.018178,0.212778,0.176069
7208873863,-199.223297,-19.588316,-80.296646,1.030259,0.154320,0.168241
7208893864,-189.264084,-19.983727,-82.224991,1.044551,0.130400,0.175867
7208913876,-175.181122,-19.588251,-82.131516,1.032119,0.125556,0.193786
7208933864,-160.575974,-18.761320,-79.147049,1.011432,0.144692,0.223476
7208953864,-150.123581,-16.852621,-77.235222,0.991242,0.177752,0.248670
7208973865,-146.840118,-14.467482,-77.207825,0.964726,0.208400,0.273747
7208993866,-153.375900,-12.228366,-80.060677,0.944082,0.234864,0.281981
7209013866,-165.540726,-11.303695,-85.290840,0.959801,0.247841,0.271906
7209033867,-175.758316,-11.675909,-89.490509,0.978526,0.233484,0.249328
7209053868,-178.675415,-12.252369,-90.591675,0.991493,0.181330,0.225905
7209073868,-175.887558,-11.693396,-88.418320,1.000827,0.142565,0.224314
7209093869,-168.944687,-10.212969,-84.003540,0.974958,0.116550,0.242058
7209113871,-160.751953,-10.348445,-81.965736,0.984591,0.097501,0.252847
7209133871,-153.123199,-10.354020,-80.207115,0.997178,0.108509,0.265757
7209153872,-147.523254,-10.344977,-78.173325,0.966744,0.109145,0.284140
7209173873,-145.215469,-9.510077,-77.610092,0.944233,0.108462,0.298336
7209193873,-145.429047,-7.913750,-77.160393,0.930227,0.111099,0.315760
7209213874,-145.625397,-7.595838,-76.150230,0.929294,0.102619,0.331661
7209233875,-144.717972,-7.725179,-75.545837,0.980953,0.108816,0.339383
7209253874,-141.964767,-6.470218,-72.942337,0.988461,0.123505,0.347899
7209273874,-141.651459,-4.818838,-71.818947,0.975456,0.110012,0.370323
7209293875,-139.405869,-4.337888,-70.349518,0.998573,0.113743,0.379438
7209313876,-142.756821,-3.491950,-67.571884,1.023250,0.128787,0.381006
7209333876,-146.805603,-2.090240,-62.141422,1.019863,0.126713,0.389852
7209353877,-151.473312,4.134704,-57.801498,0.994713,0.074856,0.400611
7209373878,-152.143906,12.515556,-57.988415,1.003962,-0.023995,0.418186
7209393878,-139.194473,19.491917,-51.954124,1.034831,-0.062017,0.468703
7209413879,-125.892220,27.905088,-40.122066,1.036185,-0.082620,0.498405
7209433880,-116.623108,36.843861,-29.193491,0.989201,-0.108589,0.551601
7209453881,-111.619614,44.096199,-21.102736,0.941099,-0.100822,0.578454
7209473882,-112.619225,49.959549,-15.250463,0.935514,-0.053979,0.610060
7209493883,-123.522179,57.336643,-12.855507,0.923757,-0.039070,0.592655
7209513884,-131.532791,63.465878,-11.418025,0.878619,-0.048183,0.581395
7209533884,-137.435547,63.514847,-9.392658,0.881759,-0.053358,0.573844
7209553885,-142.919159,63.120560,-4.076686,0.906250,-0.124076,0.553467
7209573884,-135.494919,62.514481,6.090457,0.906210,-0.240798,0.572591
7209593885,-114.149521,64.991257,18.604221,0.853304,-0.347459,0.593948
7209613885,-83.027367,72.253166,28.133493,0.779557,-0.343831,0.642954
7209633886,-68.152214,83.521370,31.852129,0.767209,-0.226424,0.685083
7209653887,-72.723053,94.709999,31.335932,0.713496,-0.104639,0.698725
7209673888,-86.807625,97.718201,26.986616,0.650322,-0.047300,0.686080
7209693888,-101.141464,96.839012,17.898878,0.634015,-0.034128,0.629524
7209713889,-115.351784,90.233109,3.927363,0.592620,-0.008452,0.590037
7209733889,-128.174362,75.676582,-13.616533,0.577946,-0.062725,0.523679
7209753890,-124.609970,61.907566,-33.891022,0.564089,-0.176660,0.444016
7209773892,-104.221527,55.956429,-56.603195,0.465301,-0.225278,0.419504
7209793892,-81.736206,47.853748,-91.344948,0.328126,-0.140410,0.410526
7209813893,-77.296371,28.076231,-135.496109,0.298188,0.028615,0.368222
7209833894,-87.466476,5.952282,-178.209625,0.379474,0.172223,0.315387
7209853894,-91.677193,-9.984344,-213.356262,0.504048,0.215528,0.426075
7209893895,-168.567947,8.754865,-177.145096,1.234618,-0.592031,0.692852
7209913895,-129.196121,12.236376,-170.463348,1.013449,-0.522827,0.493902
7209933895,-108.889297,1.893888,-178.450516,0.854402,-0.342166,0.317491
7209953896,-100.581367,-7.497212,-195.628006,0.800890,-0.183882,0.340973
7209973896,-84.667297,-15.332411,-209.784729,0.850139,-0.114631,0.399787
7209993897,-65.255707,-12.819794,-205.423996,0.992141,-0.142670,0.391431
7210013898,-49.447006,-7.177432,-189.464371,1.016251,-0.156436,0.379936
7210033898,-36.107811,-5.845107,-175.396591,0.991933,-0.148329,0.414959
7210053899,-22.202763,-10.855448,-160.709900,1.030278,-0.085394,0.467283
7210073899,-31.588999,-15.070261,-144.810883,1.071013,0.018097,0.562154
7210093900,-71.956177,-30.200781,-127.277016,1.079639,-0.001009,0.700911
7210113902,-121.801117,-27.223114,-102.653763,1.179516,-0.104249,0.673127
7210133903,-156.637329,-10.603911,-88.450409,1.041392,-0.190253,0.614132
7210153904,-152.607895,-6.792480,-89.512009,0.987087,-0.345985,0.583870
7210173904,-125.694588,3.989790,-63.496502,0.906654,-0.562229,0.504470
7210193905,-88.983925,7.153313,-36.784492,0.909903,-0.545567,0.434831
7210213906,-58.103909,8.635202,-30.716009,0.870194,-0.418466,0.370633
7210233905,-52.007427,0.656351,-29.355007,0.796671,-0.350538,0.428323
7210253905,-49.762684,-8.558896,-15.910658,0.858981,-0.438181,0.450091
7210273906,-25.380863,-8.770308,7.286088,0.909877,-0.524769,0.433416
7210293907,-0.580483,-4.930315,21.518141,0.958256,-0.523311,0.499010
7210313908,13.180524,1.902650,34.859932,0.988719,-0.461326,0.555922
7210333908,16.302923,8.645956,53.600658,1.028926,-0.461259,0.569369
7210353909,20.180677,13.113537,78.556908,1.039627,-0.522393,0.556643
7210373910,32.391163,21.829975,100.750473,1.020386,-0.560903,0.555946
7210393910,49.021698,29.744802,122.129547,0.994660,-0.549724,0.581238
7210413911,62.680599,38.288612,144.150085,1.019080,-0.525818,0.591789
7210433913,80.036507,54.413013,167.054108,1.013195,-0.441797,0.629206
7210453914,88.650322,64.823944,180.957932,0.915672,-0.280587,0.633045
7210473914,81.226456,61.737759,175.291168,0.825534,-0.050682,0.614010
7210493915,62.992413,37.300098,151.425720,0.737122,0.237867,0.560068
7210513915,33.397491,0.992900,109.906334,0.527394,0.556583,0.388870
7210533915,-6.409910,-27.221193,41.761257,0.181727,0.874848,0.296124
7210553916,-68.921913,-62.096783,-63.813435,0.009090,0.956723,0.241409
7210573915,-107.498077,-90.446457,-169.899399,0.634731,0.762610,0.550154
7210593916,-175.376938,-56.889473,-142.399048,1.849759,-0.214297,1.090764
7210613917,-83.127899,6.238537,-47.864128,1.636647,-0.677666,0.646769
7210633917,5.377856,18.152805,-37.842934,1.101668,0.452711,0.447967
7210653918,-71.814384,0.845971,-56.083447,0.928490,1.195546,0.670423
7210673919,-182.183365,-1.452585,-82.333725,1.027646,0.820889,0.757996
7210693919,-189.358505,47.029564,-84.458557,1.268040,0.304401,0.736061
7210713920,-156.529785,86.844872,-91.286438,1.129886,0.489017,0.504886
7210733920,-180.685791,90.514709,-106.923355,0.880187,0.709326,0.258632
7210753922,-224.189575,81.023842,-129.282043,0.839717,0.528607,0.001946
7210773923,-229.919510,83.680115,-156.519104,0.728142,0.331898,-0.175122
7210793924,-220.226379,71.161247,-181.326050,0.659420,0.376512,-0.278389
7210813924,-216.254547,60.674484,-210.364151,0.859418,0.332752,-0.365642
7210833925,-188.578690,51.627171,-259.700836,1.031377,0.312600,-0.286706
7210853925,-152.641739,37.113949,-303.829773,1.309236,0.449559,-0.150830
7210873926,-156.327362,21.715410,-331.229919,1.528065,0.630378,-0.010475
7210893925,-204.117859,11.009582,-342.073334,1.729696,0.830526,-0.133021
7210913926,-285.076355,12.875929,-321.056976,1.841135,0.870578,-0.339029
7210933926,-331.144958,7.418687,-278.265503,1.826572,0.797910,-0.420154
7210953927,-352.240875,-14.909472,-263.743195,1.832403,0.758684,-0.637044
7210973928,-482.652710,25.139423,-219.412460,2.382869,-0.005102,-0.868880
7210993928,-516.055176,90.309296,-107.860275,2.114491,-1.787547,-0.665593
7211013929,-305.214539,84.453270,-12.353660,1.328406,-2.321569,-0.403328
7211033930,-81.014763,93.539696,-3.699421,1.460486,-1.570483,-0.085888
7211073931,-60.968582,95.169319,42.025616,1.596596,0.335128,0.714633
7211093933,-153.320389,76.870628,42.211246,1.163080,0.023323,0.485649
7211113934,-188.732208,60.966419,31.053698,1.084517,-0.380398,0.534116
7211133935,-198.295105,54.736130,47.942951,1.072936,-0.566816,0.697040
7211153935,-180.455551,81.630386,68.607330,1.157513,-0.576714,0.689743
7211173936,-151.035553,118.773857,88.351608,1.135380,-0.481170,0.612524
7211193936,-134.821533,135.886581,106.696754,0.986656,-0.412858,0.560264
7211213935,-133.412598,145.154236,122.888084,0.955896,-0.453314,0.457319
7211233936,-112.912231,153.098282,118.662384,0.741781,-0.431355,0.397724
7211253937,-100.914749,137.909607,104.769661,0.543551,-0.381134,0.322896
7211273937,-105.001961,121.322868,93.669693,0.377007,-0.322178,0.244695
7211293938,-108.589813,110.372093,83.104248,0.294754,-0.369756,0.203094
7211313939,-95.967911,109.643196,70.191818,0.271146,-0.400966,0.197863
7211333939,-84.135063,103.594727,54.115395,0.210161,-0.333354,0.245650
7211353940,-89.979599,89.561935,28.861917,0.115360,-0.381385,0.236403
7211373940,-94.357491,76.450096,-0.749250,0.071151,-0.528291,0.240678
7211393941,-72.395218,64.562973,-39.582695,0.086069,-0.539262,0.271189
7211413943,-70.862473,43.945084,-77.690491,-0.002353,-0.408495,0.359141
7211433943,-109.266251,16.253820,-105.035934,0.104299,-0.358274,0.278626
7211453944,-148.448273,-5.673391,-110.168274,0.328331,-0.542383,0.259537
7211473945,-136.521469,6.602468,-93.331886,0.790912,-0.947271,0.526278
7211493945,-48.878235,43.133759,-53.780933,0.475317,-1.633242,0.580435
7211513946,-4.859752,81.950974,-52.106148,0.351900,-1.027523,0.766549
7211533947,-77.038467,75.976875,-79.920105,0.613596,-0.498097,0.524342
7211553946,-132.029160,63.706306,-45.005913,0.388861,-1.044334,0.281815
7211593947,-12.401203,42.230431,-29.420408,0.503380,-1.302822,0.251730
7211613948,75.742424,53.552940,-5.966856,0.526665,-1.229642,0.324361
7211633948,143.267426,67.675339,-9.189074,0.511297,-0.718267,0.519306
7211653949,128.225861,75.768509,-37.069412,0.353774,-0.267605,0.688760
7211673950,73.234787,72.986557,-60.036781,0.275446,-0.169604,0.693671
7211693950,15.362949,65.060875,-75.930679,0.308722,-0.285134,0.610403
7211713951,-21.168474,51.282211,-88.149055,0.336938,-0.516540,0.515455
7211733951,-18.067076,35.486122,-100.318954,0.323952,-0.706082,0.432584
7211753954,11.643890,23.834785,-113.487907,0.340971,-0.760774,0.396653
7211773954,46.856529,9.842622,-131.481766,0.336172,-0.619141,0.408567
7211793954,66.065689,-2.446352,-150.337341,0.369129,-0.483763,0.509528
7211813955,62.003155,-18.110840,-166.381165,0.455274,-0.337041,0.598902
7211833956,31.366482,-42.195625,-177.713425,0.562481,-0.192965,0.629876
7211853957,1.771908,-63.300644,-192.012527,0.715319,-0.279692,0.621163
7211873956,-13.698380,-60.401997,-220.558884,0.879060,-0.400973,0.653316
7211893957,-10.877191,-57.422935,-250.260681,1.071530,-0.429106,0.776640
7211913971,11.771544,-42.156250,-281.902222,1.209152,-0.409007,0.835001
7211933958,-7.052840,-16.582436,-303.020294,1.348176,-0.055799,0.617800
7211953958,16.337862,4.868736,-296.673737,1.346686,-0.306626,0.582781
7211973959,61.731407,14.180899,-246.243347,0.922248,-0.373990,0.576350
7211993959,8.791288,-4.319319,-201.978302,1.091096,-0.438811,0.508535
7212033961,3.478561,-9.745890,-7.850004,1.133112,-1.764467,0.420870
7212053962,160.575180,7.028677,65.123100,1.071784,-1.140519,0.568927
7212073964,189.069366,21.728493,119.375549,1.300340,0.013438,0.779624
7212093964,98.863235,35.255753,133.716660,1.343533,0.618517,0.513531
7212113965,-1.279714,26.512499,145.787537,1.081350,0.177145,0.568389
7212133966,-26.763000,9.097697,172.930115,0.923922,-0.386910,0.527217
7212153966,14.123075,5.496561,192.107605,0.808524,-0.489091,0.534010
7212173967,55.051491,24.591728,207.367126,0.895603,-0.376370,0.510351
7212193967,84.957428,59.818260,225.119232,0.934499,-0.225174,0.486619
7212213967,90.224564,83.913116,238.026428,0.886173,-0.094243,0.486675
7212233967,76.284126,95.347725,245.326050,0.846297,0.037323,0.524569
7212253968,50.505020,90.151756,238.909119,0.845879,0.139977,0.550809
7212273968,17.837093,71.015099,223.004105,0.713392,0.211609,0.583037
7212293969,-23.261906,49.917522,190.382355,0.480691,0.143169,0.607651
7212313970,-53.534748,29.438780,156.378448,0.360097,0.073121,0.558895
7212333970,-59.815529,16.368561,134.504303,0.334305,0.035791,0.561124
7212353971,-59.258438,11.468024,104.430603,0.396363,0.029772,0.569139
7212373971,-75.233139,8.266589,54.415676,0.285509,-0.070722,0.592554
7212393973,-83.997841,-11.490801,-6.371005,0.115356,-0.223142,0.514098
7212413974,-88.670044,-42.252731,-48.804489,0.113901,-0.210165,0.338839
7212433974,-105.271187,-75.362862,-67.424911,0.253623,-0.247168,0.285081
7212453975,-88.271523,-72.959602,-65.066483,0.903388,-0.537025,0.532965
7212473976,-18.257042,-22.113434,-22.475363,0.843454,-1.185632,0.699129
7212493977,51.089230,27.115198,-19.542391,0.720733,-0.788460,0.981130
7212513977,12.254353,41.328941,-62.175686,0.735699,-0.228198,0.984531
7212533976,-55.172646,33.374016,-57.507614,0.732070,-0.369386,0.876839
7212553977,-84.412277,30.036879,-30.571260,0.860793,-0.856946,0.792403
7212593978,-24.120512,17.477842,-64.507988,0.327735,-0.537184,0.475817
7212613979,-0.521450,23.536591,-93.307945,0.255192,-0.279345,0.408368
7212633980,13.437387,23.165916,-105.452972,0.290612,-0.421593,0.354356
7212653980,31.799366,6.540971,-130.759674,0.379342,-0.518503,0.441114
7212673981,29.511909,-19.350882,-147.851929,0.426666,-0.422313,0.454798
7212693981,25.434450,-42.939713,-165.957184,0.465456,-0.319436,0.402162
7212713982,22.573280,-53.849632,-203.154221,0.563283,-0.425661,0.442269
7212733984,36.595425,-53.656490,-246.254181,0.806844,-0.395716,0.430852
7212753985,63.147884,-36.774178,-265.982300,0.968316,-0.322283,0.497208
7212773985,111.802269,-18.676548,-258.816437,0.992645,-0.091843,0.596166
7212793986,101.227364,-21.266439,-240.206406,1.041605,0.034806,0.549105
7212813986,67.741432,-38.970818,-182.043442,1.219404,-0.039660,0.741679
7212833987,9.626863,-36.808746,-76.119026,1.328050,-0.563464,0.826439
7212853986,23.170660,-16.865095,6.120690,1.082227,-0.677693,0.782756
7212873987,36.855816,-6.800174,20.823658,0.936278,-0.272622,0.775519
7212893987,1.496609,-17.595474,6.481383,0.854736,0.010944,0.529621
7212913988,-27.786036,-22.749357,10.194996,0.814034,-0.294054,0.424437
7212933989,16.339125,-20.607855,31.535442,0.818906,-0.684885,0.449099
7212953989,86.139229,-13.475558,51.246521,0.828403,-0.582160,0.475894
7212973990,117.584625,-1.467660,68.169754,0.881336,-0.251152,0.561828
7212993991,106.809509,13.639521,86.556076,0.996506,-0.010874,0.682438
7213013992,68.092735,27.044914,104.150635,1.075491,0.099049,0.743480
7213033992,12.404024,37.218002,121.472603,1.048350,0.064112,0.726686
7213053994,-32.819809,41.128311,134.739929,0.980850,-0.038476,0.693377
7213073995,-54.195660,41.246361,143.849838,0.965867,-0.188706,0.629402
7213093995,-51.701565,40.477417,150.476151,0.962115,-0.327994,0.565372
7213113996,-35.061642,39.233513,153.726700,0.910533,-0.431676,0.530050
7213133997,-5.982014,39.649002,154.070740,0.855080,-0.443503,0.504407
7213153997,24.778900,40.490070,156.745773,0.795493,-0.344361,0.489787
7213174011,42.562119,37.405521,160.037430,0.760119,-0.238047,0.503943
7213193997,42.132687,35.498402,157.965790,0.727013,-0.162100,0.533912
7213213998,27.979073,32.237450,150.020340,0.654806,-0.127330,0.582456
7213233998,6.495934,27.825106,139.301819,0.602652,-0.130849,0.621390
7213253999,-15.331045,19.968536,128.858871,0.533407,-0.164601,0.650401
7213273999,-36.279503,11.300391,113.354416,0.476184,-0.190044,0.629966
7213294000,-50.011040,5.196337,91.239548,0.428050,-0.269508,0.576884
7213314001,-49.702244,-10.740518,63.633598,0.397524,-0.358822,0.515922
7213334001,-40.284718,-39.209778,32.379978,0.325746,-0.381786,0.373892
7213354002,-34.687237,-70.364052,-1.382204,0.338500,-0.139329,0.355336
7213374003,-33.024284,-52.827164,-26.524309,0.900920,-0.190501,0.795246
7213394005,-7.460009,1.717345,7.354269,0.715803,-0.883491,0.844439
7213414005,-4.225772,36.241550,7.312182,0.742713,-0.299468,0.836192
7213434006,-69.756584,35.477116,-45.405579,0.668605,0.038036,0.743149
7213454006,-108.193169,34.529057,-51.107594,0.542928,-0.522327,0.492442
7213474007,-60.259892,28.057470,-52.839878,0.518689,-0.764921,0.351073
7213494008,-3.557690,37.941818,-75.257759,0.627435,-0.677040,0.586612
7213514007,14.438079,50.395142,-65.722466,0.752933,-0.955831,0.589697
7213534008,36.707924,30.145985,-68.042587,0.436824,-0.764385,0.464170
7213554008,52.989017,8.858288,-123.077644,0.213956,-0.121708,0.442930
7213574008,26.258001,-15.927100,-157.898926,0.250323,0.084599,0.372535
7213594009,2.241687,-37.964745,-174.240677,0.389065,-0.126192,0.300092
7213614010,21.138451,-45.959747,-186.540894,0.626495,-0.373578,0.313125
7213634010,50.653580,-38.595787,-203.374405,0.801760,-0.405071,0.347664
7213654011,71.918037,-38.532982,-208.130249,0.884850,-0.188063,0.484454
7213674012,64.744446,-35.929810,-208.527222,1.075765,-0.004375,0.478993
7213694012,34.868031,-38.099255,-199.634094,1.324377,-0.056520,0.633808
7213714014,14.097952,-57.268707,-173.113007,1.498548,-0.327313,0.727929
7213734015,-4.506876,-69.766518,-119.312485,1.486746,-0.634364,0.738092
7213754016,-14.558676,-43.165131,-42.846642,1.165473,-0.760415,0.804659
7213774016,5.754335,-16.822311,-13.087061,0.878837,-0.511895,0.791570
7213794017,-10.785579,-9.334507,-11.601578,0.848940,-0.274274,0.606918
7213814017,-36.552620,-8.422407,-4.899388,0.841632,-0.279545,0.411995
7213834017,-23.673147,-14.681277,14.471256,0.778485,-0.442020,0.354839
7213854017,26.326733,-17.229282,36.049305,0.729873,-0.491108,0.359117
7213874018,66.740929,-10.478117,52.803410,0.775600,-0.324701,0.442947
7213894019,77.603378,-0.482160,67.367599,0.869537,-0.112143,0.519803
7213914019,62.222111,8.556890,83.279503,0.985056,0.000008,0.580996
7213934020,33.453712,21.223825,95.702408,1.045080,0.008280,0.606375
7213954021,7.213138,33.221245,105.077072,1.008479,-0.051751,0.594341
7213974021,-9.193899,40.854218,111.584442,0.940183,-0.118391,0.569046
7213994022,-15.140799,42.681492,115.570175,0.915920,-0.221029,0.545476
7214014023,-10.447830,43.013950,116.109596,0.945806,-0.317098,0.514871
7214034025,5.199389,42.282013,112.492538,0.957383,-0.352783,0.490452
7214054025,20.668589,42.735874,107.981819,0.885813,-0.317377,0.482711
7214074026,22.546621,38.498611,104.701927,0.803477,-0.250475,0.512871
7214094026,8.418306,31.621965,104.592468,0.757930,-0.203371,0.535314
7214114027,-9.938210,24.428749,102.733093,0.764865,-0.193713,0.534414
7214134028,-27.784538,18.712343,100.659515,0.741167,-0.199379,0.548036
7214154028,-41.002502,13.854440,102.322578,0.686151,-0.271385,0.567653
7214174027,-51.214890,8.931583,104.944916,0.588686,-0.382011,0.563537
7214194028,-48.390469,6.796551,98.497459,0.522256,-0.504703,0.562656
7214214029,-39.130257,6.834679,82.906746,0.540601,-0.587193,0.529993
7214234029,-22.764956,1.452431,63.652859,0.541860,-0.624420,0.471469
7214254030,11.477628,-3.313205,33.759052,0.557975,-0.545555,0.428916
7214274030,33.730839,-5.726902,0.664430,0.554494,-0.325843,0.461171
7214294031,25.278183,-12.385020,-30.750824,0.486735,-0.133986,0.484541
7214314031,6.506129,-17.226749,-61.496426,0.494946,-0.062920,0.501501
7214334032,-9.992845,-14.556892,-85.789040,0.572820,-0.074830,0.565955
7214354034,-36.126617,0.066654,-85.439575,0.858313,-0.374145,0.756682
7214374035,-32.827579,34.219673,-44.261482,0.780182,-0.705043,0.577543
7214394036,27.187309,64.539757,-84.037621,0.473976,-0.127328,0.619676
7214414036,-4.946930,50.693329,-134.097672,0.445152,0.217046,0.502080
7214434036,-84.373352,6.550502,-160.975952,0.550955,-0.001817,0.293152
7214454037,-94.159348,-24.961185,-187.492493,0.777124,-0.337022,0.263911
7214474038,-31.598585,-25.730898,-201.939911,0.988859,-0.524412,0.295922
7214494037,38.221519,-8.855174,-202.008575,0.995893,-0.479525,0.349303
7214514038,63.335415,-13.728121,-196.834869,1.025180,-0.249428,0.349073
7214534038,42.405437,-39.713196,-197.822159,1.111690,-0.172117,0.422915
7214554039,27.871143,-66.154259,-202.788269,1.246172,-0.315713,0.554817
7214574040,50.303841,-52.510052,-178.908279,1.252370,-0.522853,0.776161
7214594040,34.359482,-56.566719,-115.317009,1.019890,-0.501187,0.783248
7214614041,-32.609512,-48.563416,-60.134594,0.969298,-0.445259,0.798663
7214634042,-61.742805,-21.372412,-12.469341,0.928423,-0.665472,0.735503
7214654042,-19.492710,4.670868,18.597265,0.949487,-0.645617,0.572406
7214674043,6.382036,14.544100,35.502422,0.965320,-0.354617,0.494756
7214694045,11.334649,14.741918,53.018169,0.885038,-0.227165,0.464807
7214714046,23.543667,11.315611,63.016655,0.816676,-0.205101,0.431580
7214734047,44.347607,12.360176,73.852341,0.838939,-0.199949,0.437107
7214754047,61.711136,19.823956,85.662537,0.953758,-0.155409,0.460747
7214774048,68.547836,27.466661,95.171829,1.044707,-0.010766,0.500944
7214794048,57.897690,33.395973,97.921768,0.896131,0.176913,0.538251
7214814048,15.646249,15.051001,84.123955,0.802730,0.181705,0.671234
7214834048,-14.869088,9.683949,80.662796,1.067818,-0.202174,0.671500
7214854048,18.994768,39.088196,104.723083,1.243512,-0.465940,0.636366
7214874049,52.000378,72.520889,114.155518,1.136820,-0.232612,0.717632
7214894050,26.825512,78.244667,116.402779,0.944860,-0.041953,0.702007
7214914050,-14.007784,71.605476,129.789047,0.761017,-0.086907,0.648762
7214934051,-30.484425,67.292854,138.463501,0.627943,-0.232616,0.605056
7214954052,-27.907400,65.635612,136.194641,0.581867,-0.294304,0.590307
7214974052,-24.480339,62.276337,125.950325,0.562784,-0.274506,0.579686
7214994053,-20.864683,55.596783,111.836914,0.491744,-0.248500,0.538435
7215014055,-10.231116,41.346012,92.254250,0.427432,-0.200168,0.485508
7215034055,1.922354,20.738123,59.394630,0.379064,-0.087103,0.456740
7215054056,-7.796644,-0.602745,11.583954,0.265144,0.051744,0.417247
7215074056,-24.261667,-33.779583,-39.075592,0.191027,0.100145,0.303834
7215094057,-30.206545,-66.322830,-93.030983,0.272153,0.210186,0.185655
7215114057,-20.386223,-80.698250,-151.077194,0.370306,0.438694,0.322512
7215134058,-36.769066,-88.491203,-196.730240,0.699848,0.473476,0.706672
7215154057,-153.737152,-96.869263,-168.899124,1.204618,0.101847,0.437884
7215174058,-120.424873,-59.042946,-181.700882,1.278990,-0.190737,0.392321
7215194059,-89.175011,-36.660305,-209.416687,1.109603,-0.414285,0.312320
7215214059,-40.272133,-16.501749,-227.658295,0.972308,-0.360924,0.388382
7215234060,0.126099,-17.433012,-247.566483,0.886551,-0.146242,0.398267
7215254061,16.333246,-26.689716,-257.363708,1.085907,0.088633,0.329622
7215274061,15.639905,-18.341835,-241.827316,1.270983,0.140496,0.232174
7215294062,17.101534,-8.705418,-215.257202,1.168978,0.218743,0.269989
7215334063,-3.022484,-90.121971,-210.441788,1.224038,0.441901,0.515497
7215374066,-23.555819,-45.494640,-44.193260,1.612229,-0.717760,0.432415
7215394066,27.148695,-45.212193,-42.997478,1.403074,-0.243602,0.458417
7215414067,-30.814165,-35.200356,-56.555691,1.020678,0.171316,0.515874
7215434067,-97.817726,-44.047112,-66.210251,0.887297,0.274833,0.430846
7215454068,-122.783600,-53.720196,-67.526627,0.931488,0.289497,0.275906
7215474068,-130.062241,-49.388462,-65.225616,0.993589,0.365152,0.197835
7215494068,-128.926193,-46.336338,-64.089539,0.955664,0.455530,0.206372
7215514069,-133.141968,-45.009331,-71.440048,0.745668,0.444376,0.221122
7215534069,-126.651192,-52.447430,-79.734451,0.733255,0.495342,0.194126
7215554070,-109.557755,-46.277603,-77.355530,0.923459,0.563622,0.146191
7215574070,-99.102386,-25.795700,-74.076424,0.916429,0.523526,0.243334
7215594071,-106.704689,-10.841658,-70.188232,0.884083,0.533153,0.296405
7215614072,-129.143219,-10.062404,-71.935905,0.816016,0.527533,0.247552
7215634072,-140.915222,-17.112686,-71.888168,0.842544,0.496287,0.161644
7215654073,-143.328674,-23.579424,-63.739346,0.871973,0.469665,0.123582
7215674075,-133.040146,-25.455204,-49.445492,0.871550,0.407162,0.144879
7215694075,-122.425056,-17.426815,-38.351753,0.897559,0.353365,0.229249
7215714076,-113.553909,-10.072483,-30.583097,0.973209,0.382519,0.218708
7215734077,-103.407753,-12.762847,-33.991352,1.036569,0.596982,0.103945
7215754077,-121.352715,-27.134768,-46.132359,0.940662,0.690539,0.134380
7215774078,-124.570503,-20.009245,-48.878120,0.930719,0.560671,0.268357
7215794078,-105.536247,-2.647237,-52.113903,0.910850,0.632945,0.283648
7215814078,-113.834824,-5.664891,-53.445396,0.977792,0.883680,0.199560
7215834078,-148.405457,-14.758115,-47.432770,0.911129,0.879087,0.148334
7215854079,-172.450043,-20.721382,-40.821270,0.750378,0.678380,0.069985
7215874080,-170.828339,-24.580030,-41.563522,0.703696,0.702865,0.028456
7215894080,-171.344162,-31.632549,-46.628345,0.710814,0.816561,-0.007425
7215914081,-182.819672,-36.643387,-52.146328,0.740323,0.840530,-0.042067
7215934081,-195.770660,-35.684635,-58.710533,0.786007,0.866168,-0.069549
7215954082,-206.046631,-34.848862,-68.759300,0.876432,0.885840,-0.085542
7215974083,-224.092316,-32.554085,-86.158142,0.984586,0.881691,-0.183451
7215994083,-242.828735,-38.258553,-113.867874,0.988610,0.840108,-0.269153
7216014085,-252.408554,-51.573044,-141.030151,1.055650,0.717838,-0.277820
7216034086,-251.257187,-57.107632,-151.482224,1.151338,0.546757,-0.281799
7216054086,-240.624481,-55.947891,-148.199921,1.245205,0.429343,-0.298935
7216074088,-222.660660,-53.921978,-136.299408,1.315088,0.356112,-0.300664
7216094088,-202.531036,-53.531487,-125.510895,1.200183,0.300544,-0.237480
7216114088,-191.904587,-57.680054,-116.011086,1.086530,0.333047,-0.154657
7216134087,-196.315842,-66.624786,-113.913750,1.032809,0.501065,-0.137438
7216154088,-213.802841,-78.396088,-119.168442,1.072418,0.637751,-0.138501
7216174089,-227.344727,-86.278954,-126.996948,1.219204,0.639430,-0.146809
7216194090,-220.329025,-81.616043,-128.433212,1.210880,0.539115,-0.143162
7216214090,-203.820114,-70.281319,-122.556534,1.155726,0.432041,-0.103214
7216234091,-179.009460,-60.748432,-125.213264,1.169155,0.366615,-0.068779
7216254091,-156.643158,-49.607620,-134.416733,1.219013,0.446649,-0.036852
7216274092,-141.262314,-39.126987,-134.116531,1.233787,0.566135,0.044651
7216294092,-138.228760,-35.363331,-128.075577,1.203882,0.596831,0.118949
7216314093,-145.984497,-33.576756,-125.722870,1.138041,0.569873,0.125907
7216334095,-148.563858,-29.362949,-121.360573,1.068922,0.499150,0.125294
7216354096,-143.480850,-19.616344,-114.656967,1.029643,0.449460,0.133142
7216374096,-129.642578,-8.706247,-106.623146,1.025731,0.447118,0.173365
7216394097,-124.066902,1.415066,-94.512756,1.013580,0.485203,0.288412
7216414098,-136.616699,10.774212,-78.562050,0.968279,0.404637,0.346751
7216434098,-141.465820,22.688341,-62.741695,0.960500,0.280595,0.313004
7216454099,-125.590607,41.949097,-40.194710,0.984957,0.155071,0.318736
7216474098,-96.738724,57.727539,-12.630055,1.054039,0.086302,0.360898
7216494099,-75.325203,69.381355,20.337208,1.080577,0.075094,0.417435
7216514099,-66.560112,79.256393,51.766853,1.087524,0.020890,0.483193
7216534100,-66.264854,82.650978,76.653137,1.072223,-0.050876,0.521267
7216554101,-59.677010,76.669952,96.218445,1.060066,-0.085536,0.520582
7216574101,-47.275257,70.985870,115.923035,1.072069,-0.121474,0.510857
7216594102,-38.942249,62.870907,136.759155,0.977752,-0.161876,0.482707
7216614103,-17.683378,47.927841,153.159531,0.812337,-0.205488,0.461644
7216634104,6.748159,27.721592,156.407242,0.776202,-0.212507,0.444878
7216654104,32.778038,-4.920471,146.086014,0.874543,-0.159751,0.421158
7216674106,64.813194,-47.516193,125.698158,0.969897,-0.120266,0.361309
7216694107,86.466911,-78.606094,105.533546,0.763103,-0.065685,0.298915
7216714107,97.423584,-98.629059,99.137627,0.538759,-0.040279,0.357107
7216734108,104.918686,-108.916458,96.847427,0.626149,-0.137830,0.543196
7216754108,117.797340,-111.562393,96.420624,0.980115,-0.387880,0.726924
7216774109,129.611115,-100.959465,101.151779,1.182910,-0.572569,0.826395
7216794108,126.509491,-70.950455,118.196808,1.022988,-0.465527,0.954766
7216814109,98.175728,-33.610195,145.286591,1.054814,-0.138937,1.005619
7216834110,63.845455,5.379390,185.543152,1.154958,0.147353,0.863488
7216854110,21.986370,47.138943,215.228058,1.076135,0.171802,0.778126
7216874111,-15.978423,62.226479,226.131775,1.021743,0.024768,0.688529
7216894111,-21.066059,66.831406,229.470230,0.872055,-0.127047,0.612824
7216914112,-9.023803,63.485748,225.668701,0.741362,-0.187279,0.542653
7216934113,8.532876,60.822041,214.497955,0.720298,-0.167049,0.495792
7216954114,22.177954,62.998650,207.160797,0.721985,-0.079321,0.447667
7216974114,31.406498,64.351715,192.286194,0.639711,0.062808,0.500206
7216994116,8.280209,57.601368,166.554306,0.455828,0.164572,0.560917
7217014117,-41.579700,39.765015,141.207550,0.293860,0.124346,0.584624
7217034117,-74.939011,27.371395,114.050911,0.375202,0.014695,0.583205
7217054118,-73.620865,19.371569,78.797432,0.419789,-0.031537,0.569405
7217074118,-83.992744,2.905835,37.693054,0.231154,0.040131,0.520979
7217094119,-113.584747,-27.060587,-11.013651,0.084406,-0.027154,0.391555
7217114119,-145.116974,-63.192799,-53.778862,0.254609,-0.215760,0.251588
7217134119,-141.608337,-67.289452,-61.869602,0.821504,-0.622222,0.556528
7217154120,-61.202042,-19.507645,-16.112747,0.789839,-1.552176,0.701758
7217174120,26.294182,26.574970,-8.141668,0.718427,-1.085255,0.781889
7217194120,-2.470843,37.520927,-48.906319,0.706711,-0.248212,0.673772
7217214121,-48.502804,32.138538,-55.184288,0.574112,-0.305735,0.586756
7217234122,-61.344532,38.515362,-46.118919,0.636919,-0.818508,0.523206
7217254122,-43.768017,36.869171,-27.276997,0.724161,-1.204591,0.499823
7217274123,5.530747,24.777058,-52.783562,0.484997,-0.874868,0.431690
7217294124,34.114628,19.925411,-94.658081,0.287206,-0.347703,0.386207
7217314124,29.743729,21.724579,-126.624275,0.191287,-0.226291,0.362031
7217334126,21.979511,-2.872818,-155.514359,0.377702,-0.408368,0.283151
7217354127,21.421425,-22.873634,-170.597015,0.538976,-0.452436,0.352040
7217374127,39.908699,-39.888828,-201.001694,0.564395,-0.317821,0.356704
7217394128,35.147728,-45.886414,-238.941833,0.661396,-0.272320,0.484685
7217414129,31.338419,-56.448681,-283.872223,0.809559,-0.230382,0.496661
7217434129,22.664244,-53.184013,-316.471344,1.179973,-0.173262,0.577411
7217454129,26.875706,-21.449205,-304.255066,1.496109,0.040401,0.577950
7217474129,31.365751,5.589094,-255.990433,1.582704,0.003993,0.639584
7217494129,15.023828,2.943298,-207.222427,1.401046,-0.334059,0.855301
7217514130,-43.874531,-32.434116,-115.152641,1.313586,-0.878115,0.600167
7217534131,-29.444548,-13.370195,-6.968849,1.290759,-1.072278,0.541897
7217554132,9.528128,18.464041,21.274725,0.932722,-0.694208,0.601443
7217574132,7.281859,6.249231,5.374152,0.849915,-0.349233,0.464960
7217594133,13.383961,-10.266929,5.679524,0.926095,-0.383921,0.408976
7217614134,51.194786,-13.853697,37.463074,1.000321,-0.546313,0.402367
7217634134,93.260033,-10.126644,73.738441,0.960543,-0.496667,0.426745
7217654137,102.123489,1.768024,100.135323,0.879824,-0.304856,0.535729
7217674137,90.365746,25.109892,121.125778,0.887746,-0.121695,0.609890
7217714138,14.146618,55.663666,155.228470,0.910118,-0.016848,0.613430
7217734139,-22.063635,47.998573,163.993073,0.981889,-0.124414,0.584700
7217754140,-34.253506,41.066761,166.291595,1.004613,-0.226023,0.524828
7217774140,-21.986057,36.752396,164.180496,0.947920,-0.271641,0.454721
7217794139,2.145487,33.307434,159.457870,0.850788,-0.246555,0.431283
7217814140,22.743946,28.381008,150.517700,0.793210,-0.113290,0.421906
7217834141,21.893309,15.772634,137.705460,0.711749,0.028556,0.405042
7217854141,0.710196,0.643486,124.746758,0.672630,0.066549,0.454689
7217874141,-34.377991,-4.898131,115.463371,0.610041,-0.121390,0.492886
7217894142,-50.446430,-15.496177,114.102951,0.535517,-0.353807,0.511761
7217914143,-51.265919,-30.301300,107.653580,0.616834,-0.404184,0.491462
7217934143,-27.689291,-39.218658,96.590065,0.672602,-0.493588,0.507535
7217954144,16.041454,-37.862045,69.003746,0.675568,-0.324205,0.551757
7217974145,24.845104,-27.005682,31.654781,0.594650,-0.007552,0.681351
7217994147,-12.366168,-8.187521,-10.231678,0.558294,0.100250,0.766349
7218014147,-68.263451,10.789494,-48.955769,0.666770,0.022442,0.705242
7218034148,-115.256531,25.975937,-63.028309,0.896283,-0.293698,0.704565
7218054149,-130.324020,47.764259,-11.078794,1.290874,-1.114163,0.651636
7218074149,-31.182198,76.657227,14.631063,0.740657,-0.923192,0.463740
7218094150,-12.824114,81.380180,-48.518295,0.346831,-0.080875,0.405877
7218114149,-68.306503,44.138809,-93.388077,0.252743,-0.049084,0.290055
7218134150,-74.545242,39.284065,-122.648209,0.356949,-0.391019,0.270453
7218154150,-41.016491,52.001385,-125.556778,0.421194,-0.702681,0.248888
7218174151,6.320361,39.223343,-132.653275,0.477499,-0.733292,0.219732
7218194152,38.033298,13.029322,-156.404510,0.577903,-0.544418,0.258341
7218214152,43.359447,-13.161755,-183.964096,0.537123,-0.387016,0.315259
7218234153,34.918579,-41.126122,-207.683502,0.662564,-0.355306,0.436441
7218254153,18.739946,-42.891361,-221.462769,0.951998,-0.378047,0.578354
7218274154,22.853563,-18.289774,-216.638321,1.218554,-0.278097,0.703100
7218294154,3.627953,6.152519,-206.113434,1.327626,-0.190668,0.583544
7218314157,-3.567131,2.687391,-193.259979,1.224277,-0.428683,0.562353
7218334157,4.266589,-26.834808,-163.805695,1.194182,-0.624295,0.487338
7218354158,21.262360,-40.667496,-95.274620,1.224163,-0.961659,0.429519
7218374159,90.814629,-24.108807,-18.374546,0.995511,-0.955333,0.628070
7218394160,128.551010,-9.285687,14.047827,0.758010,-0.504629,0.669289
7218414160,101.319038,-12.407306,11.716586,0.779923,-0.100253,0.582661
7218434161,56.136208,-19.738712,13.088511,0.912526,0.028358,0.561587
7218454160,28.222622,-24.276590,33.542015,0.941736,-0.160704,0.587499
7218474160,36.102802,-18.550884,57.645947,0.862341,-0.287353,0.570402
7218494161,47.608742,-0.239333,76.782295,0.772385,-0.206449,0.563966
7218514162,48.962486,16.647449,94.945564,0.829288,-0.068847,0.576290
7218534162,29.271496,29.335672,107.592896,0.943416,0.016069,0.536364
7218554163,-2.978599,33.455193,116.339188,0.934440,0.001845,0.507394
7218574164,-24.091650,27.673702,126.074997,0.887087,-0.131267,0.460891
7218594164,-22.780022,22.083103,131.421494,0.906556,-0.304121,0.436104
7218614165,-0.962708,20.391201,134.923981,0.961597,-0.407054,0.452287
7218634167,33.089249,20.330666,137.550064,0.954596,-0.437918,0.476772
7218654168,62.729599,19.929178,137.994049,0.919434,-0.375143,0.491599
7218674168,70.805336,18.028999,135.997543,0.875887,-0.222560,0.506239
7218694169,55.668213,14.570415,130.846420,0.843769,-0.120999,0.510740
7218734170,9.537606,1.009771,125.221519,0.749884,-0.126772,0.597178
7218754170,-14.696608,-2.119874,122.975418,0.685340,-0.195961,0.608902
7218774169,-30.258436,-5.306826,120.211197,0.629320,-0.291846,0.590929
7218794170,-26.612986,-6.034021,110.409897,0.646894,-0.345991,0.613100
7218814171,-23.721827,-8.912228,91.859764,0.606279,-0.340056,0.643705
7218834171,-29.644861,-21.259384,61.788620,0.535756,-0.316253,0.588994
7218854172,-41.956738,-32.865227,31.500130,0.535999,-0.311000,0.467324
7218874172,-36.588623,-40.132076,3.763375,0.600002,-0.270716,0.404136
7218894173,-33.923595,-39.642925,-25.295677,0.551166,-0.205176,0.452260
7218914174,-31.520035,-30.204506,-50.153675,0.581260,-0.208127,0.563801
7218934174,-34.162415,-3.378566,-61.221455,0.891552,-0.423789,0.811689
7218974177,15.977413,66.548805,-50.938423,0.601585,-0.313438,0.464008
7218994178,4.541245,53.855499,-104.479950,0.226372,0.261702,0.376323
7219014178,-38.992966,11.389450,-140.892166,0.294006,0.141532,0.216667
7219034179,-48.060303,6.695524,-153.809128,0.647998,-0.060436,0.253800
7219054180,-21.105938,10.867764,-151.990540,0.775436,-0.315325,0.291108
7219074180,23.360092,-2.570167,-158.440186,0.827642,-0.344319,0.324369
7219094180,40.978615,-27.926830,-186.059708,0.792667,-0.179091,0.345925
7219114180,22.401110,-52.438553,-209.664856,0.786150,-0.060807,0.400779
7219134181,-6.770190,-64.107567,-227.755096,0.980214,-0.090886,0.466772
7219154182,-14.921859,-42.560989,-239.488129,1.324354,-0.216568,0.528449
7219174183,-3.456331,-5.364807,-232.276962,1.467719,-0.178422,0.516080
7219194182,1.081786,-5.335161,-218.353027,1.306611,-0.017307,0.412830
7219214183,-1.582868,-27.059280,-220.073837,1.296190,0.062438,0.379665
7219234184,-13.449215,-34.319668,-193.335831,1.436543,-0.072318,0.528183
7219254185,-31.717487,-28.088430,-98.220551,1.292987,-0.777483,0.537755
7219274185,44.956238,-45.433773,-17.779627,1.006559,-0.850037,0.487458
7219294187,81.015656,-35.482456,-13.893412,1.032031,-0.319187,0.503001
7219314188,37.017197,-3.196138,-25.169397,0.988601,0.161896,0.578727
7219334188,-6.506493,1.254970,-33.775593,0.804750,0.321835,0.448540
7219354189,-41.317734,-13.536377,-13.753262,0.826582,0.095402,0.310397
7219374190,-37.866146,-3.475038,7.060738,0.831591,-0.041544,0.353142
7219394190,-14.931646,2.347887,8.882609,0.770471,0.030578,0.360176
7219414191,10.133244,1.736207,13.794049,0.841238,0.095994,0.322667
7219434190,31.603392,6.431951,26.403576,0.961655,0.178387,0.344505
7219454191,42.922623,11.617071,38.099735,1.024029,0.254435,0.383188
7219474192,47.183105,7.271901,40.881329,1.032804,0.300444,0.403275
7219494192,39.154263,-4.221666,32.230869,1.011850,0.367179,0.391914
7219514193,27.331272,-7.622542,18.606291,0.856787,0.419835,0.411436
7219534193,8.792520,-8.259251,3.419195,0.782493,0.402872,0.431016
7219554194,-11.536190,-6.921410,-9.656059,0.833671,0.307058,0.424338
7219574195,-21.149666,4.458200,-13.121428,1.044759,0.136588,0.373531
7219594195,-3.169072,16.693005,-1.411659,0.968843,-0.011442,0.322227
7219614196,26.448238,14.526369,-0.161647,0.924176,0.120658,0.345927
7219634198,27.049379,19.656914,-4.906837,0.873476,0.298636,0.409361
7219654198,-0.632198,20.016975,-8.133330,0.833691,0.346174,0.394457
7219674199,-31.624296,10.351166,-9.885775,0.827617,0.287647,0.323051
7219694199,-44.709465,-0.291920,-9.306599,0.868198,0.197021,0.288457
7219714200,-36.506866,-4.909672,-7.005338,0.894377,0.130178,0.306349
7219734201,-14.681521,-6.473721,-3.875826,0.919376,0.116724,0.356064
7219754200,4.925084,-6.222732,-0.387237,0.913512,0.159680,0.401592
7219774201,12.648285,-3.941737,1.231399,0.905095,0.212772,0.427418
7219794201,7.773715,-0.426004,-1.558827,0.922392,0.281476,0.451530
7219814202,-7.891128,2.377551,-6.591536,0.919925,0.314788,0.457014
7219834203,-25.848566,6.014357,-12.544668,0.887456,0.267729,0.461879
7219854203,-36.448826,10.279964,-16.581228,0.890475,0.214905,0.440464
7219874204,-37.588058,9.740227,-16.915546,0.878869,0.182711,0.422325
7219894205,-41.530537,5.207827,-18.328465,0.872294,0.134077,0.393635
7219914205,-38.374329,3.463853,-20.857956,0.922965,0.031371,0.387422
7219934206,-24.794821,5.244227,-18.420273,0.910815,-0.025321,0.352687
7219954207,-19.974352,-1.666388,-16.039978,0.869709,0.039353,0.364415
7219974208,-19.188469,-4.609509,-18.796383,0.894934,0.095057,0.400300
7219994209,-19.696720,-6.904596,-22.347746,0.902979,0.110335,0.399872
7220034210,-14.246643,-4.420235,-22.627083,0.910858,0.075434,0.431137
7220054211,-19.123831,3.142924,-22.471903,0.906752,0.095496,0.391290
7220074211,-25.603407,-0.946607,-22.021000,0.858057,0.149728,0.392612
7220094210,-31.929216,-4.397157,-25.054195,0.959156,0.134727,0.377168
7220114211,-25.369707,-3.298526,-20.985498,1.017796,0.011470,0.369618
7220134211,-16.329775,-8.745338,-14.489470,0.880594,-0.000585,0.359392
7220154212,-13.402826,-7.125658,-18.560627,0.899993,0.050310,0.406329
7220174213,-11.646866,-1.934823,-17.885441,0.821129,0.074564,0.383544
7220194213,-11.138777,-2.021272,-23.009323,0.881635,0.081205,0.378213
7220214214,-6.470220,-0.304020,-23.114426,0.893395,0.055079,0.355017
7220234215,-5.267318,-4.191662,-22.159979,0.890429,0.025139,0.354717
7220254216,0.940769,-2.943386,-20.537342,0.917385,0.002942,0.330063
7220274216,9.828720,-4.491563,-18.526701,0.904955,0.016451,0.359923
7220294218,18.010262,-0.237396,-18.621353,1.107664,-0.012662,0.347360
7220314219,24.041960,-2.561236,-16.252180,0.941053,0.045919,0.427151
7220334219,23.848637,5.350480,-18.635357,1.325682,-0.077808,0.424989
7220354220,20.935709,3.495452,0.301104,1.069895,-0.010499,0.353605
7220374221,3.357027,-2.120668,-1.363785,0.977811,0.085973,0.402824
7220394221,-4.447700,4.709255,-6.481048,1.073952,0.045596,0.328247
7220414221,4.072601,-0.291313,-5.950147,0.877249,0.054100,0.288099
7220434221,15.726416,-1.654989,-11.719497,0.758497,0.159276,0.302527
7220454222,25.488976,4.031161,-20.947067,0.749136,0.257768,0.367690
7220474222,27.391472,8.283445,-23.581606,0.862774,0.298556,0.381525
7220494223,16.372000,6.516125,-16.820644,0.818246,0.322529,0.377242
7220514223,-2.505424,0.300931,-16.934219,0.769809,0.393347,0.388163
7220534224,-6.862402,7.230686,-23.085993,0.840317,0.334644,0.367153
7220554225,8.170061,5.305174,-24.688599,0.854942,0.281371,0.407798
7220574226,22.272961,8.046965,-21.794107,1.059528,0.194780,0.472486
7220594227,22.848045,8.746882,-7.148388,1.101100,0.157099,0.435628
7220614228,1.753021,2.022969,1.626496,0.891183,0.264602,0.477563
7220634229,-9.378452,9.915178,-0.091081,1.034639,0.124778,0.403621
7220654229,-0.236084,9.664489,10.469368,0.897023,0.128657,0.324642
7220674230,11.426542,2.427896,15.730434,0.697322,0.317844,0.340796
7220694231,19.435514,-0.524743,12.021559,0.593745,0.433168,0.407123
7220714231,24.257040,8.375218,7.126013,1.105482,0.215870,0.445260
7220734253,26.411667,11.149021,34.081238,1.183888,-0.021554,0.397977
7220754231,19.499746,1.552168,59.849663,1.040993,-0.006086,0.441362
7220774232,2.097140,2.433632,60.153152,0.953608,0.217822,0.369359
7220794232,-10.821563,1.539969,43.946033,0.853487,0.321456,0.348150
7220814233,-1.655718,-1.073255,32.007847,0.872215,0.193660,0.370826
7220834234,15.828206,-0.667424,29.843925,0.841051,0.139180,0.398988
7220854234,27.149261,4.458551,30.551708,0.835629,0.189029,0.405921
7220874235,22.596449,9.990812,27.082129,0.861249,0.249263,0.403156
7220894235,8.776638,9.363214,21.547394,0.878445,0.305233,0.407577
7220914236,-4.295219,5.619086,15.278630,0.893096,0.309156,0.417607
7220934238,-8.315068,2.826361,10.818445,0.890966,0.235669,0.431120
7220954239,-1.928107,2.141352,6.779925,0.871452,0.169101,0.451284
7220974239,10.781824,6.272598,2.698290,0.872902,0.164235,0.462776
7220994240,16.280357,7.952619,0.028589,0.878514,0.235832,0.487546
7221014240,5.518045,8.111619,-0.158550,0.884456,0.288582,0.491721
7221034241,-7.379054,6.580180,2.118711,0.838473,0.229136,0.493905
7221054242,-9.878589,4.720389,8.901968,0.841358,0.161060,0.473726
7221074241,-4.438391,10.181047,22.174000,0.883757,0.094229,0.465602
7221094242,5.262265,18.124908,35.833275,0.937463,0.021597,0.462789
7221114242,26.228966,23.189703,60.176804,1.001848,0.048710,0.502609
7221134243,23.940723,25.338171,86.076050,1.084542,-0.061975,0.557957
7221154244,35.253780,34.718975,122.580254,1.131938,-0.242458,0.549622
7221174244,52.824970,38.525955,156.337784,1.146459,-0.187056,0.580296
7221194245,49.897411,51.695656,174.393066,1.149069,-0.032320,0.597739
7221214245,27.436121,62.761436,184.111877,1.168844,0.061790,0.603151
7221234246,9.099141,82.835472,196.977905,1.131563,0.054627,0.650865
7221254246,1.897640,76.886452,219.980164,1.067102,0.030857,0.571406
7221274249,-1.535198,81.309753,239.240097,1.009002,0.081848,0.580071
7221294249,-0.792785,93.055489,242.010422,0.911127,0.106929,0.593204
7221314250,-8.069201,97.178108,235.489563,0.800399,0.159127,0.551152
7221334251,-22.985508,90.441368,214.332870,0.683122,0.317329,0.525192
7221354251,-57.850662,68.398376,178.958771,0.531991,0.502288,0.463910
7221374252,-106.135284,33.542416,136.522690,0.306998,0.564102,0.327336
7221394251,-146.803696,-9.875080,89.173836,-0.023680,0.439568,0.193747
7221414251,-169.929047,-44.591213,20.085300,0.103115,0.153004,0.278147
7221434252,-170.390549,-28.209133,-2.184510,1.003067,-0.546304,0.654791
7221454253,-130.016479,6.851335,113.286011,1.315650,-1.830899,0.413238
7221474253,-17.360645,18.226952,128.610046,0.849685,-0.634223,0.541033
7221494254,-81.344810,-13.141944,96.800545,0.511603,0.203017,0.509532
7221514254,-150.387955,-28.075539,91.978073,0.493316,-0.453353,0.474463
7221534255,-128.608139,-34.651237,96.270409,0.469155,-0.853885,0.324485
7221554256,-74.468475,-21.386803,89.055183,0.580207,-0.763852,0.434318
7221574256,-55.346329,1.937843,84.226501,0.624608,-0.793518,0.497978
7221594258,-49.443214,3.254004,85.508263,0.518699,-0.754045,0.412295
7221634260,-56.137917,2.121093,70.793663,0.599271,-0.726601,0.384863
7221654260,-36.186447,7.348002,77.062279,0.555355,-1.069381,0.429823
7221674261,-15.920840,14.348007,69.756599,0.512498,-0.875757,0.531042
7221694261,-30.582035,23.780523,57.804264,0.530459,-0.651368,0.521664
7221714268,-43.330875,31.930647,53.205158,0.440150,-0.685084,0.452130
7221734261,-51.205570,37.131378,45.337044,0.368185,-0.819317,0.373471
7221754262,-51.328690,39.828846,33.500809,0.323429,-0.960394,0.288806
7221774263,-37.639290,37.753513,17.025520,0.263567,-1.087767,0.192923
7221794263,-12.014976,34.011311,-4.664277,0.203723,-1.162798,0.159085
7221814264,20.346256,27.701418,-30.036087,0.175485,-1.131166,0.174186
7221834264,47.917694,22.015793,-60.115639,0.171303,-1.071168,0.199767
7221854265,74.419052,15.010298,-97.502472,0.100696,-1.021129,0.199564
7221874265,114.130051,10.578821,-147.173447,0.116894,-0.851697,0.216006
7221894266,133.156708,-6.949504,-192.374146,0.228154,-0.742495,0.325273
7221914268,148.660919,-20.421606,-241.369232,0.350187,-0.711884,0.402653
7221934269,152.823334,-28.491116,-293.034760,0.507303,-0.534624,0.501485
7221954269,137.552856,-48.082397,-338.555786,0.642263,-0.354623,0.612913
7221974270,111.247223,-46.423309,-363.133392,0.868220,-0.305350,0.598376
7221994270,92.092865,-41.778263,-392.202820,0.949229,-0.235740,0.576869
7222014271,88.957115,3.590567,-387.522980,1.206722,-0.137956,0.193846
7222034272,164.662018,28.142195,-314.646515,0.772403,-0.036387,0.498779
7222054272,159.435059,11.947893,-229.710190,1.100720,-0.028011,0.820849
7222074272,107.493958,-11.976176,-60.142494,1.192374,-0.419670,0.916269
7222094273,69.771866,-4.518300,63.758789,1.203568,-0.220138,1.021226
7222114273,21.623646,26.678431,92.448799,1.239424,-0.036167,1.028155
7222134274,-53.556637,40.769165,99.370171,1.075919,-0.099488,0.598217
7222154274,-70.107697,26.255995,114.862221,0.869484,-0.497781,0.385527
7222174275,-0.801628,31.366253,156.744385,0.788410,-0.804141,0.354026
7222194276,79.713448,48.255196,203.317139,0.818276,-0.586024,0.330634
7222214276,133.742462,78.077843,232.754944,0.923352,-0.180630,0.374812
7222234277,131.392899,94.019913,252.117310,0.872480,0.079317,0.461431
7222254279,72.753479,85.210236,265.146362,0.830875,0.119850,0.602231
7222274280,25.906378,66.620636,261.470154,0.852543,0.072015,0.652167
7222294280,12.340208,60.662312,233.130051,0.804225,0.173971,0.634881
7222314281,-1.975893,55.371716,193.885269,0.609050,0.311553,0.672489
7222334281,-26.489067,34.266678,151.726608,0.406369,0.335974,0.681201
7222354282,-62.581837,21.042969,111.766144,0.296011,0.397322,0.650141
7222374283,-106.669968,8.698778,61.069939,0.154865,0.207968,0.549375
7222394281,-133.491577,-16.557901,2.108128,0.170667,-0.018699,0.436807
7222414282,-148.866592,-47.554356,-39.842247,0.314808,-0.218928,0.271854
7222434283,-122.145920,-63.642666,-57.894199,0.616334,-0.406201,0.387865
7222454284,-48.630314,-25.771856,-32.221973,1.006758,-0.986526,0.726538
7222474284,50.993629,29.729294,24.043585,0.902341,-1.247185,0.887388
7222494285,53.381161,62.107246,-1.678260,0.781709,-0.306738,0.938586
7222514285,-63.551296,30.219858,-19.693941,0.523246,0.034000,0.830228
7222534286,-143.414490,7.827378,-8.588558,0.664594,-0.487875,0.672560
7222554287,-123.127937,13.321268,9.289098,0.759835,-1.053905,0.537364
7222574289,-52.666927,23.292770,-2.552959,0.520425,-0.802221,0.497793
7222594289,-13.861978,31.273689,-26.970278,0.338236,-0.465612,0.480661
7222614290,2.969724,34.507084,-47.694019,0.328110,-0.467788,0.408897
7222654291,-15.677803,-3.386148,-102.175079,0.299654,-0.447466,0.376554
7222674291,-21.403019,-29.731842,-125.427856,0.356808,-0.366004,0.271344
7222694292,-4.016885,-39.520836,-152.098557,0.524579,-0.539339,0.375487
7222714292,19.572836,-41.867409,-197.723297,0.573696,-0.653196,0.515195
7222734292,44.020847,-49.496525,-247.378448,0.724286,-0.511548,0.612319
7222754300,38.128582,-50.946617,-301.619415,0.962182,-0.301385,0.601724
7222774294,25.405392,-28.407938,-327.296051,1.208701,-0.231169,0.467579
7222794295,66.935669,6.874853,-326.353790,1.264580,-0.268363,0.371568
7222814295,118.856232,15.779744,-292.198761,1.150601,-0.116147,0.535738
7222834295,115.326088,-13.258541,-218.383011,1.386943,-0.241946,0.963204
7222854296,40.573460,-26.399967,-65.546921,1.465823,-0.789095,0.897151
7222874297,15.342180,11.027343,32.392105,1.078912,-0.450751,0.812347
7222894297,-49.798840,19.793566,44.846859,0.881745,-0.201221,0.672075
7222914299,-86.373947,12.094666,41.302357,0.909608,-0.423619,0.367461
7222934300,-34.687508,4.469923,65.836662,0.968422,-0.867695,0.327808
7222954301,86.856773,-0.084182,110.639740,0.987727,-0.940154,0.279676
7222974301,167.244110,6.653978,148.588242,1.037362,-0.516303,0.362691
7222994302,187.746948,27.263584,168.866180,1.182594,-0.077462,0.465867
7223014303,162.053146,52.992374,183.191650,1.152303,0.159393,0.595555
7223034302,98.893982,68.233315,193.822174,0.927844,0.200193,0.719186
7223074303,-19.949232,59.704456,180.230911,0.905804,0.024558,0.654527
7223094304,-39.800964,56.428932,172.265961,0.883839,-0.014447,0.570804
7223114304,-37.721664,55.774258,172.115051,0.804564,-0.131570,0.539788
7223134305,-13.457548,53.972420,173.152298,0.722583,-0.188373,0.520954
7223154306,13.623027,56.715050,166.115952,0.737113,-0.055824,0.504834
7223174306,15.950301,56.596371,153.582153,0.669676,0.093079,0.550942
7223194307,-16.134171,40.241936,134.584122,0.544484,0.186292,0.590117
7223214307,-54.999691,23.400471,105.223389,0.436038,0.164689,0.647736
7223234309,-88.159431,13.760703,70.317223,0.387087,0.035371,0.628980
7223254310,-101.762482,6.627296,40.151146,0.357213,-0.088201,0.582689
7223274310,-98.272400,-8.056799,1.923913,0.292075,-0.251718,0.475177
7223294311,-93.662956,-29.304890,-40.275928,0.317939,-0.335623,0.373834
7223314311,-72.932457,-32.025082,-64.843346,0.722205,-0.329288,0.602291
7223334312,-44.705696,14.273746,-30.027637,0.956287,-0.851855,0.800492
7223354324,-14.341403,39.555496,20.140648,0.586948,-0.858407,0.862733
7223374312,-41.390148,48.431091,-31.831480,0.706329,-0.312711,0.835118
7223394313,-80.639389,42.666683,-61.856220,0.487602,-0.414326,0.594942
7223414314,-82.485863,37.762928,-63.155441,0.436259,-0.454882,0.378317
7223434314,-66.346138,33.730610,-58.081333,0.457431,-0.756736,0.432060
7223454315,-34.955296,25.020884,-49.446007,0.632446,-1.272146,0.464819
7223474316,46.966076,23.657684,-71.532936,0.442389,-0.915680,0.388013
7223494316,92.777840,15.222436,-117.687538,0.196226,-0.061365,0.421666
7223514317,47.187057,-15.352463,-136.627792,0.215531,0.047196,0.419827
7223534318,3.075253,-27.221731,-147.839890,0.427258,-0.312141,0.429760
7223554319,13.833045,-39.735744,-179.103561,0.499995,-0.497556,0.368395
7223574320,34.507599,-38.804768,-212.092163,0.573375,-0.450417,0.391670
7223594320,51.471619,-44.150192,-239.396622,0.691260,-0.239505,0.496978
7223614321,47.400562,-37.395222,-251.757584,0.976739,-0.190024,0.528008
7223634322,56.742180,-30.093281,-248.375656,1.202588,-0.174588,0.556406
7223654322,67.284714,-42.580997,-207.475159,1.336651,-0.318469,0.578848
7223674323,49.971546,-60.913769,-140.286835,1.479127,-0.602955,0.710988
7223694322,44.144634,-58.572456,-54.231167,1.370596,-0.726111,0.843961
7223714323,63.125504,-34.966751,-8.950455,1.105288,-0.429974,0.797699
7223734323,36.168758,-28.246159,-9.838099,0.893856,-0.136015,0.641003
7223754324,4.726825,-34.717503,-10.318682,0.836469,-0.212271,0.499846
7223774325,25.139696,-39.001183,15.262851,0.875357,-0.517928,0.466531
7223794326,78.750977,-28.850651,47.770683,0.879451,-0.558713,0.512899
7223814326,104.065933,-7.157634,71.076653,0.796916,-0.308852,0.584668
7223834327,97.602737,13.467957,88.354362,0.873525,-0.060554,0.630517
7223854328,62.324821,34.501709,108.733177,1.015230,0.085403,0.653508
7223874328,6.190740,48.837383,127.277016,1.069949,0.116109,0.612449
7223894330,-49.342514,45.471329,138.785355,1.027491,0.028401,0.557088
7223914331,-69.501488,36.691200,147.033310,1.014606,-0.198036,0.494306
7223934331,-44.294945,33.204384,156.797928,0.982713,-0.425290,0.486074
7223954332,9.228621,33.832401,163.458389,1.006757,-0.454208,0.501994
7223974333,52.327984,41.006557,161.450745,0.981028,-0.317441,0.466887
7224014333,58.131798,35.213051,152.232513,0.727996,-0.117993,0.498491
7224034333,37.525131,27.000996,144.764542,0.721484,-0.068585,0.561883
7224054334,15.293250,23.481197,138.566986,0.694504,-0.134165,0.608318
7224074334,-2.649894,23.640232,132.454773,0.671814,-0.212509,0.620422
7224094335,-9.704312,18.480192,122.160095,0.595151,-0.216435,0.639049
7224114335,-19.838762,12.916856,103.689217,0.531848,-0.215733,0.683279
7224134336,-32.550903,12.729724,82.173622,0.487657,-0.313200,0.661254
7224154336,-34.206989,8.909484,55.129677,0.482226,-0.360457,0.571621
7224174337,-35.512794,-12.615877,23.429995,0.364827,-0.342748,0.421848
7224194338,-36.416283,-34.876106,-5.388040,0.424387,-0.211104,0.428270
7224214340,-16.870714,-25.143232,-28.722212,0.690708,-0.277407,0.655451
7224234341,-2.010618,13.100016,-15.702614,0.641359,-0.660877,0.720319
7224254341,-9.303897,27.186808,-11.203951,0.667437,-0.446370,0.648600
7224274342,-38.016338,24.190395,-46.266937,0.670794,-0.231340,0.586221
7224294342,-38.917740,17.964134,-67.239151,0.442888,-0.389145,0.420702
7224314343,-7.988445,14.347045,-98.095757,0.386979,-0.273835,0.315293
7224334342,14.323351,12.790828,-128.785538,0.485464,-0.099987,0.501702
7224354343,1.090646,8.604977,-117.147537,0.799369,-0.475360,0.622370
7224374343,27.301908,8.816051,-100.321701,0.723236,-0.700859,0.493351
7224394344,63.997543,3.523850,-146.730087,0.574140,-0.127817,0.575083
7224414344,21.862152,-38.018642,-170.720367,0.450489,0.081309,0.413733
7224434345,-31.292501,-70.273628,-183.364197,0.610685,0.050728,0.388085
7224454345,-52.816391,-60.635323,-207.581848,0.914769,-0.062720,0.356038
7224494347,-27.071842,-39.321114,-206.268600,1.308327,-0.172573,0.364699
7224514348,-25.624193,-17.623615,-212.582245,1.467271,-0.362097,0.404420
7224534350,18.159895,-39.684456,-206.230408,1.367605,-0.529274,0.593436
7224554350,37.151241,-69.064758,-136.566452,1.361203,-0.776205,0.556574
7224574351,56.048218,-52.414291,-57.451981,1.168423,-0.949234,0.618042
7224594351,87.296036,-34.072659,-21.687412,0.986314,-0.594301,0.649157
7224614352,63.238792,-29.166792,-19.205969,1.069405,-0.201139,0.530206
7224634353,1.822123,-27.221933,-0.627440,1.001254,-0.111697,0.492024
7224654377,-20.718727,-26.734184,39.476215,0.860114,-0.385402,0.487237
7224674353,23.234852,-10.773912,77.473351,0.858992,-0.519969,0.471141
7224694353,65.921730,12.613485,106.665367,0.995392,-0.315989,0.507053
7224714354,64.682350,39.113945,127.851837,1.099418,-0.018940,0.569851
7224734355,39.302277,60.195137,141.513016,1.068974,0.127112,0.579432
7224754355,5.967750,70.747467,149.041992,1.058542,0.067665,0.539010
7224774356,-11.813858,74.864624,154.576080,1.060702,-0.081833,0.507123
7224794357,-4.974275,73.989426,157.406143,1.027271,-0.181748,0.476031
7224814357,13.281319,71.395706,155.077515,0.977574,-0.171094,0.435414
7224834358,29.788868,70.515427,149.610580,0.912486,-0.093008,0.453170
7224854360,31.912220,67.055908,141.599258,0.821749,-0.047746,0.489599
7224874360,17.826878,60.453888,133.410248,0.728935,-0.049062,0.520610
7224894361,-5.253971,51.551563,126.853424,0.684932,-0.066180,0.529734
7224914362,-31.504250,38.883827,117.052826,0.646037,-0.124304,0.571283
7224934363,-55.705662,27.464893,104.866219,0.663888,-0.218640,0.605842
7224954363,-63.380489,24.488373,99.671219,0.650577,-0.374140,0.639840
7224974364,-48.843254,24.501360,96.519424,0.622806,-0.439991,0.647140
7224994363,-35.686081,25.188417,88.317329,0.584730,-0.445090,0.685420
7225014363,-24.030655,26.772406,73.734581,0.552921,-0.404570,0.668332
7225034364,-23.809237,21.199913,49.760124,0.506959,-0.207696,0.617229
7225054364,-48.489067,-4.357547,20.632483,0.267393,-0.113730,0.495157
7225074365,-75.152092,-21.185141,-13.092877,0.348173,-0.061996,0.526462
7225094366,-70.252808,-1.421247,-39.437756,0.710884,-0.278525,0.632593
7225114366,-60.521942,40.804173,-24.201368,0.556040,-0.635985,0.675294
7225134367,-70.358910,56.351765,-25.161633,0.598662,-0.620249,0.618379
7225154368,-69.934227,54.691650,-60.234581,0.583276,-0.661886,0.512870
7225174368,-36.329418,49.727612,-82.411255,0.382134,-0.712150,0.285309
7225194370,11.078930,44.970581,-112.334854,0.408457,-0.472136,0.293927
7225214371,37.369576,36.634098,-116.596779,0.498191,-0.505745,0.403347
7225234371,63.912605,20.107353,-104.666565,0.509850,-0.630407,0.291542
7225254373,106.031128,2.407540,-128.686218,0.418230,-0.340624,0.382583
7225274373,92.105545,-30.163422,-155.931351,0.395696,-0.157979,0.451793
7225294373,59.124836,-55.543594,-174.990753,0.524502,-0.184075,0.483410
7225314372,46.337627,-67.569283,-191.026443,0.720215,-0.127998,0.594618
7225334373,8.335707,-63.462036,-198.106033,1.070991,0.016047,0.571307
7225354374,-61.703888,-45.630493,-211.522934,1.230993,-0.084113,0.542896
7225374374,-65.151642,-44.144287,-225.116730,1.333191,-0.348883,0.512966
7225394375,-37.465164,-59.433506,-195.749268,1.509967,-0.735561,0.523515
7225414375,15.940985,-52.284161,-118.801178,1.398321,-1.065867,0.615581
7225434376,84.434944,-32.133614,-40.803062,1.047999,-0.836824,0.748005
7225454377,96.383286,-14.554340,-14.955200,0.834238,-0.360294,0.659811
7225474377,54.701759,-22.890591,-19.263815,0.827005,-0.076408,0.546373
7225494378,9.051188,-33.957901,-3.464479,0.873818,-0.137317,0.501259
7225514380,5.478936,-31.409594,28.883059,0.807676,-0.374277,0.507244
7225534381,37.112503,-17.527102,53.806633,0.733154,-0.427593,0.520813
7225554381,60.242348,0.692988,71.788399,0.773719,-0.272802,0.560256
7225594383,45.496330,31.599398,102.492958,0.953682,-0.011436,0.560697
7225614383,16.724392,38.563232,114.994934,0.958021,-0.000119,0.570236
7225634383,-10.347308,35.912113,123.664673,0.982905,-0.038546,0.570803
7225654383,-29.200119,29.617285,127.723373,1.019822,-0.130931,0.534922
7225674384,-28.120619,23.639761,130.093735,0.999357,-0.255884,0.526693
7225694385,-8.706511,20.267197,133.105682,0.955084,-0.327159,0.524332
7225714385,10.037639,18.920307,135.169174,0.918094,-0.317967,0.495724
7225734385,18.672487,20.690744,134.148987,0.843636,-0.262076,0.479521
7225754386,17.526611,22.230572,131.745850,0.751912,-0.244061,0.490817
7225774387,14.001903,20.894634,127.671982,0.745239,-0.274298,0.521499
7225794387,18.320028,23.172344,123.295090,0.764551,-0.311764,0.561948
7225814388,23.079893,23.912903,116.590187,0.739151,-0.314930,0.601603
7225834390,19.744570,22.703630,108.745590,0.697655,-0.267455,0.630648
7225854391,2.659318,17.116079,102.085556,0.620703,-0.252815,0.675713
7225874391,-22.271332,7.782388,91.861053,0.554350,-0.295207,0.638845
7225894392,-42.163086,-0.413873,80.058105,0.526282,-0.431813,0.561029
7225914392,-28.589226,-6.143412,64.747414,0.587882,-0.481041,0.528290
7225934393,-5.563744,-2.941957,44.177910,0.657173,-0.446568,0.587840
7225954394,8.540589,13.321404,31.341269,0.591091,-0.424103,0.694009
7225994394,-15.933434,34.897373,-8.305674,0.548374,-0.267195,0.637259
7226014394,-44.602013,30.034538,-29.970367,0.534926,-0.268388,0.527591
7226034394,-48.567574,27.130430,-46.771618,0.423808,-0.369119,0.445104
7226054395,-34.709805,19.678238,-73.170837,0.339828,-0.395015,0.366028
7226074396,-19.724155,14.152826,-104.272720,0.400248,-0.383269,0.361621
7226094396,-5.585351,8.572225,-120.004639,0.580201,-0.482263,0.367964
7226114397,13.556738,6.892243,-112.310341,0.694001,-0.635095,0.363796
7226134398,53.075935,1.668908,-111.433670,0.610965,-0.653232,0.358222
7226154398,94.351089,-14.697876,-141.124634,0.496619,-0.464054,0.385816
7226174400,100.796211,-47.880253,-169.470764,0.629699,-0.255288,0.370083
7226194401,90.273018,-89.934082,-184.362320,0.941146,0.052680,0.397859
7226214401,46.456944,-100.053696,-184.883850,1.310238,0.249791,0.495418
7226234402,-24.874393,-102.316437,-184.965698,1.161971,-0.138839,0.732864
7226254402,-66.105484,-110.443504,-175.286972,1.050557,-0.577827,0.783822
7226274403,-72.668144,-90.919014,-163.612122,0.917607,-0.726355,0.740252
7226294402,-35.940578,-47.733879,-138.913040,0.992601,-0.575864,0.822431
7226314403,-23.104786,-8.839125,-92.229698,1.080528,-0.494895,0.760136
7226334404,-3.756031,12.254918,-50.632553,1.061468,-0.411609,0.631326
7226354404,15.864384,19.582001,-24.340101,0.942838,-0.344677,0.520830
7226374405,30.112507,15.799385,-6.172432,0.774516,-0.355860,0.512739
7226394406,44.139488,12.566136,7.061790,0.698830,-0.299952,0.502270
7226414407,48.686333,14.442457,21.296469,0.724440,-0.171260,0.525270
7226434407,37.227539,17.030602,39.522289,0.805454,-0.108899,0.530874
7226454408,24.006071,20.972301,59.155903,0.889625,-0.094727,0.578663
7226474408,8.601739,28.172909,76.504913,0.931802,-0.121397,0.562531
7226494410,4.435065,35.549091,95.754829,0.915890,-0.225629,0.560689
7226514411,18.794350,37.674000,113.598824,0.915783,-0.307863,0.537688
7226534411,41.859852,36.146233,125.210983,0.949136,-0.268434,0.528205
7226554412,49.416824,34.687618,134.142700,0.973999,-0.176657,0.575025
7226574413,42.270905,35.978985,140.203354,0.990559,-0.112449,0.588800
7226594413,26.997925,38.660645,141.932816,0.913580,-0.099843,0.574331
7226614412,9.474953,33.474350,140.904053,0.827830,-0.124779,0.572391
7226634413,-6.707702,27.840946,139.643234,0.774591,-0.206823,0.560163
7226654414,-12.577915,23.851664,137.446335,0.725028,-0.335343,0.551787
7226674414,2.321140,19.603136,134.692169,0.731023,-0.415808,0.578898
7226694415,21.659113,20.249384,131.249603,0.734600,-0.428874,0.611335
7226714416,31.043665,21.391649,125.175285,0.723328,-0.360791,0.645020
7226734416,24.760279,17.501802,119.544914,0.673018,-0.289487,0.687111
7226754417,9.248837,13.907782,114.555702,0.610061,-0.316207,0.721367
7226774417,-7.259204,6.313201,106.260666,0.560142,-0.351234,0.696318
7226794418,-25.818583,-6.527952,86.850571,0.519674,-0.406745,0.632273
7226814420,-23.343493,-24.263912,60.625961,0.467080,-0.464428,0.519248
7226834421,-9.052657,-41.146042,26.812567,0.401189,-0.338632,0.413942
7226854421,-7.916605,-57.334393,-6.776699,0.423250,-0.168665,0.438279
7226874422,5.728853,-41.952606,-29.022825,0.740148,-0.196016,0.686259
7226894422,17.526728,4.020113,-18.319271,0.623056,-0.494491,0.834792
7226914423,2.612271,18.133905,-15.883338,0.347182,-0.319860,0.699165
7226934423,-52.775215,5.454765,-68.357841,0.496123,0.058110,0.499198
7226954422,-66.694199,-5.160679,-103.043503,0.489988,-0.139069,0.381942
7226974423,-34.239552,-12.089982,-118.982155,0.479293,-0.312078,0.269833
7226994424,17.099873,-15.230401,-143.269516,0.501615,-0.261619,0.360499
7227014425,42.255062,-20.971615,-154.126663,0.662122,-0.272787,0.472203
7227034425,33.460232,-23.785027,-143.092697,0.829949,-0.253644,0.413213
7227054426,36.704292,-31.089687,-162.277908,0.752535,0.018582,0.492717
7227074426,20.490795,-63.562702,-189.520645,0.722545,0.066757,0.460570
7227094427,-20.064558,-83.515388,-213.441254,0.879824,0.029121,0.452151
7227114428,-39.837322,-80.269684,-230.714905,1.123780,0.027228,0.401730
7227134430,-34.236332,-50.183903,-231.112457,1.373501,0.022808,0.456488
7227154430,-20.280006,-25.306738,-223.408478,1.443401,-0.019149,0.416880
7227174431,-15.363651,-36.446903,-218.851227,1.275244,-0.080389,0.398615
7227194431,-13.124774,-68.746277,-201.244171,1.167152,-0.160074,0.482670
7227214432,-13.388568,-64.176704,-130.992615,1.297299,-0.478635,0.591220
7227234433,16.821968,-51.305771,-44.571735,1.205079,-0.658165,0.588763
7227274432,-4.561192,-14.323148,-26.167725,0.973979,-0.003108,0.512064
7227294433,-53.597115,-16.376356,-29.992470,0.864117,0.022024,0.441156
7227314434,-68.227570,-24.073284,-19.958418,0.837289,-0.040025,0.315230
7227334434,-41.694317,-24.618402,-8.100595,0.884103,-0.113770,0.237111
7227354435,-4.429997,-20.220325,0.904445,0.948909,-0.122827,0.246569
7227374436,28.986538,-12.106981,14.515416,1.007696,-0.014805,0.290927
7227394436,48.890808,-4.973136,30.662334,1.026627,0.129355,0.381214
7227414437,49.970581,0.031627,38.408833,0.988912,0.236788,0.406639
7227434438,36.209709,-0.049613,38.852028,0.968325,0.278685,0.400771
7227454438,21.149467,2.996721,35.548103,0.968286,0.263267,0.377839
7227474440,14.263033,10.786017,27.435762,1.006343,0.260805,0.357462
7227494441,18.081318,21.095316,16.785713,0.923395,0.310423,0.328682
7227514441,10.118960,11.587222,0.678601,0.808694,0.368262,0.331838
7227534442,-8.839296,4.598384,-16.499207,0.925737,0.316333,0.300429
7227554443,-12.388614,7.157117,-14.442771,1.076015,0.191807,0.289170
7227574443,11.578723,20.793076,-2.789499,1.057046,0.056499,0.353632
7227594442,41.090603,21.654818,3.546422,0.891430,0.041740,0.385577
7227614443,37.669155,10.281706,-5.923560,0.835377,0.215928,0.379509
7227634444,-0.094494,8.292133,-13.812534,0.868714,0.331220,0.392303
7227654444,-34.709373,8.243701,-12.369911,0.870280,0.233864,0.337807
7227674445,-46.804218,0.521852,-11.010570,0.860273,0.093142,0.278662
7227694445,-38.147465,-4.347805,-13.376234,0.882682,0.023924,0.283782
7227714446,-20.909979,-5.791823,-18.296803,0.903420,0.086136,0.316694
7227734446,-8.463541,-7.485291,-22.373627,0.917734,0.244296,0.323986
7227754447,-10.792169,-7.483326,-26.603430,0.917217,0.323294,0.348673
7227774448,-21.396063,-8.621915,-33.488022,0.919268,0.345270,0.375447
7227794450,-33.438023,-10.589209,-40.719460,0.957048,0.359161,0.385739
7227814450,-45.765038,-9.828115,-48.410324,0.994298,0.364860,0.349996
7227834451,-57.117119,-6.161490,-55.427273,1.019079,0.353656,0.340657
7227854452,-64.397987,-1.623202,-59.487835,1.024932,0.342193,0.342352
7227874453,-71.556572,1.123871,-61.709396,0.975002,0.314565,0.326128
7227894453,-75.172478,-1.585162,-67.592873,0.973363,0.350155,0.301484
7227914452,-87.381973,-3.498359,-74.770592,1.002468,0.393320,0.286336
7227934453,-99.389381,-2.355297,-72.357536,0.956911,0.328670,0.255857
7227974454,-82.754807,-11.484241,-67.657753,1.006960,0.392660,0.234125
7227994455,-86.317726,-11.049509,-73.023773,0.926628,0.518125,0.274899
7228014455,-106.803131,-14.357585,-81.806427,0.807930,0.559837,0.282276
7228034456,-132.590240,-20.750628,-93.096664,0.800840,0.547678,0.273361
7228054456,-155.905029,-23.994789,-101.327118,0.860587,0.547384,0.207926
7228074457,-164.838348,-25.561289,-104.151772,0.902848,0.549296,0.150034
7228094458,-158.873077,-29.380259,-98.705383,0.877419,0.492361,0.148555
7228114459,-149.342087,-31.604202,-85.941551,0.805071,0.428872,0.172245
7228134460,-143.076172,-33.858585,-73.497040,0.752880,0.435998,0.173617
7228154461,-145.948517,-37.443417,-64.067299,0.787235,0.511565,0.175356
7228174462,-152.109268,-39.306484,-56.925327,0.781481,0.516233,0.143665
7228194462,-157.154404,-43.498672,-54.740273,0.795941,0.483877,0.108368
7228214463,-156.355835,-47.436901,-53.434181,0.795882,0.441566,0.111846
7228234463,-155.877563,-51.614693,-49.746944,0.798436,0.438307,0.091215
7228254462,-152.643585,-53.806225,-45.230179,0.813352,0.422262,0.097450
7228274463,-148.333160,-49.543594,-37.707851,0.876140,0.369708,0.113484
7228294464,-148.368454,-45.184246,-26.799604,0.949997,0.322098,0.123077
7228314464,-149.090607,-47.040737,-19.872494,0.986647,0.271711,0.054896
7228334465,-150.340149,-40.086288,-20.521460,1.068442,0.158246,0.067132
7228354466,-133.630783,-7.058218,-43.735497,1.103015,0.289610,0.264770
7228374466,-141.475250,-17.619761,-58.402096,1.439510,0.400387,0.271472
7228394467,-159.790573,7.761736,-66.564774,1.280652,0.585974,0.210832
7228414467,-151.801575,-8.342248,-79.675125,1.203506,0.507191,0.041694
