Timestamp (us),Gyroscope X (deg/s),Gyroscope Y (deg/s),Gyroscope Z (deg/s),Accelerometer X (g),Accelerometer Y (g),Accelerometer Z (g)
6234228867,-2.809793,0.580119,0.551428,0.325427,-0.528610,-0.783567
6234248895,-3.044986,0.519708,0.324358,0.327565,-0.535667,-0.778302
6234268925,-3.631337,-0.026571,-0.073190,0.325598,-0.538130,-0.775527
6234288954,-4.224188,-0.596871,-0.834482,0.324698,-0.533727,-0.779883
6234308984,-4.588346,-0.733325,-1.242946,0.324471,-0.523319,-0.783898
6234329014,-4.626834,-1.160669,-1.626064,0.324173,-0.516173,-0.790684
6234349044,-4.269346,-1.254435,-1.784328,0.323079,-0.509015,-0.798761
6234369074,-3.904373,-1.187609,-1.708892,0.324102,-0.509500,-0.794732
6234389103,-3.577372,-1.219991,-1.769119,0.321475,-0.510208,-0.795420
6234409133,-3.226869,-1.016257,-1.747913,0.322407,-0.506571,-0.795280
6234429163,-3.013836,-0.834096,-1.567369,0.323581,-0.505854,-0.794615
6234449193,-2.862369,-0.887798,-1.453113,0.327777,-0.506054,-0.795918
6234469222,-2.581185,-0.919733,-1.452709,0.327045,-0.507869,-0.796404
6234489252,-2.489682,-0.989282,-1.618887,0.324456,-0.510777,-0.794738
6234509283,-2.519757,-0.851885,-1.551817,0.325585,-0.508135,-0.796064
6234529313,-2.352854,-0.989981,-1.611233,0.328487,-0.507882,-0.795741
6234549343,-2.322648,-1.150443,-1.746350,0.323923,-0.506284,-0.799270
6234569372,-2.170945,-1.494837,-2.061833,0.324833,-0.501259,-0.802951
6234589402,-1.927283,-1.565293,-2.258259,0.322891,-0.504440,-0.802099
6234609432,-1.721368,-1.612892,-2.507969,0.323689,-0.503271,-0.800341
6234629462,-1.477724,-1.522818,-2.501026,0.323196,-0.498525,-0.801492
6234649491,-1.242432,-1.554230,-2.417245,0.323745,-0.498072,-0.801570
6234669521,-0.953314,-1.456607,-2.357268,0.324736,-0.500171,-0.802030
6234689549,-0.945443,-1.372845,-2.335221,0.321979,-0.500348,-0.799977
6234709579,-0.717472,-1.305140,-2.214365,0.322541,-0.500254,-0.801062
6234729609,-0.732740,-1.045120,-1.875361,0.324021,-0.499163,-0.802306
6234749639,-0.490274,-0.961481,-1.519587,0.325496,-0.498528,-0.803463
6234769668,-0.315504,-0.564848,-0.999667,0.325201,-0.493686,-0.805614
6234789698,0.087216,-0.123421,-0.381446,0.325705,-0.490581,-0.807403
6234809728,0.542528,0.249578,0.343525,0.322168,-0.494316,-0.803570
6234829757,0.633634,0.486175,0.675196,0.322358,-0.501525,-0.801533
6234849787,0.450596,0.587087,0.969962,0.330182,-0.511174,-0.795288
6234869817,0.146653,0.588519,0.916728,0.326459,-0.505303,-0.798398
6234889847,0.063145,0.649981,0.954083,0.326075,-0.506035,-0.797407
6234909876,-0.142590,0.582744,1.007622,0.325084,-0.504391,-0.797134
6234929906,-0.325434,0.645241,1.196562,0.329046,-0.506881,-0.796179
6234949937,-0.659478,0.600653,0.992058,0.323571,-0.508946,-0.795374
6234969967,-0.849141,0.677672,0.960991,0.322149,-0.508200,-0.796943
6234989997,-0.985514,0.624401,0.749073,0.323877,-0.503815,-0.800982
6235010026,-1.031674,0.541121,0.810407,0.322607,-0.502444,-0.800442
6235030056,-0.955326,0.685617,0.892634,0.326242,-0.501375,-0.800191
6235050086,-0.948029,0.647673,0.938449,0.324162,-0.502540,-0.801240
6235070116,-1.145544,0.541546,0.757274,0.326270,-0.505577,-0.798038
6235090145,-1.114490,0.685951,0.740912,0.325455,-0.499542,-0.801282
6235110174,-0.940295,0.532847,0.757446,0.323750,-0.493131,-0.805450
6235130203,-0.689329,0.584952,0.802622,0.324872,-0.502460,-0.800132
6235150233,-0.863481,0.638647,0.650445,0.329080,-0.504234,-0.797158
6235170263,-0.856657,0.417747,0.614393,0.324484,-0.501104,-0.797935
6235190293,-0.978547,0.365137,0.622358,0.323424,-0.494693,-0.802731
6235210322,-0.431054,0.522666,0.795688,0.322621,-0.486984,-0.811802
6235230352,0.078307,0.749309,1.089734,0.325885,-0.494217,-0.808986
6235250382,0.587575,0.830823,1.233356,0.325210,-0.486199,-0.808649
6235270411,1.568106,1.009327,1.535615,0.328404,-0.479638,-0.812553
6235290441,2.623995,1.126971,1.967319,0.322974,-0.483720,-0.809667
6235310471,3.193705,1.109189,2.104221,0.326724,-0.493067,-0.804032
6235330500,3.673209,1.312494,2.201313,0.325115,-0.497442,-0.801816
6235350530,3.939087,1.158447,2.081422,0.325453,-0.500633,-0.801657
6235370561,4.198105,1.210051,1.990129,0.324267,-0.504113,-0.797053
6235390592,4.190663,1.164065,1.884362,0.325722,-0.506427,-0.792395
6235410621,4.289308,0.987941,1.726664,0.324617,-0.512785,-0.794297
6235430651,4.046537,0.927545,1.492008,0.324517,-0.520180,-0.791263
6235450680,3.514617,0.670194,1.084478,0.324655,-0.528589,-0.786409
6235470710,2.747167,0.459785,0.684021,0.323726,-0.533621,-0.781541
6235490740,1.667384,-0.099944,0.036137,0.321296,-0.535721,-0.778039
6235510769,0.732095,-0.492321,-0.415947,0.325086,-0.531086,-0.780308
6235530816,0.086287,-0.649864,-0.748549,0.323580,-0.525397,-0.785941
6235550827,-0.255479,-0.808941,-1.058245,0.326030,-0.519292,-0.788857
6235570857,-0.498637,-0.945374,-1.269516,0.324107,-0.519831,-0.788072
6235590887,-0.901276,-1.134651,-1.601735,0.323798,-0.522841,-0.787100
6235610917,-1.387285,-1.186173,-1.844165,0.321896,-0.521465,-0.786753
6235630946,-1.577478,-1.330270,-1.987107,0.323515,-0.516359,-0.789327
6235650976,-1.637884,-1.307446,-2.085895,0.324306,-0.513036,-0.797774
6235671006,-1.425195,-1.270158,-1.979956,0.323122,-0.503366,-0.798982
6235691036,-1.136281,-0.782510,-1.377342,0.324457,-0.505565,-0.798250
6235711065,-0.931812,-0.798053,-1.149649,0.322701,-0.506111,-0.796458
6235731095,-0.931188,-0.584677,-1.075619,0.324648,-0.512410,-0.796119
6235751125,-1.129101,-0.415232,-0.796600,0.324516,-0.513878,-0.794127
6235771155,-1.129748,-0.322847,-0.486509,0.328225,-0.504969,-0.795079
6235791186,-0.932040,-0.041119,-0.147584,0.325720,-0.499183,-0.800635
6235811215,-0.415032,0.300090,0.274399,0.326264,-0.500095,-0.801000
6235831245,-0.210737,0.254152,0.517511,0.329075,-0.507812,-0.792627
6235851275,-0.529576,-0.310267,-0.327100,0.334400,-0.521733,-0.785274
6235871305,-0.993795,-1.056417,-1.117181,0.314735,-0.508630,-0.793324
6235891334,-1.098485,-0.866565,-1.414528,0.324386,-0.513983,-0.791665
6235911364,-1.099525,-0.735560,-0.937956,0.322733,-0.499797,-0.801511
6235931394,-0.353854,-0.059837,-0.276043,0.320246,-0.482911,-0.820659
6235951424,1.311158,0.986174,1.035266,0.320792,-0.474306,-0.828513
6235971452,3.020096,1.307552,1.965994,0.330651,-0.472746,-0.825417
6235991482,4.813416,2.086324,3.234116,0.325647,-0.468483,-0.816968
6236011512,6.515707,3.025881,4.637323,0.323630,-0.480809,-0.809629
6236031541,7.617864,3.906959,5.813268,0.328133,-0.494818,-0.802017
6236051571,8.529416,4.506782,6.801929,0.327528,-0.501014,-0.800988
6236071601,9.160102,5.038848,7.571142,0.324953,-0.511219,-0.797655
6236091630,9.639170,5.471903,8.083320,0.328009,-0.514917,-0.791523
6236111660,9.981091,5.669037,8.392695,0.325363,-0.523875,-0.783159
6236131690,10.064363,5.806546,8.672119,0.323720,-0.531533,-0.780244
6236151719,9.950375,5.937031,8.815029,0.320515,-0.539552,-0.776262
6236171749,9.685051,6.098153,8.775637,0.320493,-0.546771,-0.772312
6236191779,9.350751,6.168478,8.790050,0.320286,-0.552718,-0.767532
6236211809,8.735468,6.178813,8.630442,0.321219,-0.559595,-0.760642
6236231840,7.976019,6.090250,8.259294,0.320559,-0.563903,-0.755215
6236271899,6.312179,5.654509,7.344714,0.321515,-0.571681,-0.750159
6236291929,5.308589,5.109499,6.666415,0.325987,-0.576003,-0.747843
6236311959,4.449479,4.624845,6.055917,0.324188,-0.581107,-0.745364
6236331988,3.423678,4.232209,5.383911,0.325272,-0.581025,-0.744980
6236352018,2.488245,3.664181,4.758913,0.327098,-0.579306,-0.744843
6236372048,1.681976,3.110844,4.179346,0.320673,-0.579077,-0.746132
6236392076,0.913590,2.549798,3.630191,0.322124,-0.580086,-0.746483
6236412106,0.199947,2.353792,3.070416,0.322355,-0.575617,-0.747625
6236432136,-0.483921,1.990123,2.496898,0.326774,-0.575383,-0.745634
6236452166,-1.062501,1.497136,2.114070,0.326330,-0.576467,-0.746747
6236472195,-1.670414,1.163715,1.600992,0.324083,-0.575718,-0.747872
6236492225,-2.263002,0.853022,1.080149,0.324476,-0.574256,-0.749130
6236512255,-2.453040,0.594114,0.748618,0.323821,-0.565743,-0.755635
6236532284,-2.384620,0.372099,0.477559,0.319866,-0.555552,-0.765191
6236552314,-1.812776,0.978890,0.738115,0.320098,-0.547688,-0.770683
6236572344,-0.649661,1.355041,1.251102,0.323423,-0.535356,-0.780375
6236592374,1.455960,2.322653,2.578447,0.322755,-0.504695,-0.805117
6236612404,5.348041,4.182969,5.089552,0.331004,-0.471355,-0.829963
6236632433,10.320303,6.572031,8.089577,0.335404,-0.457673,-0.838072
6236652464,15.603901,9.403153,11.753265,0.331294,-0.472929,-0.825956
6236672494,20.227573,12.373791,15.119762,0.323819,-0.495468,-0.810948
6236692524,24.007059,14.966993,18.094751,0.324054,-0.515752,-0.800268
6236712554,27.742102,17.566874,20.720882,0.316383,-0.526351,-0.802225
6236732583,32.116093,20.101917,23.181061,0.318433,-0.520371,-0.814553
6236752620,37.395683,22.998186,25.835783,0.318776,-0.526138,-0.810036
6236772643,42.470421,26.147329,28.670252,0.319601,-0.541265,-0.794095
6236792673,47.609051,30.080286,31.543661,0.315363,-0.554320,-0.784424
6236812702,52.885780,34.500412,34.640511,0.307055,-0.564767,-0.780365
6236832730,58.711945,39.442963,37.771149,0.304223,-0.581687,-0.781116
6236852760,65.202843,45.097130,40.789986,0.305692,-0.597077,-0.783334
6236872790,72.341904,50.791771,43.285633,0.298431,-0.623636,-0.766352
6236892820,79.111275,56.783550,45.278183,0.287267,-0.663387,-0.732209
6236912849,85.138420,62.761059,46.383389,0.280002,-0.702223,-0.703107
6236932879,90.848251,68.738182,46.874290,0.274482,-0.736461,-0.667452
6236952909,96.157867,74.424194,46.177059,0.267723,-0.775768,-0.636064
6236972939,101.051628,80.041260,44.691654,0.271565,-0.810879,-0.601452
6236992968,105.452240,85.338837,42.488403,0.252976,-0.839503,-0.546056
6237012998,109.191826,90.073883,39.463100,0.250891,-0.880865,-0.495165
6237033028,112.493706,95.289429,36.031704,0.251239,-0.903615,-0.452097
6237053058,116.273193,99.854164,32.219315,0.238352,-0.917190,-0.406237
6237073087,119.978661,104.325523,27.687370,0.217760,-0.944896,-0.350043
6237093118,122.983650,107.892052,22.336235,0.214536,-0.985394,-0.289760
6237113148,125.790031,110.726822,16.369417,0.201734,-0.994396,-0.247234
6237133178,128.714294,112.303635,9.988615,0.177510,-1.005182,-0.183366
6237153208,130.941681,114.126076,3.120163,0.189967,-1.026661,-0.089512
6237173237,132.831650,114.936691,-4.119062,0.180253,-1.019750,-0.045693
6237193267,135.421707,115.880531,-11.381815,0.157307,-1.012466,-0.020619
6237213297,138.179749,120.048050,-19.490419,0.182740,-1.022117,0.061504
6237233326,140.097412,122.863647,-28.043009,0.158554,-1.010678,0.109785
6237253361,142.367340,124.199715,-36.878704,0.148129,-1.007478,0.197470
6237273384,144.426788,124.235168,-45.749073,0.123762,-0.978695,0.271014
6237293414,144.797806,121.115997,-53.737000,0.129122,-0.932703,0.408011
6237313444,142.728699,116.511337,-61.395180,0.104265,-0.894554,0.453151
6237333474,141.441345,111.789284,-68.779037,0.121996,-0.857254,0.520702
6237353504,140.518921,107.172287,-76.034706,0.112801,-0.827543,0.559080
6237373533,139.135971,101.010689,-81.571655,0.122187,-0.772678,0.622458
6237393563,137.297653,94.094063,-85.987915,0.122664,-0.723782,0.672217
6237413593,135.510193,87.026733,-89.872131,0.117617,-0.659245,0.716553
6237433622,133.196304,79.253326,-91.771744,0.116540,-0.621097,0.767921
6237453652,131.429810,71.782799,-93.286964,0.133367,-0.583828,0.794467
6237473682,129.561493,64.384613,-93.817154,0.129677,-0.507285,0.856191
6237493712,126.427917,55.681847,-92.691681,0.116422,-0.445971,0.883930
6237513743,123.125450,47.424919,-90.531281,0.106607,-0.378097,0.892067
6237533772,121.565048,43.185158,-97.525055,0.141230,-0.439144,0.873898
6237553802,123.010483,39.370068,-104.786308,0.172708,-0.474584,0.888597
6237573832,127.332870,34.596733,-109.520882,0.162596,-0.488842,0.907656
6237593861,132.858734,29.050541,-113.565979,0.109419,-0.417550,0.938308
6237613891,136.901108,22.519615,-116.253906,0.092946,-0.267600,0.968093
6237633921,136.829468,15.231791,-117.352821,0.088261,-0.066016,0.987319
6237653950,133.057770,7.594155,-117.389084,0.100601,0.036230,0.981709
6237673980,129.805359,0.356548,-117.618004,0.098603,0.051629,0.982915
6237694009,127.744339,-6.686312,-116.907799,0.123113,0.073868,0.969916
6237714038,126.763763,-13.414722,-116.055664,0.125771,0.114605,0.963489
6237734068,125.437668,-19.824471,-113.788506,0.143769,0.229455,0.961740
6237754098,121.751869,-25.615040,-109.927864,0.143452,0.345900,0.924286
6237774127,116.392548,-30.746174,-105.004494,0.139509,0.416506,0.894748
6237794157,110.846954,-35.727318,-101.045395,0.133714,0.430854,0.876984
6237814187,107.487213,-41.878090,-99.668510,0.121989,0.450942,0.881087
6237834217,104.039238,-46.892586,-97.800789,0.187190,0.483713,0.877520
6237854246,102.327248,-51.230927,-95.846909,0.157326,0.429142,0.864114
6237874276,106.757385,-57.947258,-96.463181,0.152834,0.291705,1.008292
6237894306,117.121384,-65.753296,-97.150841,0.128964,0.259844,0.999211
6237914335,126.006783,-74.770775,-98.246056,0.128863,0.459224,0.874885
6237934365,128.075638,-82.616554,-96.647598,0.117914,0.633410,0.724496
6237954397,126.473907,-89.504280,-92.079185,0.100459,0.722964,0.661866
6237974426,124.043854,-94.721771,-85.584175,0.108955,0.747322,0.646253
6237994456,123.975395,-98.641861,-78.886612,0.137002,0.755743,0.656281
6238014486,125.385338,-102.275192,-72.865555,0.133190,0.776749,0.619165
6238034515,127.647316,-105.523750,-66.521294,0.129361,0.782796,0.617151
6238054545,130.582825,-110.446587,-61.284798,0.127799,0.818027,0.512098
6238074575,131.941376,-115.250854,-54.958229,0.115535,0.863904,0.451886
6238094604,132.297943,-119.669266,-48.650551,0.151267,0.904099,0.362002
6238114633,132.938141,-122.692810,-41.323284,0.121646,0.936488,0.337444
6238134662,133.362167,-124.160347,-33.387451,0.126550,0.952635,0.280706
6238154692,134.220184,-125.363319,-25.317152,0.133318,0.977746,0.184094
6238174722,133.770050,-125.091492,-17.608644,0.148831,0.980521,0.081392
6238194752,131.755920,-122.528351,-10.049031,0.168251,0.992291,-0.005825
6238214781,128.723587,-116.077805,-2.499801,0.150109,0.999684,-0.067492
6238234811,126.441406,-112.380142,4.739292,0.147705,0.980486,-0.131615
6238254841,123.672401,-112.783958,11.595572,0.152069,0.965667,-0.109588
6238274871,124.493538,-119.016891,20.041698,0.165316,0.989976,-0.074821
6238294901,128.369446,-122.467117,27.813879,0.120394,0.995837,-0.079149
6238314930,132.888062,-124.900673,35.615738,0.190954,1.011849,-0.230132
6238334960,135.262726,-122.232750,42.759586,0.110788,0.952271,-0.268777
6238354990,136.674133,-118.652550,50.312317,0.197299,0.906158,-0.451937
6238375021,134.632935,-114.311874,56.742420,0.147732,0.860459,-0.513602
6238395050,132.284073,-109.155861,62.945656,0.182208,0.829301,-0.549482
6238415080,131.600998,-104.391624,68.447838,0.183441,0.802843,-0.559019
6238435110,131.799713,-98.172096,73.498482,0.190956,0.772556,-0.606376
6238455140,132.027924,-90.920059,77.789825,0.190606,0.732055,-0.643000
6238475171,131.878662,-83.599945,81.360123,0.193267,0.698794,-0.706440
6238495199,132.615585,-79.024857,87.175453,0.185000,0.711946,-0.735027
6238515229,134.043076,-75.094147,92.594681,0.167195,0.651405,-0.831644
6238555287,125.794304,-66.413841,103.102432,0.200177,0.429086,-0.934044
6238575317,119.979828,-57.633598,104.132904,0.194808,0.323731,-0.980935
6238595347,113.952202,-52.734596,105.059357,0.267417,0.309047,-0.945473
6238615377,112.681839,-44.831989,105.780922,0.210697,0.462769,-0.894761
6238635406,118.350075,-41.181992,109.096733,0.260851,0.436786,-0.897382
6238655436,121.474586,-36.023750,113.263000,0.232412,0.302454,-0.933504
6238675466,122.870605,-29.623194,117.440750,0.217917,0.237384,-0.959174
6238695495,122.570114,-22.616512,120.369125,0.208817,0.127735,-0.984255
6238715525,120.995392,-15.552824,120.127083,0.240291,0.063003,-1.023324
6238735555,119.745644,-8.167955,118.570801,0.232233,0.044700,-1.015591
6238755585,119.778854,-1.514027,116.710403,0.223540,-0.007701,-1.017495
6238775614,118.702667,5.061057,114.554436,0.233314,-0.093201,-1.001876
6238795644,116.969543,11.298801,112.908974,0.238403,-0.151881,-0.988003
6238815675,115.535355,17.777082,110.829460,0.267115,-0.184948,-0.987021
6238835705,115.099716,22.994062,108.730698,0.250794,-0.200714,-0.983871
6238855734,115.563698,28.845804,106.672523,0.251840,-0.268176,-0.959281
6238875764,114.165970,33.766212,103.142761,0.242503,-0.351188,-0.927974
6238895794,112.039764,38.047012,98.397308,0.237542,-0.410465,-0.910344
6238915824,110.072098,42.335754,94.000633,0.225483,-0.444564,-0.891866
6238935853,108.518867,46.182789,90.191681,0.254820,-0.485198,-0.858717
6238955883,106.751999,48.976940,85.314819,0.246395,-0.501445,-0.843941
6238975913,106.573219,53.063011,82.323402,0.255114,-0.517736,-0.839933
6238995941,107.320236,56.832588,79.479149,0.263045,-0.550498,-0.821939
6239015971,108.364037,61.173580,77.259552,0.249006,-0.583737,-0.792531
6239036001,109.370018,65.682716,75.190170,0.258217,-0.624021,-0.766917
6239056030,110.246582,69.405464,72.202316,0.238154,-0.685134,-0.730652
6239076060,110.574860,71.412201,67.355820,0.242179,-0.740821,-0.682168
6239096090,108.954262,72.614014,62.272522,0.249714,-0.796288,-0.596743
6239116120,106.624748,73.569214,57.433567,0.249199,-0.817108,-0.555679
6239136149,104.120026,75.098961,53.408573,0.242684,-0.816352,-0.521816
6239156179,102.911850,77.947655,49.790154,0.242750,-0.847896,-0.517086
6239176209,101.616730,79.340286,45.380203,0.253693,-0.873686,-0.479442
6239196239,100.296066,80.078522,40.990910,0.257560,-0.890342,-0.391526
6239216268,97.810104,80.198265,36.454597,0.243242,-0.903752,-0.341123
6239236298,94.981789,80.121300,31.737804,0.252228,-0.935215,-0.297082
6239256329,91.831535,79.628326,27.297308,0.236914,-0.949493,-0.253003
6239276359,86.207153,78.616653,23.163246,0.266213,-0.974690,-0.117280
6239296389,81.888618,78.219086,20.359118,0.249646,-0.946993,-0.195075
6239316418,81.170593,78.699959,17.352217,0.262721,-0.971502,-0.223756
6239336448,81.879753,78.869751,14.629155,0.272907,-0.953083,-0.222324
6239356478,83.044670,79.450317,12.547344,0.280515,-0.972685,-0.148616
6239376507,82.134003,79.285141,9.523029,0.250332,-0.960309,-0.035606
6239396537,76.609131,76.583168,5.403214,0.230749,-0.949729,0.124577
6239416565,68.902725,71.018532,2.193484,0.242158,-0.946913,0.145239
6239436595,62.133602,64.812485,-0.138463,0.270438,-0.947206,0.165506
6239456625,55.660328,58.888367,-1.919140,0.267902,-0.934231,0.176814
6239476654,50.286407,54.383102,-3.316929,0.272434,-0.939225,0.169264
6239496684,45.719460,50.652119,-4.076350,0.298956,-0.941178,0.179263
6239516714,41.247181,46.061184,-4.631370,0.279247,-0.936503,0.210939
6239536744,36.503468,40.567554,-4.686104,0.268826,-0.927548,0.248648
6239556773,30.662897,34.661430,-4.639338,0.277000,-0.913933,0.295375
6239576803,23.866329,27.741892,-4.144762,0.286620,-0.889713,0.318214
6239596833,17.163584,23.150339,-3.866823,0.290621,-0.892179,0.299267
6239616862,11.665560,19.420233,-3.565206,0.295539,-0.908613,0.284953
6239636892,6.472609,14.609929,-2.579564,0.302300,-0.904628,0.313127
6239656922,0.222965,8.245959,-1.247774,0.283273,-0.895751,0.326320
6239676953,-6.207649,1.889059,-0.363477,0.273820,-0.895401,0.338860
6239696983,-13.288544,-3.696058,0.385131,0.293406,-0.887957,0.337969
6239717013,-20.084469,-8.438000,1.066140,0.289973,-0.893973,0.310834
6239737042,-25.911623,-12.508069,1.613080,0.290920,-0.909785,0.272086
6239757072,-30.490746,-16.310757,2.150796,0.292822,-0.922044,0.231926
6239777102,-33.955215,-19.260351,2.348275,0.299952,-0.926865,0.191736
6239797131,-36.487419,-21.248974,2.310673,0.299543,-0.940874,0.141754
6239817161,-37.887604,-21.721828,2.094085,0.301888,-0.950107,0.097794
6239837191,-38.623581,-21.581888,1.804435,0.308879,-0.948777,0.080939
6239857220,-39.090340,-20.682215,1.508535,0.305908,-0.946526,0.057084
6239877249,-39.301594,-18.848450,0.969870,0.308947,-0.948188,0.041963
6239897279,-39.600056,-17.820780,0.521334,0.307143,-0.957042,0.031353
6239917308,-39.943848,-16.502710,0.343294,0.304516,-0.957922,0.013135
6239937338,-40.012611,-15.088088,-0.115961,0.305323,-0.958432,-0.009771
6239957368,-39.738949,-13.446268,-0.379824,0.307632,-0.955514,-0.028422
6239977398,-39.556320,-11.674238,-0.546257,0.311681,-0.948309,-0.034406
6239997427,-39.565350,-10.105946,-0.483608,0.316369,-0.945921,-0.042890
6240017457,-39.481697,-8.165097,-0.401296,0.323058,-0.941717,-0.068213
6240037487,-38.872124,-5.777415,-0.163258,0.325583,-0.943967,-0.091381
6240057517,-38.033245,-3.155242,-0.002898,0.323349,-0.946722,-0.100755
6240077547,-37.532322,-1.276835,0.277274,0.319048,-0.948401,-0.105131
6240097576,-37.106400,0.921936,0.638124,0.312283,-0.944607,-0.123739
6240117608,-36.448792,3.849585,0.810995,0.311426,-0.948423,-0.140312
6240137637,-35.854546,6.084607,0.898666,0.312720,-0.939031,-0.143400
6240157667,-35.220203,7.186177,1.261247,0.317407,-0.938905,-0.170254
6240177697,-33.543144,8.510397,1.569387,0.317578,-0.939243,-0.222109
6240197726,-30.676811,10.772819,2.067361,0.319294,-0.931424,-0.252866
6240217756,-27.297699,13.747560,2.423123,0.320899,-0.924392,-0.242003
6240237786,-25.272150,15.040631,3.072889,0.320706,-0.931105,-0.215227
6240257816,-24.106272,16.109499,3.602808,0.322106,-0.926887,-0.221556
6240277844,-22.297520,18.072575,3.958723,0.301339,-0.925854,-0.251737
6240297874,-19.849758,20.016611,4.186211,0.316236,-0.922276,-0.256392
6240317903,-17.708033,21.841930,4.846729,0.331990,-0.919641,-0.240774
6240337933,-16.275284,23.145550,5.435462,0.332381,-0.916850,-0.235538
6240357963,-15.004138,24.001040,6.058208,0.329060,-0.917361,-0.238153
6240377992,-13.953369,24.651220,6.394453,0.324622,-0.919065,-0.222173
6240398022,-13.543317,24.550200,6.425828,0.314131,-0.919994,-0.207745
6240418052,-13.445807,24.298803,6.518972,0.319138,-0.918203,-0.207830
6240438082,-13.498503,24.359695,6.435031,0.315194,-0.917672,-0.216654
6240458112,-12.901774,25.216473,6.375051,0.305689,-0.923680,-0.238592
6240478141,-12.152515,26.163673,6.284057,0.304749,-0.925207,-0.225566
6240498171,-12.899545,27.721109,6.482918,0.306828,-0.937709,-0.160829
6240518201,-15.567963,28.002539,6.744638,0.320329,-0.934304,-0.134286
6240538232,-18.944851,25.675205,6.512338,0.323651,-0.940855,-0.123246
6240558261,-23.030165,22.825607,6.041451,0.299291,-0.935297,-0.113091
6240578291,-27.053286,20.096581,5.304209,0.287996,-0.937297,-0.117402
6240598321,-31.511957,16.775894,4.495903,0.308051,-0.943091,-0.113660
6240618351,-36.185059,13.236273,3.886466,0.316819,-0.937187,-0.120127
6240638380,-40.674107,10.175587,3.386828,0.311892,-0.927210,-0.154807
6240658410,-44.095566,7.694554,2.647795,0.304872,-0.929486,-0.194655
6240678440,-47.302635,5.562443,1.883189,0.302523,-0.931829,-0.196449
6240698492,-51.059963,2.687105,1.063900,0.303961,-0.935477,-0.197190
6240718498,-55.242153,-0.255709,-0.118968,0.295822,-0.930193,-0.220097
6240738527,-59.123234,-4.267115,-1.702153,0.300841,-0.927957,-0.249848
6240758557,-62.743622,-7.823537,-3.387599,0.295299,-0.920976,-0.269684
6240778587,-66.371704,-11.540346,-5.246091,0.309935,-0.908570,-0.288594
6240798617,-69.669548,-16.981926,-7.923974,0.296329,-0.886136,-0.325765
6240818646,-71.424149,-20.643078,-10.653971,0.289475,-0.846497,-0.415525
6240838676,-71.101883,-17.659328,-10.170866,0.288932,-0.831851,-0.490442
6240858706,-68.624329,-13.131454,-8.873234,0.325272,-0.805829,-0.555890
6240878736,-64.834167,-10.717238,-7.049219,0.341565,-0.768512,-0.599832
6240898766,-59.593334,-8.935953,-5.545219,0.308045,-0.750395,-0.625315
6240938825,-54.658134,-5.179608,-3.451382,0.310548,-0.793475,-0.502699
6240958855,-57.217674,-4.014615,-2.840668,0.317071,-0.813777,-0.464438
6240978885,-61.315262,-4.085044,-3.077104,0.320323,-0.797157,-0.490798
6240998915,-63.603207,-3.836536,-2.951401,0.318925,-0.758071,-0.569702
6241018945,-63.450485,-3.058392,-2.192067,0.320898,-0.710405,-0.639617
6241038975,-61.662445,-1.876863,-1.132046,0.322005,-0.691670,-0.667179
6241059005,-59.615433,-0.062780,0.567269,0.313349,-0.674687,-0.680765
6241079034,-57.597343,2.040392,2.173157,0.304816,-0.657510,-0.696356
6241099065,-55.046112,4.835331,4.349736,0.308433,-0.633625,-0.719539
6241119094,-52.010567,7.194352,6.681850,0.316752,-0.612353,-0.736827
6241139122,-48.686554,9.735744,9.376513,0.320432,-0.591453,-0.747894
6241159152,-45.439594,12.286225,12.389513,0.327221,-0.591230,-0.746503
6241179182,-42.886166,14.108316,15.006441,0.343112,-0.590247,-0.728799
6241199211,-40.636692,15.885991,17.517447,0.332279,-0.587125,-0.737163
6241219241,-39.064205,17.614071,20.058868,0.330596,-0.591766,-0.736138
6241239271,-37.978657,18.550171,21.727179,0.332769,-0.596631,-0.732130
6241259301,-37.416832,19.281775,22.873791,0.326267,-0.591762,-0.732191
6241279330,-36.788177,19.617199,24.016176,0.325075,-0.584879,-0.739907
6241299360,-36.477444,20.029303,24.824152,0.335720,-0.589967,-0.737863
6241319390,-36.517532,19.871120,25.257643,0.333211,-0.586123,-0.738234
6241339419,-36.801006,19.423866,25.359829,0.327943,-0.579187,-0.734969
6241359449,-37.638733,18.474308,24.609182,0.335363,-0.589121,-0.726267
6241379479,-38.627934,17.823042,24.045515,0.325809,-0.575035,-0.741812
6241399510,-39.237114,17.827232,24.333305,0.315001,-0.556450,-0.762174
6241419540,-38.256176,19.900892,26.848797,0.312806,-0.503552,-0.818688
6241439570,-36.426273,21.582855,29.663681,0.339240,-0.508866,-0.810365
6241459599,-34.614407,22.243584,32.077702,0.343194,-0.519181,-0.794968
6241479629,-34.000862,21.570057,31.947178,0.330291,-0.518264,-0.782205
6241499659,-34.502747,21.007191,31.276854,0.320293,-0.543357,-0.763793
6241519689,-35.559189,21.004765,31.155048,0.334209,-0.532795,-0.778076
6241539718,-36.223755,19.926088,30.761936,0.344447,-0.507917,-0.759604
6241559767,-38.221024,18.757227,28.609882,0.331296,-0.568026,-0.746953
6241579776,-42.865734,17.099564,26.324175,0.326573,-0.611839,-0.725981
6241599806,-49.114761,14.426269,22.802753,0.333902,-0.644122,-0.727347
6241619836,-55.077110,11.203418,19.286085,0.331193,-0.565681,-0.774230
6241639866,-57.836468,9.016194,16.414331,0.324224,-0.497692,-0.820457
6241659895,-59.114697,7.426440,14.728667,0.337892,-0.480306,-0.833220
6241679925,-60.611992,6.142131,12.987259,0.329106,-0.470829,-0.824420
6241699955,-63.058113,4.975927,10.918370,0.328106,-0.481156,-0.817411
6241719985,-66.765244,3.517208,8.153773,0.321587,-0.481291,-0.818613
6241740014,-70.805084,2.157752,4.956003,0.324181,-0.465652,-0.832303
6241760044,-73.662750,0.910540,0.779768,0.375485,-0.417781,-0.927524
6241780074,-70.293816,0.127400,-2.714963,0.248911,-0.108470,-1.071604
6241800104,-56.321827,3.426435,2.124226,0.296223,0.053325,-1.016479
6241820133,-43.057095,4.222599,8.538420,0.356946,-0.036316,-0.922289
6241840164,-29.158161,4.546053,15.722684,0.308868,-0.116410,-0.897153
6241860194,-15.798334,5.154330,20.735813,0.311233,-0.077692,-0.932270
6241880224,-5.334302,6.296630,23.802034,0.321744,-0.062923,-0.930045
6241900253,1.305244,6.572752,25.834934,0.340164,-0.113357,-0.923183
6241920283,3.360376,6.123810,24.588648,0.360095,-0.165586,-0.938314
6241940313,3.333591,6.074390,23.428989,0.339169,-0.197209,-0.897408
6241960342,4.756093,7.013877,24.369551,0.347234,-0.184660,-0.902365
6241980372,5.469211,8.486873,26.662489,0.365701,-0.226538,-0.894601
6242000400,6.958816,8.754733,27.176544,0.368056,-0.258065,-0.879425
6242020430,7.941987,7.738156,25.206625,0.337447,-0.280946,-0.906427
6242040460,9.020807,7.358615,22.685490,0.311434,-0.322899,-0.916550
6242060490,8.116921,5.764926,18.149168,0.310084,-0.372156,-0.887266
6242080519,5.351909,4.210037,13.164274,0.319348,-0.415318,-0.883771
6242100549,2.168429,2.436018,7.999048,0.309009,-0.393890,-0.892231
6242120579,0.063627,1.062347,3.619524,0.300905,-0.378791,-0.895510
6242140608,-1.478716,0.251475,-0.013827,0.317420,-0.363453,-0.887979
6242160638,-2.650367,-0.872852,-3.469978,0.325058,-0.346053,-0.880847
6242180668,-3.245906,-2.082557,-6.508117,0.329112,-0.327308,-0.881977
6242200698,-2.907933,-2.905708,-8.563376,0.330910,-0.295394,-0.889686
6242220727,-1.641328,-3.582002,-10.755898,0.327767,-0.285244,-0.893113
6242240757,-0.094061,-4.075678,-12.525219,0.320082,-0.273579,-0.901529
6242260788,1.741128,-4.470504,-13.870632,0.316508,-0.268324,-0.908659
6242280818,3.781491,-4.629363,-14.891895,0.323483,-0.265375,-0.906327
6242300847,5.783458,-5.253879,-16.371775,0.319792,-0.266225,-0.897083
6242320877,7.207400,-6.089145,-18.054886,0.330282,-0.293991,-0.895344
6242340907,7.910117,-6.730582,-19.823372,0.332805,-0.291106,-0.892811
6242360937,9.470920,-7.314347,-21.197662,0.325679,-0.252085,-0.907173
6242380967,12.085703,-8.099536,-21.955597,0.329080,-0.244187,-0.906314
6242400996,14.609478,-8.792749,-22.668858,0.331339,-0.265110,-0.897616
6242421026,16.154694,-9.383688,-23.936941,0.334136,-0.295907,-0.898859
6242441054,17.387142,-9.329855,-24.096024,0.329952,-0.290911,-0.907737
6242461084,19.121120,-9.148467,-24.013304,0.316298,-0.279632,-0.906120
6242481114,20.754721,-9.507658,-24.130814,0.331430,-0.296793,-0.900372
6242501143,22.062353,-9.514506,-24.107376,0.322959,-0.298897,-0.905368
6242521173,23.908886,-9.569141,-23.863396,0.313843,-0.299888,-0.897583
6242541203,24.731445,-9.490889,-24.197271,0.328623,-0.336221,-0.883802
6242561233,25.051109,-9.775738,-24.649651,0.335779,-0.342334,-0.873882
6242581262,24.815342,-10.080149,-25.003569,0.328992,-0.370491,-0.864758
6242601292,23.621662,-10.341328,-25.327982,0.323478,-0.372900,-0.867427
6242621322,23.468645,-10.714070,-25.499313,0.332808,-0.358148,-0.876816
6242641352,23.771814,-10.752921,-25.256216,0.330070,-0.348076,-0.882975
6242661381,24.948256,-10.688306,-24.558634,0.322435,-0.349394,-0.883020
6242681411,25.661961,-11.119123,-24.789719,0.326876,-0.365061,-0.872137
6242701442,25.989388,-11.060219,-24.865873,0.319677,-0.379447,-0.865358
6242721472,26.125280,-11.105820,-24.630381,0.325853,-0.377758,-0.864694
6242741501,26.616737,-11.067414,-23.750938,0.328523,-0.364248,-0.872651
6242761531,28.186056,-10.314442,-21.451540,0.331738,-0.351502,-0.875037
6242781561,29.740946,-9.562182,-19.387190,0.329840,-0.370848,-0.866939
6242801591,30.116919,-9.208317,-17.684006,0.345732,-0.423270,-0.844342
6242821621,28.663441,-8.885899,-16.898872,0.320412,-0.468530,-0.818971
6242841650,24.816832,-9.339916,-17.632387,0.315314,-0.520556,-0.795068
6242861689,20.544790,-8.897739,-17.365210,0.315518,-0.504061,-0.812349
6242881708,17.411459,-8.658553,-16.815241,0.319989,-0.484299,-0.816476
6242901738,15.068301,-8.163130,-15.781784,0.325496,-0.482562,-0.807880
6242921768,12.283171,-7.152233,-13.812690,0.318478,-0.490739,-0.803962
6242941797,9.193686,-4.840105,-10.171436,0.332179,-0.498037,-0.800976
6242961827,5.616035,-3.112324,-6.775723,0.344259,-0.525499,-0.790444
6242981857,1.278971,-2.466789,-4.986280,0.314445,-0.526202,-0.794313
6243001887,-2.498492,-2.379222,-5.269380,0.303636,-0.521675,-0.809419
6243021917,-6.230895,-3.032738,-6.296865,0.308150,-0.532978,-0.812919
6243041947,-10.767514,-3.408562,-7.501459,0.313310,-0.547265,-0.789322
6243061977,-16.133928,-3.748325,-8.342815,0.322439,-0.540523,-0.783634
6243082006,-21.265608,-3.797902,-8.534433,0.332358,-0.519217,-0.792953
6243102035,-25.585648,-3.979801,-8.315114,0.330988,-0.493276,-0.803964
6243122066,-29.273712,-3.936698,-8.097378,0.323010,-0.482946,-0.817419
6243142096,-32.882824,-3.682975,-8.503105,0.314327,-0.476817,-0.828367
6243162126,-36.622200,-4.084863,-9.411392,0.309514,-0.467727,-0.835847
6243182156,-40.176266,-4.009092,-10.588973,0.310644,-0.457510,-0.839660
6243202186,-43.989975,-4.351170,-11.937562,0.316989,-0.443677,-0.844359
6243242245,-50.485371,-4.543666,-13.773958,0.321351,-0.378807,-0.867607
6243262275,-52.673695,-4.464642,-14.094127,0.321415,-0.346761,-0.880456
6243282305,-54.300747,-4.081480,-13.628040,0.321095,-0.315232,-0.898063
6243302333,-55.366749,-3.852555,-12.872267,0.318128,-0.283090,-0.908587
6243322362,-55.811020,-3.067205,-10.907727,0.330961,-0.247536,-0.911975
6243342392,-55.839573,-2.679021,-8.689441,0.327373,-0.221959,-0.920652
6243362422,-55.522617,-1.524122,-6.545665,0.309361,-0.199650,-0.931511
6243382452,-55.108200,-0.949240,-4.700257,0.319576,-0.186217,-0.934234
6243402481,-54.873894,-0.696830,-3.966799,0.324054,-0.165941,-0.932787
6243422511,-54.419594,-0.521524,-3.179512,0.315874,-0.142989,-0.939280
6243442541,-53.706177,-0.233568,-2.438538,0.322771,-0.112135,-0.942535
6243462571,-52.546658,0.069844,-0.924102,0.317305,-0.086058,-0.941196
6243482601,-51.069328,0.266103,0.917417,0.330029,-0.053598,-0.944797
6243502630,-49.007004,0.207471,2.579389,0.334771,-0.026934,-0.945660
6243522660,-46.677338,0.107941,3.817235,0.328504,-0.000029,-0.944965
6243542690,-43.800243,0.143081,5.221021,0.326349,0.021319,-0.948454
6243562721,-40.694168,0.313686,6.525215,0.324258,0.039080,-0.946042
6243582751,-37.558430,0.255583,7.770684,0.328057,0.041959,-0.943854
6243602780,-34.755867,0.320164,8.757171,0.329466,0.040480,-0.941745
6243642840,-41.216557,-0.235558,16.689602,0.354580,-0.193332,-0.812675
6243662874,-45.447144,-0.270894,17.628035,0.294686,-0.019876,-0.910368
6243682899,-46.131718,0.084646,18.155466,0.337702,0.042155,-0.956750
6243702929,-45.360741,-0.289232,21.373795,0.360233,0.060215,-0.937958
6243722959,-44.067768,-1.183077,22.443419,0.351080,0.083057,-0.940269
6243742987,-43.469315,-1.619700,22.568689,0.332565,0.068002,-0.947465
6243763017,-43.558220,-2.240609,23.400309,0.311675,0.060020,-0.962212
6243783046,-44.397488,-2.424242,24.061089,0.310780,0.059451,-0.957484
6243803076,-46.058830,-2.518471,25.114988,0.313092,0.056263,-0.944147
6243823106,-47.559967,-2.675256,25.926867,0.334612,0.070757,-0.937821
6243843136,-49.252602,-3.020655,26.937368,0.345305,0.077406,-0.933477
6243863166,-50.861473,-3.840528,27.322578,0.358209,0.091264,-0.933778
6243883195,-52.659687,-4.537843,27.638432,0.355146,0.103045,-0.935819
6243903225,-54.047775,-5.061092,28.301798,0.335424,0.134990,-0.925802
6243923255,-54.311253,-5.528514,29.230614,0.326633,0.189297,-0.919691
6243943284,-53.359306,-6.070087,30.395683,0.334983,0.222017,-0.916331
6243963314,-51.443153,-6.798810,31.752344,0.338159,0.264547,-0.902740
6243983344,-47.987667,-7.737916,34.089607,0.330894,0.337156,-0.881371
6244003375,-42.511894,-8.754368,36.981991,0.332987,0.378060,-0.868999
6244023405,-35.147720,-9.875345,41.195454,0.324242,0.425435,-0.845606
6244043434,-28.339174,-10.671854,43.684784,0.358004,0.346537,-0.863224
6244063464,-24.690126,-11.500889,45.103783,0.344132,0.310018,-0.880951
6244083494,-21.987398,-12.581163,47.282646,0.333998,0.313001,-0.881818
6244103523,-17.982845,-13.486526,51.469925,0.301373,0.387333,-0.863493
6244123553,-11.926589,-14.241127,56.187679,0.311635,0.395050,-0.854400
6244143583,-6.448476,-15.106993,60.860600,0.339437,0.348974,-0.870807
6244163611,-2.385078,-15.628594,63.816376,0.327184,0.323852,-0.876534
6244183641,0.131961,-15.680496,65.933441,0.343907,0.254303,-0.885943
6244203671,0.355638,-15.524311,67.463821,0.345749,0.205449,-0.898142
6244223700,-1.187803,-15.049845,68.050499,0.340409,0.156396,-0.915572
6244243730,-3.950439,-14.031221,67.820732,0.348339,0.110719,-0.932481
6244263760,-8.465282,-13.083910,66.256256,0.335066,0.086902,-0.942137
6244283790,-13.227652,-12.100513,63.713276,0.334346,0.097672,-0.960947
6244303820,-16.442596,-11.564977,61.713135,0.338707,0.148498,-0.949725
6244323850,-17.061552,-11.413409,60.536331,0.330103,0.217307,-0.931517
6244343879,-15.616214,-11.383641,60.347229,0.321731,0.238099,-0.926714
6244363909,-14.068237,-11.342887,61.325729,0.332834,0.208686,-0.924249
6244383938,-13.688034,-11.429036,61.205318,0.329591,0.176818,-0.922862
6244403968,-14.294576,-10.701543,59.280647,0.359668,0.148445,-0.931582
6244423999,-15.726974,-10.798091,55.466965,0.378396,0.136006,-0.927194
6244444029,-17.220270,-10.198807,50.229549,0.402944,0.127112,-0.927699
6244464059,-19.062799,-9.086308,40.862995,0.337130,0.142489,-0.932826
6244504118,-11.844165,-9.051138,49.130692,0.329624,0.407978,-0.872612
6244524148,-7.041233,-9.846267,51.133785,0.362379,0.217310,-0.887902
6244544178,-8.683289,-9.646671,51.313286,0.360751,0.036807,-0.970119
6244564207,-16.239702,-8.988825,44.882057,0.328643,0.015849,-0.981607
6244584237,-21.069208,-8.014030,41.937260,0.295921,0.117842,-0.973710
6244604265,-23.543671,-8.058730,38.319775,0.350585,0.119347,-0.961944
6244624295,-26.977722,-8.027910,35.277428,0.366018,0.085220,-0.936629
6244644325,-31.592939,-8.010999,33.030750,0.373466,0.059523,-0.942680
6244664355,-37.256840,-8.111363,30.473684,0.362920,0.072039,-0.953508
6244684384,-42.308521,-7.554057,27.524702,0.340200,0.104671,-0.948919
6244704414,-46.292889,-6.837211,23.900091,0.333864,0.125135,-0.952485
6244724444,-50.069706,-5.795106,19.992310,0.334691,0.134195,-0.960695
6244744474,-54.461723,-5.124925,15.427709,0.348114,0.129406,-0.950296
6244764503,-59.409130,-4.138048,11.360600,0.339884,0.143278,-0.946102
6244784533,-64.309769,-3.121895,9.287365,0.333669,0.158540,-0.948162
6244804563,-68.998535,-2.510939,7.020500,0.353807,0.207954,-0.930488
6244824592,-72.115120,-1.921931,5.232251,0.340347,0.283252,-0.894862
6244844622,-73.306381,-0.962766,3.373587,0.354121,0.316202,-0.889952
6244864653,-74.755562,-0.216836,1.076825,0.360002,0.346444,-0.880721
6244884683,-75.395798,-0.043796,-0.539927,0.347835,0.389160,-0.867104
6244904713,-75.408470,-0.038661,-1.298187,0.330816,0.426078,-0.853527
6244924743,-75.090500,-0.138329,-1.009076,0.317207,0.457020,-0.834290
6244944773,-74.569725,-0.374122,-0.134902,0.307694,0.484250,-0.823238
6244964802,-73.633789,-0.891860,1.302917,0.305916,0.516789,-0.793478
6244984832,-72.071846,-1.018076,2.449630,0.328793,0.529059,-0.781946
6245004861,-71.481003,-1.439360,2.597514,0.363522,0.523401,-0.770114
6245024890,-71.157738,-1.406880,1.444916,0.355122,0.546272,-0.762552
6245064949,-71.211700,2.285360,-5.296279,0.354059,0.542607,-0.789170
6245084979,-72.960785,6.253868,-9.508189,0.295699,0.581001,-0.703034
6245105009,-69.960175,1.288346,-1.010992,0.213393,0.735473,-0.565729
6245125038,-66.059639,-3.172796,4.965144,0.371359,0.652883,-0.660971
6245145068,-64.060287,-7.432429,9.012812,0.318920,0.709275,-0.637748
6245165098,-61.450722,-7.608559,8.280088,0.361890,0.742929,-0.612636
6245185127,-58.042461,-8.912766,8.353344,0.334064,0.718508,-0.644080
6245205157,-57.732441,-8.408321,7.189196,0.321450,0.687074,-0.676164
6245225187,-59.920406,-8.161513,6.966184,0.323605,0.667725,-0.671743
6245245217,-61.475143,-9.884402,8.268858,0.343121,0.699858,-0.610418
6245265246,-60.943741,-11.346178,9.016851,0.350904,0.744899,-0.547704
6245285278,-58.440742,-13.684466,10.265998,0.329536,0.783404,-0.504878
6245305307,-55.138451,-16.983299,12.342462,0.321894,0.789929,-0.506677
6245325337,-52.908489,-19.022728,13.755773,0.317902,0.789477,-0.518705
6245345367,-51.361427,-20.792412,15.083086,0.322878,0.785228,-0.513734
6245365396,-49.959507,-21.513597,15.605403,0.323906,0.801881,-0.496400
6245385426,-47.079769,-23.086176,16.529852,0.335019,0.838589,-0.429783
6245405456,-42.782768,-24.249044,17.026951,0.326384,0.845389,-0.367872
6245425486,-37.466072,-26.900942,17.726595,0.359226,0.826788,-0.415531
6245445515,-35.889084,-27.898418,17.849464,0.360445,0.743991,-0.542810
6245465544,-41.803719,-24.787497,16.895468,0.339725,0.702462,-0.647606
6245485574,-47.070354,-25.258690,15.607916,0.358738,0.803218,-0.528779
6245505603,-45.989124,-26.641758,15.726202,0.326296,0.872651,-0.419659
6245525633,-43.855640,-27.720133,15.304108,0.359073,0.840094,-0.463705
6245545663,-45.409542,-27.365103,14.307118,0.360788,0.774995,-0.533297
6245585723,-56.109070,-24.157484,11.932138,0.340992,0.773840,-0.580098
6245605752,-61.785938,-21.019363,10.386624,0.339951,0.787869,-0.547759
6245625782,-66.277458,-18.077881,8.820585,0.343143,0.821357,-0.498555
6245645811,-69.643173,-15.051229,7.193721,0.357292,0.839549,-0.477798
6245665841,-73.221603,-12.199406,5.302846,0.360986,0.839869,-0.458381
6245685871,-76.887550,-9.992861,3.788871,0.345458,0.847619,-0.443041
6245705901,-80.726173,-7.160866,2.383292,0.352028,0.860572,-0.421817
6245725932,-84.576752,-3.690071,0.782791,0.354015,0.880953,-0.388639
6245745962,-87.461433,-0.033642,-0.682324,0.338341,0.900258,-0.323806
6245765991,-89.148575,3.230416,-1.499086,0.334990,0.910915,-0.272911
6245786021,-89.994934,5.973501,-1.992618,0.331747,0.920793,-0.229325
6245806051,-90.660133,8.502933,-2.355373,0.328587,0.919676,-0.190222
6245826080,-91.213142,10.636222,-2.638926,0.380462,0.924138,-0.167153
6245846110,-91.670891,13.727966,-2.960809,0.249643,0.942197,-0.078001
6245866140,-89.995430,10.254102,-1.171781,0.294781,0.925880,-0.045648
6245886168,-88.555557,6.032316,-0.339516,0.279069,0.929230,0.037662
6245906198,-86.690407,1.441903,0.192766,0.317511,0.941496,0.017494
6245926228,-84.868439,-1.354688,-0.108902,0.346802,0.944552,0.055976
6245946257,-83.568634,-0.061995,-0.718114,0.324255,0.953277,0.067741
6245966287,-84.537071,1.016014,-0.833783,0.321751,0.968912,-0.049833
6245986317,-88.063416,-0.120801,-0.386181,0.301958,0.940639,0.024719
6246006346,-89.224625,-1.599450,-0.533551,0.319107,0.912297,0.134745
6246026376,-87.786469,-3.610750,-1.061880,0.341557,0.903066,0.210433
6246046406,-85.030128,-7.175816,-2.061780,0.317600,0.883899,0.305725
6246066436,-77.875694,-13.121786,-2.448159,0.231416,0.821420,0.570050
6246086465,-63.480400,-21.470709,-4.304535,0.349950,0.853041,0.487731
6246106495,-57.850506,-25.425158,-5.656136,0.273486,0.821797,0.428319
6246126525,-49.131157,-31.813759,-6.182101,0.287245,0.840759,0.521016
6246146556,-42.660118,-34.845089,-7.851912,0.378790,0.880874,0.321937
6246166586,-42.362091,-35.627831,-9.270634,0.353028,0.873340,0.282192
6246186616,-40.466026,-35.801380,-10.360084,0.348307,0.860705,0.392830
6246206645,-36.230927,-36.703056,-11.518110,0.350718,0.850547,0.414138
6246226675,-32.490685,-37.739025,-12.644919,0.326483,0.867594,0.374919
6246246705,-30.681778,-38.229530,-13.056943,0.324822,0.880730,0.341874
6246266734,-29.946188,-39.056984,-13.496984,0.305964,0.889406,0.326675
6246286764,-29.833248,-39.736717,-13.999223,0.337639,0.894485,0.312174
6246306794,-30.507448,-39.498714,-14.456474,0.332721,0.892340,0.294728
6246326822,-31.199560,-39.517731,-14.411157,0.312552,0.877598,0.329686
6246346852,-30.100883,-40.666229,-14.681520,0.316336,0.859273,0.375590
6246366882,-28.898643,-42.645481,-15.104083,0.323458,0.884462,0.343712
6246386911,-29.574253,-42.757633,-15.565975,0.341525,0.913553,0.287033
6246406941,-34.012344,-40.435650,-15.655855,0.379663,0.942029,0.188954
6246426971,-38.301121,-38.822495,-15.785206,0.334428,0.911454,0.263801
6246447001,-40.866684,-37.536777,-15.501540,0.334536,0.898223,0.314897
6246467030,-42.497341,-36.569126,-15.525619,0.330002,0.889273,0.339572
6246487060,-43.301479,-36.352661,-15.800780,0.329787,0.869346,0.367594
6246507090,-43.641445,-35.894470,-15.895776,0.326607,0.860179,0.381060
6246527119,-43.874157,-34.933208,-15.615841,0.329701,0.861583,0.387058
6246547149,-44.119720,-33.477455,-15.438630,0.344634,0.853014,0.403654
6246567179,-43.733368,-31.811922,-15.262877,0.331776,0.832942,0.438955
6246587210,-42.086777,-30.647995,-15.135373,0.332650,0.814145,0.490833
6246607240,-39.528309,-29.702431,-15.126912,0.343372,0.801091,0.484314
6246627270,-40.509769,-24.996063,-13.733885,0.376099,0.934644,0.256933
6246647299,-51.976189,-17.145847,-10.696678,0.370993,1.008661,0.111465
6246667329,-61.057037,-11.698746,-7.767034,0.301165,0.904885,0.332857
6246687359,-65.234222,-6.346166,-4.849391,0.332413,0.894119,0.396715
6246707388,-69.070747,-1.987518,-2.704195,0.310250,0.859834,0.411010
6246727418,-72.327965,1.090201,-0.282591,0.314443,0.852197,0.435565
6246747466,-76.222229,4.658844,2.255898,0.322468,0.857884,0.435839
6246767477,-81.241058,8.439135,4.845140,0.314369,0.860835,0.438383
6246787506,-86.141220,11.640924,7.621268,0.296719,0.831647,0.479912
6246807536,-90.444572,13.979746,10.495915,0.289672,0.800049,0.533186
6246827566,-93.828957,15.611526,12.808286,0.299538,0.760394,0.575340
6246847596,-96.460617,17.094063,14.932720,0.298861,0.721072,0.618421
6246867625,-98.175087,16.663704,15.542073,0.280868,0.683378,0.666440
6246887655,-99.221176,16.177010,16.296284,0.281626,0.650923,0.702031
6246907685,-100.220352,15.864518,16.867085,0.284509,0.617205,0.717286
6246927714,-101.183029,14.720264,16.876225,0.279029,0.599219,0.746153
6246967774,-104.590233,15.886045,20.921219,0.264673,0.567238,0.778946
6246987804,-106.386665,16.593397,24.728212,0.277449,0.546914,0.782983
6247007833,-109.216377,17.343718,28.367540,0.258348,0.525990,0.799094
6247027864,-112.126320,17.128021,32.083176,0.247393,0.466285,0.834060
6247047894,-113.537521,16.628256,35.172607,0.226047,0.388516,0.869329
6247067924,-113.732986,14.831063,36.893581,0.231993,0.326985,0.902635
6247087954,-113.214401,13.489328,39.369286,0.226171,0.260725,0.931507
6247107983,-112.378342,12.201306,42.474007,0.225297,0.241597,0.932320
6247128013,-112.269379,10.356321,44.043877,0.221137,0.223641,0.923139
6247148043,-113.697464,8.849421,46.398716,0.244029,0.227888,0.935875
6247168073,-116.636894,7.096741,50.248562,0.223953,0.227621,0.924865
6247208131,-123.654366,2.808129,54.110138,0.212800,0.094223,0.944995
6247228160,-125.760490,0.090912,55.382980,0.207356,0.024854,0.959877
6247248190,-126.802353,-3.052157,56.189831,0.202193,-0.056894,0.957028
6247268220,-126.711250,-6.125053,54.744743,0.203971,-0.135976,0.958517
6247288249,-126.070862,-8.881729,53.130463,0.214600,-0.204583,0.950295
6247308279,-124.739601,-10.800406,50.546555,0.227582,-0.260875,0.936474
6247328309,-123.195259,-12.735687,47.887066,0.233412,-0.309303,0.924891
6247348339,-121.989349,-14.596400,46.500580,0.235490,-0.329602,0.904744
6247368368,-121.864174,-16.496119,45.394440,0.245538,-0.348821,0.909568
6247388398,-121.427483,-18.496639,44.228638,0.235751,-0.440625,0.855153
6247408428,-116.764885,-22.803455,42.955349,0.054151,-0.932885,0.755807
6247428457,-91.961609,-15.952126,32.408592,0.500452,-0.840684,0.682205
6247448489,-82.134964,-13.638988,22.711565,0.145730,-0.767184,0.576514
6247468519,-77.096855,-12.440484,15.811802,0.359953,-0.576700,0.799128
6247488548,-74.993843,-6.388124,8.073739,0.347299,-0.623482,0.727737
6247508578,-68.137009,-2.854374,3.573940,0.282774,-0.763592,0.674268
6247528607,-60.204239,-1.477768,2.148362,0.306730,-0.765017,0.674370
6247548637,-54.371326,-0.073292,1.176462,0.300732,-0.680335,0.701531
6247568667,-51.507214,1.747980,-0.497927,0.325621,-0.633391,0.716155
6247588697,-50.579556,3.859967,-2.524472,0.321920,-0.624572,0.707139
6247608726,-49.123966,6.256211,-5.205208,0.313545,-0.678970,0.672264
6247628755,-45.400623,9.104576,-7.941720,0.314966,-0.748241,0.631295
6247648784,-40.269043,11.943754,-11.193057,0.300912,-0.775650,0.629352
6247668814,-35.184166,14.608495,-14.329220,0.277719,-0.765438,0.636647
6247688844,-31.518452,16.460375,-16.958822,0.275813,-0.714312,0.665573
6247708873,-30.332069,17.355576,-18.247141,0.287448,-0.666047,0.686567
6247728903,-30.535131,17.537828,-18.696115,0.290110,-0.645703,0.693919
6247748933,-31.380194,17.528173,-18.370411,0.304206,-0.657443,0.692853
6247768963,-31.698208,17.123535,-16.964478,0.315428,-0.669633,0.678042
6247788992,-32.183716,16.658869,-15.565705,0.299567,-0.650208,0.690927
6247809022,-34.003311,15.394714,-14.077458,0.287481,-0.642267,0.701029
6247829052,-36.073021,14.329812,-12.583425,0.297340,-0.641069,0.703939
6247849082,-38.270794,12.385489,-10.232872,0.288106,-0.669758,0.666002
6247869111,-38.835724,13.116854,-10.936840,0.289092,-0.699375,0.635891
6247889142,-38.373173,13.948681,-11.838289,0.290738,-0.737413,0.612104
6247909172,-37.882584,14.362381,-12.539080,0.311620,-0.731240,0.609031
6247929202,-37.596455,15.280803,-12.865102,0.299355,-0.719357,0.614967
6247949232,-37.434734,14.934010,-11.611063,0.308796,-0.753733,0.611059
6247969261,-37.237816,13.168338,-8.949986,0.301647,-0.741769,0.597542
6247989291,-40.188480,9.883088,-5.890984,0.279410,-0.585352,0.743693
6248009321,-50.473751,4.639682,-1.370904,0.286827,-0.538779,0.778206
6248029351,-58.815514,-0.534790,1.807503,0.245034,-0.647324,0.707687
6248049380,-65.030617,-4.327318,5.058739,0.286600,-0.686767,0.679149
6248069409,-70.109634,-9.084494,8.447518,0.266694,-0.723029,0.623440
6248089439,-74.855309,-13.353156,10.497907,0.257897,-0.724970,0.622001
6248109468,-80.894440,-17.927376,12.451669,0.253289,-0.720003,0.634479
6248129498,-88.456512,-23.377773,14.025361,0.229300,-0.715922,0.631845
6248149528,-96.433296,-28.615473,14.816110,0.217615,-0.756984,0.594027
6248169557,-103.306259,-33.913952,15.115068,0.227508,-0.805540,0.537320
6248189587,-109.212616,-38.974003,15.404908,0.230393,-0.833890,0.490818
6248209617,-115.202011,-44.446976,15.000620,0.220737,-0.862655,0.450774
6248229647,-120.716957,-49.505203,14.183646,0.229453,-0.877578,0.391619
6248249676,-126.184410,-54.267490,13.167075,0.233768,-0.902833,0.359685
6248269706,-131.844833,-58.567318,11.289750,0.207274,-0.923379,0.302736
6248289736,-136.352097,-62.458073,8.378381,0.202445,-0.966062,0.191432
6248309765,-138.457870,-65.076508,5.063220,0.219589,-0.987167,0.089723
6248329796,-139.110931,-66.029404,1.340506,0.200326,-1.005423,0.006803
6248349826,-138.590424,-66.540321,-2.650724,0.222320,-1.004841,-0.070069
6248369856,-137.457855,-65.927147,-6.408470,0.207982,-0.992627,-0.134825
6248389886,-136.696182,-64.824532,-10.071938,0.220372,-0.985171,-0.145784
6248409915,-137.475189,-65.107498,-13.967142,0.194660,-0.975594,-0.151865
6248429945,-141.117416,-66.624245,-18.042923,0.232927,-0.977881,-0.144143
6248449975,-146.694153,-69.724777,-23.061691,0.217789,-0.975429,-0.173672
6248470004,-151.919312,-70.230415,-27.745716,0.205409,-0.975339,-0.270461
6248490033,-155.501694,-71.853592,-33.958733,0.201037,-0.922932,-0.397128
6248510063,-156.626572,-70.143875,-38.879257,0.215064,-0.889285,-0.512806
6248530092,-155.187790,-64.757561,-41.994541,0.181537,-0.821449,-0.614242
6248550122,-152.196289,-57.607937,-43.448235,0.223066,-0.753233,-0.673099
6248570152,-148.600937,-50.457047,-43.567196,0.249912,-0.696441,-0.709659
6248590181,-144.336548,-43.882809,-42.081165,0.246877,-0.651508,-0.774112
6248610211,-139.784500,-37.476994,-40.426777,0.264253,-0.624806,-0.810830
6248630241,-136.106445,-33.482075,-39.541103,0.292795,-0.597046,-0.806275
6248650271,-133.388718,-30.159960,-38.786724,0.274745,-0.560081,-0.831333
6248670300,-130.944626,-26.721792,-37.904560,0.272626,-0.512273,-0.842610
6248690330,-128.617828,-23.103916,-35.825985,0.290064,-0.466810,-0.863178
6248710360,-125.944221,-19.423727,-32.777256,0.309947,-0.409827,-0.878122
6248730390,-122.590424,-16.300957,-29.177607,0.304439,-0.348395,-0.910417
6248750421,-118.758736,-13.340106,-25.439888,0.295012,-0.306736,-0.921597
6248770451,-115.360466,-10.575648,-21.935776,0.300178,-0.291045,-0.931319
6248790480,-112.997223,-8.828869,-19.378963,0.289578,-0.270917,-0.935322
6248810510,-110.951508,-6.975246,-17.240217,0.275392,-0.229243,-0.944023
6248830540,-108.677971,-5.168397,-15.070644,0.287017,-0.171605,-0.953069
6248850569,-105.274734,-3.586004,-12.223829,0.303338,-0.100344,-0.960179
6248870599,-100.809677,-2.488129,-9.182880,0.313551,-0.039842,-0.958905
6248910659,-89.035614,-0.583033,-3.567256,0.296379,0.063857,-0.963520
6248930687,-80.991386,0.352541,-0.144108,0.296696,0.152559,-0.961052
6248950717,-74.641899,0.012138,-0.828152,0.352688,0.020399,-0.943744
6248970746,-75.250557,0.076820,-2.929234,0.312490,-0.184711,-0.950768
6248990776,-82.830124,-0.021438,-7.883192,0.333108,-0.183793,-0.974161
6249010806,-88.727806,-0.015623,-13.193569,0.330848,-0.059340,-0.976607
6249030836,-91.648643,0.100308,-17.282711,0.330930,0.012958,-0.972376
6249050866,-93.167709,1.444161,-20.706680,0.283871,0.066576,-0.963607
6249070895,-94.722038,2.930729,-22.486546,0.318524,0.071233,-0.971309
6249090925,-96.956413,3.774675,-24.033878,0.339922,0.105212,-0.994839
6249110955,-101.764297,3.191658,-21.627781,0.271532,0.048658,-0.954753
6249130984,-106.881233,5.106714,-21.562931,0.289526,0.104374,-1.000505
6249151014,-112.372284,6.008908,-19.965754,0.298915,0.128418,-0.962973
6249171044,-117.783234,7.991640,-22.881384,0.288661,0.194426,-0.962438
6249191075,-122.310226,9.868395,-24.226200,0.298539,0.254476,-0.945746
6249211105,-125.824516,11.921675,-25.807055,0.305391,0.307141,-0.924606
6249231135,-129.193115,14.202253,-27.473148,0.297183,0.353908,-0.906870
6249251164,-132.323257,16.295425,-27.901674,0.293509,0.419394,-0.886148
6249271194,-134.529724,18.135397,-27.470844,0.283180,0.473725,-0.851213
6249291224,-135.952713,20.161942,-26.912308,0.282928,0.548446,-0.824507
6249311254,-136.163788,21.498804,-25.816647,0.266847,0.610389,-0.760746
6249331283,-135.030853,22.876179,-24.136852,0.272102,0.669996,-0.709807
6249351331,-133.180786,23.062626,-22.363310,0.285957,0.694985,-0.667082
6249371341,-131.737961,23.744658,-20.988394,0.275125,0.725944,-0.622146
6249391371,-129.878937,24.181908,-19.315519,0.295514,0.756433,-0.576799
6249411401,-128.131058,24.861383,-18.220976,0.296663,0.771576,-0.550439
6249431430,-127.213753,26.326635,-17.914385,0.290306,0.769582,-0.545448
6249451460,-128.745026,27.950567,-17.284281,0.309223,0.772471,-0.592769
6249471490,-132.729187,31.258305,-17.784073,0.298530,0.801401,-0.575147
6249491520,-136.290970,34.460262,-17.380499,0.277459,0.838895,-0.499460
6249511550,-138.295624,36.233944,-15.970926,0.282152,0.868647,-0.420139
6249531579,-139.460495,37.220123,-14.273795,0.278370,0.887664,-0.349546
6249551609,-139.893707,37.161236,-12.089864,0.256861,0.904725,-0.284098
6249571639,-139.377106,37.044376,-9.806416,0.254605,0.946050,-0.213912
6249591668,-138.465942,36.719826,-7.543782,0.232984,0.944776,-0.143797
6249611699,-136.942047,34.239937,-4.671349,0.247350,0.956136,-0.075992
6249631729,-135.062714,30.888714,-2.307012,0.259344,0.948179,-0.004570
6249651759,-131.922058,26.660236,-0.783895,0.278002,0.930984,0.066144
6249671789,-128.346893,22.229597,0.157306,0.290247,0.928876,0.118270
6249691819,-124.461449,18.899294,0.581417,0.291377,0.929079,0.144857
6249711849,-121.804291,16.504545,1.125975,0.287088,0.927156,0.151251
6249731878,-120.336594,15.090178,1.601069,0.284635,0.927252,0.168832
6249751908,-119.468002,14.044288,2.057615,0.283579,0.922130,0.205102
6249771938,-118.681534,13.341253,2.480915,0.295208,0.907609,0.262033
6249791966,-116.909027,11.909260,2.721259,0.293146,0.881054,0.335611
6249811996,-114.055458,10.645869,2.740829,0.292820,0.864586,0.395616
6249832025,-110.762772,8.717081,2.508406,0.293883,0.840442,0.427088
6249852055,-107.657639,7.291167,2.127610,0.305444,0.833672,0.451133
6249872085,-104.833183,5.835530,1.519465,0.310063,0.811543,0.476748
6249892115,-101.826004,4.455093,0.925941,0.277750,0.796501,0.545102
6249912144,-97.005424,2.014040,0.160229,0.294039,0.721486,0.630854
6249932174,-89.560036,-0.702607,-1.466261,0.286581,0.647072,0.685277
6249952204,-83.711555,-3.754464,-3.431903,0.307417,0.744254,0.522734
6249972234,-91.500198,0.723019,-1.600483,0.433012,1.071918,0.116162
6249992264,-106.632988,3.809887,0.678825,0.222606,0.900843,0.344416
6250012293,-111.278938,6.280939,3.855481,0.296097,0.773538,0.621509
6250032323,-109.764496,6.623027,3.845758,0.295598,0.642713,0.704738
6250052354,-106.763504,5.355830,2.963161,0.310445,0.651859,0.682514
6250072384,-106.816414,5.676816,3.263724,0.313654,0.690979,0.640020
6250092413,-108.975426,5.282926,2.697329,0.294986,0.666080,0.649803
6250112443,-110.771461,5.729884,3.761786,0.274838,0.640821,0.707761
6250132473,-112.222305,5.254799,5.069197,0.251225,0.612136,0.747646
6250152503,-113.450516,6.113950,7.373932,0.320213,0.609002,0.758598
6250172533,-116.263206,11.899214,14.360195,0.306977,0.622183,0.745906
6250192562,-119.656128,14.709319,23.016476,0.180280,0.542338,0.765111
6250212593,-122.586906,14.766884,26.472019,0.339937,0.520907,0.787044
6250232620,-125.008255,16.067608,31.456535,0.211854,0.401910,0.836630
6250252650,-125.023956,14.035162,31.405355,0.244200,0.337927,0.887506
6250292709,-120.978325,10.917612,34.238869,0.218561,0.212302,0.949285
6250312739,-119.439102,9.614464,36.214321,0.221122,0.205422,0.939129
6250332769,-118.653557,7.643679,37.656685,0.220823,0.146922,0.943422
6250352799,-117.887146,5.829762,38.180290,0.227186,0.108719,0.943081
6250372828,-116.976654,3.006534,37.575119,0.217662,0.063179,0.968432
6250392858,-115.805504,1.815293,36.023773,0.240284,0.033031,0.959574
6250412888,-114.925766,0.429544,37.294468,0.255614,-0.019044,0.954321
6250432917,-114.971138,-0.846805,37.949638,0.259615,-0.001193,0.950351
6250472978,-121.769714,-4.026755,41.362255,0.234768,0.016209,0.944722
6250493008,-125.714073,-6.223854,42.751152,0.220111,-0.100700,0.952532
6250513038,-126.947098,-8.142088,40.787735,0.235930,-0.206046,0.944146
6250533068,-126.576286,-9.777973,39.300392,0.247815,-0.301591,0.930492
6250553097,-125.365044,-10.910389,37.195076,0.229550,-0.337790,0.909319
6250573128,-124.624756,-12.354145,34.568981,0.211357,-0.361550,0.895018
6250593157,-124.381927,-14.105281,32.559380,0.228820,-0.408921,0.877335
6250613187,-123.865578,-15.529039,31.002090,0.242494,-0.448504,0.855829
6250633217,-123.294449,-16.465487,29.577209,0.248814,-0.493765,0.831777
6250653245,-122.224602,-17.592525,28.851725,0.248805,-0.542396,0.798644
6250673275,-121.041924,-19.108736,28.015831,0.251977,-0.573512,0.773301
6250693304,-119.896927,-20.403425,27.352446,0.244253,-0.611828,0.744703
6250713334,-118.498161,-22.153229,27.564953,0.254423,-0.656191,0.718713
6250733363,-116.968636,-24.807093,28.505411,0.238312,-0.701817,0.671561
6250753393,-113.370590,-21.923990,22.311104,0.224126,-0.820016,0.555481
6250773423,-106.506714,-16.181091,13.796982,0.299578,-0.859034,0.543200
6250793453,-99.212982,-12.729569,10.435400,0.306026,-0.912338,0.460738
6250813482,-91.657265,-8.854960,6.539645,0.281351,-0.895462,0.467158
6250833512,-85.120102,-4.646542,2.974207,0.297806,-0.871332,0.482438
6250853542,-81.193192,-2.966839,1.619969,0.287919,-0.851032,0.479452
6250873572,-77.890976,-0.327232,-0.478096,0.308680,-0.846949,0.459926
6250893601,-73.872536,3.063709,-2.112032,0.322387,-0.884683,0.402193
6250913632,-68.909523,6.745890,-3.929928,0.318545,-0.913937,0.361691
6250933662,-63.154575,10.613709,-5.885477,0.310174,-0.922523,0.359010
6250953692,-58.443352,14.091762,-7.686616,0.304977,-0.909598,0.366258
6250973722,-54.903427,17.522963,-9.419690,0.299850,-0.890867,0.377485
6250993752,-52.469727,20.306568,-10.806665,0.291444,-0.887144,0.388430
6251013781,-50.894127,21.985483,-11.570629,0.295760,-0.885948,0.397458
6251033811,-49.967014,23.417871,-11.968896,0.290050,-0.879698,0.393862
6251053841,-49.791412,23.821299,-11.691659,0.304215,-0.866736,0.405441
6251073870,-50.767857,23.585211,-11.000178,0.313068,-0.851818,0.415035
6251093899,-52.467819,23.086706,-10.261349,0.310783,-0.848868,0.411556
6251113928,-54.464298,22.597401,-9.515160,0.309648,-0.850685,0.396184
6251133958,-56.125950,22.098385,-8.867293,0.306561,-0.869825,0.370029
6251153988,-57.352592,21.946997,-8.282793,0.299460,-0.891673,0.343967
6251174018,-58.040314,21.571991,-7.703735,0.295827,-0.901543,0.322088
6251194047,-58.638153,20.815723,-7.182091,0.294929,-0.899287,0.310866
6251214077,-59.337337,19.688021,-6.361674,0.302399,-0.899074,0.297660
6251234107,-60.185799,18.963375,-5.885910,0.301050,-0.910919,0.268223
6251254137,-60.457207,18.221165,-5.197419,0.291594,-0.933965,0.247041
6251294196,-58.626743,20.422195,-4.214176,0.336666,-0.942580,0.176485
6251314226,-58.939720,20.478634,-3.767457,0.318918,-0.915572,0.203195
6251334256,-60.651020,20.259045,-3.857426,0.304172,-0.929438,0.222638
6251354287,-62.225876,20.207304,-3.615126,0.279889,-0.922595,0.199392
6251374316,-65.044189,17.682417,-2.859824,0.302460,-0.924790,0.223932
6251394346,-68.589523,15.922798,-2.035478,0.297667,-0.933488,0.189721
6251414376,-70.509369,13.651669,-1.365275,0.294657,-0.947459,0.120251
6251434406,-71.376137,11.967219,-1.131670,0.298057,-0.946503,0.077315
6251454435,-71.752563,11.216478,-0.882921,0.304771,-0.948888,0.041615
6251474465,-71.147392,10.650777,-0.650415,0.299031,-0.951078,0.001150
6251494495,-70.358673,10.342898,-0.419985,0.302080,-0.964819,-0.020108
6251514547,-70.163513,9.824682,-0.294226,0.295140,-0.961530,0.001446
6251534553,-71.675858,8.341680,-0.024713,0.292276,-0.951140,0.003504
6251554583,-73.204483,6.370681,-0.031649,0.296965,-0.957793,-0.032360
6251574613,-74.121941,5.104298,-0.051788,0.297756,-0.951122,-0.068437
6251594642,-74.346222,4.146296,-0.081764,0.299221,-0.944771,-0.112906
6251614672,-74.289742,3.233214,0.107901,0.313958,-0.942877,-0.125522
6251634702,-74.435982,3.075289,0.450351,0.303273,-0.937760,-0.148289
6251654731,-74.803909,2.354160,0.463810,0.304175,-0.936839,-0.182410
6251674761,-74.783516,1.737410,0.438670,0.308795,-0.931559,-0.202644
6251694791,-75.207321,-0.004930,-0.001832,0.290440,-0.930226,-0.224293
6251714820,-75.659279,-0.992733,-0.198473,0.301109,-0.918455,-0.239439
6251734851,-76.403839,-3.526839,-1.185977,0.283971,-0.917480,-0.263628
6251754880,-77.320648,-5.313637,-2.043360,0.295195,-0.912976,-0.282667
6251774910,-78.147964,-7.458375,-2.814291,0.287202,-0.901757,-0.323958
6251794941,-77.455406,-5.467928,-2.868580,0.298080,-0.848944,-0.427002
6251814971,-73.296310,4.705623,0.399303,0.329818,-0.831289,-0.521269
6251835000,-67.366318,8.526707,2.940422,0.326793,-0.823959,-0.556855
6251855030,-61.594425,10.184055,4.642855,0.316869,-0.842518,-0.534364
6251875060,-58.395836,9.878969,4.972993,0.294638,-0.854193,-0.476405
6251895090,-58.416153,10.702022,5.231447,0.284653,-0.864527,-0.411388
6251915120,-60.536255,11.017840,5.265680,0.301310,-0.842131,-0.427252
6251935150,-61.149918,12.402327,6.307673,0.327259,-0.801003,-0.494829
6251955178,-59.254986,14.308962,8.127449,0.345890,-0.763302,-0.560457
6251975207,-56.128284,16.354202,10.098302,0.333743,-0.753307,-0.574621
6251995237,-53.678558,17.814796,11.436837,0.322080,-0.767887,-0.561069
6252015267,-52.612621,19.114632,12.586502,0.309134,-0.781885,-0.552279
6252035297,-52.392082,19.579653,13.143781,0.300293,-0.778357,-0.554307
6252055326,-52.514038,19.687624,13.370277,0.303075,-0.775106,-0.568200
6252075356,-52.499592,19.673038,13.582708,0.312193,-0.761453,-0.576142
6252095386,-52.648052,18.684263,13.575772,0.318555,-0.757368,-0.580566
6252115415,-53.154560,16.857336,12.749254,0.325032,-0.751219,-0.579764
6252135445,-53.995583,15.330254,12.283996,0.323118,-0.737186,-0.578753
6252155475,-52.375370,15.725979,12.546830,0.284784,-0.603017,-0.726122
6252175505,-43.570641,19.630478,17.264708,0.395964,-0.628528,-0.828444
6252195534,-38.279312,21.521290,19.730740,0.297018,-0.597885,-0.681598
6252215565,-36.401649,24.989262,21.795191,0.301825,-0.686840,-0.645917
6252235595,-36.027641,27.164169,24.036579,0.310424,-0.691106,-0.657867
6252255625,-35.550510,27.461624,24.966913,0.318873,-0.671876,-0.684392
6252275655,-34.307007,27.282694,25.780302,0.325402,-0.658622,-0.683707
6252295684,-32.680504,27.878448,26.685940,0.333463,-0.647686,-0.677541
6252315714,-32.378166,27.802233,27.134071,0.337492,-0.665831,-0.647242
6252335744,-33.442154,28.212530,27.501633,0.326382,-0.686929,-0.625525
6252355774,-36.142948,26.761078,26.223557,0.328661,-0.695694,-0.624291
6252375829,-38.008560,25.466881,25.490475,0.322104,-0.678189,-0.667418
6252395832,-38.902985,23.168280,24.129398,0.317801,-0.674804,-0.681059
6252415862,-40.182259,21.120995,22.197367,0.311797,-0.672739,-0.685154
6252435891,-41.287655,19.509472,21.103374,0.309229,-0.661094,-0.695679
6252455921,-41.897800,18.192333,20.052645,0.315808,-0.633242,-0.714851
6252475951,-41.648594,17.436041,19.634516,0.324229,-0.608003,-0.725253
6252495980,-41.149426,16.572371,19.369053,0.336729,-0.594975,-0.723378
6252516010,-41.282639,14.100657,17.524542,0.341544,-0.619668,-0.711477
6252536040,-41.831284,11.322611,14.469265,0.306915,-0.592704,-0.737535
6252556070,-42.583576,10.202600,12.961884,0.308816,-0.593330,-0.725824
6252576100,-42.710697,11.462266,13.868680,0.301465,-0.554223,-0.754796
6252596129,-41.609154,13.819154,17.049074,0.328083,-0.504647,-0.803295
6252616159,-39.102123,15.634643,19.893499,0.330522,-0.499297,-0.817539
6252636188,-35.874409,16.416077,21.950834,0.334217,-0.491268,-0.823795
6252656220,-33.361008,16.054413,22.485834,0.321040,-0.496040,-0.819307
6252676249,-32.091736,16.781889,23.519089,0.318151,-0.535837,-0.786034
6252696279,-32.892090,16.635345,23.952110,0.319214,-0.546072,-0.765662
6252716309,-33.721405,16.770279,24.291773,0.321439,-0.516284,-0.784248
6252736339,-33.016670,16.891232,25.155460,0.342003,-0.477913,-0.810490
6252756368,-31.150141,16.999872,26.451990,0.338326,-0.456719,-0.832904
6252776398,-28.857143,17.174326,27.619278,0.328691,-0.460752,-0.834011
6252796428,-27.314796,17.434753,28.269899,0.318583,-0.477154,-0.822002
6252816456,-26.828728,17.769020,28.843569,0.319461,-0.496259,-0.811300
6252836486,-27.209301,17.282291,28.369799,0.316758,-0.496177,-0.806779
6252856516,-27.658350,16.551388,27.609924,0.319945,-0.499101,-0.808671
6252876545,-28.425665,15.561211,26.207596,0.316283,-0.491969,-0.809304
6252896575,-29.178465,15.190778,25.778160,0.322838,-0.480829,-0.805443
6252916605,-28.577003,16.501419,27.147392,0.299287,-0.394193,-0.845284
6252936634,-24.972427,18.323715,31.485966,0.350529,-0.389298,-0.880376
6252956664,-20.763554,20.353092,34.973892,0.326277,-0.371221,-0.877317
6252976694,-18.241705,21.052959,36.561478,0.341540,-0.422920,-0.837377
6252996724,-17.467186,21.860062,37.859200,0.316569,-0.448487,-0.831264
6253016753,-16.325140,22.899529,38.662312,0.318415,-0.422461,-0.844687
6253036783,-14.411952,22.662903,39.218719,0.347946,-0.408486,-0.851564
6253056813,-12.360868,22.814302,39.938740,0.337165,-0.400359,-0.843539
6253076844,-10.291624,23.314190,40.193333,0.328054,-0.431361,-0.843883
6253096874,-9.439651,23.515596,40.313370,0.323418,-0.437852,-0.834797
6253116904,-8.359939,23.226976,39.937210,0.320231,-0.437768,-0.845804
6253136933,-7.454136,22.739571,39.024307,0.322278,-0.457883,-0.834819
6253156963,-7.559890,21.569984,37.373589,0.328920,-0.486977,-0.819825
6253176993,-8.700112,19.771954,35.083176,0.324556,-0.490835,-0.809524
6253197023,-9.725548,18.729248,33.499191,0.331117,-0.483326,-0.807705
6253217053,-10.703989,17.570240,31.355131,0.321146,-0.492229,-0.801102
6253237099,-11.940973,16.420292,29.233614,0.339550,-0.501108,-0.797598
6253257110,-13.360720,14.400254,26.126060,0.308383,-0.476261,-0.807917
6253277140,-13.580083,16.441067,28.300049,0.310313,-0.450272,-0.815132
6253297170,-12.576660,19.493294,32.119034,0.304806,-0.441576,-0.848098
6253317199,-11.550623,19.320072,32.022419,0.337032,-0.436258,-0.857111
6253337229,-10.124359,18.979364,32.549129,0.314302,-0.457886,-0.841521
6253357259,-9.523664,19.144276,32.737595,0.313180,-0.474197,-0.823523
6253377289,-9.788932,19.557571,32.991787,0.317631,-0.465048,-0.819532
6253397318,-9.812554,20.422234,34.303802,0.330704,-0.456010,-0.821244
6253417348,-9.113727,21.611567,35.969799,0.340048,-0.440435,-0.831173
6253437378,-7.662391,22.391996,37.192249,0.336247,-0.437103,-0.836225
6253457408,-6.180119,23.294024,38.406113,0.321921,-0.445127,-0.835254
6253477437,-4.964379,24.159683,39.703556,0.313936,-0.454433,-0.839761
6253497469,-3.656008,24.962284,40.501152,0.315379,-0.461656,-0.836609
6253517498,-2.545995,25.606113,41.307568,0.321825,-0.462184,-0.831031
6253537528,-1.670713,25.990332,41.501900,0.322636,-0.475010,-0.818995
6253557558,-1.418862,26.087389,41.334400,0.323365,-0.506649,-0.798552
6253577588,-2.564684,25.884815,40.402954,0.326183,-0.524458,-0.777764
6253597618,-4.015578,25.249155,39.224773,0.324136,-0.527008,-0.775721
6253617647,-5.512445,24.789898,38.371132,0.331405,-0.536441,-0.774595
6253637677,-7.091917,24.184807,37.025829,0.316766,-0.533748,-0.783572
6253657707,-8.187755,24.657894,37.908432,0.325324,-0.518735,-0.789959
6253677735,-8.522812,25.325184,38.888344,0.328568,-0.509033,-0.801411
6253697765,-8.682012,25.585432,39.068054,0.320910,-0.522329,-0.793807
6253717794,-9.632962,25.277681,38.857880,0.328571,-0.548275,-0.772833
6253737824,-11.312892,24.583052,37.892387,0.321359,-0.550220,-0.759548
6253757854,-13.432280,23.850990,36.418999,0.322256,-0.561381,-0.752242
6253777884,-16.288898,22.977345,34.688648,0.333723,-0.571717,-0.741288
6253797913,-19.184996,21.532150,32.697708,0.331098,-0.571994,-0.753566
6253817943,-21.755768,19.322517,30.250830,0.333344,-0.558164,-0.769013
6253837973,-23.832577,17.194582,27.977898,0.325153,-0.545574,-0.779528
6253858003,-25.131401,15.809052,25.873497,0.314830,-0.540742,-0.784855
6253878032,-26.643597,14.134699,23.559114,0.321770,-0.535013,-0.790624
6253898062,-28.042459,12.192955,21.133301,0.326678,-0.523198,-0.791439
6253918092,-29.363836,10.363957,18.403294,0.330775,-0.517405,-0.789584
6253938123,-30.547953,7.532535,14.316991,0.326574,-0.505180,-0.788261
6253958153,-30.826334,7.760323,13.708376,0.308517,-0.432959,-0.814362
6253978182,-29.285061,11.919998,19.489676,0.312980,-0.430144,-0.848955
6253998212,-27.813435,11.846828,20.423601,0.351337,-0.419034,-0.858362
6254018242,-25.676064,12.530220,23.300098,0.325541,-0.428121,-0.850101
6254038272,-24.240107,12.248471,23.265247,0.320460,-0.434448,-0.853164
6254078331,-25.983025,12.595892,24.239578,0.324375,-0.474323,-0.813756
6254098359,-27.255272,12.895687,25.373764,0.332642,-0.437411,-0.826427
6254118389,-26.824642,13.752266,27.262308,0.342498,-0.403796,-0.837733
6254138419,-25.634098,14.781006,29.483385,0.339324,-0.395225,-0.851582
6254158449,-24.473896,15.496458,31.297644,0.331693,-0.397962,-0.858304
6254178478,-23.329121,16.495020,33.526535,0.320520,-0.395193,-0.868320
6254198508,-22.182854,17.545557,35.368305,0.310385,-0.398059,-0.865955
6254218538,-21.378315,18.391121,36.832520,0.313355,-0.405388,-0.861775
6254238568,-21.113174,18.856949,37.700684,0.320957,-0.409442,-0.862054
6254258597,-20.750179,19.009880,38.480530,0.323851,-0.402559,-0.858200
6254278627,-20.538561,18.864826,38.686569,0.335244,-0.407405,-0.851578
6254298657,-20.515642,18.451845,38.144138,0.338204,-0.415737,-0.847225
6254318687,-20.917797,17.574163,36.816860,0.332374,-0.423497,-0.837897
6254338716,-22.065035,16.585770,35.346092,0.337619,-0.433474,-0.835256
6254358747,-23.674717,15.254506,33.043949,0.313638,-0.422610,-0.829520
6254378777,-24.522612,17.296196,36.756794,0.328077,-0.415965,-0.844196
6254398807,-25.003950,17.989056,38.320244,0.331013,-0.367429,-0.876566
6254418837,-24.330215,18.095484,39.343258,0.318370,-0.370448,-0.876434
6254438867,-23.055180,18.893599,41.020401,0.325400,-0.378845,-0.865259
6254458897,-22.531052,18.830158,41.089428,0.327387,-0.379531,-0.859117
6254478926,-22.872440,19.007008,41.080196,0.328802,-0.391068,-0.850254
6254498956,-23.579142,19.224384,41.229671,0.327329,-0.399549,-0.846978
6254518984,-23.995821,19.148643,40.684196,0.330853,-0.385179,-0.862673
6254539014,-24.087122,18.400135,39.780579,0.342619,-0.371083,-0.871390
6254559044,-23.776474,17.268360,38.713573,0.332436,-0.363543,-0.872855
6254579073,-23.000223,16.201050,37.176159,0.333485,-0.354469,-0.883618
6254599103,-22.626572,15.112574,35.502251,0.329308,-0.360961,-0.874890
6254639162,-22.190207,13.165773,32.197842,0.356942,-0.360699,-0.871152
6254659192,-22.200815,10.401861,27.398823,0.337498,-0.380877,-0.873480
6254679222,-23.029694,8.044478,22.232052,0.315190,-0.356324,-0.858187
6254699252,-23.100750,10.653945,26.243792,0.296768,-0.303495,-0.869684
6254719282,-22.249321,13.852251,32.525665,0.349119,-0.320424,-0.881040
6254739311,-20.102169,14.426359,34.606960,0.321562,-0.266846,-0.917693
6254759341,-17.552750,14.586290,36.388649,0.328237,-0.291772,-0.914528
6254779372,-16.134205,14.834286,37.676212,0.326734,-0.342892,-0.893754
6254799402,-16.842117,14.548437,37.572117,0.315917,-0.376100,-0.873057
6254819432,-18.940937,14.705191,37.873074,0.323108,-0.383234,-0.860042
6254839461,-20.949751,15.153172,38.907089,0.335989,-0.363355,-0.861931
6254859491,-22.107525,16.071037,40.673038,0.344570,-0.342428,-0.867076
6254879521,-22.651075,16.345257,42.141399,0.335064,-0.332844,-0.876089
6254899550,-22.982090,16.595770,43.685886,0.335243,-0.340353,-0.885193
6254919580,-23.868307,16.589539,44.966888,0.325732,-0.343556,-0.888025
6254939610,-24.690926,17.015814,45.941002,0.318617,-0.346250,-0.887070
6254959638,-25.437372,17.189308,46.560917,0.322847,-0.335684,-0.891559
6254979668,-25.802284,17.137705,46.485352,0.324022,-0.324849,-0.892170
6254999698,-25.909290,16.687891,46.102390,0.338066,-0.318042,-0.887223
6255019728,-26.046278,16.253075,45.605556,0.336344,-0.316338,-0.880845
6255039757,-26.479198,15.735157,44.828739,0.345830,-0.321807,-0.874533
6255059787,-26.981474,15.791812,45.040318,0.319491,-0.290352,-0.882887
6255079817,-26.106106,17.108557,48.661518,0.345960,-0.267403,-0.910546
6255119877,-22.255819,18.170502,53.635906,0.337125,-0.242150,-0.920589
6255139906,-20.442457,18.309946,54.954903,0.325399,-0.266632,-0.895809
6255159936,-19.643883,18.779343,55.459351,0.324525,-0.296035,-0.882219
6255179965,-20.113232,18.924974,55.018135,0.339545,-0.314384,-0.875662
6255199995,-21.222250,18.731089,54.465736,0.359539,-0.319894,-0.873654
6255220026,-22.201599,17.894035,52.993778,0.353117,-0.325626,-0.883580
6255240056,-23.187830,16.872843,51.076019,0.341417,-0.304190,-0.892062
6255260086,-23.640409,16.030790,48.944717,0.333420,-0.294355,-0.898765
6255280116,-23.812338,15.264358,47.108612,0.324812,-0.293898,-0.905474
6255300145,-23.923283,14.268137,44.940861,0.337966,-0.287897,-0.902101
6255320175,-23.752693,13.025605,42.403786,0.324403,-0.278401,-0.907163
6255340205,-23.369072,11.659501,39.670719,0.365389,-0.279979,-0.898843
6255360235,-23.968620,9.391350,34.237934,0.327554,-0.303673,-0.887809
6255380263,-24.987181,8.547970,30.817410,0.308994,-0.289581,-0.878942
6255400293,-25.273312,11.038521,35.345627,0.303719,-0.226655,-0.902182
6255420322,-24.425171,12.749731,40.790787,0.350861,-0.243837,-0.911435
6255440352,-22.611753,13.049629,42.290405,0.329813,-0.209828,-0.926069
6255460382,-21.291851,12.869912,42.990105,0.328976,-0.245271,-0.923398
6255480412,-20.823496,12.732941,43.742111,0.317808,-0.265710,-0.920938
6255500441,-21.112587,13.063323,44.201710,0.312558,-0.263468,-0.909317
6255520471,-21.258860,13.922016,45.809418,0.326465,-0.245560,-0.902261
6255540501,-20.655813,14.191639,47.718136,0.353687,-0.226044,-0.904103
6255560531,-19.543949,14.604382,49.982258,0.355678,-0.222448,-0.913715
6255580560,-18.342606,14.727997,52.423241,0.351173,-0.218683,-0.914210
6255600590,-17.055416,15.391582,54.859730,0.313310,-0.228261,-0.918292
6255620620,-16.542276,16.432308,57.315426,0.316408,-0.249000,-0.910947
6255640651,-16.468370,17.282503,59.006718,0.321141,-0.249264,-0.917628
6255660681,-16.160336,17.773815,60.731464,0.328381,-0.234657,-0.915367
6255680711,-15.142611,18.166977,61.547523,0.337633,-0.238203,-0.910593
6255700740,-14.747968,18.028030,61.594368,0.333624,-0.256817,-0.900697
6255720770,-14.920224,18.140928,60.941277,0.355951,-0.273378,-0.896105
6255740800,-15.405818,17.806173,60.223553,0.336682,-0.274811,-0.895336
6255760830,-16.105625,17.428051,59.854870,0.340769,-0.272225,-0.905927
6255780860,-16.465656,18.166471,61.577209,0.303042,-0.262494,-0.909920
6255800891,-16.319424,19.730906,65.271797,0.314640,-0.256454,-0.911592
6255820917,-16.149307,21.148884,68.459625,0.325573,-0.257665,-0.902936
6255840947,-16.426058,21.757288,70.130028,0.341162,-0.300309,-0.885640
6255860977,-18.102596,21.731804,68.961792,0.345928,-0.337317,-0.870384
6255881007,-20.963003,20.884863,66.109055,0.351453,-0.360498,-0.868409
6255901036,-24.536963,20.048191,62.922295,0.338814,-0.374031,-0.861619
6255921066,-28.575981,18.687893,59.474319,0.343666,-0.370379,-0.868353
6255941096,-32.554585,17.396488,56.238098,0.343086,-0.356421,-0.871429
6255961126,-35.719894,16.146854,53.123222,0.338315,-0.337006,-0.900176
6255981155,-38.036316,14.551476,50.390778,0.326485,-0.306522,-0.913689
6256001185,-39.052109,13.139753,47.733234,0.332738,-0.269092,-0.919266
6256021215,-39.239201,11.907111,45.309639,0.329717,-0.255694,-0.917457
6256041244,-39.493835,10.628062,42.560368,0.357551,-0.260945,-0.905733
6256061276,-40.704830,9.069624,38.971363,0.355521,-0.269312,-0.889958
6256081305,-42.657173,7.358430,34.056412,0.354301,-0.288556,-0.884496
6256101335,-45.251911,5.646693,27.965933,0.325911,-0.267555,-0.894166
6256121365,-47.496029,5.315782,25.617174,0.331507,-0.234375,-0.888656
6256141395,-48.650005,6.023502,28.279575,0.326018,-0.179602,-0.919370
6256161425,-47.816669,6.610798,32.217743,0.320422,-0.134556,-0.953462
6256181454,-46.109051,6.085107,32.503521,0.338782,-0.119844,-0.965534
6256201484,-44.524769,5.256063,32.928265,0.326070,-0.123921,-0.955645
6256221514,-43.850731,4.758349,33.114738,0.313900,-0.151872,-0.944781
6256241542,-45.197258,4.880951,33.499748,0.325268,-0.185842,-0.926469
6256261572,-47.952320,4.768458,34.189331,0.344246,-0.185332,-0.908993
6256281601,-50.283131,4.425954,35.055443,0.352246,-0.141364,-0.913021
6256301631,-50.917538,4.012354,35.559025,0.356214,-0.085415,-0.920929
6256321661,-51.081905,3.291902,36.095745,0.358535,-0.094405,-0.928278
6256341691,-52.749119,2.508029,35.775486,0.345479,-0.121969,-0.936049
6256361721,-55.263695,2.129491,34.685627,0.337170,-0.111635,-0.934171
6256381750,-56.937634,1.604627,34.416267,0.330773,-0.059320,-0.948489
6256401780,-57.319004,1.026994,34.072155,0.330760,-0.009496,-0.948394
6256421810,-56.782242,0.507503,34.357315,0.345606,0.018296,-0.950452
6256441839,-55.669247,-0.051622,35.082851,0.344680,0.044436,-0.949130
6256461869,-53.995464,-0.703580,36.249199,0.327639,0.071352,-0.938659
6256481900,-52.241604,-1.352326,38.499798,0.341552,0.083118,-0.940606
6256501930,-50.418243,-2.178337,40.206005,0.339256,0.076423,-0.930298
6256521960,-49.585606,-2.912749,40.424873,0.348142,0.058410,-0.943558
6256541989,-50.170525,-3.506358,39.534882,0.349184,0.043295,-0.929895
6256562019,-51.308208,-3.724809,38.421600,0.353872,0.049283,-0.930859
6256582055,-52.483986,-4.195208,37.022293,0.347136,0.074312,-0.935850
6256602079,-53.280106,-4.674772,35.759720,0.348357,0.097519,-0.933789
6256622108,-53.254791,-4.822680,34.820797,0.344741,0.120747,-0.930073
6256642138,-52.863224,-5.035023,33.404911,0.343218,0.139695,-0.928644
6256662166,-51.738972,-4.245167,32.382820,0.274916,0.263442,-0.911446
6256682196,-43.079388,-6.140320,34.768539,0.391769,0.394289,-0.887613
6256702226,-36.564514,-5.799651,30.886787,0.382620,0.138643,-0.946546
6256722256,-42.065948,-4.589301,24.489826,0.310531,0.059011,-0.912576
6256762315,-39.125141,-5.802629,37.300041,0.312896,0.386156,-0.892714
6256782345,-32.232075,-7.762179,40.390579,0.364786,0.399355,-0.884079
6256802374,-24.884342,-9.959537,43.650146,0.355918,0.366093,-0.871933
6256822404,-19.489319,-10.871492,45.798565,0.311448,0.291028,-0.901194
6256842434,-18.479733,-11.219036,48.167591,0.306475,0.192725,-0.923730
6256862464,-20.009277,-11.240016,50.843513,0.312974,0.171856,-0.913318
6256882493,-21.112846,-11.553917,53.097504,0.350508,0.196894,-0.904443
6256902523,-21.666061,-11.965455,54.344158,0.368881,0.194215,-0.901978
6256922554,-22.337391,-12.357042,54.544254,0.367059,0.187262,-0.910562
6256942584,-23.095829,-12.431355,53.884865,0.362738,0.207595,-0.909531
6256962614,-23.030727,-12.084464,53.017628,0.297522,0.221377,-0.907177
6256982643,-22.987204,-11.623954,54.219334,0.315642,0.222919,-0.909881
6257002674,-22.486263,-11.961931,56.368153,0.327136,0.261728,-0.907418
6257022703,-20.393393,-12.892093,59.220268,0.326153,0.303301,-0.912893
6257042733,-17.488319,-14.146241,62.075493,0.340654,0.297354,-0.908147
6257062763,-15.188864,-15.246986,64.322571,0.331568,0.251701,-0.910908
6257082791,-14.165724,-14.966272,65.662743,0.334026,0.220029,-0.902397
6257102820,-14.585231,-14.809810,66.260208,0.337833,0.169061,-0.913488
6257122850,-16.579205,-14.017696,65.524712,0.364975,0.150507,-0.915866
6257142880,-18.745634,-13.662806,63.519005,0.347557,0.149200,-0.923099
6257162910,-20.942606,-13.437557,61.393066,0.360290,0.161461,-0.930630
6257182940,-22.371620,-13.201152,59.267399,0.341473,0.169291,-0.925569
6257202969,-23.571558,-12.737661,57.124771,0.335866,0.177998,-0.928866
6257222999,-24.908463,-12.288620,54.997364,0.347259,0.174855,-0.933092
6257243029,-26.327785,-12.062038,52.227299,0.358255,0.180026,-0.925653
6257263059,-27.461912,-11.688069,48.462891,0.355734,0.189259,-0.928621
6257283088,-28.454691,-11.036627,43.680206,0.376512,0.186457,-0.923288
6257303118,-29.992020,-9.819721,36.420750,0.354772,0.172586,-0.926874
6257323148,-31.415007,-8.710505,33.544708,0.284919,0.222790,-0.901800
6257343179,-31.951672,-9.146198,38.961735,0.298575,0.240378,-0.902054
6257363209,-32.027412,-10.544491,44.061039,0.373758,0.244650,-0.918230
6257383238,-31.836077,-11.165910,42.913868,0.344601,0.291316,-0.907865
6257403268,-31.421724,-12.073783,42.952019,0.347037,0.227702,-0.935711
6257423298,-33.671242,-12.146921,42.557274,0.329105,0.175877,-0.932921
6257443328,-37.274311,-12.243237,42.192402,0.344125,0.187872,-0.912573
6257463357,-39.909576,-12.690792,43.028915,0.351501,0.229625,-0.895086
6257483387,-41.135658,-13.782793,44.584244,0.356432,0.279002,-0.886150
6257503420,-41.006683,-14.455695,46.144287,0.345440,0.299542,-0.882213
6257523445,-40.745026,-15.071663,46.733406,0.350700,0.306480,-0.890371
6257543475,-40.486168,-15.333279,46.303555,0.354153,0.317543,-0.885557
6257563505,-40.012508,-15.636200,45.244827,0.353952,0.337170,-0.892865
6257603564,-37.214069,-13.840556,38.096336,0.361251,0.361567,-0.866684
6257623594,-35.208836,-12.618945,33.295155,0.373833,0.398325,-0.841764
6257643624,-31.372641,-11.413296,28.896847,0.360218,0.446379,-0.820178
6257663654,-27.452213,-14.954695,29.982389,0.300422,0.239398,-1.096581
6257683683,-40.837620,-15.116346,33.267910,0.349254,0.191356,-0.890547
6257703713,-44.228477,-18.468620,40.611153,0.333067,0.228159,-0.889647
6257723743,-49.737789,-17.097204,39.103298,0.293564,0.321267,-0.881760
6257743772,-53.681171,-17.407589,37.921192,0.398541,0.270478,-0.906359
6257763804,-57.064842,-17.404707,35.705551,0.393475,0.278352,-0.892310
6257783833,-61.661224,-14.709107,28.750648,0.364767,0.320620,-0.877778
6257803863,-66.176819,-12.866974,23.910776,0.382235,0.322945,-0.873273
6257823893,-69.222427,-12.456741,21.130806,0.381102,0.370823,-0.866276
6257843922,-71.660385,-11.032669,17.478258,0.340023,0.449588,-0.833623
6257863952,-72.725395,-9.727269,14.653816,0.359175,0.475733,-0.839004
6257883982,-73.549339,-8.787765,12.052447,0.370381,0.475496,-0.841563
6257904012,-75.371986,-6.380520,7.474507,0.312048,0.500130,-0.833245
6257924059,-77.454636,-4.230139,5.332453,0.320377,0.507691,-0.810856
6257944070,-79.477036,-3.325253,4.133486,0.326515,0.520837,-0.791006
6257964099,-81.318565,-3.313848,4.625338,0.330577,0.549659,-0.770589
6257984129,-83.147629,-3.200474,3.766722,0.375045,0.592099,-0.738525
6258004159,-83.702881,-1.791135,0.964404,0.352933,0.610364,-0.738715
6258024189,-85.276665,0.089585,-1.341946,0.337401,0.605824,-0.740288
6258044218,-87.874329,1.560522,-2.621765,0.320651,0.618438,-0.714242
6258064248,-89.616356,1.654797,-2.229129,0.322475,0.685934,-0.637632
6258084278,-88.574242,0.846314,-1.069356,0.326177,0.705292,-0.586816
6258104307,-87.640244,-0.395559,0.063675,0.330012,0.746420,-0.552138
6258124337,-85.130829,-2.663875,1.759581,0.324403,0.795033,-0.525578
6258144367,-83.512291,-2.992566,1.634228,0.320885,0.771271,-0.555252
6258164397,-84.663635,-2.448181,0.992203,0.342630,0.758373,-0.616458
6258184428,-88.178780,-0.814398,-0.842922,0.336228,0.752629,-0.592788
6258204458,-91.269211,1.276808,-1.794574,0.328910,0.772449,-0.562779
6258224488,-94.035378,2.788120,-2.650216,0.340594,0.795785,-0.515540
6258244517,-95.784271,4.089218,-3.298883,0.329231,0.830921,-0.452133
6258264547,-96.221222,4.874714,-3.548317,0.326165,0.851823,-0.409081
6258284577,-96.554749,6.533954,-4.115904,0.353076,0.858895,-0.385024
6258304607,-96.944885,10.398037,-5.543646,0.310338,0.878623,-0.348471
6258324636,-96.626259,15.097425,-6.447310,0.319758,0.898012,-0.309156
6258344666,-95.871140,16.596703,-5.329799,0.206667,0.900791,-0.164442
6258364694,-91.018356,6.212940,-0.304313,0.277029,0.947180,-0.102798
6258384724,-86.642067,2.310210,0.435709,0.343902,0.951671,-0.069169
6258404754,-80.998383,-4.195527,0.978318,0.351021,0.959616,-0.033101
6258424783,-76.342239,-4.383893,-0.170330,0.322861,0.946032,-0.032407
6258444813,-72.637947,-5.803842,-0.095959,0.314486,0.946230,-0.089052
6258464843,-72.015160,-5.966984,-0.094289,0.312204,0.933985,-0.111295
6258484873,-72.429459,-6.824673,-0.019048,0.308966,0.935541,-0.077646
6258504902,-71.581123,-9.225830,0.297225,0.328617,0.920361,0.005976
6258524932,-67.231445,-13.850657,1.301089,0.254373,0.926480,0.240181
6258544962,-55.753883,-20.924805,0.448601,0.371173,0.942298,0.261854
6258564992,-47.080784,-25.738096,-0.249838,0.320840,0.937925,0.064348
6258585021,-49.094170,-25.086811,0.115243,0.309973,0.949357,-0.089370
6258605051,-50.514095,-26.074684,0.638435,0.278943,0.940052,0.056475
6258625082,-47.379749,-28.019283,-0.018530,0.344414,0.940782,0.143271
6258645112,-42.684116,-29.692072,-1.139530,0.346607,0.929761,0.172327
6258665142,-38.709984,-30.796228,-1.803145,0.344903,0.922235,0.121014
6258685171,-36.938339,-31.134436,-2.254376,0.341128,0.931421,0.064527
6258705201,-37.361015,-30.615602,-2.554639,0.324778,0.939955,0.039782
6258725231,-38.513664,-30.024012,-2.742134,0.324448,0.943240,0.039168
6258745261,-39.522350,-29.363894,-2.695090,0.309148,0.946271,0.066883
6258765290,-40.396168,-29.428585,-2.937597,0.328976,0.942165,0.062694
6258785335,-41.567612,-29.918612,-3.373811,0.334021,0.943118,0.065615
6258805348,-42.857822,-29.707743,-3.815968,0.339605,0.946361,0.081621
6258825378,-43.942650,-29.337555,-4.092556,0.334918,0.941918,0.083238
6258845408,-45.802860,-29.062748,-4.527943,0.341237,0.942181,0.062437
6258865438,-48.785530,-27.882914,-4.698517,0.336066,0.952945,0.049580
6258885467,-52.797707,-25.387535,-4.615259,0.339051,0.959325,0.029877
6258905497,-57.824738,-21.943022,-4.563208,0.345114,0.969250,0.024042
6258945557,-68.400681,-14.121524,-4.141158,0.333985,0.966668,0.072770
6258965587,-73.016113,-9.954129,-3.511155,0.328221,0.962125,0.108513
6258985616,-77.337524,-6.190841,-2.619825,0.325692,0.955628,0.116355
6259005646,-82.659683,-1.607304,-1.584224,0.329958,0.968263,0.116358
6259025676,-88.433121,2.622124,-0.174345,0.317034,0.957773,0.148552
6259045707,-93.796852,6.888484,1.546289,0.317383,0.949435,0.203896
6259065737,-98.851700,10.720414,3.589169,0.303567,0.935537,0.227735
6259085766,-103.611557,14.407129,5.921530,0.295854,0.918592,0.283782
6259105796,-107.939651,18.047335,8.686670,0.300199,0.907332,0.320266
6259125826,-112.556488,21.520727,11.187699,0.300589,0.891058,0.346049
6259145856,-116.774086,24.269691,13.930048,0.278624,0.862654,0.414265
6259165885,-119.877655,26.489025,17.117147,0.264314,0.822765,0.475469
6259185915,-121.959000,27.377262,19.936810,0.252558,0.785194,0.542762
6259205945,-122.665916,27.610260,22.474518,0.253591,0.729962,0.626076
6259225973,-121.648300,26.666046,23.976616,0.244895,0.673375,0.686487
6259246003,-119.963593,24.871881,25.031244,0.253432,0.626348,0.729007
6259266033,-117.765549,23.132149,24.971092,0.247594,0.590890,0.755425
6259286062,-116.078255,21.083099,24.928457,0.252327,0.577500,0.766059
6259306092,-115.076057,17.456352,23.192760,0.209079,0.483769,0.812966
6259326122,-111.729042,11.375756,17.505777,0.286507,0.497399,0.814260
6259346152,-110.810638,12.947023,19.919306,0.307700,0.455075,0.833293
6259366181,-110.293045,11.934743,18.495035,0.296382,0.485816,0.821982
6259386211,-110.799248,10.420882,17.961588,0.254759,0.443918,0.834794
6259406241,-111.406136,9.559118,18.787399,0.255628,0.391449,0.865911
6259426270,-111.204765,8.010428,18.065035,0.263561,0.347446,0.890282
6259446300,-110.277855,6.691516,16.643539,0.262957,0.275718,0.913984
6259466330,-108.049385,5.410084,14.835669,0.282960,0.194653,0.939396
6259486361,-104.646980,3.851780,11.764479,0.286792,0.125322,0.953332
6259506391,-100.480186,2.613905,7.849354,0.269869,0.091393,0.963516
6259526421,-96.871910,1.329064,4.935193,0.276272,0.092041,0.954953
6259546451,-94.526428,0.708967,3.046005,0.278367,0.105304,0.943059
6259566480,-93.406815,0.357056,2.018334,0.291261,0.094653,0.943901
6259586510,-92.736465,0.336910,1.609394,0.299281,0.071472,0.943086
6259606539,-91.929024,0.621519,1.501245,0.306467,0.028838,0.952030
6259626569,-90.961578,0.927862,1.317170,0.302445,0.004563,0.948544
6259666627,-89.265999,0.972266,1.347945,0.284878,-0.039053,0.949134
6259686657,-88.589569,0.709049,1.100273,0.287581,-0.101262,0.945590
6259706687,-86.743454,0.624156,-0.869471,0.274364,-0.166085,0.954452
6259726716,-83.760544,0.682066,-3.855866,0.279151,-0.217281,0.950314
6259746746,-80.748810,0.947829,-6.100945,0.286714,-0.221339,0.935062
6259766776,-78.866859,1.224205,-6.966717,0.304542,-0.197295,0.932196
6259786806,-77.997917,1.782964,-6.940660,0.304538,-0.206439,0.922525
6259806835,-77.587646,2.102107,-6.457886,0.305745,-0.229999,0.915936
6259826865,-76.917992,2.426623,-6.232824,0.300071,-0.266660,0.913862
6259846895,-75.517769,2.624290,-6.362702,0.295322,-0.329939,0.898592
6259866925,-72.227859,2.914696,-7.629763,0.285026,-0.425902,0.886582
6259906984,-65.827385,3.829710,-8.392561,0.311685,-0.245772,0.912144
6259927015,-70.852135,2.992023,-5.097322,0.285020,-0.102921,0.951832
6259947045,-78.610504,1.332392,0.728341,0.281374,-0.237709,0.920764
6259967075,-81.101135,0.524647,1.067531,0.251941,-0.401841,0.888276
6259987105,-81.131241,-1.202679,3.455221,0.274136,-0.422801,0.881869
6260007134,-82.026756,-1.841541,4.468573,0.273980,-0.396730,0.862936
6260027164,-84.651810,-3.033104,5.902745,0.271938,-0.368686,0.866905
6260047194,-88.992096,-4.738317,8.075865,0.273509,-0.377020,0.872971
6260067223,-93.556686,-6.744188,11.032359,0.270780,-0.421282,0.859097
6260087252,-97.346794,-9.173510,13.780483,0.260846,-0.472496,0.826691
6260107281,-100.322853,-11.622976,16.347202,0.258409,-0.510541,0.808498
6260127311,-103.359535,-14.569141,18.243252,0.251082,-0.541614,0.786911
6260147341,-106.336777,-16.750002,19.192722,0.244723,-0.580482,0.757873
6260167371,-109.013687,-18.630583,19.366442,0.245232,-0.613648,0.727722
6260187401,-111.196976,-20.765444,19.398476,0.246335,-0.667399,0.696659
6260207431,-112.913635,-22.286568,19.327015,0.244889,-0.705012,0.650093
6260227460,-113.853745,-23.858717,18.884834,0.252663,-0.743822,0.611425
6260247490,-114.592316,-26.062531,18.796833,0.255597,-0.771040,0.573974
6260267520,-115.052925,-27.431404,18.444164,0.254102,-0.807036,0.531256
6260287549,-114.941154,-28.774918,17.477404,0.251678,-0.846907,0.482371
6260307579,-114.115463,-28.845093,16.015045,0.251091,-0.882058,0.434198
6260327609,-112.847641,-28.918802,14.196569,0.251658,-0.899170,0.384294
6260347640,-111.410896,-28.574718,12.389833,0.256184,-0.920350,0.340625
6260367670,-109.558731,-28.520473,11.063404,0.260300,-0.940308,0.306363
6260387699,-108.121849,-29.460516,9.934675,0.246389,-0.928432,0.283971
6260407729,-108.098862,-30.637886,8.435732,0.256753,-0.918374,0.281768
6260427759,-109.464111,-31.054407,6.914566,0.244347,-0.908167,0.278556
6260447789,-111.030655,-30.564337,5.309868,0.256522,-0.944276,0.209219
6260467818,-111.654167,-31.355896,4.345702,0.279141,-0.972306,0.149165
6260487848,-111.823654,-32.438087,3.687481,0.269826,-0.981663,0.107662
6260507898,-111.663269,-34.786083,2.880824,0.261388,-0.978614,0.062180
6260527906,-112.011330,-37.346401,1.514627,0.253135,-0.963493,0.039363
6260547936,-112.838440,-36.609997,-0.372320,0.232954,-0.961029,0.013039
6260567965,-113.477684,-34.848248,-2.631726,0.264380,-0.965391,-0.053774
6260587995,-112.962570,-32.770279,-4.104689,0.268019,-0.955765,-0.131409
6260608025,-111.293907,-30.917934,-5.211259,0.281140,-0.950223,-0.190120
6260628054,-108.964645,-29.037624,-6.014461,0.282688,-0.949986,-0.248521
6260648084,-106.451187,-26.663227,-6.730736,0.275715,-0.947951,-0.277829
6260668114,-103.727242,-24.898977,-7.472115,0.277482,-0.927533,-0.329466
6260688144,-100.872711,-22.502384,-7.839635,0.288190,-0.917134,-0.359323
6260708174,-97.875893,-20.257198,-7.735723,0.300457,-0.893316,-0.395786
6260728203,-94.630066,-18.378281,-7.507302,0.303989,-0.883863,-0.443297
6260748233,-90.544052,-15.307749,-6.977614,0.294141,-0.849529,-0.494812
6260768263,-84.371910,-11.219374,-6.061193,0.298964,-0.819198,-0.609848
6260788294,-76.514893,-6.961089,-4.023232,0.325254,-0.764981,-0.594404
6260808324,-73.310699,-5.353427,-3.034343,0.298358,-0.860942,-0.368772
6260828354,-82.873688,-8.980713,-5.730489,0.267921,-0.943210,-0.160143
6260848383,-92.523071,-9.562873,-8.444662,0.248877,-0.947369,-0.349652
6260868413,-98.829384,-14.157737,-10.797496,0.337717,-0.855203,-0.473980
6260888443,-99.645584,-16.130316,-12.419065,0.286970,-0.764063,-0.601682
6260908472,-98.631401,-15.710708,-12.801202,0.321888,-0.760841,-0.597889
6260928502,-99.771996,-16.889250,-14.217297,0.315238,-0.776464,-0.551217
6260948530,-104.720329,-17.827322,-15.766145,0.300080,-0.807277,-0.530477
6260968560,-110.197479,-18.238665,-17.698776,0.275160,-0.771362,-0.587060
6260988590,-114.934624,-18.687071,-20.434444,0.267213,-0.756425,-0.641189
6261008620,-120.339760,-19.713930,-24.211908,0.272246,-0.753807,-0.642543
6261028649,-127.065460,-20.789698,-28.770557,0.264536,-0.738417,-0.665076
6261048679,-134.391602,-21.740194,-33.239563,0.288067,-0.705889,-0.692146
6261068709,-141.930008,-22.713116,-37.920784,0.288120,-0.671896,-0.726705
6261088739,-148.871552,-22.859962,-42.737545,0.259399,-0.610175,-0.784025
6261108768,-154.949600,-21.953423,-47.577904,0.267282,-0.554318,-0.827566
6261128798,-161.208298,-20.933123,-52.828735,0.271268,-0.516728,-0.873987
6261148828,-166.664688,-18.621775,-57.695751,0.238826,-0.419520,-0.921088
6261168858,-169.740524,-15.238524,-61.478786,0.226744,-0.296164,-0.975285
6261188887,-170.393372,-10.948479,-63.410652,0.227225,-0.186463,-0.997178
6261208919,-168.803665,-6.356605,-64.858711,0.247516,-0.070131,-1.005540
6261228948,-165.557892,-2.437058,-66.702179,0.257523,0.040373,-1.003351
6261248978,-161.276596,2.170863,-70.461617,0.253770,0.080459,-1.000668
6261269008,-158.072784,6.621919,-72.764488,0.267518,0.106859,-0.997005
6261289038,-156.517242,12.020002,-78.996063,0.273734,0.148067,-1.010126
6261309067,-160.355988,15.532381,-79.527824,0.260691,0.007425,-1.058381
6261329097,-166.695496,20.448502,-78.525841,0.176283,0.015417,-1.073829
6261349127,-177.189697,27.254814,-81.082581,0.253149,0.101824,-1.055896
6261369155,-184.430801,33.853909,-81.277969,0.184415,0.269375,-0.973755
6261389185,-187.165070,40.056461,-79.109810,0.188595,0.432648,-0.923244
6261409215,-187.112808,46.370407,-75.644699,0.175969,0.522960,-0.870302
6261429244,-186.514252,52.407455,-72.169418,0.182476,0.573320,-0.828101
6261449274,-187.149475,58.262051,-68.306519,0.163431,0.615599,-0.810308
6261469304,-188.171112,63.460144,-63.346466,0.162759,0.668420,-0.760715
6261489334,-189.504059,68.751167,-58.402508,0.161233,0.743184,-0.693038
6261509377,-189.611069,72.994408,-53.001816,0.155098,0.804906,-0.586118
6261529393,-188.029373,75.997360,-47.074303,0.152101,0.868785,-0.493096
6261549423,-185.160782,78.036171,-40.622494,0.163667,0.915349,-0.398627
6261569452,-181.395264,78.419579,-33.837902,0.165423,0.938762,-0.291112
6261589482,-176.521713,77.943115,-27.492901,0.186432,0.969188,-0.204034
6261609512,-171.294205,76.428688,-21.411970,0.170955,0.960133,-0.118096
6261649573,-158.829315,68.624962,-9.011909,0.145493,0.983885,0.180514
6261669603,-147.491241,64.695702,-5.189960,0.291140,0.981217,0.154556
6261689632,-138.508194,56.978428,-2.019737,0.195883,0.915879,0.277567
6261709662,-131.581604,55.206619,0.364108,0.271381,0.919393,0.124449
6261729692,-132.558990,54.535938,3.106409,0.241786,0.964643,-0.076278
6261749722,-138.616364,53.939274,6.277812,0.196603,0.958128,0.011939
6261769751,-140.432541,51.433586,9.800906,0.175137,0.907111,0.288195
6261789780,-135.208435,45.237251,11.151999,0.263610,0.868108,0.448033
6261809810,-127.104088,39.454876,11.113485,0.285042,0.838321,0.503977
6261829839,-120.970070,35.067459,10.827258,0.266112,0.843643,0.486099
6261849869,-116.721786,30.705536,10.623310,0.264484,0.837000,0.471039
6261869899,-113.423309,26.546791,10.493017,0.234831,0.811581,0.503827
6261889928,-110.417236,21.338356,10.121186,0.239716,0.791810,0.530929
6261909958,-107.793007,16.974365,9.006618,0.278248,0.771861,0.536939
6261929988,-106.197929,13.726789,7.783609,0.288754,0.765938,0.541711
6261950018,-105.473846,11.221845,6.462958,0.304057,0.764308,0.555183
6261970048,-105.743675,9.239778,5.145019,0.303195,0.744664,0.566581
6261990077,-105.907166,7.241977,3.842427,0.298065,0.722845,0.612034
6262010107,-105.485176,4.530167,1.643842,0.280220,0.677506,0.658706
6262030136,-103.986298,1.440933,-0.179530,0.286192,0.624084,0.723128
6262050167,-100.819397,-1.927711,-3.243215,0.277436,0.574571,0.773105
6262070198,-96.656685,-5.622461,-6.644876,0.286092,0.527803,0.802301
6262090227,-92.019867,-8.802742,-10.232597,0.303308,0.491291,0.828627
6262110257,-87.402214,-11.153511,-13.903115,0.320548,0.498243,0.820755
6262130287,-84.144821,-13.230239,-17.447693,0.303460,0.482749,0.809196
6262150316,-81.456200,-14.831551,-20.852480,0.320392,0.487328,0.802575
6262170346,-79.748764,-15.540600,-23.036930,0.330452,0.483864,0.807910
6262190376,-78.406334,-15.918993,-24.799736,0.328494,0.464893,0.814276
6262210405,-77.404205,-15.823561,-26.536356,0.327086,0.469824,0.813660
6262230434,-77.315582,-15.080076,-27.133961,0.346087,0.470931,0.806675
6262250463,-78.071930,-13.742488,-26.683048,0.333072,0.475667,0.805047
6262270493,-79.521469,-12.636833,-26.124376,0.318440,0.458333,0.809761
6262290523,-80.805450,-12.501044,-26.247450,0.312702,0.420936,0.840545
6262310553,-81.317291,-12.503597,-27.817171,0.338377,0.380107,0.863955
6262330582,-80.784241,-12.025866,-29.784691,0.313281,0.325130,0.899739
6262350612,-79.142830,-12.201982,-32.041889,0.313292,0.285380,0.921739
6262370642,-76.596771,-13.017196,-35.051491,0.295531,0.240522,0.916744
6262390672,-73.547577,-13.782936,-38.402458,0.326372,0.180762,0.932122
6262410701,-68.313438,-13.928790,-41.848564,0.336278,0.109268,0.951432
6262430731,-66.601891,-13.434290,-41.495533,0.333491,0.420873,0.829014
6262470791,-90.226547,-7.742207,-29.347551,0.287508,0.460637,0.838220
6262490822,-96.320053,-5.397885,-23.122524,0.328635,0.298095,0.927492
6262510851,-98.281441,-2.934031,-17.851845,0.323148,0.184910,0.942789
6262530881,-98.990059,-1.591099,-15.732892,0.329297,0.183329,0.926167
6262550911,-101.380997,-0.626967,-13.467512,0.311297,0.177196,0.919154
6262570940,-104.299713,-0.772856,-13.915042,0.285438,0.126286,0.929948
6262590970,-105.694687,-0.792450,-15.151437,0.279217,0.055573,0.941700
6262611000,-106.332672,-0.552806,-15.062773,0.298676,0.030949,0.957674
6262631030,-107.446312,-0.076979,-13.391659,0.301436,0.012502,0.947049
6262651058,-108.839516,0.207590,-10.179907,0.303675,0.002302,0.944344
6262671088,-111.198746,0.444222,-6.899981,0.304350,-0.008737,0.931015
6262691118,-113.803200,0.531242,-3.224647,0.309981,-0.051026,0.929164
6262731177,-118.653656,-0.207304,2.670509,0.286154,-0.166028,0.932004
6262751207,-119.902855,-0.832612,4.896714,0.286069,-0.225541,0.922140
6262771237,-120.478760,-1.251793,6.097929,0.273085,-0.296969,0.907300
6262791266,-119.912155,-1.732646,6.602659,0.270443,-0.367794,0.887431
6262811296,-118.651642,-2.127513,6.606584,0.279927,-0.417565,0.868044
6262831326,-117.378105,-2.764826,6.968911,0.277053,-0.427404,0.855764
6262851355,-116.559975,-3.431088,7.058303,0.280040,-0.479970,0.838346
6262871385,-114.988434,-3.727532,7.395165,0.280195,-0.531970,0.804819
6262891415,-112.955399,-4.559130,7.767071,0.276962,-0.552617,0.787412
6262911446,-111.305687,-4.009898,6.186179,0.267483,-0.595839,0.758557
6262931476,-110.050545,-4.345879,5.583038,0.281913,-0.584292,0.746665
6262951506,-109.982033,-4.430402,5.454885,0.280480,-0.574168,0.761617
6262971535,-112.512749,-6.214058,7.523390,0.275731,-0.550437,0.774175
6262991565,-115.989220,-8.723448,9.589947,0.254811,-0.581019,0.745342
6263011595,-118.888451,-11.464572,11.560163,0.247778,-0.647664,0.700425
6263031625,-120.627411,-12.833218,11.525322,0.279961,-0.695680,0.652575
6263051654,-121.751205,-13.035119,10.828920,0.277376,-0.725697,0.600948
6263071684,-122.056656,-12.474287,9.618506,0.287958,-0.783026,0.548461
6263111742,-119.875946,-10.122993,6.028646,0.267547,-0.867137,0.451128
6263131772,-117.722145,-7.713875,3.749990,0.274258,-0.897175,0.408873
6263151802,-115.816139,-5.948550,2.037697,0.266516,-0.898853,0.392298
6263171832,-114.617035,-5.287825,1.213861,0.280024,-0.896629,0.371267
6263191861,-114.211006,-4.949156,0.703212,0.293179,-0.892821,0.344493
6263211891,-113.907707,-3.643016,0.260212,0.303880,-0.897199,0.302540
6263231921,-113.279503,-2.611698,0.092632,0.314410,-0.918948,0.240430
6263251951,-111.408356,-0.742277,-0.142041,0.318969,-0.954369,0.170702
6263271980,-108.624397,1.228848,-0.384709,0.296812,-0.972498,0.116220
6263292010,-105.031487,3.643553,-0.994651,0.292792,-0.987419,0.070369
6263312040,-100.932434,7.006571,-1.748789,0.286031,-0.996697,0.028179
6263332070,-96.629936,9.957637,-2.453877,0.283294,-0.989340,0.003279
6263352101,-92.900696,12.494448,-2.753911,0.301491,-0.980683,-0.001184
6263372131,-89.992828,13.545514,-2.511121,0.298721,-0.961992,-0.001330
6263392160,-88.422325,14.847488,-2.195263,0.324302,-0.949382,0.011527
6263412190,-88.421021,14.051340,-1.271142,0.336411,-0.937634,0.014663
6263432220,-88.825386,14.322432,-0.515403,0.322119,-0.944865,-0.026901
6263452250,-88.290932,15.387388,0.120393,0.311751,-0.948263,-0.073844
6263472279,-87.195656,16.038475,0.797846,0.331403,-0.951974,-0.130526
6263492309,-85.411827,17.896824,1.662630,0.316961,-0.943939,-0.149767
6263512337,-83.658722,19.602798,2.437693,0.309539,-0.950382,-0.177426
6263532367,-81.990051,20.904938,2.958314,0.298166,-0.943464,-0.195989
6263552397,-80.875313,22.392334,3.370962,0.310793,-0.934239,-0.198072
6263572427,-80.296310,23.030119,3.805650,0.316324,-0.930723,-0.213469
6263592456,-80.229927,22.970709,4.352093,0.311263,-0.923678,-0.229280
6263612486,-77.799347,24.366516,4.500772,0.321585,-0.919191,-0.417501
6263632516,-70.939728,26.468565,6.609430,0.278439,-0.797356,-0.395804
6263652546,-72.740929,25.330990,7.285336,0.402161,-0.977299,-0.080129
6263672575,-78.888603,21.890488,6.666773,0.309196,-0.918058,-0.222232
6263692605,-80.290176,21.403767,6.852153,0.298970,-0.889831,-0.351227
6263712635,-78.130646,19.771744,7.071618,0.329818,-0.870743,-0.440199
6263732664,-75.826500,18.337519,7.486625,0.334459,-0.869903,-0.417293
6263752694,-74.869911,18.471449,8.077368,0.306336,-0.857285,-0.395449
6263772725,-75.122864,18.344940,8.540815,0.319529,-0.855041,-0.419589
6263792755,-74.462128,18.433899,8.874001,0.317373,-0.828270,-0.478718
6263812785,-72.631859,18.395720,9.459028,0.314683,-0.813742,-0.515053
6263832815,-70.240616,17.683628,9.716374,0.306698,-0.810320,-0.531219
6263852844,-68.366364,16.477434,9.355885,0.318114,-0.799736,-0.530753
6263872874,-67.253296,14.886367,8.785959,0.335327,-0.793315,-0.525484
6263892904,-66.473038,12.775556,7.052593,0.273174,-0.748142,-0.536484
6263912934,-66.072121,13.157676,8.141402,0.381202,-0.751598,-0.543250
6263932962,-63.926071,18.058870,11.285772,0.291618,-0.694910,-0.641319
6263952992,-60.283844,20.141092,13.749401,0.371513,-0.705149,-0.657643
6263973022,-56.114029,21.590843,16.840328,0.343074,-0.693515,-0.685842
6263993051,-52.137836,22.938118,18.574825,0.295263,-0.693784,-0.682422
6264013081,-49.879082,24.148413,19.877459,0.309456,-0.729059,-0.630481
6264033111,-49.914970,25.529892,20.934921,0.302023,-0.722205,-0.610636
6264053140,-50.696106,27.205929,22.398983,0.327031,-0.707140,-0.612281
6264073170,-50.125851,28.280600,23.717106,0.324223,-0.662746,-0.662402
6264093200,-48.034225,29.720943,25.260355,0.336507,-0.646349,-0.691630
6264113230,-45.832561,30.446306,27.135693,0.348376,-0.654947,-0.682387
6264133260,-44.801563,30.795509,28.482874,0.342704,-0.665782,-0.661217
6264153289,-44.872231,31.103907,29.541744,0.325133,-0.674628,-0.656289
6264173319,-45.817772,30.760155,29.953609,0.322800,-0.687901,-0.658275
6264193350,-46.915665,29.729595,29.605373,0.324726,-0.671782,-0.675441
6264213380,-47.824825,28.347799,29.229847,0.345643,-0.666788,-0.663826
6264233409,-49.296467,26.701328,28.484751,0.346308,-0.653823,-0.654018
6264253439,-50.920162,25.605991,28.417339,0.353731,-0.641966,-0.664743
6264273469,-52.148697,25.280737,29.359659,0.350974,-0.616766,-0.703537
6264293499,-51.803074,25.466547,30.836779,0.334313,-0.591327,-0.753054
6264313528,-50.399197,25.889862,32.175934,0.314142,-0.574630,-0.767743
6264333558,-49.192600,26.038658,33.054794,0.317926,-0.581851,-0.751680
6264353598,-49.399239,25.712479,33.065014,0.331522,-0.598226,-0.722762
6264373616,-50.815388,24.988243,32.767124,0.336433,-0.595743,-0.716360
6264413676,-52.918247,22.703247,31.284037,0.338377,-0.553796,-0.757936
6264433706,-52.944248,21.544846,30.823662,0.338096,-0.529010,-0.775239
6264453735,-52.421387,20.817728,30.458494,0.335356,-0.514659,-0.796788
6264473765,-51.617847,20.043911,30.230335,0.332680,-0.493332,-0.795995
6264493795,-50.373329,19.497049,30.281023,0.325443,-0.470727,-0.822379
6264513825,-48.627918,18.757372,30.371483,0.334576,-0.464700,-0.834773
6264533854,-46.934238,18.375687,30.451324,0.324899,-0.453271,-0.831994
6264553884,-45.672997,17.911268,30.144968,0.323052,-0.462968,-0.822711
6264573914,-45.939404,16.781763,28.842615,0.339319,-0.486125,-0.805132
6264593943,-47.695629,15.033016,26.657642,0.341527,-0.514311,-0.784816
6264613975,-51.449032,11.863080,21.981533,0.338915,-0.546854,-0.777673
6264634005,-54.730064,8.681990,16.994881,0.316938,-0.450586,-0.815118
6264654035,-54.130455,10.781800,19.896652,0.299818,-0.325093,-0.871295
6264674064,-50.878319,15.085200,28.111427,0.342456,-0.344867,-0.884022
6264694094,-47.867004,15.068815,30.251175,0.352733,-0.290988,-0.918961
6264714124,-44.285179,15.561218,32.932838,0.336915,-0.344222,-0.895153
6264734153,-43.207527,14.831391,32.636200,0.321226,-0.391504,-0.876947
6264754183,-44.925564,14.236425,31.821503,0.315213,-0.417898,-0.858483
6264774213,-47.026295,14.127619,32.374893,0.328291,-0.387078,-0.862276
6264794241,-48.123920,14.098071,33.178310,0.340511,-0.345606,-0.864432
6264814271,-48.440353,13.829392,34.272240,0.358551,-0.331125,-0.867748
6264834301,-48.461384,13.292768,35.376141,0.353437,-0.300502,-0.881060
6264854330,-47.812569,13.141601,36.719761,0.344022,-0.287796,-0.894515
6264874360,-47.222919,12.996707,37.570457,0.341458,-0.286301,-0.898286
6264894390,-47.150024,12.517983,37.930874,0.336124,-0.286169,-0.899650
6264914420,-47.263657,12.013702,37.184425,0.337489,-0.280056,-0.902858
6264934449,-47.287567,11.220034,36.539013,0.326832,-0.249434,-0.910051
6264954479,-46.445492,10.965231,36.791767,0.328778,-0.224801,-0.918921
6264974509,-45.113213,10.987064,38.596771,0.345801,-0.198625,-0.927440
6264994539,-43.229641,11.147362,41.705006,0.335607,-0.177972,-0.928054
6265014568,-41.093704,11.396544,44.478996,0.335576,-0.180561,-0.921414
6265034599,-39.206318,11.124899,45.900043,0.348625,-0.172986,-0.922228
6265054629,-38.039024,10.877767,46.683636,0.343887,-0.195628,-0.908090
6265074659,-37.698277,10.563988,46.716763,0.344287,-0.204133,-0.902684
6265094689,-38.246910,9.956666,46.334915,0.348589,-0.211993,-0.902687
6265114718,-39.097908,9.631967,45.768574,0.350962,-0.204123,-0.911522
6265134755,-39.745522,9.162891,45.597809,0.343940,-0.185821,-0.918679
6265154778,-39.807396,8.430521,45.012524,0.342045,-0.169714,-0.929608
6265174808,-39.676723,7.908628,43.940308,0.342968,-0.162140,-0.932992
6265194838,-39.432487,7.164964,42.741112,0.336186,-0.151732,-0.929993
6265214866,-39.353695,6.764266,41.410065,0.339316,-0.151735,-0.932772
6265234896,-39.252579,5.706614,39.417316,0.347444,-0.138016,-0.935435
6265254926,-39.233238,5.151964,37.480968,0.344371,-0.135993,-0.935375
6265274955,-39.395756,4.490646,35.226971,0.336895,-0.131234,-0.931253
6265294985,-40.029537,3.801123,32.897163,0.345331,-0.131471,-0.930844
6265315015,-40.774040,3.070593,29.513733,0.346491,-0.134814,-0.936881
6265335045,-41.798344,2.561645,25.938755,0.331573,-0.115199,-0.926170
6265355074,-42.168854,2.729689,25.527731,0.304920,-0.044626,-0.925768
6265375104,-40.233707,3.747575,32.495663,0.325544,0.004057,-0.939589
6265395134,-37.771118,3.444981,34.675457,0.346082,0.009819,-0.949884
6265415163,-34.654308,2.702874,36.207199,0.352180,0.021903,-0.951225
6265435193,-32.610500,1.944409,35.706558,0.339485,-0.022629,-0.954947
6265455223,-33.089348,2.084386,35.834045,0.330605,-0.078254,-0.934699
6265475254,-35.013786,1.858541,35.812263,0.339083,-0.071719,-0.939796
6265495284,-36.013351,1.546461,36.504372,0.338263,-0.004353,-0.932339
6265515313,-33.665340,1.046293,38.602371,0.355249,0.070912,-0.939492
6265535343,-29.923508,0.681432,40.123665,0.340604,0.092830,-0.933593
6265555373,-24.695082,0.648670,43.151730,0.335489,0.121841,-0.935965
6265575403,-20.472021,0.913380,44.774120,0.329056,0.061270,-0.929326
6265595433,-18.997824,1.143313,45.303654,0.327767,0.009908,-0.945616
6265615462,-18.973345,1.141480,44.795677,0.336921,0.003782,-0.935755
6265635490,-18.359215,0.849520,44.957657,0.324708,0.047276,-0.930439
6265655520,-15.775881,0.906450,47.854790,0.334728,0.080520,-0.940832
6265675550,-12.758300,0.723237,50.193077,0.341039,0.069166,-0.937274
6265695580,-10.461795,0.825422,52.513451,0.340201,0.033268,-0.934790
6265715610,-9.291176,1.232208,53.094429,0.336304,0.013275,-0.938416
6265735639,-9.375071,1.064765,52.966896,0.342421,-0.013652,-0.935370
6265755669,-10.043421,1.174587,52.882248,0.339315,-0.033932,-0.937526
6265775699,-11.188025,1.513448,52.249531,0.344341,-0.040253,-0.936681
6265795729,-12.340484,1.546868,51.316093,0.337583,-0.029654,-0.935141
6265815758,-13.097545,1.753949,50.586113,0.339347,-0.037430,-0.946961
6265835788,-13.970214,1.756866,50.077663,0.341219,-0.028370,-0.940639
6265855818,-14.522357,1.764502,49.212975,0.340653,-0.034155,-0.947731
6265875848,-15.453414,1.665878,47.840984,0.334153,-0.039528,-0.940857
6265895879,-16.269493,1.550404,46.165916,0.336568,-0.034220,-0.947798
6265915909,-16.735592,1.333464,44.294731,0.333703,-0.021980,-0.950653
6265935938,-16.989151,1.215113,42.650284,0.336733,-0.023473,-0.947696
6265955968,-17.281698,1.036814,41.226196,0.341987,-0.008975,-0.940355
6265975998,-16.845467,0.725842,39.977974,0.347703,-0.000711,-0.942195
6265996027,-16.670549,0.808828,37.763382,0.344692,-0.017299,-0.937102
6266016057,-16.807827,0.618788,35.353806,0.342532,-0.013372,-0.936553
6266036087,-16.702627,0.344219,33.089108,0.341112,0.004943,-0.936133
6266056117,-15.723381,0.317553,31.224609,0.328316,0.023318,-0.933980
6266076145,-14.675550,0.458634,31.822918,0.342023,0.030080,-0.936616
6266096175,-12.879190,0.600000,33.687798,0.336906,0.050516,-0.936875
6266116204,-10.459711,0.616101,35.500957,0.337320,0.052656,-0.944974
6266136234,-8.180734,0.682413,36.176308,0.333013,0.035645,-0.944288
6266156264,-6.987869,0.401747,36.080673,0.332602,0.005162,-0.949233
6266176294,-6.870671,0.596638,35.366375,0.324489,-0.007404,-0.941173
6266196323,-7.073085,0.655932,34.569660,0.333575,-0.009580,-0.936846
6266216353,-7.041290,0.486197,33.941780,0.359296,-0.008640,-0.938154
6266236383,-6.515976,0.436830,33.669495,0.345572,0.013607,-0.927125
6266256413,-5.409963,0.549725,35.033863,0.341733,0.018685,-0.934809
6266276442,-4.138793,0.679182,37.057816,0.341863,0.022151,-0.935779
6266296472,-2.492764,1.132962,38.783524,0.327107,0.018443,-0.940161
6266316502,-1.367283,1.547141,39.227936,0.324027,-0.001193,-0.943679
6266336533,-1.048190,1.446322,39.175861,0.326863,-0.032158,-0.947480
6266356563,-1.471306,1.912108,38.944283,0.319478,-0.037608,-0.942082
6266376592,-1.566791,2.291362,38.395138,0.331290,-0.036497,-0.942245
6266396622,-1.648878,2.259647,37.887367,0.337043,-0.045275,-0.942506
6266416652,-1.844305,2.327177,37.287716,0.338820,-0.048480,-0.941503
6266436682,-1.804334,2.248534,36.598423,0.337232,-0.042821,-0.941841
6266456712,-1.664471,2.359373,35.824184,0.333458,-0.051174,-0.942345
6266476741,-1.706606,2.501266,34.943447,0.332427,-0.058357,-0.943524
6266496770,-1.923584,2.338324,33.678497,0.327755,-0.056072,-0.939835
6266516800,-1.646762,2.455973,32.881523,0.335379,-0.049273,-0.942388
6266536829,-1.133650,2.541187,31.865055,0.339042,-0.056619,-0.936097
6266556859,-1.152566,2.208646,30.275595,0.347128,-0.077142,-0.939989
6266576889,-1.651179,1.734032,26.420046,0.337265,-0.098906,-0.946103
6266596918,-2.724195,1.541774,21.871872,0.312541,-0.092835,-0.929833
6266616948,-2.873970,2.541640,24.714277,0.306156,-0.034744,-0.919083
6266636978,-1.020277,3.695313,31.188194,0.340768,0.001261,-0.944845
6266657008,2.422946,4.060298,34.242382,0.342185,0.022871,-0.950283
6266677037,6.330029,3.849490,36.566166,0.340451,-0.003774,-0.955944
6266697067,8.616137,3.732805,37.159657,0.317923,-0.075884,-0.952868
6266717097,8.527207,4.204815,37.041916,0.313031,-0.134375,-0.945181
6266737127,6.923074,4.717685,37.635826,0.319451,-0.142702,-0.929816
6266757158,5.881852,5.433648,38.395103,0.333076,-0.113316,-0.922750
6266777187,6.341308,5.756651,40.106167,0.349881,-0.085698,-0.928247
6266797217,7.924668,6.182070,42.355251,0.342629,-0.072318,-0.934540
6266817247,10.313762,6.626338,44.687962,0.335812,-0.071245,-0.939388
6266837277,12.476007,7.460356,47.123447,0.316774,-0.096622,-0.941028
6266857306,14.223516,8.338931,48.572681,0.314189,-0.116790,-0.947373
6266877336,15.949981,9.391619,49.701992,0.311970,-0.126239,-0.949140
6266897366,17.730669,10.389490,50.460270,0.316110,-0.134034,-0.944489
6266917396,19.746037,10.913259,50.942101,0.323862,-0.142313,-0.938870
6266937424,21.468645,11.755772,50.678066,0.328764,-0.176761,-0.925324
6266957454,22.398825,12.237353,50.484924,0.332141,-0.190413,-0.915171
6266977484,23.723707,12.962094,50.790344,0.315536,-0.185152,-0.925069
6266997513,25.427650,14.243910,52.114857,0.326095,-0.197926,-0.932593
6267017543,27.450493,15.493896,53.530777,0.310210,-0.199859,-0.927848
6267037573,30.187967,16.923590,55.188160,0.311448,-0.204660,-0.933715
6267057603,33.146217,19.230806,57.839123,0.291738,-0.217361,-0.921463
6267077632,35.914589,21.898071,60.873653,0.311719,-0.248925,-0.918782
6267097662,38.144379,23.901960,62.715527,0.313012,-0.279675,-0.910829
6267117692,39.935295,25.638510,63.588917,0.316519,-0.321214,-0.898376
6267137722,40.586319,26.868423,63.662308,0.314819,-0.362187,-0.883627
6267157752,40.769577,28.517521,63.155712,0.311078,-0.393079,-0.861515
6267177781,40.041130,30.186054,62.466545,0.316470,-0.425700,-0.849496
6267197812,39.213043,31.626644,61.741325,0.314079,-0.435666,-0.840407
6267217842,38.877380,32.554310,60.922092,0.312028,-0.439364,-0.844491
6267237872,39.196922,33.966324,60.296242,0.316167,-0.458186,-0.838938
6267257901,39.372017,35.119205,59.346466,0.312639,-0.489034,-0.824673
6267277931,38.893959,35.915588,57.739716,0.310125,-0.511525,-0.807576
6267297961,38.552872,36.703484,56.087624,0.305410,-0.521860,-0.795150
6267317991,37.983055,37.317444,54.414124,0.315296,-0.546316,-0.782343
6267338021,37.213524,37.269569,52.541374,0.326729,-0.563818,-0.760774
6267358052,36.101627,36.696342,50.089046,0.321847,-0.587115,-0.743540
