Timestamp (us),Gyroscope X (deg/s),Gyroscope Y (deg/s),Gyroscope Z (deg/s),Accelerometer X (g),Accelerometer Y (g),Accelerometer Z (g)
7447824169,-1.323698,-2.278103,2.368526,0.954513,-0.022711,0.275827
7447844170,-2.251290,-1.663995,2.689152,0.963081,-0.019813,0.281433
7447864170,-3.759356,-1.150072,2.435334,0.965655,-0.022577,0.282687
7447884170,-3.849128,-0.717484,1.947425,0.967456,-0.031279,0.274356
7447904171,-2.505268,-0.387437,1.590221,0.967075,-0.039953,0.277495
7447924172,-2.465979,-0.165325,1.824614,0.965633,-0.041175,0.272574
7447944173,-2.573424,-0.309749,1.856157,0.960824,-0.043831,0.264083
7447964173,-1.772100,-0.162195,1.281877,0.959395,-0.042229,0.253189
7447984174,-0.314542,-0.028934,1.305013,0.951942,-0.035744,0.257028
7448004174,0.104186,-0.227296,1.531979,0.948243,-0.036682,0.262205
7448024174,-1.349183,-1.100247,1.496979,0.952437,-0.040769,0.262310
7448044175,-1.824661,-1.626045,1.281154,0.962769,-0.045447,0.255644
7448064174,-1.336169,-1.500372,0.731201,0.964634,-0.047385,0.256423
7448084174,-0.466760,-1.482311,0.225591,0.965342,-0.043381,0.257736
7448104175,-0.030894,-1.225371,-0.005544,0.967350,-0.041363,0.262013
7448124175,0.337558,-0.679459,-0.442864,0.963618,-0.044502,0.265763
7448144175,0.709844,-0.986040,-0.557165,0.967173,-0.042705,0.269603
7448164176,0.718421,-0.860647,0.171764,0.971937,-0.036533,0.269647
7448184177,0.165127,-0.162408,0.771473,0.974605,-0.034381,0.271465
7448204177,-0.384538,-0.296566,1.101364,0.961418,-0.033728,0.272143
7448244178,0.341996,0.098365,1.202645,0.956847,-0.037738,0.264679
7448264180,-0.001994,-0.046138,1.075683,0.958986,-0.026704,0.263893
7448284180,-0.664326,0.237643,1.031826,0.965418,-0.033508,0.261690
7448304180,-0.388806,0.478968,0.626709,0.959646,-0.037759,0.267353
7448324181,-0.435856,0.233753,0.339261,0.954233,-0.039727,0.267967
7448344181,-0.762682,0.427829,0.879426,0.953024,-0.036520,0.267906
7448364182,-1.268305,-0.087302,1.294435,0.958961,-0.038580,0.259788
7448384181,-0.408754,-0.578829,1.057158,0.960557,-0.042594,0.254848
7448404181,0.881566,-0.308418,0.958846,0.955934,-0.040278,0.270091
7448424182,0.527468,0.609023,1.267877,0.953162,-0.033042,0.282448
7448444182,-1.251809,1.841015,1.133632,0.950729,-0.024319,0.278550
7448464183,-2.173561,2.124853,0.946572,0.953683,-0.026164,0.268392
7448484183,-2.060776,1.781061,0.871622,0.955806,-0.036586,0.261093
7448504184,-0.825446,1.745032,0.432981,0.969766,-0.046998,0.252911
7448524184,1.254987,1.378209,-0.122012,0.971509,-0.046876,0.251376
7448544185,3.383833,-0.188057,0.483311,0.961478,-0.040087,0.259836
7448564185,3.865186,-1.719477,1.027607,0.955590,-0.035856,0.267283
7448584185,3.356439,-2.854525,0.951483,0.955021,-0.032009,0.268495
7448604187,3.507795,-3.099553,0.822714,0.960855,-0.032156,0.266823
7448624187,3.342497,-2.528471,0.554904,0.962288,-0.031485,0.271388
7448644188,3.205124,-2.565280,0.753281,0.961224,-0.022911,0.278178
7448664188,1.802885,-2.316067,1.024533,0.964777,-0.023090,0.277304
7448684189,-0.153787,-1.517652,1.007054,0.965004,-0.027538,0.271719
7448704189,-0.387544,-0.937362,1.035888,0.967360,-0.034476,0.266833
7448724188,-0.379297,-0.785673,0.867977,0.965100,-0.038812,0.265417
7448744189,0.085810,-0.847134,1.048516,0.960737,-0.040612,0.260202
7448764189,0.672959,-0.872419,0.886362,0.959638,-0.041046,0.260015
7448784190,1.290073,-1.019608,0.762621,0.960942,-0.041037,0.256197
7448804190,1.565417,-0.823711,0.426105,0.957875,-0.037717,0.261314
7448824190,0.412672,-0.982420,0.036924,0.959633,-0.029679,0.266590
7448844191,-1.157330,-0.681140,-0.071260,0.960616,-0.030423,0.266885
7448864191,-1.926533,-0.419717,-0.068931,0.967399,-0.043547,0.261864
7448884191,-0.985475,0.231569,-0.456149,0.973565,-0.046474,0.257046
7448904192,0.947966,0.981947,-0.255601,0.967959,-0.037719,0.263422
7448924194,0.329689,0.811783,0.485130,0.962450,-0.034846,0.265421
7448944194,-1.534578,0.124346,0.739941,0.963088,-0.048483,0.253596
7448964195,-0.284055,0.073096,0.316497,0.966418,-0.066750,0.246248
7448984195,1.395721,0.492513,-0.293424,0.973697,-0.069567,0.250743
7449004197,3.133874,1.774863,1.037905,0.982921,-0.051967,0.268262
7449024196,3.823581,3.777307,4.080610,0.999096,-0.075232,0.292681
7449044197,3.324376,5.909176,7.994483,0.994765,-0.104292,0.294725
7449064196,4.905816,9.118300,13.611421,1.012111,-0.123092,0.308963
7449084196,10.230042,13.495963,18.628410,1.007719,-0.168616,0.322935
7449104197,17.834080,14.258496,24.821674,0.986580,-0.181720,0.316083
7449124197,21.477993,13.198264,30.182566,0.997701,-0.147315,0.297423
7449144197,15.266923,10.943947,31.908209,1.027641,-0.171180,0.293986
7449164198,8.754465,9.366917,34.794861,1.007830,-0.243719,0.290340
7449184198,11.723999,9.094235,41.842316,0.965684,-0.275624,0.291683
7449204199,21.401936,9.324316,51.182247,0.950011,-0.246419,0.276482
7449224199,29.706791,8.203032,57.700020,0.944346,-0.186175,0.259810
7449244200,30.500011,6.246338,60.425827,0.934398,-0.140723,0.264029
7449264202,26.044022,5.983611,60.264992,0.953656,-0.139119,0.283992
7449284202,21.792883,8.836107,59.503948,0.958069,-0.135621,0.287175
7449304203,20.727386,9.379417,59.278370,0.918782,-0.152246,0.299623
7449324203,20.437140,4.728539,55.926674,0.897666,-0.149116,0.296535
7449344203,17.042835,0.134301,53.037262,0.913641,-0.161218,0.293962
7449364204,17.142368,0.415069,51.181297,0.936360,-0.186089,0.292110
7449384204,19.936583,3.040674,46.908604,0.935364,-0.193204,0.307990
7449404203,20.217930,1.640976,42.901211,0.928390,-0.201450,0.305857
7449424203,20.836918,-1.322730,42.159485,0.899468,-0.215441,0.314447
7449444204,20.039566,-2.226506,42.448399,0.873304,-0.209867,0.334895
7449464204,14.930688,-1.655709,40.782093,0.864000,-0.210316,0.359619
7449484205,9.561323,-1.043198,36.472221,0.882664,-0.229872,0.354726
7449504205,6.191351,1.416016,32.046055,0.884465,-0.256757,0.346309
7449524206,6.628518,3.901536,29.008251,0.851882,-0.285569,0.342866
7449544206,9.534392,4.160995,25.916073,0.835141,-0.297412,0.335400
7449564206,10.173480,2.621897,21.664503,0.831705,-0.288663,0.331856
7449584207,7.883055,1.035942,17.046558,0.846537,-0.294383,0.328901
7449604209,6.590271,0.816634,11.779520,0.861955,-0.305228,0.330773
7449624209,7.550256,0.979383,8.035524,0.846441,-0.299501,0.339559
7449644209,7.808814,-0.455952,4.545156,0.825751,-0.288474,0.348942
7449664209,3.843559,-3.077309,0.889473,0.824503,-0.269085,0.348905
7449684210,-2.475937,-5.017024,-3.533677,0.850562,-0.278248,0.344291
7449704210,-6.445325,-5.412139,-5.618770,0.858832,-0.308817,0.348493
7449724211,-7.171096,-5.646773,-5.682786,0.865013,-0.336800,0.358836
7449744210,-5.435891,-4.931607,-4.979616,0.876789,-0.351712,0.350610
7449764210,-3.253271,-3.164381,-4.047679,0.873596,-0.336949,0.354729
7449784211,-4.420923,-3.327251,-3.707237,0.864855,-0.325279,0.350539
7449804211,-7.109269,-3.970988,-4.383578,0.879622,-0.331614,0.342667
7449824212,-7.859663,-2.968908,-4.149114,0.899753,-0.334472,0.344282
7449844212,-6.913352,-1.364429,-2.891620,0.885460,-0.338503,0.346298
7449864212,-7.255072,-1.159765,-1.728289,0.869115,-0.341622,0.345543
7449884213,-8.776693,-1.992439,-1.345196,0.871612,-0.357655,0.334230
7449904213,-9.050904,-1.856624,-1.815718,0.883636,-0.369677,0.325049
7449924214,-6.818680,-0.781186,-2.035972,0.883822,-0.376689,0.318135
7449944216,-3.172658,-0.857785,-1.550723,0.861856,-0.369405,0.318167
7449964216,-2.049484,-2.162030,-0.957193,0.854113,-0.351504,0.318817
7449984217,-4.070153,-3.701969,-0.477423,0.863258,-0.353980,0.318218
7450004217,-5.485806,-4.673828,-0.443753,0.890274,-0.368570,0.316981
7450024217,-3.668133,-4.183685,-0.522672,0.888978,-0.368407,0.320067
7450044218,-1.876200,-4.347563,-0.248939,0.879503,-0.350764,0.331923
7450064217,-2.419531,-4.756410,0.044171,0.876483,-0.341007,0.335939
7450084217,-4.752162,-4.400487,-0.250760,0.883960,-0.351802,0.329521
7450104218,-4.850736,-2.565372,-0.843778,0.895878,-0.366153,0.316270
7450124218,-1.937363,-1.011072,-0.978122,0.887417,-0.362744,0.313305
7450144218,-0.763076,-1.127523,-0.716981,0.869143,-0.352620,0.313969
7450164219,-1.743455,-1.993904,-0.693377,0.864445,-0.350506,0.314984
7450184219,-2.500413,-2.322191,-1.235583,0.874775,-0.342767,0.305665
7450204220,-2.081912,-2.486027,-1.776305,0.869470,-0.338998,0.307104
7450224220,-1.662893,-4.262868,-1.572582,0.867653,-0.341056,0.313046
7450244221,-1.111972,-5.581632,-1.166355,0.874804,-0.336974,0.316704
7450264221,-2.252028,-6.223769,-2.199345,0.872869,-0.323341,0.319942
7450284223,-4.369727,-7.006189,-4.465926,0.859428,-0.295331,0.307153
7450304223,-9.124928,-9.120397,-6.136872,0.856215,-0.296134,0.297099
7450324224,-11.897102,-11.519705,-5.626976,0.860325,-0.304590,0.296723
7450344224,-13.816118,-12.540663,-4.982836,0.880541,-0.308871,0.307026
7450364225,-15.284984,-8.431289,-5.967470,0.901785,-0.302718,0.317453
7450404224,-18.053841,-6.213568,-11.124824,0.929868,-0.239953,0.285575
7450424224,-27.229149,-8.873862,-14.824925,0.901974,-0.238901,0.317751
7450444225,-30.688721,-9.259588,-19.480967,0.899200,-0.264636,0.338460
7450464226,-26.264963,-2.366249,-23.256094,0.927666,-0.244999,0.298127
7450484226,-20.666292,4.387015,-25.303308,0.952001,-0.162312,0.261619
7450504226,-25.602749,2.925385,-29.385374,0.943776,-0.124814,0.246183
7450524226,-43.433239,-2.361904,-34.249920,0.906703,-0.125959,0.282770
7450564228,-67.338997,-1.376041,-43.226398,0.995172,-0.154432,0.253723
7450584228,-66.257736,6.831072,-46.893425,0.996979,-0.151367,0.286349
7450604230,-66.096794,12.340791,-50.718803,0.999910,-0.067375,0.290288
7450624230,-68.657639,16.807848,-57.384369,1.012725,-0.035669,0.199808
7450644231,-76.520584,21.348751,-66.115875,0.976207,-0.036085,0.167520
7450664231,-84.029778,21.441460,-73.612938,0.969804,-0.026660,0.149615
7450684232,-84.868507,20.918158,-83.273087,0.987655,-0.015314,0.130374
7450704232,-89.690979,20.314890,-96.113998,0.958083,0.022566,0.122744
7450724233,-103.247917,16.188189,-107.835136,0.912298,0.017672,0.100375
7450744232,-119.946251,12.220387,-118.448334,0.982721,-0.071540,0.081749
7450764232,-120.873680,11.956471,-124.879555,1.144165,-0.161086,0.047533
7450784233,-101.498817,15.770536,-114.551445,1.156716,-0.144271,0.091368
7450804233,-74.010880,18.310255,-83.303261,1.173545,-0.255874,0.385237
7450824233,-66.820061,11.940708,-29.146770,1.208888,-0.477730,0.542519
7450844234,-71.561066,21.091120,29.910641,1.156980,-0.559066,0.397573
7450864234,-73.925056,22.784021,61.055843,1.139863,-0.644209,0.215910
7450884235,-55.104221,25.718273,85.061661,1.135693,-0.739779,0.131593
7450904235,-19.195522,31.252466,103.012169,1.071501,-0.690834,0.134391
7450924236,7.799660,23.313822,115.722115,1.041990,-0.562405,0.165415
7450944238,19.025345,15.014020,126.514725,1.033069,-0.416402,0.203490
7450964238,31.532948,18.761528,133.166000,1.041436,-0.277665,0.223153
7450984238,38.925419,24.093491,131.542618,0.986730,-0.152398,0.256252
7451004239,28.374001,21.175432,124.080688,0.886910,-0.061980,0.290253
7451024239,14.837333,16.776819,109.670540,0.758341,-0.007575,0.312386
7451044240,12.828032,18.946722,83.383774,0.684630,0.078731,0.313693
7451064240,5.534275,28.037935,42.081085,0.660882,0.240283,0.298293
7451084239,-21.031578,33.836697,-7.196733,0.648551,0.367176,0.304520
7451104239,-62.851295,26.950069,-56.940117,0.651118,0.447275,0.321741
7451124240,-112.053955,14.536452,-99.488953,0.738472,0.459881,0.423677
7451144240,-172.674820,1.726421,-106.578529,1.011649,0.177788,0.465606
7451164240,-216.969467,-16.513922,-58.622871,1.305347,-0.536951,0.136296
7451184241,-153.806427,8.612945,-39.715382,1.252851,-0.606345,-0.204225
7451204241,-126.484528,33.126858,-55.940308,0.934609,-0.385057,-0.051656
7451224242,-114.492332,30.157322,-86.888130,0.819911,-0.229267,0.062648
7451244242,-66.843086,28.732819,-108.445862,0.881270,-0.292666,0.093794
7451264243,-36.217754,27.767330,-100.852859,0.956860,-0.244464,0.162774
7451284245,-44.800701,26.870144,-95.695229,1.013059,-0.061242,0.172930
7451304245,-73.846848,26.025679,-101.319016,0.998478,-0.001567,0.224042
7451324245,-108.485863,20.051060,-108.360687,1.006654,-0.001232,0.215089
7451344246,-130.818680,19.736143,-117.361244,1.030605,-0.016387,0.150799
7451364246,-133.920029,23.349579,-129.150009,1.044247,-0.054999,0.064600
7451384247,-127.728340,29.379879,-143.553162,1.114247,-0.169441,-0.034278
7451404247,-102.119530,32.658802,-139.543396,1.102372,-0.234091,-0.008502
7451424246,-67.218636,19.730799,-104.763275,1.128420,-0.348081,0.183059
7451444247,-57.207584,3.914467,-58.556126,1.226736,-0.670054,0.361760
7451484248,-44.905231,1.801404,64.096130,1.166970,-0.747119,0.440059
7451504248,-52.903305,4.529710,91.523506,1.159258,-0.637974,0.369071
7451524248,-43.744728,15.267282,108.744278,1.113962,-0.509721,0.300878
7451544249,-32.888947,15.843876,121.139793,1.100971,-0.451825,0.318922
7451564249,-22.320084,13.548474,135.548248,1.127546,-0.373042,0.311502
7451584250,-0.983185,24.230003,146.489792,1.070218,-0.268338,0.301381
7451604250,15.097263,34.272758,146.515198,0.992064,-0.165401,0.308407
7451624252,16.134384,39.573551,142.565186,0.909561,-0.071573,0.301392
7451644252,2.605200,38.474640,127.752464,0.813398,-0.002077,0.314407
7451664253,-13.797679,33.323418,108.852409,0.767323,0.016046,0.318317
7451684253,-21.954025,35.818821,81.627129,0.695856,0.073258,0.341711
7451704253,-27.948702,40.746983,37.890400,0.611144,0.251437,0.298898
7451724254,-54.961037,38.736862,-23.235344,0.541792,0.435641,0.204426
7451744255,-101.223541,26.421673,-90.191917,0.416525,0.436966,0.168574
7451764253,-154.650070,9.995440,-137.300858,0.756123,0.238595,0.448508
7451784254,-214.214752,4.965572,-87.883873,1.495845,-0.598340,0.448382
7451804254,-156.567551,33.195896,-69.010849,1.139802,-0.456972,0.112056
7451824255,-139.092743,23.368843,-85.855858,0.940640,-0.295986,-0.209127
7451844255,-164.960754,23.527212,-121.257706,0.915341,-0.184480,-0.039516
7451864256,-141.945312,29.657442,-143.291916,0.975642,-0.313786,0.015527
7451884256,-85.971695,40.728962,-138.992584,0.971282,-0.431669,0.048764
7451904256,-53.190273,37.597874,-131.756775,1.025064,-0.333744,0.078906
7451924257,-52.101612,33.653618,-129.935226,0.995779,-0.210094,0.138374
7451944259,-73.142830,28.497490,-134.770508,1.037908,-0.185928,0.142532
7451964259,-90.765457,28.824932,-142.176834,1.097649,-0.122399,0.160127
7451984259,-95.248062,23.517679,-133.537460,1.109534,-0.019872,0.125833
7452004260,-97.079613,20.325819,-120.983322,1.086868,-0.143206,0.170280
7452044261,-94.656860,2.169727,-35.176380,1.260246,-0.790536,0.282219
7452064261,-73.665344,7.197875,23.652985,1.173919,-0.922746,0.310929
7452084260,-56.573830,12.200311,63.273964,1.067831,-0.779099,0.294518
7452104261,-48.214096,11.627993,82.829453,1.094511,-0.661851,0.256316
7452124261,-42.376793,8.616111,99.337402,1.116915,-0.583964,0.256349
7452144262,-26.377295,10.548531,119.393799,1.098503,-0.491809,0.252741
7452164262,-1.221671,12.163354,132.494415,1.042989,-0.415558,0.251740
7452184263,27.378962,15.610029,138.298431,0.980927,-0.267170,0.237980
7452204263,44.310368,23.980900,131.898499,0.894249,-0.050941,0.253032
7452224264,34.022835,29.480812,116.463501,0.772681,0.120464,0.285753
7452244264,13.173038,28.564831,89.114090,0.653256,0.255109,0.287590
7452264264,-6.471961,25.076851,39.208412,0.654801,0.434439,0.237052
7452284266,-42.189354,19.979286,-26.993126,0.689840,0.634661,0.215903
7452304266,-98.123421,15.094262,-100.641808,0.544071,0.643245,0.294848
7452324266,-156.584274,2.383216,-166.644150,0.798856,0.559651,0.509955
7452344267,-242.241364,-20.967901,-155.310364,1.413965,-0.014708,0.283340
7452364267,-214.833298,-4.776068,-105.490143,1.381968,-0.400798,-0.025109
7452384268,-170.113968,24.717182,-80.332344,1.235210,-0.438855,-0.113205
7452404268,-158.248245,50.455193,-96.818993,1.045335,-0.146711,-0.053565
7452424267,-141.191437,56.609894,-136.722519,0.954361,-0.116850,-0.026480
7452444268,-101.033043,57.756687,-167.293289,0.935726,-0.168120,-0.009552
7452464268,-67.243378,49.633625,-171.955231,0.970061,-0.083834,0.017046
7452484268,-54.995564,40.064182,-164.634430,1.061689,0.051435,0.051100
7452504269,-77.411224,26.666918,-156.970779,1.162224,0.075030,0.101919
7452524269,-116.398682,22.187668,-148.542282,1.275700,-0.007337,0.110803
7452544270,-138.858810,13.423236,-120.434410,1.162837,0.090435,0.213702
7452564270,-164.565033,8.854303,-93.896194,1.142382,-0.114556,0.196396
7452584271,-157.537964,9.944796,-70.139709,1.186381,-0.574460,0.299226
7452604271,-121.819847,10.766197,-8.508797,1.276284,-0.878062,0.275425
7452624273,-73.927887,18.549166,49.030106,1.152215,-0.908639,0.191000
7452644273,-36.323044,16.251360,84.015671,1.101351,-0.750369,0.236401
7452664274,-28.817867,12.107814,105.726669,1.127123,-0.551583,0.279123
7452684274,-34.195549,7.220426,120.440117,1.114671,-0.390715,0.283458
7452704275,-42.489006,-1.284262,134.377747,1.062231,-0.282783,0.296505
7452724275,-42.019291,-5.131888,148.307419,1.019864,-0.236555,0.294274
7452744275,-32.130276,0.147395,151.582016,0.954453,-0.183390,0.266163
7452764274,-21.554598,1.253112,148.184982,0.890709,-0.140522,0.219710
7452784275,-3.732100,-0.140256,138.154770,0.813713,-0.094725,0.199532
7452804275,22.910564,5.304300,115.164787,0.762060,0.063617,0.229782
7452824276,32.522087,19.519173,75.798271,0.742104,0.384701,0.302000
7452844276,-6.341981,33.939800,18.725428,0.670220,0.653087,0.362737
7452864277,-78.456726,33.232464,-51.782959,0.628182,0.647180,0.370432
7452884277,-149.298126,28.609318,-117.545029,0.746806,0.538751,0.433404
7452904277,-216.262619,4.710561,-153.265640,1.061522,0.368036,0.303100
7452924278,-250.052704,-14.915953,-136.083389,1.356334,-0.324865,-0.112095
7452944279,-200.533218,12.454831,-102.122688,1.328161,-0.716836,-0.216090
7452964281,-137.755051,34.626106,-77.948898,1.148610,-0.605217,-0.171815
7452984281,-100.344444,46.213116,-87.048340,0.978109,-0.205967,-0.126669
7453004281,-75.331390,41.730053,-119.127876,0.886377,-0.045567,-0.062831
7453044282,-70.272690,24.771101,-156.971985,1.001491,-0.018297,0.075829
7453064282,-84.386101,28.254858,-162.364441,1.085518,0.041525,0.073658
7453084296,-100.648613,30.516998,-167.764343,1.096801,0.074515,0.077004
7453104282,-130.066299,26.750505,-172.339661,1.264760,-0.039062,0.043863
7453124282,-139.167480,27.702803,-168.213959,1.327576,-0.134206,0.063197
7453144283,-117.666809,22.074066,-136.126266,1.253913,-0.117205,0.043130
7453164283,-100.573509,11.968903,-105.176064,1.049621,-0.257648,0.147583
7453184283,-96.914734,-1.436918,-62.560516,1.178132,-0.569640,0.191799
7453204284,-75.511543,-8.495546,1.139732,1.188325,-0.877805,0.213876
7453224284,-38.698166,-14.124697,55.332340,1.194990,-0.881219,0.213904
7453244285,-4.503002,-10.154802,93.147224,1.208358,-0.676306,0.310590
7453264285,4.497641,-1.072794,114.951027,1.171949,-0.472678,0.358085
7453284286,-4.902045,-1.509973,129.913437,1.125770,-0.320427,0.370970
7453304287,-19.460348,-4.461878,148.611694,1.120347,-0.195904,0.348935
7453324288,-24.871065,-2.850052,159.009811,1.113678,-0.123657,0.305615
7453344288,-21.261913,2.332327,158.992615,1.062294,-0.087560,0.255378
7453364289,-13.535306,3.411201,148.161377,0.961371,-0.038649,0.207728
7453384289,-4.574030,-0.565536,136.389893,0.886825,-0.000946,0.190983
7453404290,15.302081,8.640964,122.958527,0.831725,0.035102,0.208026
7453424289,30.861101,27.799068,94.143524,0.714249,0.187511,0.285229
7453444289,13.658035,40.694374,46.736195,0.646195,0.394168,0.325973
7453464289,-30.232544,44.173069,-14.998478,0.685012,0.557205,0.284727
7453484290,-91.064522,42.677849,-76.025261,0.692281,0.576349,0.311962
7453504290,-153.954544,35.858639,-130.528687,0.800869,0.583066,0.383189
7453524290,-223.535385,2.899569,-158.452545,1.082669,0.509639,0.313269
7453544291,-265.434662,-35.000137,-125.792175,1.359588,-0.238162,-0.223220
7453564291,-224.977478,3.049983,-84.945877,1.446705,-0.678757,-0.161938
7453584292,-162.904510,43.775562,-71.993607,1.187358,-0.381773,-0.165554
7453604292,-123.943710,62.741074,-100.207909,1.007951,-0.072781,-0.132794
7453624295,-101.535248,56.411884,-137.290329,0.905451,-0.043089,-0.052004
7453644295,-81.500732,47.990845,-158.462219,0.918550,-0.048283,0.004671
7453664296,-75.335983,40.520023,-162.544968,1.017060,0.033622,0.010698
7453684296,-89.847878,38.302406,-164.474838,1.077270,0.155758,0.014353
7453704296,-125.091148,29.988001,-168.395020,1.165216,0.122888,0.052048
7453724296,-160.757629,25.427807,-168.735779,1.375912,-0.007413,0.038019
7453744297,-162.869537,34.434292,-143.681549,1.325341,-0.045372,0.042107
7453764296,-151.284256,30.338085,-124.064018,1.083233,-0.139005,0.064642
7453784296,-143.472000,5.511125,-104.753250,1.087384,-0.493139,0.124307
7453804297,-106.704628,-10.293384,-48.112911,1.240537,-0.885421,0.127498
7453824297,-56.873894,-11.498718,19.048241,1.227991,-0.989271,0.138271
7453844298,-11.976665,-15.342649,68.537437,1.229307,-0.844150,0.237853
7453864298,11.744550,-6.170402,102.151344,1.189773,-0.618334,0.357401
7453884299,12.545545,6.245031,124.197868,1.116171,-0.432385,0.391293
7453904299,-1.016331,3.214059,138.013153,1.072414,-0.239312,0.350943
7453924299,-12.981627,-4.433841,153.597534,1.076822,-0.083532,0.304263
7453944300,-18.685181,-4.392320,157.407867,1.014802,0.018766,0.271509
7453964302,-15.918854,-7.987128,155.078552,0.932394,-0.013129,0.220271
7453984302,-6.863187,-13.271183,145.881119,0.894127,0.029936,0.174528
7454004302,9.446787,-11.649533,133.989899,0.856091,0.092966,0.196619
7454024303,29.416267,4.041286,109.889648,0.823640,0.169469,0.329935
7454044304,26.835625,24.222900,70.574577,0.786846,0.332128,0.448840
7454064304,-6.874404,49.485588,14.827325,0.684051,0.602859,0.500564
7454084304,-86.971588,59.556831,-56.255810,0.646311,0.757760,0.418993
7454104303,-177.895660,36.586662,-116.455048,0.681685,0.700685,0.218273
7454124304,-246.386749,12.683250,-154.083679,1.038377,0.524299,0.185807
7454144304,-279.493683,9.235264,-156.363831,1.361968,0.088785,-0.025809
7454164304,-261.437622,17.556931,-125.417938,1.416425,-0.598655,-0.237632
7454184305,-183.145203,44.070808,-97.595848,1.307410,-0.647719,-0.270267
7454204305,-118.359131,60.795433,-95.505409,0.995762,-0.218270,-0.204293
7454224306,-97.921371,47.957169,-123.445328,0.853567,0.060127,-0.075457
7454244306,-93.678421,35.615990,-157.529785,0.919842,0.082846,-0.009554
7454264307,-98.880127,35.968468,-174.917694,1.023644,0.079237,0.019094
7454284307,-107.601799,42.231159,-177.968781,1.051893,0.124550,0.025706
7454304309,-122.472359,37.942139,-176.308350,1.061365,0.103655,0.040717
7454324309,-139.181198,29.266077,-179.574402,1.361215,-0.043063,-0.035649
7454344310,-128.003159,26.747864,-165.160095,1.394490,0.001011,-0.000143
7454364310,-119.316269,9.584062,-130.674179,1.117716,-0.011872,0.112566
7454384311,-116.838188,-15.970257,-94.054871,1.091658,-0.386067,0.224777
7454404311,-96.796570,-27.295813,-28.892775,1.276997,-0.868924,0.254403
7454424312,-58.617393,-16.629530,42.569008,1.308833,-0.989640,0.283031
7454444311,-14.820279,-0.248277,84.068230,1.234247,-0.752680,0.398863
7454464311,-0.689183,11.903048,101.685455,1.175111,-0.502784,0.399718
7454484311,-16.343058,18.609821,112.760788,1.088775,-0.294661,0.350682
7454504312,-43.998180,8.645419,120.881203,1.031732,-0.176992,0.325860
7454524312,-65.652245,-8.854901,133.704727,1.093377,-0.121617,0.265609
7454544312,-61.194794,-11.424660,147.731995,1.108545,-0.097057,0.251064
7454564313,-44.690315,-9.160557,152.639114,1.032496,-0.136627,0.250906
7454584313,-19.563124,-3.563285,148.304123,0.971693,-0.153784,0.232405
7454604314,7.834012,5.629573,134.846069,0.862792,-0.042916,0.189105
7454624314,19.738949,6.160245,110.425804,0.702297,0.069787,0.184937
7454644316,17.108898,1.448167,81.232132,0.637588,0.195012,0.193946
7454664317,5.643251,9.069632,39.453613,0.673661,0.388581,0.255734
7454684317,-35.356628,20.399637,-19.434504,0.672841,0.491927,0.323371
7454704317,-90.166832,21.814899,-85.464355,0.729229,0.494715,0.392126
7454724318,-144.432220,14.577302,-141.091980,0.887764,0.677501,0.370937
7454744318,-190.971176,-16.997387,-170.556061,1.017120,0.649662,0.154477
7454764317,-243.173935,-34.515865,-155.525864,1.399811,-0.003538,-0.075091
7454784318,-240.869049,5.795190,-115.571846,1.538243,-0.556766,-0.115640
7454804318,-174.469849,48.534504,-88.483315,1.258351,-0.505873,-0.010418
7454824318,-125.559280,69.953300,-103.014580,1.037021,-0.148147,-0.064572
7454864319,-63.261635,55.245285,-163.130417,0.979113,0.111228,-0.022073
7454884320,-67.141403,36.490940,-166.424591,1.065512,0.153821,-0.011367
7454904320,-100.831284,27.073915,-165.521271,1.095454,0.145505,0.036312
7454924321,-143.525040,28.985247,-168.891418,1.225095,0.065880,0.044770
7454944321,-155.566208,31.653610,-156.674362,1.370546,-0.003781,0.093278
7454964323,-143.716888,18.450665,-119.545898,1.228383,-0.237054,0.206167
7454984323,-129.276169,-7.290152,-61.861816,1.049492,-0.621568,0.298390
7455004324,-100.628189,-20.785757,12.367209,1.221262,-0.915251,0.199641
7455024324,-59.367092,-4.551429,63.294266,1.217272,-0.920181,0.243096
7455044325,-14.933832,6.751470,97.016693,1.198938,-0.685196,0.317017
7455064325,-1.960935,15.908349,114.402000,1.127334,-0.481914,0.326308
7455084325,-11.202137,12.995086,118.507866,1.024395,-0.345603,0.341877
7455104325,-28.156797,-3.752177,125.629807,1.066617,-0.209799,0.295702
7455124325,-34.677612,-6.797536,140.598511,1.067725,-0.136329,0.273148
7455144325,-30.550798,-6.015856,148.790985,0.959908,-0.158144,0.285077
7455164326,-16.998135,-6.465840,148.761520,0.881636,-0.167588,0.239738
7455184326,8.322924,-4.604558,139.715805,0.789927,-0.093080,0.196713
7455204326,34.705887,-3.114015,122.163254,0.713739,0.075079,0.247728
7455224327,43.142593,6.968684,90.344177,0.733739,0.304785,0.339812
7455244327,19.872646,27.006424,32.331112,0.669573,0.582202,0.414171
7455264327,-48.008659,35.362156,-46.042210,0.620056,0.842532,0.491403
7455284328,-143.006683,8.881941,-120.615265,0.591988,1.016035,0.396326
7455304330,-230.486053,-45.815170,-167.243179,0.937759,0.794631,0.098545
7455324330,-297.427856,-47.860989,-162.338120,1.680073,-0.095003,-0.041949
7455344331,-260.502960,7.410073,-114.676353,1.595610,-0.810861,-0.075858
7455364331,-137.256058,54.829662,-91.220009,1.191333,-0.517651,-0.011642
7455384331,-75.847321,75.243820,-104.367538,1.090162,0.059314,-0.054911
7455404332,-61.518726,71.825363,-141.844223,0.958664,0.289746,-0.066616
7455424332,-73.694366,52.460102,-163.320923,0.935830,0.231366,0.038038
7455444331,-106.582954,33.031460,-160.316467,1.042191,0.188515,0.034385
7455464332,-148.397278,29.647043,-155.884888,1.115778,0.180362,0.005697
7455484332,-180.342743,31.461729,-157.160675,1.135909,0.094370,-0.008559
7455504333,-194.191849,31.812111,-154.158051,1.282985,-0.097694,-0.005131
7455524333,-173.990891,31.295723,-144.847610,1.190176,-0.169552,0.006897
7455544333,-129.056671,9.872026,-117.377762,1.102325,-0.189533,0.157557
7455564334,-103.102676,-1.092163,-69.175636,1.202936,-0.546507,0.244234
7455584334,-85.080750,-1.197973,2.009088,1.309741,-0.968572,0.244679
7455604335,-47.351780,5.368121,65.504616,1.215319,-0.965020,0.295850
7455624335,-8.412525,12.972978,99.200493,1.119402,-0.676930,0.408309
7455644337,-13.722753,16.732937,107.582184,1.116461,-0.393574,0.442055
7455664337,-43.727562,11.983254,112.505562,1.110989,-0.195603,0.394171
7455684338,-80.556778,0.175757,126.968468,1.087503,-0.091714,0.313709
7455704338,-99.676483,-9.584476,147.975433,0.975589,-0.131064,0.269494
7455724338,-93.096474,-21.073040,157.283829,0.910970,-0.277085,0.210155
7455744339,-52.919788,-20.657267,154.583054,0.890904,-0.356258,0.187270
7455764342,3.092444,-8.039473,145.553558,0.856138,-0.278345,0.225129
7455784339,49.225258,9.071170,122.839622,0.770265,-0.004961,0.284007
7455804340,53.505394,22.074726,80.501221,0.657961,0.379636,0.331606
7455824339,2.543281,21.887138,21.315653,0.598861,0.639671,0.342248
7455844340,-69.496002,13.883216,-44.159641,0.593774,0.677883,0.311509
7455864340,-132.109619,13.781471,-111.537643,0.696868,0.720970,0.514842
7455884340,-205.357010,1.942201,-177.734756,0.810631,0.871941,0.389430
7455924341,-276.098389,-4.457273,-179.943604,1.891092,-0.530541,-0.206079
7455944342,-192.502792,41.627777,-116.867142,1.361398,-0.807926,0.010949
7455964344,-102.304138,64.673706,-104.373566,1.051093,-0.196582,-0.010690
7455984344,-70.208405,71.170151,-138.807419,1.066285,0.203734,-0.086103
7456004344,-79.220032,64.574867,-175.045975,0.942168,0.284696,-0.018360
7456024345,-104.574280,47.281147,-180.551285,0.933436,0.193892,0.026731
7456044345,-133.817780,32.408340,-176.193436,1.045092,0.148380,-0.008935
7456064346,-152.298553,35.546909,-171.632034,1.129865,0.080577,-0.015797
7456084346,-159.689407,29.951492,-164.399139,1.216303,-0.029570,0.050982
7456104345,-156.287567,19.272348,-142.107803,1.287746,-0.109018,0.112669
7456124346,-134.312317,6.908811,-105.272583,1.208750,-0.236287,0.205320
7456144346,-129.529953,-3.677906,-68.944412,1.108555,-0.484855,0.207309
7456164346,-115.262993,-13.217029,-36.053616,1.176767,-0.555183,0.170948
7456184347,-85.402504,-10.527687,-5.622478,1.184591,-0.488876,0.178673
7456204347,-48.913116,-9.839315,13.456837,1.151245,-0.319835,0.234119
7456224347,-31.303080,-15.112872,26.265978,1.033797,-0.132993,0.233623
7456244348,-32.704536,-18.793579,34.017590,0.942849,-0.004343,0.220788
7456264348,-43.789047,-18.818155,31.887327,0.931074,0.056559,0.253758
7456284349,-51.442890,-11.945084,23.053101,0.973575,0.034753,0.266744
7456304351,-44.744633,0.004724,20.878517,0.916258,-0.027134,0.303969
7456324351,-35.853863,5.609999,23.153090,0.895876,-0.055851,0.299827
7456344352,-36.708305,3.598933,26.304636,0.924182,-0.036099,0.280014
7456364352,-45.488392,-0.193486,30.199602,1.009378,-0.098153,0.268964
7456384353,-42.494358,-2.076713,40.157192,1.119160,-0.156381,0.288477
7456404353,-32.755646,4.438710,51.664558,1.096345,-0.114246,0.346800
7456424353,-30.048702,12.247862,53.539429,0.994331,-0.039225,0.400536
7456444352,-42.501598,13.525515,48.612953,0.900074,0.019559,0.398410
7456464353,-58.655617,11.556401,40.154015,0.851989,0.063816,0.319803
7456484353,-66.159576,6.453218,30.332287,0.827206,0.088703,0.237076
7456504353,-73.627609,-2.153487,18.124887,0.816229,0.087610,0.195297
7456524354,-74.623909,-6.906473,7.207943,0.830504,0.012299,0.200885
7456544355,-56.705643,1.207243,-6.285517,0.842639,-0.042023,0.266149
7456564355,-39.387493,8.772322,-24.941299,0.844653,0.027905,0.327761
7456584355,-43.597496,9.174011,-42.622738,0.917854,0.111538,0.328125
7456604356,-62.754986,7.931811,-53.966599,1.028454,0.107675,0.336413
7456624356,-82.632126,8.163767,-53.816055,1.054915,0.031434,0.352263
7456644358,-91.588348,10.748360,-49.485638,1.012468,-0.078132,0.332174
7456664358,-89.013817,14.530739,-46.231628,0.995696,-0.159282,0.290380
7456684359,-83.651703,19.315403,-45.457085,0.986097,-0.192346,0.246187
7456704359,-76.986206,20.662361,-45.280861,0.975182,-0.218868,0.212552
7456724359,-67.813057,17.865795,-41.024052,0.974541,-0.244580,0.193602
7456744360,-57.343414,12.802693,-31.519363,0.987560,-0.270551,0.195774
7456764359,-49.125340,9.000533,-21.136179,0.965117,-0.279451,0.226699
7456784359,-43.636269,5.857456,-13.304489,0.956850,-0.289193,0.257870
7456804360,-37.816849,3.421519,-7.324153,1.020534,-0.310828,0.250634
7456844361,-17.461824,-1.367206,29.225773,1.003588,-0.359897,0.347634
7456884362,-10.282994,4.049790,56.997192,0.945970,-0.252776,0.334462
7456904362,-16.557421,-0.866085,63.469574,1.008860,-0.190171,0.273109
7456924362,-18.965343,2.361323,68.967857,0.929503,-0.147640,0.313434
7456944363,-25.603891,-1.295308,52.691391,0.781103,0.020517,0.428850
7456964364,-42.321587,-6.641885,16.330379,0.753758,0.411296,0.322780
7456984365,-65.745415,-14.390552,-30.605381,0.546471,0.701660,-0.034588
7457004366,-102.535233,-29.689392,-87.492188,0.552994,0.476015,0.132861
7457024366,-140.809601,-24.078678,-104.205719,1.316595,-0.059158,0.355377
7457044366,-91.146309,10.834240,-81.321663,1.225588,-0.454039,0.342467
7457064367,-40.375416,8.260249,-58.318340,0.947098,-0.352482,0.248528
7457084367,-41.894413,9.999189,-46.122356,1.060933,-0.282935,0.195062
7457104366,-53.188759,22.940022,-54.253113,0.938565,-0.110253,0.182420
7457124367,-50.750832,20.431581,-67.392128,0.858576,-0.037990,0.228575
7457144367,-47.668480,16.300112,-73.406158,0.931849,-0.076298,0.290104
7457164367,-33.636288,25.538052,-73.876900,1.007846,-0.085649,0.333703
7457184368,-17.931843,29.605335,-68.662735,0.980986,-0.040055,0.348147
7457204368,-19.116598,23.418304,-61.919064,0.927587,0.022898,0.310338
7457224369,-33.738365,17.998960,-55.619049,0.930807,0.084217,0.312165
7457244369,-55.460243,14.762896,-51.409111,0.903621,0.109830,0.340140
7457264370,-71.219925,13.081369,-51.960247,0.904076,0.099124,0.335930
7457284370,-67.306755,18.545506,-56.752476,0.912624,0.071643,0.289553
7457304372,-48.895687,21.444233,-58.460773,0.906215,0.078719,0.266302
7457324372,-34.730034,15.094901,-59.241436,0.963690,0.082967,0.235346
7457344372,-31.221720,10.242606,-60.990913,1.027546,0.079007,0.262867
7457364373,-32.070606,8.183783,-61.517250,1.042758,0.041719,0.316043
7457384373,-31.114693,5.238077,-59.844013,1.093160,-0.040762,0.337885
7457404374,-21.360310,2.029543,-48.778999,1.253194,-0.167818,0.456473
7457424393,-14.218041,0.566282,-15.063939,1.315468,-0.505816,0.618182
7457444374,11.115449,-1.091858,48.168320,1.273030,-0.844864,0.519525
7457464374,51.174759,3.436338,107.748779,1.282266,-0.854977,0.430016
7457484374,84.390388,10.082320,144.917664,1.398516,-0.726554,0.358885
7457504375,108.962822,12.739398,171.801407,1.388031,-0.590652,0.292292
7457524375,112.760666,12.682377,200.950577,1.279457,-0.388064,0.268201
7457544376,85.258331,2.107936,230.298004,1.083693,-0.181834,0.324907
7457564376,40.922607,-13.819537,251.113708,1.029152,-0.016425,0.323823
7457584376,-2.408549,-13.616116,270.149475,0.948406,0.093392,0.261485
7457604377,-24.287918,-23.870583,268.654449,0.782112,0.104972,0.227251
7457624377,-29.091776,-43.886944,244.456863,0.610308,0.141908,0.171592
7457644379,-23.941975,-65.668617,189.604065,0.491121,0.317768,0.144338
7457664379,6.877990,-63.044144,96.177139,0.460263,0.620088,0.038953
7457684380,33.241062,-33.193157,-10.165325,0.452292,0.845952,0.380202
7457704380,-25.617191,-32.179451,-82.953476,0.609367,0.515324,0.701834
7457724380,-125.785660,-41.231213,-73.274887,1.682072,-0.634634,0.430473
7457744381,-80.834229,36.415142,-46.049026,1.252701,-0.994111,0.154284
7457764380,-35.270802,47.514526,-53.435642,0.724808,-0.629620,0.163163
7457784380,-6.325870,16.093624,-87.782028,0.663869,-0.462019,0.032545
7457804381,38.522911,4.706048,-110.429314,0.797325,-0.367465,0.116720
7457824381,44.548550,4.773960,-111.847824,0.823029,-0.106272,0.327598
7457844382,3.169920,-2.710845,-113.266327,0.818734,0.094703,0.485008
7457864382,-40.693420,6.246091,-110.803978,0.873905,0.102163,0.535344
7457884382,-63.509850,23.891531,-109.579041,1.041456,-0.039459,0.447626
7457904383,-65.523483,39.202293,-114.077271,1.045862,-0.176457,0.358741
7457924383,-58.627670,38.415730,-121.582947,0.977935,-0.227539,0.303108
7457944384,-43.862083,38.949936,-130.521225,1.025337,-0.221151,0.216284
7457964384,-27.019886,41.485340,-139.105713,1.061399,-0.152634,0.121733
7457984386,-16.581848,28.689920,-136.253235,1.059885,-0.083922,0.131243
7458004386,-32.650406,1.149467,-118.036980,1.247418,-0.219793,0.201807
7458024387,-38.986237,-5.117238,-69.571861,1.431115,-0.639000,0.325304
7458044394,-19.863529,-14.844830,4.098441,1.309739,-0.930465,0.353918
7458064388,1.295353,-17.124897,68.788864,1.339276,-1.034145,0.394393
7458084388,7.844424,-5.987838,111.105164,1.205492,-0.786889,0.392440
7458104387,5.378035,-11.797666,129.229187,1.177874,-0.533817,0.223627
7458124388,1.220037,-16.863413,144.036652,1.107492,-0.416894,0.145960
7458144388,3.638429,-23.941643,164.522690,1.026071,-0.369175,0.126437
7458164389,17.610735,-28.260635,185.217041,0.900574,-0.269542,0.162866
7458184389,43.681183,-23.631964,184.651413,0.725933,-0.094836,0.195184
7458224390,53.019119,1.694912,90.338181,0.531413,0.769509,0.294787
7458244390,-0.504919,6.749606,-15.086215,0.344214,1.107382,0.142586
7458264390,-71.322739,-10.076980,-133.623657,0.441516,1.110644,0.355867
7458284391,-157.959595,-29.279238,-197.507233,1.247233,0.622733,0.481300
7458304393,-194.109085,6.901409,-154.091110,1.767789,-0.725736,0.232515
7458324393,-96.839363,65.740067,-107.845856,1.205888,-0.889777,0.298977
7458364394,-50.546196,60.214645,-118.549751,1.087579,-0.313153,0.142980
7458384394,-47.000061,59.610699,-129.772217,1.071011,-0.187047,0.176906
7458404395,-44.645073,63.101448,-120.542816,0.925467,-0.097598,0.202435
7458424395,-53.754116,50.165794,-125.169357,0.935069,-0.104067,0.202996
7458444394,-48.737911,55.344299,-133.301437,1.124527,-0.224422,0.172728
7458464395,-35.000126,53.888844,-119.990356,1.214524,-0.347390,0.193767
7458484395,-17.933954,21.622667,-75.025185,1.115614,-0.787968,0.247429
7458504396,14.026772,-4.715272,0.789588,1.115111,-1.333229,0.201984
7458524396,73.530403,-9.343504,70.650230,1.080368,-1.324544,0.268271
7458544396,139.497681,-8.297110,108.956383,1.228293,-0.863400,0.352250
7458564397,169.422333,2.646901,145.254486,1.413462,-0.308767,0.347873
7458584397,138.255066,6.523938,185.876160,1.267156,0.048695,0.380040
7458604398,60.318138,-11.642485,211.536713,1.066115,0.131419,0.387052
7458624398,-6.368716,-27.919312,217.622208,0.969480,0.079781,0.300856
7458644400,-19.260900,-35.375340,208.519699,0.936989,0.002491,0.219621
7458664400,5.851744,-34.933815,192.520370,0.875406,0.007332,0.206156
7458684401,36.775517,-30.634027,168.626907,0.727703,0.132899,0.205112
7458704402,58.478706,-23.686279,123.386612,0.556718,0.436535,0.206387
7458724402,33.318699,-26.774643,54.574360,0.369106,0.758312,0.320052
7458744402,-46.079288,-50.098930,-31.962019,0.307171,0.910335,0.357228
7458764403,-110.759430,-66.872200,-111.049187,0.743823,0.424190,0.357873
7458784402,-180.873291,-26.063791,-135.292572,1.626163,-0.598775,0.445869
7458804402,-100.089409,35.362156,-101.667030,1.400449,-1.083038,0.359000
7458824402,-1.338722,47.961098,-66.321556,0.974881,-0.660496,0.186496
7458844402,0.713643,42.212807,-73.022690,0.883318,-0.273094,0.149521
7458864403,-6.293505,35.723896,-98.381042,0.844063,-0.194409,0.158406
7458884404,-5.544414,34.766369,-116.762932,0.808339,-0.131239,0.257232
7458904404,-22.474382,21.882078,-126.506302,0.800063,0.020663,0.321038
7458924404,-37.896538,23.222946,-135.994293,0.889618,0.039852,0.333503
7458944405,-28.839249,43.820656,-138.127670,0.890653,-0.076435,0.321162
7458964405,-20.611322,51.125397,-134.816666,0.835810,-0.123726,0.289319
7458984407,-28.084801,43.059422,-132.526947,0.915663,-0.084499,0.232966
7459004407,-37.159939,37.516171,-137.947098,1.091710,-0.051818,0.204773
7459024408,-25.712954,33.124203,-132.705551,1.292993,0.007392,0.263630
7459044408,-4.324611,19.562712,-114.290581,1.441510,-0.162294,0.441774
7459064409,1.230497,-3.015713,-68.860771,1.419609,-0.747847,0.572872
7459084409,26.357433,-17.748898,7.639346,1.292697,-1.173371,0.499959
7459104417,91.908630,-13.511074,83.998001,1.192231,-1.008136,0.494858
7459124409,145.627487,3.476821,130.730698,1.127823,-0.647588,0.546410
7459144409,150.391266,16.413733,155.788895,1.193318,-0.321461,0.468721
7459164409,109.106926,24.890615,179.382996,1.333427,-0.045980,0.354614
7459184410,56.695248,31.334930,210.020950,1.138161,0.059172,0.355685
7459204410,8.558825,14.888120,231.631516,0.976348,0.043963,0.342705
7459224411,-22.062193,-4.688825,240.143417,0.894244,0.002738,0.275194
7459244411,-22.686201,-12.148074,236.084045,0.963103,-0.056988,0.218335
7459264411,-12.556041,-11.339281,229.263107,0.910725,-0.081876,0.231143
7459284412,15.480870,-15.640933,201.910889,0.743623,-0.048795,0.192557
7459304412,48.198299,-18.512890,155.410919,0.610316,0.170352,0.139138
7459324414,49.871681,-29.122633,92.255295,0.449133,0.436243,0.255295
7459344414,2.263005,-42.594822,13.531141,0.471419,0.663101,0.431275
7459364415,-52.490589,-45.950027,-77.897125,0.399488,0.849290,0.357362
7459384415,-102.846558,-63.640545,-150.502533,0.543640,0.428939,0.380414
7459404416,-209.625092,-82.158257,-122.732811,1.655261,-0.843736,0.192695
7459424416,-124.212509,22.258049,-94.300858,1.576596,-0.877104,0.298136
7459444415,-53.943325,42.337273,-95.510803,0.852413,-0.574074,0.301514
7459464416,-21.306692,39.985306,-125.476608,0.851972,-0.327293,0.247913
7459484416,9.975791,56.897972,-144.025757,0.966477,-0.279465,0.157844
7459504417,11.972342,67.472549,-154.478714,0.923441,-0.167819,0.164817
7459524417,-1.137401,54.836380,-169.187851,0.812554,0.055092,0.128168
7459544417,-18.068743,31.033121,-187.066223,0.784849,0.197680,0.185627
7459564418,-42.568520,21.855652,-191.358307,0.838226,0.152814,0.191415
7459584418,-65.970161,31.389738,-186.887039,0.975874,-0.029708,0.237838
7459604418,-86.320869,44.733715,-187.644897,1.351361,-0.230354,0.183221
7459624419,-61.429363,50.399277,-175.929321,1.649627,-0.153935,0.184412
7459644421,-17.191809,22.004227,-134.692673,1.375468,-0.520882,0.448260
7459664421,6.667763,-12.695314,-58.217857,1.326439,-1.308215,0.516144
7459684422,51.284359,-15.603684,31.271282,1.308847,-1.291784,0.469377
7459704422,123.029198,-2.063488,82.048508,1.295037,-0.779600,0.526223
7459724431,171.532104,4.476878,122.119377,1.405394,-0.310514,0.455181
7459744423,161.723282,9.924345,164.095413,1.405619,0.024475,0.391840
7459764424,99.485626,16.313324,207.940552,1.145393,0.124902,0.379376
7459784422,53.598732,11.404211,227.885101,0.989339,0.159443,0.351278
7459804423,10.070057,10.338955,229.912582,0.880689,0.228350,0.272868
7459844423,-38.269730,-8.778148,205.529816,0.956651,0.036312,0.166394
7459864424,-36.408348,-11.263974,198.495605,0.888352,-0.048557,0.175858
7459884424,-2.054456,-16.340410,180.442459,0.795723,-0.148222,0.163504
7459904425,52.467907,-16.815100,150.915314,0.686309,-0.094546,0.201166
7459924426,85.754234,-13.955597,105.845818,0.586815,0.180258,0.294730
7459944426,59.402466,-9.823991,42.637394,0.664441,0.520977,0.378026
7459964426,-10.583036,-8.603043,-28.398609,0.587668,0.648713,0.481102
7459984428,-82.395905,-11.739839,-98.107040,0.562940,0.577714,0.539684
7460004428,-147.164291,-16.044668,-149.254364,0.671080,0.361741,0.561605
7460024428,-210.328918,-52.677643,-125.880173,1.213026,-0.522113,0.134318
7460044429,-150.950424,7.554945,-99.408829,1.433755,-0.854581,0.167554
7460064429,-84.964798,44.173252,-94.944260,1.009828,-0.692452,0.196826
7460084430,-44.065434,49.385761,-100.329857,0.922967,-0.439907,0.189243
7460104430,-10.131840,50.138222,-113.027176,0.939800,-0.301828,0.137396
7460124429,5.943552,45.847710,-127.284309,0.959392,-0.127230,0.094136
7460144430,-2.281018,35.488834,-141.235764,0.937400,0.075111,0.098468
7460164430,-25.179939,26.083832,-160.573227,0.863405,0.129587,0.123886
7460184431,-46.882919,26.264427,-180.605560,0.894469,0.063574,0.124392
7460204431,-51.256535,38.188232,-190.085587,1.082188,-0.003174,0.197636
7460224432,-42.999454,31.092577,-177.947388,1.342273,-0.091494,0.293649
7460244432,-29.538021,19.253721,-148.150620,1.334026,-0.350462,0.391133
7460264432,-23.139639,4.886392,-94.296242,1.314739,-0.640716,0.458612
7460284433,-9.924726,1.521240,-41.373978,1.316265,-0.959858,0.444010
7460304433,13.965932,-4.776961,16.870340,1.250957,-0.995897,0.452481
7460324435,59.314049,-7.347795,71.450859,1.161852,-0.778032,0.444861
7460344435,104.051804,-2.453705,117.549866,1.147824,-0.464734,0.356534
7460364436,118.568390,9.638161,143.859222,1.137627,-0.180373,0.297333
7460384436,93.842430,11.671821,162.718109,1.121366,-0.015098,0.241906
7460404437,62.079971,1.067978,184.865753,1.070599,-0.042984,0.180982
7460424437,47.289360,-9.196103,203.461426,1.055305,-0.116829,0.143561
7460444437,32.240280,-9.945501,211.870041,1.001113,-0.084512,0.174444
7460464436,20.680178,-16.207211,201.342575,0.949319,-0.080276,0.222203
7460484437,18.727154,-29.081968,183.095444,0.962976,-0.097498,0.188763
7460504437,28.634830,-30.700579,165.814636,0.925341,-0.078129,0.152512
7460524438,41.948471,-33.847481,140.112717,0.795773,-0.025447,0.135348
7460544438,49.738503,-40.523464,114.626831,0.703699,0.005853,0.178818
7460564439,44.879707,-40.396454,83.506371,0.710435,0.017944,0.290441
7460584439,25.114307,-32.911564,41.773979,0.819518,0.014533,0.423308
7460604439,-3.628540,-20.507835,1.321791,0.807634,-0.046351,0.540790
7460624439,-26.067465,-6.781178,-29.658422,0.781644,-0.152308,0.543160
7460644440,-35.683586,8.606780,-45.019711,0.769175,-0.157922,0.494502
7460664442,-54.518398,22.205997,-52.229889,0.820201,-0.157092,0.418472
7460684442,-73.071846,35.482395,-58.193600,0.839846,-0.288406,0.361853
7460704442,-72.101105,38.321281,-65.232689,0.861362,-0.494070,0.270729
7460724443,-43.819412,37.101841,-74.179184,0.943911,-0.597038,0.179098
7460744443,-13.952393,33.445133,-78.341873,1.041055,-0.573316,0.163840
7460764444,6.246015,27.629263,-70.686852,0.998383,-0.574281,0.230104
7460784444,11.032632,18.540033,-54.860893,0.952454,-0.746672,0.318673
7460804443,14.352175,14.372861,-43.952118,0.771903,-0.948289,0.395207
7460824444,28.840149,6.027764,-37.612225,0.655010,-0.848707,0.459818
7460844444,34.269966,-4.081446,-22.650913,0.934248,-0.575609,0.398047
7460864444,35.811188,-9.960998,17.158821,1.244520,-0.401509,0.267874
7460884445,33.796661,-11.643898,76.602455,1.013757,-0.393537,0.368777
7460904446,21.226194,-17.902845,119.730881,0.810277,-0.464217,0.432578
7460924446,19.571770,-16.711935,125.546532,0.669501,-0.436881,0.387321
7460944447,26.436731,-16.346601,106.750755,0.623955,-0.341037,0.302748
7460964447,30.704109,-12.826784,81.037155,0.630954,-0.160578,0.313728
7460984447,26.369604,-9.623008,47.810539,0.605716,0.121568,0.414129
7461004449,2.215677,-12.770132,-6.909266,0.378811,0.495536,0.381380
7461024449,-40.817493,-33.181957,-84.710938,0.230174,0.833128,0.126952
7461044450,-99.026207,-60.750507,-164.439850,0.736904,0.501183,0.277354
7461064450,-162.145126,-32.038074,-198.091156,2.012164,-0.352946,0.415421
7461084451,-90.406021,55.367458,-172.863327,1.206110,-0.668040,0.548151
7461104451,-27.225040,68.023148,-154.872101,0.900964,-0.370181,0.353600
7461124451,-4.338216,69.502563,-162.255920,0.928534,-0.168431,0.186770
7461144450,-16.639732,61.641037,-176.177277,0.959592,-0.096524,0.181964
7461164451,-41.255222,56.391529,-173.799225,1.137055,-0.122187,0.125310
7461184451,-56.413326,44.871540,-161.458023,1.291976,-0.132347,0.070472
7461204451,-48.910637,27.275055,-141.905045,1.334366,-0.338252,0.101427
7461224452,-3.663780,1.534780,-90.030792,1.201101,-0.943024,0.331764
7461244452,38.847775,-12.640116,-17.389484,1.223001,-1.370756,0.445645
7461264453,91.309341,-7.513337,50.445286,1.308177,-1.143480,0.470831
7461284454,146.164673,9.634090,110.744476,1.422831,-0.736248,0.505225
7461304454,170.867340,21.061022,163.972778,1.477368,-0.365315,0.385051
7461324454,144.126999,22.146637,205.475998,1.316349,-0.059692,0.362133
7461344456,82.857765,5.542556,218.195251,1.157312,0.124726,0.321212
7461364456,26.735291,-11.446962,215.215302,1.042953,0.177606,0.245180
7461384457,1.425000,-25.938444,210.563416,0.910953,0.171195,0.224155
7461404457,-2.691253,-35.376404,197.083008,0.783973,0.120352,0.180330
7461424458,1.557958,-33.929104,184.685303,0.686253,0.097410,0.166655
7461444458,15.362396,-36.776260,161.411591,0.648456,0.124843,0.160015
7461464458,32.867100,-30.620043,117.219986,0.601503,0.188029,0.275055
7461484457,22.694946,-25.749657,48.895939,0.499405,0.406605,0.532917
7461504458,-19.097424,-37.032314,-42.358009,0.346225,0.870783,0.173150
7461524458,-64.616638,-66.033752,-130.611664,0.350135,0.740652,-0.078211
7461544458,-175.553802,-67.569664,-186.447021,1.397167,0.062495,0.476093
7461564459,-178.557190,9.332375,-179.220581,1.866619,-0.544733,0.404953
7461584459,-76.453049,58.030823,-164.017517,1.000480,-0.579801,0.470019
7461604460,-34.292557,61.881073,-151.825439,1.084945,-0.381703,0.291139
7461624461,-16.657827,80.086594,-154.883865,1.045540,-0.201959,0.126253
7461644461,-13.658113,80.437180,-169.383484,0.905145,-0.105485,0.116699
7461664461,-34.946163,58.766670,-178.968353,0.843930,0.050755,0.119337
7461684463,-65.885284,29.941353,-186.759247,0.896452,0.137569,0.038170
7461704464,-76.317535,22.490358,-188.433289,1.197141,-0.015438,0.012808
7461724464,-49.954273,21.628824,-162.848846,1.554681,-0.139114,0.215519
7461744464,-19.329983,0.182324,-104.908585,1.571143,-0.710985,0.501952
7461764467,-6.525603,-16.088924,-6.056361,1.412862,-1.563328,0.515096
7461784466,42.562725,-4.495562,74.523788,1.219514,-1.385944,0.433711
7461804466,108.424301,7.019321,109.386063,1.291182,-0.808525,0.398652
7461824465,144.841354,13.731168,141.380081,1.390772,-0.305087,0.291855
7461844465,119.983528,16.905104,175.683853,1.384773,0.015459,0.277292
7461864466,71.292809,12.517100,212.395370,1.154659,0.083587,0.275752
7461884466,40.126179,-1.045538,233.208603,1.021522,0.153222,0.211953
7461904466,13.447981,-7.509215,240.472733,0.973589,0.204248,0.142822
7461924467,3.722575,-8.850714,238.000275,0.925317,0.063377,0.181716
7461944467,-2.708990,-7.309628,221.311737,0.791587,0.041597,0.272104
7461964468,3.520962,-3.207609,179.460754,0.651118,0.227177,0.314541
7461984468,10.000919,-4.497985,108.155220,0.550494,0.634628,0.185038
7462004468,-20.808369,-25.282167,26.568111,0.387491,0.719966,0.094335
7462024470,-78.851212,-44.765717,-55.774406,0.342787,0.597114,0.165280
7462044471,-87.787537,-30.910528,-130.938614,0.496460,0.477192,0.347363
7462064471,-113.881653,-35.626118,-176.576447,1.074254,-0.022165,0.440575
7462084471,-146.500702,6.088615,-186.693268,2.097117,-0.587617,0.271655
7462104472,-65.087593,57.648354,-160.716385,1.304279,-0.665348,0.290955
7462124472,-36.092476,50.964191,-126.439156,1.030657,-0.389163,0.267447
7462144473,-26.898949,65.865952,-123.630562,1.028792,-0.163265,0.156321
7462164472,-22.179052,70.563766,-140.141174,0.957691,-0.098289,0.106627
7462184472,-25.121405,62.908600,-156.477188,0.898669,-0.074651,0.070187
7462204472,-36.918961,50.336334,-171.405396,0.979280,-0.015340,0.084408
7462224473,-39.163689,42.703068,-181.026886,1.224936,-0.022130,0.094556
7462244473,-4.891609,30.587643,-160.336731,1.361367,-0.079617,0.326041
7462264474,-18.707760,0.948216,-118.449318,1.365719,-0.646286,0.487944
7462284474,-14.128843,-11.803721,-26.886034,1.360664,-1.440044,0.432406
7462304475,43.280952,3.197088,66.620316,1.067705,-1.307446,0.510518
7462324475,104.482048,12.969540,102.727676,1.024380,-0.834929,0.527815
7462344476,134.799637,17.876623,126.687241,1.231518,-0.379332,0.438890
7462364477,125.338852,34.319267,152.600052,1.346196,0.050565,0.354628
7462384478,79.046356,33.433704,178.288483,1.164243,0.255764,0.353474
7462404479,11.870825,13.365336,203.186584,0.990903,0.199510,0.301147
7462424479,-28.350571,-4.693592,219.091599,0.867131,0.062605,0.219454
7462444479,-28.818993,-24.460543,213.286270,0.817360,-0.069002,0.160224
7462464480,-3.729496,-30.087486,207.246872,0.881320,-0.208348,0.198766
7462484480,29.439754,-24.515907,192.494598,0.836521,-0.208774,0.236085
7462504485,64.784607,-19.904867,159.574295,0.739832,-0.045286,0.266989
7462524479,82.370781,-18.725773,110.974449,0.668925,0.311969,0.326553
7462544480,43.561119,-20.384739,52.621574,0.528858,0.687042,0.455110
7462564480,-43.803066,-42.566662,-19.467657,0.380702,0.817530,0.397066
7462584480,-104.842445,-49.104809,-97.485550,0.419807,0.568286,0.399374
7462604481,-152.336014,-48.273624,-155.224899,0.589421,0.151036,0.467239
7462624481,-190.371063,-15.052868,-178.296127,1.625522,-0.156042,0.293661
7462644482,-135.300018,58.226517,-191.715149,1.515669,-0.390867,0.193545
7462684483,-38.213207,66.085152,-160.102264,0.943957,-0.324252,0.164691
7462704483,4.080621,85.744682,-165.141754,1.007215,-0.219299,0.083809
7462724485,9.739285,76.850967,-191.664154,1.042209,-0.146700,0.031509
7462744485,-7.359272,46.716881,-195.454330,1.137799,-0.028663,0.061580
7462764486,-25.711678,5.266011,-161.243958,1.508793,0.126497,0.203405
7462784486,-46.079529,12.363374,-123.353600,1.506595,-0.224126,0.454507
7462804486,-65.092636,-5.445840,-73.995522,1.307592,-1.103934,0.565357
7462824487,-39.227016,-22.408880,5.482672,1.260233,-1.734885,0.357752
7462844487,60.914631,-10.525637,67.909065,1.050829,-1.411713,0.365000
7462864486,150.184708,-5.923102,102.916122,1.114516,-0.937331,0.340839
7462884487,198.801193,2.526673,138.851379,1.311560,-0.431209,0.299198
7462904487,195.910294,23.247066,175.239883,1.328207,0.059734,0.339802
7462924488,141.508545,37.015163,200.617767,1.135014,0.277689,0.400276
7462944488,67.545837,22.100981,211.624298,1.020463,0.314922,0.354858
7462964488,5.142292,6.937968,215.519379,0.962330,0.207994,0.241803
7462984489,-23.463007,1.780859,201.059891,0.898056,0.044683,0.175435
7463004489,-37.899723,-14.722684,177.103165,0.846300,-0.060569,0.169873
7463024490,-39.527824,-33.012184,157.207275,0.778439,-0.153703,0.148728
7463044490,-0.369953,-35.341015,140.966339,0.748327,-0.251651,0.152028
7463064492,44.961399,-33.281296,119.562996,0.650248,-0.242685,0.207640
7463084493,65.351433,-37.230064,81.574661,0.533878,-0.023098,0.292669
7463104493,42.696537,-45.315723,34.781303,0.499194,0.254532,0.425609
7463124493,-10.677588,-53.114494,-18.028492,0.556311,0.542269,0.377979
7463144494,-58.336296,-53.525574,-74.112411,0.521013,0.688104,0.263642
7463164494,-110.563728,-52.678299,-141.017807,0.478020,0.593387,0.200448
7463184494,-193.996613,-62.566536,-184.250031,1.305917,-0.020831,0.387884
7463204493,-201.289490,7.809233,-182.696701,1.992307,-0.665103,0.349051
7463224494,-83.331001,76.346992,-161.424561,1.161253,-0.754821,0.395242
7463244494,-15.141641,82.446838,-149.840332,1.102808,-0.471618,0.266156
7463264495,18.094572,88.202820,-154.494247,1.151417,-0.241081,0.147441
7463284495,29.444336,81.256088,-167.289093,1.030280,-0.117420,0.084301
7463304495,13.745103,62.089710,-174.479065,0.995418,-0.082480,0.047565
7463324496,-22.047970,43.444607,-175.234146,1.161748,0.029138,0.045153
7463344496,-33.305439,31.519968,-168.798416,1.297698,0.092751,0.149713
7463364497,-31.022083,10.783159,-139.115448,1.247168,-0.445128,0.444436
7463384497,-18.701210,-8.224405,-66.352318,1.258096,-1.348769,0.401511
7463404499,34.545101,-8.022106,29.869507,1.119022,-1.395356,0.402104
7463424500,105.157669,5.596082,88.471260,1.029777,-0.883220,0.528064
7463444500,144.291016,12.292753,122.109581,1.154333,-0.434935,0.472899
7463464500,141.688721,26.258074,142.545990,1.318801,-0.062078,0.345137
7463484501,100.613472,26.915476,168.689972,1.210106,0.133716,0.284389
7463504501,43.434616,2.479352,196.617126,1.053593,0.067175,0.287758
7463524501,16.588881,-4.449216,208.709717,0.980536,0.003703,0.216301
7463544501,19.515642,0.718318,201.863907,0.899972,0.000080,0.199583
7463564501,21.229708,-12.315043,181.260162,0.898820,0.061017,0.212591
7463584501,21.560467,-24.693710,164.482254,0.848087,0.083110,0.251967
7463604502,36.622379,-23.792803,134.726349,0.723598,0.117099,0.270168
7463624502,47.278694,-18.469912,85.956993,0.599634,0.229638,0.353026
7463644502,28.035114,-23.156263,26.266970,0.568298,0.390427,0.374777
7463664503,-29.337856,-30.156559,-37.532021,0.479318,0.592538,0.403523
7463684503,-73.454224,-60.144928,-102.883217,0.532958,0.743227,0.112135
7463704504,-115.317047,-60.921921,-173.362289,1.090153,0.579403,0.130113
7463724504,-185.058762,-40.281075,-211.916702,1.514803,0.024117,0.299904
7463744506,-162.224701,10.565546,-173.122498,1.546527,-0.777955,0.429304
7463764507,-86.912735,60.831364,-117.778488,1.153823,-0.708192,0.440971
7463784507,-46.075859,77.356758,-109.110710,0.938813,-0.407093,0.225203
7463804508,-28.275126,65.549149,-126.974152,0.827088,-0.252250,0.144256
7463824508,-18.141502,62.603115,-137.760117,0.886107,-0.197605,0.149848
7463844509,-13.669028,61.456486,-137.319382,1.135151,-0.161538,0.047085
7463864508,13.303638,53.952412,-127.886627,1.328037,0.030578,0.055470
7463884521,33.915676,24.534296,-96.219002,1.208357,-0.066746,0.376205
7463904508,9.057452,-9.598442,-37.025467,1.189285,-0.716420,0.388640
7463924509,13.108482,-19.081100,21.301119,1.104586,-0.937342,0.319029
7463944509,48.350761,-5.737748,37.479015,0.959268,-0.593682,0.468084
7463964509,77.970268,-6.289110,43.349689,0.999343,-0.243988,0.443229
7463984510,82.385742,-6.198652,55.533646,1.059854,0.033749,0.343429
7464004510,71.384712,-3.004273,68.351486,0.999379,0.212121,0.273856
7464024511,54.954479,-0.416969,75.284615,0.876225,0.227386,0.294183
7464044511,40.437485,2.825536,73.489594,0.786542,0.162667,0.320544
7464064512,32.891930,6.637227,65.542679,0.729668,0.062148,0.295155
7464084513,28.829306,2.624126,47.964172,0.700520,0.055217,0.269518
7464104514,15.683727,-4.884978,20.883030,0.877097,0.096925,0.301122
7464124514,7.635737,0.355014,1.768512,1.023120,0.100051,0.335655
7464144514,5.643826,0.519282,-1.794821,0.954921,0.059929,0.365778
7464164515,-6.114425,-13.314446,-2.772705,0.965013,0.044136,0.338027
7464184515,-23.112860,-19.095539,-1.870921,0.961731,-0.022436,0.261301
7464204514,-10.717649,-19.773167,4.147399,0.972093,-0.091006,0.249414
7464224515,10.718216,-14.694368,5.736310,1.041657,-0.120584,0.388215
7464244515,17.661888,3.179295,-2.956081,1.025107,-0.021940,0.523267
7464264515,2.049501,9.889315,-15.560478,0.907988,0.050700,0.489867
7464284516,-20.410122,3.225036,-20.906796,0.846262,0.053517,0.315799
7464304516,-33.129803,-1.429444,-16.214796,0.864781,-0.008362,0.186405
7464324517,-25.434677,0.690650,-8.272655,0.925693,-0.110158,0.176359
7464344517,-7.214351,1.504066,-6.003778,0.955316,-0.148033,0.235253
7464364518,2.647088,0.051794,-10.601841,0.972074,-0.075667,0.279463
7464404520,-0.245624,-4.655313,-16.122406,0.970166,0.001868,0.326871
7464424520,-6.152368,-3.711491,-15.142185,0.951965,-0.052108,0.339557
7464444521,-6.710735,-2.931968,-10.218799,0.971391,-0.111245,0.333273
7464464521,0.630825,0.146860,-1.291476,0.982152,-0.123294,0.345789
7464484525,5.838041,2.065459,6.092992,0.990186,-0.074492,0.362999
7464504522,4.141749,2.960086,7.236586,0.975174,-0.045835,0.354928
7464524523,0.318753,4.758044,2.990270,0.919222,-0.058511,0.332758
7464544522,0.997131,5.102555,-1.186425,0.900458,-0.081042,0.312301
7464564522,4.825622,4.947017,-1.165212,0.930679,-0.047701,0.292025
7464584523,5.643754,3.308036,2.660947,0.949902,-0.002723,0.300011
7464604523,1.382557,0.087291,7.596583,0.941209,-0.014663,0.310323
7464624523,-1.487608,-0.676362,10.508503,0.899629,-0.070686,0.316876
7464644524,3.044290,-0.132086,7.339209,0.894270,-0.074645,0.305481
7464664524,8.566123,-1.193960,0.464199,0.967169,-0.036392,0.297783
7464684524,7.665783,-0.835607,-3.332981,0.988986,0.004993,0.325370
7464704525,2.124873,-1.688537,-1.548358,0.971385,0.021811,0.350110
7464724525,-4.458148,-1.884099,-0.043130,0.945635,-0.016069,0.345690
7464744527,-4.555570,0.195184,-0.599263,0.926145,-0.066808,0.322283
7464764527,0.583452,1.538309,-2.156292,0.915181,-0.101575,0.296801
7464784528,5.982511,-0.487226,-1.594223,0.937611,-0.096662,0.292208
7464804528,8.698236,-2.293162,0.286194,0.948967,-0.035815,0.311182
7464824528,7.398600,-4.590926,0.568523,0.968420,0.011125,0.329538
7464844529,-0.462706,-5.151457,-3.352280,0.954590,0.027235,0.335810
7464864529,-7.291835,-5.152386,-7.645103,0.951088,-0.026744,0.319273
7464884528,-6.951692,-2.676748,-6.343194,0.921360,-0.058909,0.314451
7464904529,-5.022529,-1.611391,-2.389982,0.900651,-0.048302,0.313533
7464924529,-6.598815,-1.064212,-2.096488,0.958578,-0.027136,0.303027
7464944530,-7.379231,0.241985,-3.694705,0.984858,-0.044037,0.285308
7464964530,-1.523132,1.115896,-0.814871,0.960077,-0.069562,0.281711
7464984530,2.527004,2.449703,1.493578,0.952542,-0.010957,0.255741
7465004531,2.641752,2.759324,-0.704557,0.976855,-0.004071,0.271113
7465024531,2.207614,-1.976911,-1.205459,0.990017,-0.070492,0.267432
7465044532,4.079249,-1.956953,4.173831,0.957307,-0.081854,0.301666
7465064532,5.947980,3.981325,9.837877,0.949099,-0.038966,0.332576
7465084534,3.916515,3.329065,10.990013,0.990061,-0.055417,0.323573
7465104534,0.891878,-2.947316,15.462694,1.026412,-0.163793,0.249347
7465124535,10.425057,-1.134250,25.700428,0.958393,-0.158481,0.233894
7465144535,25.432053,2.254798,30.578882,0.964839,-0.055631,0.290302
7465164536,26.311674,3.384986,24.961432,1.028648,0.053962,0.324835
7465184536,12.783201,3.551897,15.044543,0.946692,0.143230,0.317621
7465204536,1.066847,2.310174,11.516806,0.810532,0.116192,0.310098
7465224535,-6.352819,1.090981,12.118575,0.824254,0.038974,0.276943
7465244536,-14.123027,-6.528923,11.793446,1.045797,-0.096911,0.200078
7465264536,-13.598807,-12.922282,21.091221,1.078123,-0.336646,0.278702
7465284537,-4.520170,-9.374713,36.711098,0.936167,-0.409767,0.485458
7465304538,9.556659,0.768988,40.803249,0.940947,-0.312771,0.530537
7465324538,7.027071,7.554686,29.415438,0.970552,-0.133943,0.416620
7465344538,-12.643867,7.924843,13.628600,1.044683,-0.177824,0.204320
7465364538,-19.710577,-3.530697,21.798502,0.888709,-0.424955,0.128830
7465384539,-1.501008,-14.373202,34.386974,0.777282,-0.495751,0.162090
7465404539,29.777760,-9.055943,24.432043,0.812801,-0.309076,0.230455
7465424541,37.417698,-6.522728,9.863332,0.873126,-0.166925,0.305227
7465444542,16.566790,-12.530811,12.083228,0.902561,-0.276803,0.261877
7465464542,7.782807,-18.514183,28.435850,0.891456,-0.526928,0.236236
7465484542,21.706890,-15.682816,38.945293,0.924727,-0.608687,0.251419
7465504543,39.120686,-10.590628,36.099300,1.011487,-0.513945,0.222286
7465524543,47.461342,-16.315256,34.962456,1.053237,-0.471235,0.136944
7465544545,54.848270,-22.044529,48.527096,0.980429,-0.511091,0.140655
7465564542,68.374458,-18.774967,67.692001,0.918209,-0.487469,0.244474
7465584543,70.427223,-12.265813,70.001305,0.967334,-0.388862,0.289974
7465604544,64.021996,-9.968029,68.355896,1.078403,-0.389795,0.211474
7465624544,59.393017,-10.712809,77.492020,1.018036,-0.366999,0.158614
7465644544,57.699730,-12.278766,92.135574,0.965074,-0.423942,0.198361
7465664545,55.053799,-9.415285,97.932976,0.939543,-0.469720,0.226811
7465684545,59.536964,-9.781717,97.275810,1.014216,-0.478940,0.207728
7465704545,67.256424,-10.372310,102.790741,1.015694,-0.482394,0.184536
7465724546,69.914764,-15.965626,116.497971,0.926535,-0.481940,0.160371
7465744548,69.180481,-20.897800,127.694702,0.860240,-0.505356,0.210962
7465764548,70.849922,-25.596664,123.414749,0.840534,-0.532403,0.229240
7465784548,86.287445,-23.403894,115.719757,0.863477,-0.512499,0.243851
7465804549,103.791595,-12.870303,105.819313,0.789401,-0.353317,0.223328
7465824555,109.116310,-7.803478,90.314964,0.760713,-0.250502,0.199841
7465844550,102.373688,-13.662276,69.405754,0.743087,-0.193780,0.109947
7465864550,87.837517,-33.771065,32.668533,0.622464,-0.098350,0.024989
7465884549,85.484924,-51.798691,-19.628817,0.507750,0.024208,0.091185
7465904549,100.247734,-57.730133,-80.547638,0.532070,0.159249,0.282825
7465924550,96.929749,-57.017628,-132.233994,0.584048,0.373177,0.329775
7465944550,67.880211,-58.364906,-170.297043,0.748943,0.472356,0.339033
7465964551,38.201996,-53.594959,-195.298904,1.004880,0.416032,0.326968
7465984551,1.576611,-45.479252,-202.038193,1.234062,0.255568,0.303464
7466004552,-44.547058,-40.353634,-169.165985,1.347166,-0.303355,0.310180
7466024552,-52.671749,-58.100956,-98.450615,1.306219,-1.141276,0.355115
7466044553,-3.048642,-66.000832,-18.362093,1.380549,-1.427665,0.342294
7466064553,62.932632,-58.907230,52.608921,1.547472,-1.497006,0.241600
7466084555,145.919724,-34.892017,140.668442,1.445412,-1.518736,0.331576
7466104555,210.416656,20.560360,150.829926,1.416262,-0.579338,0.387816
7466124556,226.632599,41.335201,124.086792,1.249310,0.153563,0.001524
7466144556,188.356018,9.331260,131.626083,0.851407,0.274737,-0.073759
7466164556,121.964180,-19.541697,142.836105,0.854041,0.315195,0.076609
7466184557,64.411789,-15.295597,134.135330,0.942267,0.123252,0.331657
7466204557,12.006417,-17.160398,132.696106,1.043898,-0.228110,0.488039
7466224556,6.216278,-11.334904,153.624725,1.012954,-0.502327,0.401089
7466244557,42.096420,3.145482,168.753448,0.947612,-0.631018,0.281181
7466264557,76.097015,11.583805,157.700424,0.965570,-0.506667,0.097474
7466284557,83.498543,6.238741,136.123932,0.884250,-0.434336,0.070186
7466304558,70.061714,-8.714997,129.444092,0.797970,-0.393011,0.143024
7466324559,57.965332,-17.724682,124.463829,0.734968,-0.416632,0.260331
7466344559,52.060776,-20.159687,115.481438,0.812920,-0.405934,0.361107
7466364559,54.921589,-12.677835,107.812309,0.813383,-0.418979,0.326832
7466384560,56.305603,-6.307625,101.226486,0.656728,-0.483785,0.317859
7466404560,46.021378,-12.335369,92.576752,0.519645,-0.521423,0.273365
7466424562,20.671286,-26.541946,81.988686,0.488731,-0.549652,0.255973
7466444562,11.987076,-39.170639,69.903862,0.556797,-0.596767,0.228011
7466464563,28.492294,-42.054810,63.123737,0.689872,-0.683201,0.210429
7466484563,50.606857,-38.392448,62.253784,0.680034,-0.633797,0.268679
7466504564,65.791496,-34.504036,51.770905,0.536772,-0.457806,0.329296
7466524564,61.162464,-43.502724,30.843475,0.430154,-0.490195,0.277457
7466544564,61.680573,-58.386845,0.214862,0.454266,-0.478759,0.191233
7466564563,70.977127,-62.291832,-43.217308,0.539115,-0.220186,0.268476
7466584563,73.902740,-60.323170,-83.447678,0.557843,-0.038421,0.388193
7466604564,52.865532,-61.233551,-119.474693,0.639870,0.064886,0.404307
7466624565,18.554897,-61.558350,-147.525223,0.749436,0.089130,0.361345
7466644565,-7.580344,-67.085281,-161.317963,0.880561,-0.025595,0.345911
7466664565,-23.345360,-71.162933,-165.528687,0.964095,-0.253301,0.331004
7466684565,-27.537510,-76.782341,-167.999451,1.082275,-0.475939,0.181549
7466704566,-10.698529,-81.187454,-149.316437,1.133054,-0.712480,0.155046
7466724567,22.178909,-87.874924,-100.405396,1.109232,-0.958713,0.414270
7466744567,47.054291,-71.332550,-39.138187,1.209720,-0.998883,0.678238
7466764569,41.938461,-44.245590,3.987410,1.225936,-1.032529,0.682475
7466784569,48.067230,-34.402985,41.554306,1.250056,-1.092840,0.296156
7466804570,101.850830,-36.257362,102.757660,1.062305,-1.441624,-0.094613
7466824570,177.685257,-0.113445,129.042679,1.204613,-0.809486,0.400167
7466844571,189.162369,34.182884,95.093727,1.096543,0.157395,0.182726
7466864571,178.095810,4.763195,81.408852,0.932146,0.007548,0.038521
7466884571,103.593987,-20.927250,120.903412,0.952917,-0.219902,0.437649
7466904570,9.624039,-13.602311,140.434586,0.842853,-0.039515,0.511577
7466924571,-18.827654,-17.125546,128.148010,0.775298,-0.317381,0.210776
7466944571,20.291582,-22.084974,120.020096,0.933705,-0.827736,0.019444
7466964571,85.413078,-14.152958,126.974426,0.939086,-0.810773,0.107444
7466984572,105.307991,-12.335494,128.098816,0.720977,-0.478354,0.354179
7467004572,67.973862,-16.151672,111.431305,0.599207,-0.342132,0.450013
7467024573,28.455252,-15.997582,97.833534,0.691238,-0.432534,0.469204
7467044573,23.137106,-5.742754,91.230316,0.751469,-0.532615,0.330235
7467064573,36.693466,-0.597919,92.421761,0.737991,-0.625004,0.257451
7467084574,32.429138,-12.234341,92.965149,0.598512,-0.551604,0.199642
7467104576,-7.594783,-36.372177,87.459099,0.491092,-0.480734,0.247550
7467124576,-17.929781,-51.153912,73.788124,0.467050,-0.597694,0.309764
7467144577,-3.767842,-48.870838,61.820122,0.535956,-0.795848,0.286411
7467164577,20.178673,-44.339722,55.435947,0.525011,-0.864575,0.206539
7467184577,40.301914,-42.975544,44.584782,0.462605,-0.754877,0.137637
7467204578,56.259995,-46.419510,31.920200,0.420170,-0.781857,0.165080
7467224588,79.462677,-51.817142,18.365059,0.485283,-0.732418,0.146185
7467244577,92.873283,-54.265266,-2.978442,0.585777,-0.465412,0.187973
7467264577,87.201317,-54.723248,-22.746727,0.630796,-0.273961,0.356425
7467284578,60.548786,-54.403927,-42.179516,0.687432,-0.197751,0.442480
7467304578,15.545583,-54.470142,-54.010994,0.757711,-0.297806,0.402765
7467324579,-10.407546,-61.241325,-58.231369,0.736354,-0.491710,0.320333
7467344579,-12.385247,-67.907753,-61.513023,0.706481,-0.577999,0.230324
7467364579,-7.215788,-76.548828,-62.090214,0.617865,-0.698940,0.185499
7467384580,7.420089,-80.163399,-63.143795,0.772432,-0.805733,0.206392
7467404580,41.972855,-61.246628,-58.858177,0.970864,-0.839039,0.275672
7467424581,82.935211,-39.589542,-45.221474,0.922925,-0.724223,0.439714
7467444583,84.956284,-31.010492,-34.045380,0.783888,-0.482221,0.513863
7467464583,50.432632,-36.633377,-42.434242,0.698132,-0.356975,0.410554
7467484583,18.941420,-43.810650,-58.528038,0.895697,-0.436143,0.253036
7467504584,14.451371,-37.274021,-52.655277,1.030456,-0.572784,0.217087
7467524584,42.429886,-24.138742,-23.410395,0.930352,-0.702442,0.314761
7467544585,66.520584,-16.696339,2.511547,0.885529,-0.699098,0.399454
7467564584,65.992378,-14.205140,21.250227,0.887670,-0.630412,0.349072
7467584584,56.483391,-18.345564,35.052032,0.897057,-0.578918,0.270568
7467604584,47.776894,-25.351273,48.072826,0.954169,-0.625599,0.224883
7467624585,54.488297,-30.076611,59.059830,0.879951,-0.654051,0.286601
7467644585,69.436150,-32.753639,63.000938,0.824803,-0.581387,0.334004
7467664586,75.190948,-30.310192,62.310032,0.798723,-0.501196,0.372371
7467684586,68.912170,-22.272749,61.952705,0.876397,-0.460771,0.364778
7467704586,58.024368,-13.856442,69.708008,0.857490,-0.471261,0.346962
7467724587,50.361244,-17.352058,77.403786,0.734760,-0.503731,0.341847
7467744587,48.511219,-19.688097,75.697784,0.704596,-0.474509,0.306432
7467764589,50.247139,-17.482773,64.090866,0.719904,-0.452498,0.279065
7467784590,51.438877,-17.326162,51.044258,0.750078,-0.414930,0.287275
7467804590,48.144321,-19.537716,42.497280,0.769293,-0.379759,0.340472
7467824590,43.737431,-16.808304,36.531960,0.758581,-0.368588,0.469994
7467844590,22.536617,-10.233493,30.770308,0.743328,-0.351512,0.567088
7467864591,-10.744268,-14.020714,19.456902,0.699862,-0.375972,0.419712
7467884592,-26.879436,-29.147278,18.208496,0.690134,-0.523010,0.262609
7467904591,-9.681241,-29.904816,19.820425,0.652583,-0.594722,0.214258
7467924591,21.128099,-21.804485,6.321337,0.568403,-0.497933,0.335431
7467944591,23.636576,-21.355587,-15.152679,0.580062,-0.348559,0.391814
7467964591,-2.456074,-23.578386,-20.251759,0.773347,-0.298610,0.414246
7467984592,-24.871260,-13.489141,-0.862393,0.995793,-0.434375,0.512160
7468004592,-40.118156,1.747638,27.848475,0.810314,-0.983289,0.547368
7468024593,-34.421925,-0.603079,30.789249,0.594162,-1.112598,0.256107
7468044593,-3.911462,-15.168356,11.337603,0.753349,-0.580579,0.049588
7468064594,20.571993,-20.558929,11.440184,0.735424,-0.302276,0.159061
7468084594,6.518805,-21.319124,13.263269,0.586657,-0.472397,0.266536
7468104596,-2.793573,-20.208170,5.564648,0.577720,-0.633110,0.355662
7468124596,2.522624,-17.307798,-6.897697,0.785977,-0.597997,0.449804
7468144597,-4.971998,-14.044492,-14.682773,0.949711,-0.557315,0.422459
7468164597,-1.307958,-6.169183,-6.254352,1.105335,-0.748053,0.499474
7468184598,12.837667,13.520547,1.039126,0.906694,-0.561481,0.455111
7468204598,3.374650,11.445320,11.366061,0.743524,-0.228711,0.312260
7468224598,-21.153572,-1.226620,13.085812,0.721214,-0.232345,0.177729
7468244598,-22.538097,-14.936700,10.547712,0.759806,-0.658876,0.197076
7468264598,4.966595,-15.579590,13.517919,0.758688,-0.790516,0.245699
7468284598,24.343559,-9.276304,5.071961,0.850418,-0.532474,0.372277
7468304598,13.526050,-5.115899,-5.270578,0.900576,-0.477504,0.533573
7468324599,3.124048,1.774902,-18.477144,0.775899,-0.483015,0.567248
7468344599,-9.037796,7.123632,-28.248981,0.785780,-0.335059,0.394864
7468364599,-22.159756,3.854840,-32.369053,0.828672,-0.285085,0.240645
7468384600,-23.203152,-6.976060,-35.354923,0.755196,-0.430705,0.278812
7468404600,-18.114250,-13.284674,-50.783821,0.717707,-0.515833,0.442838
7468424601,-12.755610,-3.322312,-74.335419,0.911557,-0.334016,0.279265
7468444603,-8.351920,15.438529,-75.846451,0.841979,-0.194480,0.226617
7468464603,-16.180630,6.442939,-73.634499,0.682296,-0.329099,0.308625
7468484604,-14.312762,5.116359,-93.623268,0.818878,-0.430453,0.397118
7468504604,14.822960,17.400793,-121.564819,0.922992,-0.222891,0.324193
7468524604,17.873072,22.263025,-138.159729,0.865609,-0.003769,0.324354
7468544605,-0.011044,13.056529,-152.809418,0.810685,0.100801,0.251228
7468564605,-26.796635,2.690087,-171.372437,0.900156,0.110681,0.273777
7468584604,-53.654903,7.168112,-198.399673,1.054654,0.095068,0.281958
7468604604,-55.984627,21.604643,-231.800369,1.150151,0.064335,0.302273
7468624605,-39.380524,36.458069,-251.124283,1.162549,0.037943,0.255097
7468644605,-35.256832,50.949532,-254.301712,1.292409,-0.060390,0.176277
7468664606,18.967842,77.956116,-249.663879,1.370487,-0.205022,0.164873
7468684606,88.708282,49.083736,-168.090317,0.716326,-0.552673,0.744131
7468704607,25.639772,-24.308590,21.373962,1.092495,-1.493183,0.863893
7468724607,37.283596,8.423939,166.289307,1.644207,-1.287995,0.532168
7468744608,87.140991,15.820459,222.270721,2.158327,-0.319558,0.278004
7468764608,33.588627,13.036555,284.325745,1.913042,-0.292536,0.341799
7468784610,-27.724520,0.626830,337.811829,1.744383,-0.506840,0.470549
7468804610,-8.849326,17.685007,339.608917,1.244699,-0.165363,0.247007
7468824611,32.047218,-5.978885,291.797943,0.825711,0.498307,0.004642
7468844611,20.992098,-38.233940,236.071167,0.465719,0.904394,0.037194
7468864612,-20.533012,-45.412479,168.150146,0.283779,0.507416,0.473646
7468884612,-33.831223,29.509113,93.200180,0.252682,0.396943,1.067665
7468904611,-31.959564,31.808283,-28.423359,-0.027639,1.003434,-0.106302
7468924611,-116.675186,13.123034,-114.242142,0.180267,1.001550,0.597367
7468944612,-269.545441,-7.471685,-90.356110,0.971757,-1.002934,-0.071708
7468964612,-176.453674,53.855465,-93.194756,1.635239,-1.326297,-0.207374
7468984613,-93.932358,47.796932,-122.702888,0.782512,-0.877301,-0.263176
7469004613,-30.176912,3.541657,-151.146637,0.708337,-0.500042,-0.049339
7469024613,52.730515,20.066072,-182.521942,0.956244,-0.437123,0.153596
7469044614,81.966972,43.161343,-200.937790,0.970868,-0.210935,0.411148
7469064614,47.954502,37.455353,-223.493790,1.014099,0.050552,0.465214
7469084614,-0.392890,41.433311,-233.451279,1.156405,0.289878,0.476926
7469104616,-38.351238,56.020542,-220.288361,1.333355,0.383875,0.224502
7469124617,-47.172424,99.424400,-187.630875,1.493463,0.220802,0.125909
7469144617,-73.302399,103.294418,-171.509644,1.389720,-0.266992,0.106454
7469164617,-114.879189,26.869799,-128.029465,0.852785,-1.579211,0.138176
7469184618,-49.387405,-50.507675,21.995029,0.762538,-2.797238,0.273469
7469204618,130.791840,-39.057465,160.400711,1.592237,-1.845315,0.647843
7469224619,288.079681,-12.180109,171.620529,2.255925,-0.275456,0.245562
7469244618,273.923584,-8.433035,230.502289,2.423292,0.422347,0.290435
7469264618,163.763733,8.852834,302.710419,1.613948,0.190172,0.266698
7469284619,99.617775,3.858330,327.647949,1.092865,0.237561,0.265285
7469304619,37.668980,-2.737257,337.672791,0.892524,0.322651,0.432262
7469324619,-16.551777,-8.799004,329.581024,0.856319,0.414642,0.619576
7469344620,-80.824203,-8.409397,296.078613,0.391323,0.610389,0.796418
7469364620,-97.588501,-25.463482,184.195511,-0.249800,0.802329,0.090484
7469384620,-99.572327,-54.328346,55.215107,-0.259435,0.872684,-0.159259
7469404621,-68.676033,-19.341208,-63.702660,-0.146876,0.952920,0.532337
7469424621,-70.808701,36.024067,-173.875870,0.503590,0.006186,0.782295
7469444623,-122.942795,55.121758,-223.636749,1.851438,-1.105969,-0.048042
7469464623,-42.573544,83.558113,-194.358582,0.963031,-0.455662,0.087817
7469484624,-73.828522,44.851288,-177.846146,0.801923,-0.168106,0.307812
7469504624,-87.123665,41.659801,-238.770828,1.244556,-0.269453,0.195882
7469524625,-25.329792,79.542290,-284.319244,1.259875,-0.392432,0.467562
7469544625,7.638341,81.941528,-260.231232,1.282940,-0.116692,0.357017
7469564626,29.781370,109.537872,-243.366592,1.406309,0.207886,0.205957
7469584624,25.185411,82.085670,-225.469116,1.205760,0.074472,0.546682
7469604625,-141.352020,-3.795967,-110.974983,1.527114,-2.480325,0.536721
7469624625,-111.984528,-48.628803,105.485168,0.799873,-4.307364,-0.222796
7469644626,200.282959,-19.283209,161.984650,0.779195,-2.047356,0.558113
7469664627,272.868195,-51.324120,226.483887,2.560898,-0.800123,0.414772
7469684627,261.383972,9.401828,340.099121,3.351765,0.497937,0.004812
7469704627,155.022598,11.895018,442.184357,1.742905,0.531886,0.177915
7469744628,6.652746,-71.940331,397.395386,0.838491,0.701217,0.309874
7469764628,-12.001348,-46.972618,295.885864,0.166088,1.203721,0.359965
7469784630,-45.659229,-102.572227,134.562592,-0.550279,1.910260,-0.351076
7469804630,-58.642014,-104.882362,-71.598404,-0.324085,1.571992,0.707944
7469824631,-68.929596,-16.989889,-240.533508,0.445389,0.857779,1.380688
7469844631,-134.677811,26.479359,-254.086212,1.604582,-0.760056,0.266883
7469864631,-77.224854,89.094070,-195.570480,1.549646,-0.762091,-0.528410
7469884632,-48.734734,68.740227,-159.564682,0.545190,-0.450795,-0.318182
7469904631,-119.334702,-7.333872,-208.353821,0.643571,-0.395802,0.271861
7469924631,-60.215340,28.511375,-289.954834,1.314359,-0.499877,0.485177
7469944632,66.236382,81.555244,-300.986389,1.641680,-0.018675,0.534076
7469964633,123.715698,108.199295,-267.636322,1.817862,0.495079,0.480250
7469984633,67.199783,113.569199,-227.923981,1.717104,0.665501,0.780095
7470004633,-153.889313,79.394089,-129.533234,1.665819,-0.780268,0.863728
7470024633,-323.535248,18.358498,35.975590,1.253361,-3.733448,-0.197312
7470044634,-80.783134,9.587660,120.900566,0.437966,-3.026235,-0.163117
7470064634,205.887894,-48.861309,204.201065,1.097946,-1.297850,0.184119
7470084635,275.339294,-86.807579,295.323853,3.512637,-0.845854,-0.119507
7470104635,316.455078,-12.043033,442.323029,2.617575,0.301347,-0.088951
7470124637,208.300964,-36.168713,486.387054,1.423096,0.597554,0.259156
7470144637,59.554001,-26.817528,454.757355,0.843705,0.832878,0.700774
7470164638,-71.609955,-28.959158,348.671509,0.190687,1.183029,0.754586
7470184646,-123.217178,-60.539337,191.386978,0.045281,1.652732,-0.255744
7470204638,-100.036491,-57.751884,43.567764,-0.276569,1.341684,0.337152
7470224639,-49.797985,-15.263554,-148.707138,-0.298333,0.713539,0.770012
7470244638,-36.675831,26.682623,-288.587433,0.210571,0.507923,1.105762
7470264638,-50.544731,16.495224,-303.501770,1.433779,-0.124263,0.388115
7470284639,-85.404411,65.802185,-212.974396,1.961738,-0.875234,-0.061514
7470304639,-72.761452,108.508308,-205.679565,0.892974,-0.653080,0.253058
7470324639,-129.401398,56.136066,-243.734879,0.790785,-0.052312,0.423225
7470344640,-121.102158,79.570679,-308.040192,1.541375,0.084040,0.175196
7470364641,-43.239735,132.502747,-302.115570,2.108234,-0.268693,-0.199433
7470384641,-9.861130,77.625465,-252.904770,1.612090,-0.625184,0.085098
7470404641,-82.358192,-7.200043,-110.469101,1.013228,-3.855498,0.484993
7470424642,-13.790839,-33.303474,115.385857,0.664878,-3.750716,0.824219
7470444648,154.890915,-30.395113,176.559525,1.014870,-1.187898,0.337391
7470464644,170.024323,-74.000793,244.512146,2.600515,-0.788461,-0.045652
7470484644,208.853088,-42.214123,381.252319,3.142556,-0.636914,0.020872
7470504645,193.348846,-22.320974,492.228851,2.187000,0.092715,0.416537
7470524645,70.723793,-10.229654,473.599030,1.345913,0.781762,0.547168
7470544645,-93.618134,-76.182045,356.311829,0.245525,1.625017,-0.009115
7470564646,-163.252884,-148.396286,204.355042,0.318751,2.009746,-0.376237
7470584644,-78.733879,-112.812462,31.804296,-0.143618,1.578686,0.305934
7470604645,-12.280096,-69.960663,-182.189240,-0.769161,0.877832,0.601476
7470624645,-88.786461,-38.942467,-328.943939,0.211473,-0.253834,1.103611
7470644646,-43.953987,44.961296,-338.146729,2.110255,-0.153388,0.231639
7470664646,23.768755,109.308815,-260.049042,1.322584,0.262011,-0.557194
7470684646,23.073727,23.958111,-217.490265,0.671963,-0.387824,-0.367313
7470704647,-74.876099,-28.623669,-263.205994,0.899659,-0.201147,0.303557
7470724647,-151.959564,23.257851,-354.706665,1.899153,0.135239,0.655713
7470744648,-103.915184,91.720222,-371.916992,3.337418,0.008991,0.729690
7470764648,-6.091647,188.962296,-200.862091,2.458866,-1.947884,1.059589
7470784650,-63.321201,63.815056,33.486595,0.418307,-3.997891,0.153998
7470804651,-53.766991,0.566484,200.352707,0.825832,-2.315869,0.050892
7470824651,45.565742,-2.136814,275.311829,1.917573,-1.301675,-0.025122
7470844651,161.560226,-47.289181,337.308807,3.268501,-0.692360,-0.306665
7470864652,162.923431,-18.997866,450.921204,2.251194,0.006427,0.040324
7470884652,74.109718,-34.057541,464.276001,1.767782,0.364754,-0.010731
7470904652,-17.447149,-71.240860,429.677887,0.775972,0.768540,0.170108
7470924651,-82.627899,-131.022247,328.445923,0.040710,1.361732,0.137173
7470944652,-75.974709,-156.927567,146.316086,-0.346878,1.957342,-0.615648
7470964652,-97.009125,-157.197357,-71.847145,-0.488607,1.339931,0.681850
7470984652,-91.973770,-35.323753,-238.817627,0.271255,0.657477,1.431543
7471004653,-74.232285,66.640495,-362.508118,1.439765,0.395897,0.320162
7471024653,-18.697687,119.090775,-399.552368,1.859221,-0.147608,0.035005
7471044654,-13.801464,112.768356,-252.141800,1.008694,-0.594768,-0.011019
7471064654,22.374542,103.814262,-221.200363,0.998991,-0.399755,-0.303634
7471084655,-26.127132,47.343712,-313.715881,1.203767,-0.048602,0.011104
7471104655,-152.099152,25.591488,-380.729126,2.064085,0.519846,0.568366
7471124657,-123.291000,132.706024,-342.536469,3.181318,0.067090,0.721479
7471144657,-34.225960,151.854980,-151.944839,2.278203,-3.659524,0.426396
7471164658,-97.000946,-19.018934,110.039703,0.863751,-4.115380,-0.217806
7471184658,66.063110,5.630011,190.997543,1.137257,-1.506613,0.252121
7471204658,151.903107,-31.126965,233.351166,2.279282,-0.606467,-0.261207
7471224659,195.194916,-45.313854,355.946991,2.678890,-0.108901,-0.175072
7471244659,149.537888,-49.603592,447.967346,1.797130,0.032690,0.002238
7471264658,75.606453,-47.158096,451.979675,1.643361,0.664267,0.133557
7471284658,-8.372511,-74.776451,396.595337,0.531702,1.587898,0.336581
7471304659,-91.791031,-144.803726,239.334045,-0.228111,2.210438,-0.769213
7471324659,-82.680061,-156.949020,54.774811,-0.656245,1.324629,0.367889
7471344660,-11.314260,-24.915512,-133.496124,-0.254263,0.496460,1.750539
7471364660,60.658817,102.348671,-268.522430,0.518824,0.516612,1.191283
7471384660,31.401852,100.701973,-367.324707,1.609022,1.125295,-0.060592
7471404661,-58.955242,61.414589,-287.260010,1.412467,0.209990,-0.247725
7471424661,-172.830902,19.984079,-175.867706,1.057435,-0.613995,0.337485
7471444662,-209.017303,82.826447,-224.151886,1.601484,-0.837021,0.683891
7471464663,-138.403336,151.148087,-303.391663,2.521437,-0.575143,0.742856
7471484664,-24.817373,214.439011,-252.392746,2.675072,-0.349097,0.402333
7471504664,-11.247652,146.468094,-111.300529,1.713742,-2.898734,-0.346888
7471524665,-132.319046,-46.602291,89.671066,0.349193,-4.021037,-0.523991
7471544665,66.336456,-20.756325,219.598221,0.918142,-2.080414,0.670939
7471564666,185.467728,-72.009079,265.497925,2.632887,-1.237498,0.024330
7471584665,233.563416,-51.654907,384.457550,2.957361,0.145618,-0.094175
7471604665,129.573273,-33.424389,445.545837,1.636752,0.616320,0.006707
7471624665,-12.793835,-93.626976,424.506989,0.775187,0.826708,-0.136825
7471644665,-61.078224,-181.708481,327.703308,-0.077051,1.294197,0.058578
7471664666,-42.426727,-173.647751,165.100174,-0.003446,1.647006,0.313775
7471684666,47.175076,-82.799072,-42.012505,-0.293056,1.697215,1.201730
7471704667,-28.461161,5.513963,-261.262573,-0.142540,1.356177,1.173641
7471724667,-94.362877,49.994854,-407.176849,1.051266,1.167204,0.548861
7471744667,-118.160995,74.197571,-416.342590,1.937030,0.180223,-0.204040
7471764668,-114.488724,90.399376,-316.820740,1.418710,-0.836012,-0.278659
7471784668,-113.668533,68.368286,-287.596375,1.350958,-0.612988,0.182073
7471804670,-59.731274,99.705154,-348.338715,1.743786,0.249648,0.594103
7471824671,-11.821555,155.240295,-332.090759,2.499173,0.114818,0.975214
7471844671,-198.576508,74.968796,-155.298767,3.016674,-3.555716,0.293861
7471864672,-179.359283,-21.610991,133.939987,1.214349,-5.355788,-0.586811
7471884672,91.382393,-6.389222,215.451813,0.927712,-2.239530,0.505186
7471904672,260.720551,-61.728233,314.381653,2.356030,-0.925780,-0.214390
7471924671,303.394287,-36.144432,418.470459,3.684367,0.395032,-0.595025
7471944672,257.333496,17.822708,489.550812,2.103762,0.719593,-0.101645
7471964672,88.755287,-37.907307,484.623199,1.180594,0.727147,0.011449
7471984672,-28.243296,-123.942375,425.315277,0.281727,0.796118,-0.216760
7472004673,-14.280142,-176.264175,324.881073,0.025821,1.111024,-0.589132
7472024673,47.321808,-176.782898,176.354218,-0.182266,1.866960,-0.036569
7472044673,2.402691,-196.792923,-75.480659,-0.255738,2.275208,0.965366
7472084674,-260.541412,28.905485,-252.815552,1.499815,0.608804,0.657095
7472104675,-206.598038,89.357864,-281.932281,2.664952,0.255184,-1.313534
7472124676,-218.223206,101.116356,-209.039673,1.058296,-1.134061,-0.117805
7472144677,-120.102516,57.833050,-258.398560,0.729287,-0.530653,0.135873
7472164677,-34.867798,116.823761,-346.326080,1.251418,-0.473862,0.767828
7472184678,-35.055443,159.964874,-374.296387,2.679806,-0.224413,0.686064
7472204678,-32.409222,234.088821,-286.165375,2.170683,0.262946,0.161087
7472224678,-114.647560,142.274872,-231.737442,2.273893,-0.311542,-1.055273
7472244679,-168.251404,-57.618160,-121.695564,1.862839,-4.005553,-1.411305
7472264678,-101.159966,-75.280594,155.354996,1.143302,-5.108185,0.436773
7472284678,281.470123,-49.794231,222.926788,1.098210,-1.729860,0.087684
7472304679,368.366760,-68.876404,337.503113,3.000377,0.045634,-0.728351
7472324679,259.399292,1.516913,470.502960,2.159128,0.555701,0.006695
7472344679,93.331161,-21.797314,470.766846,1.500769,0.464287,0.247300
7472364680,9.632859,-59.479607,414.142609,0.687121,1.180890,0.025597
7472384680,-1.654486,-148.309799,282.292389,0.123180,1.666324,-0.372108
7472404680,32.544247,-147.970215,118.254982,-0.241391,2.317122,0.173927
7472424681,-68.291756,-84.737312,-106.686180,-0.360628,2.128339,1.778121
7472444681,-241.986969,28.389570,-332.219849,0.913048,1.262541,1.358836
7472464683,-262.474701,78.574821,-429.572021,2.164230,0.740074,-0.124520
7472484684,-198.258423,126.279472,-344.923462,1.806933,-0.218885,0.230230
7472504684,-131.703979,182.940048,-228.697723,1.456754,-1.100506,0.085729
7472524684,-11.745401,219.250946,-210.282776,0.986587,-0.672591,0.101877
7472544685,-75.749466,184.174561,-292.892151,1.803611,0.051546,-0.195106
7472564686,-190.294266,130.638474,-262.610413,2.386228,-0.284213,-0.586256
7472584686,-180.984283,-18.079567,-50.595673,2.450544,-4.143935,-0.961500
7472604685,34.772606,-66.267471,124.721436,1.147045,-4.844327,0.172424
7472624685,302.718506,-85.482254,197.586929,1.863209,-1.635787,0.444942
7472644686,365.707520,-42.865578,300.563354,3.154259,-0.458450,-0.189544
7472664686,270.476074,33.408791,421.124878,1.895933,0.151078,0.156938
7472684686,88.699471,16.751524,460.840576,1.809262,0.438116,0.120642
7472704687,-34.190063,8.496675,452.852051,1.005878,0.711721,-0.073901
7472724687,-65.786034,-117.827072,357.285431,-0.011209,1.502519,-0.723041
7472744687,-78.145721,-224.129211,165.568176,-0.195178,2.447245,-0.822415
7472764687,-43.961414,-211.786057,-46.870583,-0.658123,1.860805,0.854847
7472784688,-119.271446,-40.487286,-216.456696,-0.221620,0.941768,2.602648
7472804690,-138.292862,87.923943,-410.218231,1.794606,0.791183,0.294857
7472824690,-102.177521,107.420784,-398.365784,2.440582,-0.128239,0.051780
7472844691,-84.061623,119.433685,-237.108337,1.184612,-0.559062,-0.107581
7472864691,-44.475758,106.871841,-248.281647,0.599636,-0.232357,0.282681
7472884692,-72.200607,102.572685,-324.797638,1.501391,0.004421,0.809425
7472904692,-124.988159,162.531830,-306.802643,2.804152,-0.120656,0.459596
7472924700,-166.400604,163.854523,-153.591675,3.000812,-1.706390,-0.402237
7472944691,-94.518990,12.198557,40.147739,1.234508,-4.880460,-0.812740
7472964692,58.353584,-49.293800,171.493073,1.494593,-3.576571,0.539281
7472984692,321.578674,-23.984074,259.908905,2.458581,-1.251483,-0.016889
7473004693,339.057495,-9.524191,360.469910,2.956396,0.322789,-0.432767
7473024693,203.893967,26.899406,423.989136,1.787762,0.509251,-0.041392
7473044693,62.195618,-2.938467,436.322601,1.153103,0.626688,-0.163150
7473064694,-26.922153,-68.618607,388.057312,0.313321,1.166119,-0.245387
7473084694,-46.247452,-157.934631,279.500000,-0.035028,1.603647,-0.444252
7473124696,-72.269432,-141.016800,-125.244041,-0.634844,2.342519,1.162469
7473144696,-277.523621,-57.306747,-296.446106,-0.376129,1.609088,1.183914
7473164697,-432.648071,-30.799551,-411.633575,2.255420,0.914590,-0.003871
7473184698,-248.613052,169.829285,-403.626160,2.998454,-0.563370,-0.802476
7473204705,13.606610,181.387238,-261.355286,1.338422,-1.262869,-0.127965
7473224699,150.712143,150.861664,-264.320557,0.869881,-0.344506,0.310294
7473244699,53.963333,106.003517,-328.930725,2.540288,0.529495,0.741124
7473264698,-157.750885,154.908371,-283.835632,3.031627,0.104589,0.528297
7473284698,-207.946243,111.035278,-144.575226,2.625154,-2.991474,-0.617599
7473304699,-70.256554,-28.334599,106.996017,1.017000,-5.074536,-0.460855
7473324700,172.822235,-59.046738,240.001175,1.613497,-2.229598,0.144243
7473344700,354.393616,-79.591003,317.416473,3.202423,-0.448931,-0.145421
7473364700,264.148102,21.085772,434.994812,2.322097,0.912652,0.283433
7473384700,59.067028,11.920167,448.565247,1.597565,0.985283,0.054735
7473404700,-83.149353,-45.919014,432.424194,0.787586,0.748785,-0.373670
7473424701,-80.402458,-130.439453,410.179169,0.352363,0.647274,-0.762156
7473444701,52.721638,-178.420395,326.370636,-0.230509,0.668711,-0.019647
7473464703,69.305939,-143.367981,66.413506,-0.695045,1.729863,1.026333
7473484703,-53.738873,-77.706360,-188.887741,-0.436889,2.343527,1.056081
7473504704,-234.760315,-14.582260,-278.558716,0.454809,2.007422,0.946168
7473524704,-351.542053,53.282948,-356.081726,2.236029,0.450097,0.129041
7473544705,-258.323456,156.949707,-360.868317,2.138685,-0.592630,-0.595229
7473564705,-127.547935,168.143738,-306.725220,1.266798,-0.992111,-0.638004
7473584706,-19.837864,154.723709,-295.833374,1.258582,-0.984506,-0.106046
7473604704,90.022369,174.105835,-361.822968,2.375324,-1.377036,-0.083846
7473624705,192.979568,196.917664,-292.399200,2.511527,-1.471743,0.150944
7473644705,91.906281,-11.215166,58.142265,1.687188,-3.496894,0.332022
7473664706,-44.824173,-25.169931,231.281830,2.314704,-2.156612,0.540589
7473684706,132.491425,-3.975774,319.014404,2.907372,-0.614161,0.131628
7473704707,133.062653,-2.005063,390.033905,2.169129,0.169910,0.410154
7473724707,43.547462,-11.652093,399.484131,1.734182,0.499891,-0.044341
7473744707,37.289593,-14.219805,371.741211,0.897096,0.882591,-0.777436
7473764708,44.609818,-95.822609,315.872955,0.060838,1.156535,-0.609455
7473784708,58.735985,-143.787994,211.200623,-0.392346,1.481383,0.119390
7473804710,37.035347,-113.184013,36.604290,-0.876549,2.008130,0.865527
7473824710,-120.846352,-59.941322,-180.576050,-0.550950,2.040826,1.225051
7473844710,-305.794159,-9.923618,-342.340546,1.294147,1.570169,0.964164
7473864711,-283.042633,95.086975,-330.434784,2.856305,-0.080161,-0.317850
7473884711,-154.364716,207.144257,-205.959152,1.267877,-1.773605,-0.481772
7473904712,2.312469,173.266129,-211.308838,0.662814,-1.007062,-0.404959
7473924729,42.664948,117.860405,-304.789825,1.002747,-0.237475,-0.100305
7473944711,66.869827,103.217255,-378.790710,2.326201,1.068771,0.183748
7473964712,-21.734480,114.539284,-298.773468,2.318801,0.702390,0.882458
7473984712,-315.483398,-21.904373,-114.353111,3.315759,-3.998357,-0.267891
7474004713,-116.895927,22.677885,116.742958,1.321473,-5.581762,-0.229799
7474024713,246.145676,-19.194921,183.919235,1.003048,-1.911576,0.372746
7474044714,321.619202,-49.277332,285.693939,2.430175,-0.283968,-0.180085
7474064714,310.749420,22.133425,354.611816,3.060113,0.920623,-0.626260
7474084714,222.707062,55.461853,423.735718,1.748910,0.640512,-0.296470
7474104714,76.255539,-37.469730,454.987732,0.760780,0.364918,-0.214251
7474124715,-15.802794,-114.767494,415.322510,0.158967,0.669356,-0.077307
7474144717,-13.030258,-158.563873,326.216248,-0.426057,0.905867,-0.050253
7474164717,41.355537,-156.123611,119.794350,-0.263169,2.161599,0.485961
7474184717,-35.993717,-117.820396,-147.142609,-0.061563,2.932735,0.738390
7474204718,-255.597015,-54.664936,-282.537476,0.649140,2.197635,1.020638
7474224718,-464.313843,-1.905823,-425.161896,2.481462,1.537552,0.164334
7474244719,-361.760773,122.240143,-440.928223,2.547104,-0.915458,-0.417041
7474264718,-172.235367,185.539719,-352.309967,1.434933,-1.211274,-0.222834
7474284718,46.506222,196.980469,-313.160522,2.075218,-1.168193,-0.348493
7474304718,162.861542,226.687775,-300.223846,2.473959,-0.349497,0.101854
7474324719,30.597408,132.105713,-254.704453,1.822817,-0.022127,0.275347
7474344719,-173.685471,-10.082019,-20.419901,1.264211,-3.676723,-0.321126
7474364720,-60.004040,-76.146004,245.906982,1.018029,-3.490037,-0.186455
7474384720,161.081268,-46.822773,321.031097,2.218168,-1.684161,0.728565
7474404721,293.052856,-36.293701,393.440552,3.038550,-0.378722,0.090291
7474424721,268.300903,48.393150,462.384491,2.493109,0.853046,0.011509
7474444721,78.996887,91.625313,452.664948,1.654867,1.290230,-0.111283
7474464721,-101.685181,5.521872,397.516327,0.843012,1.429693,-0.404736
7474484723,-172.820618,-146.791718,275.772064,-0.231417,1.443262,-0.597283
7474504723,-102.886101,-178.355392,85.916237,-0.614633,1.556467,-0.095898
7474524724,-77.563522,-104.776924,-141.775909,-0.725984,1.422911,1.491473
7474544724,-155.098999,31.958710,-367.810211,1.011713,0.768678,1.481894
7474564725,-128.050491,146.420837,-407.733582,2.655607,0.259080,0.463212
7474584725,-72.431114,221.614136,-289.072144,1.356181,-0.313684,-0.283938
7474604724,-44.395489,168.844574,-235.864456,0.889299,-0.437935,-0.523255
7474624725,-186.554474,115.014702,-296.191345,1.011367,-0.056369,-0.467320
7474644725,-223.194916,89.469086,-310.445648,2.590591,-2.659290,-0.140789
7474664726,-98.877754,0.073712,24.279205,2.846109,-5.711253,-0.432292
7474684726,174.352402,11.665014,97.315277,1.513724,-2.584111,0.226767
7474704726,287.165009,-47.646866,136.273804,1.880541,-0.757364,-0.254238
7474724727,261.990875,-32.757389,206.934311,2.278513,0.330711,-0.267222
7474744728,131.098602,-23.636137,309.367554,1.559146,0.182038,0.017341
7474764728,71.121948,-57.582928,367.649170,1.031092,-0.223429,0.230790
7474784728,50.978371,-68.461891,380.367401,0.812409,-0.011068,0.567661
7474804730,26.271542,-59.815548,345.955292,0.872773,0.393178,0.370138
7474824730,53.560089,-43.924042,297.487610,0.806832,0.528151,-0.110392
7474864731,11.850617,-98.717331,44.724247,-0.464762,2.240949,0.161082
7474884731,-123.043602,-99.300652,-167.088760,-0.695593,2.313861,0.899412
7474904731,-313.136322,-56.990044,-401.505249,0.673711,2.042939,1.122415
7474924732,-397.359375,-1.193071,-483.453918,4.350102,-0.143642,-1.035308
7474944731,-111.861130,215.865585,-299.558228,1.979265,-2.115367,0.302242
7474964731,45.370529,177.764374,-255.533661,0.930716,-1.131851,0.108097
7474984732,124.761627,143.970367,-292.531494,1.519300,0.023291,0.223431
7475004732,18.551849,159.328903,-341.184875,2.278844,0.732738,0.371141
7475024732,-198.074524,143.392624,-288.933960,2.603584,-0.954367,-0.269928
7475044733,-216.210754,-51.514725,-1.708233,1.593375,-5.267179,-1.462772
7475064733,-14.656881,-10.662093,156.133606,0.897307,-3.525905,0.539513
7475084734,309.485291,-40.489578,223.926941,1.472602,-1.056983,0.114044
7475104734,337.415436,-21.272795,297.995728,2.839190,0.467260,-0.433430
7475124735,198.511292,38.500011,367.733643,1.743514,1.102137,-0.050308
7475164737,-97.484192,-80.395874,276.517609,0.040154,1.514222,-0.038761
7475204737,-35.307724,-91.205666,0.411498,-0.318379,1.425262,0.741361
7475224738,31.377457,12.358187,-177.229492,-0.290131,1.474751,1.325675
7475244738,-49.100826,32.855961,-343.821014,0.813713,1.215217,0.782348
7475264738,-143.975891,63.633106,-338.313995,2.359725,0.449681,0.378493
7475284738,-215.425507,132.641815,-200.038147,1.609709,-0.337389,-0.160889
7475304738,-255.432129,120.064857,-201.979416,1.427982,-0.183806,-0.230299
7475324738,-208.091843,142.433044,-268.669647,1.955419,-0.055519,-0.229058
7475344739,-132.832504,126.414978,-206.854233,1.974808,-1.091993,-0.298864
7475364739,-175.100555,-26.284424,-45.524185,1.198961,-4.810122,-0.949544
7475384740,120.048416,-35.671444,92.268387,1.251616,-3.511874,1.181016
7475404740,364.586395,-8.824261,168.884842,2.424522,-0.748708,0.565762
7475424741,288.186829,-16.548477,258.044312,2.684817,0.351086,-0.331492
7475444741,140.404358,-10.588661,324.950928,1.697361,-0.056336,-0.058605
7475464741,53.431499,-4.896502,333.818512,1.279347,-0.035206,0.061829
7475484743,-15.010009,-38.170101,314.303314,0.868886,0.137973,0.235188
7475504743,-43.853867,-93.301483,286.643433,0.764594,0.298341,0.125772
7475524744,-27.918100,-121.586578,246.536346,0.514186,0.646363,0.157218
7475544747,20.495380,-102.418419,128.970581,-0.030037,1.250679,0.136434
7475564744,17.862846,-70.762009,-58.552925,-0.730833,2.034395,0.153459
7475584745,-176.537323,-42.749352,-277.899048,-0.367684,1.657656,1.611058
7475604745,-183.696930,93.870438,-455.542603,1.258660,0.815103,0.549791
7475624744,-93.563919,172.744232,-451.683838,2.340148,0.158674,0.018083
7475644745,-6.503756,179.812637,-344.172638,2.847978,0.083653,-0.425441
7475664745,-52.749420,140.161911,-292.394928,1.639933,-0.295897,-0.253169
7475684745,-214.217270,12.811259,-286.398865,2.380242,-2.873552,-0.426673
7475704746,-114.583206,9.162764,1.868908,1.376568,-5.339459,-0.043966
7475724746,214.475891,-15.187879,103.963936,1.441831,-2.372000,0.573056
7475744747,362.663330,-41.766300,198.171219,2.947828,-0.385254,0.096593
7475764747,319.713043,4.033465,280.658203,2.605062,1.075431,-0.036663
7475784747,122.099701,13.760408,286.866699,1.393763,1.097819,0.292313
7475804748,-54.170639,-38.404030,288.090759,0.641480,0.630128,0.024387
7475824749,-94.021927,-87.981499,269.096405,0.234754,0.432317,-0.311251
7475844750,-36.441616,-126.223083,252.698608,0.045646,0.411292,-0.408975
7475864751,93.893433,-108.472992,174.532349,-0.064701,0.764953,-0.157103
7475884751,53.425308,-90.719223,-8.522484,-0.220151,1.357734,0.621157
7475904751,-96.896713,-96.616783,-209.989410,0.507330,1.412005,0.822213
7475924751,-209.136612,-43.208313,-299.383362,1.654595,0.738157,0.606406
7475944752,-218.733292,62.211269,-242.404449,1.816991,-0.510425,0.346642
7475964751,-134.701874,103.728828,-135.179932,1.202743,-1.337115,0.238136
7475984751,-57.246086,106.079941,-76.793922,1.180124,-1.063545,-0.155243
7476004752,16.542973,109.913910,-88.144608,1.421167,-0.862971,-0.532714
7476024752,77.228737,43.882416,-89.004005,1.529250,-0.923425,-0.302747
7476044753,60.570362,-39.140724,-49.095806,1.560524,-0.776499,0.088090
7476064753,59.256367,-29.764030,-3.148731,1.272156,-0.747339,0.370885
7476084754,76.567383,-18.314192,34.268608,0.845641,-0.469182,0.620825
7476104754,52.282356,-18.095417,51.735432,0.770599,-0.072874,0.519207
7476124754,38.303570,16.062315,46.150124,0.867136,0.288343,0.182509
7476144755,15.250807,31.597610,21.631550,0.657917,0.370417,0.093854
7476164756,-31.442602,3.753284,-15.683647,0.647892,0.102301,0.000544
7476184757,-48.652023,-7.190406,-37.783482,0.784594,-0.214149,-0.013194
7476204758,-18.617586,5.383563,-40.835026,0.755117,-0.528753,0.084566
7476224758,21.279005,9.816900,-30.861856,0.670617,-0.428496,0.301551
7476244758,4.763067,6.334570,-32.146107,0.866729,0.035530,0.270764
7476264758,-19.158985,-1.003460,-42.209476,1.154907,0.233550,0.153136
7476284758,-31.095341,-9.832206,-49.159515,1.272977,-0.005067,0.208251
7476304757,-29.908989,-6.162192,-44.682762,1.077513,-0.210673,0.307957
7476324758,-21.553871,-4.390608,-40.746906,0.942012,-0.184518,0.283204
7476344758,-19.463406,-0.058551,-34.385056,0.973086,-0.069175,0.213697
7476364759,-20.357914,7.187762,-29.489450,1.043911,0.017806,0.177682
7476384759,-21.918619,1.150376,-28.459442,1.036136,0.032626,0.128210
7476404759,-23.177498,-7.353422,-26.378519,0.970604,-0.059768,0.136814
7476424760,-28.880960,-5.825029,-20.941067,0.904782,-0.186217,0.210977
7476444760,-30.204182,0.758106,-13.008358,0.986411,-0.214243,0.196631
7476464761,-18.718809,11.131513,-7.013179,1.020856,-0.118144,0.146791
7476484761,-14.037785,8.894233,-6.507666,0.927876,-0.037196,0.119892
7476504763,-18.408964,1.018999,-10.464448,0.863844,-0.014682,0.092722
7476524763,-14.459272,-10.277687,-15.477242,0.966172,0.005733,0.127280
7476544763,-15.926250,-7.484063,-15.741580,1.086089,0.012048,0.238033
7476564764,-27.028831,-1.750256,-15.929639,1.088717,-0.062268,0.257809
7476584764,-36.569668,-0.114044,-12.564964,1.002463,-0.115280,0.167177
7476604765,-39.606564,-0.531399,-10.702562,0.951119,-0.092881,0.100002
7476624765,-34.438988,-2.879583,-12.417773,1.001938,-0.036903,0.110326
7476644764,-28.784607,0.856307,-12.354147,1.060604,-0.034281,0.189870
7476664765,-38.089069,5.850579,-9.818904,0.975419,-0.046939,0.240014
7476684765,-53.184067,4.015847,-6.869086,0.941891,-0.022238,0.169516
7476704765,-57.853527,2.268634,-8.276110,0.985104,0.003677,0.075144
7476724766,-48.823338,0.074759,-5.662846,1.013557,-0.000447,0.045119
7476744766,-43.105297,-0.953115,-1.915035,0.915398,-0.003327,0.092337
7476764766,-46.206482,-7.129336,1.106068,0.844033,0.033223,0.107658
7476784767,-53.598400,-10.853322,4.166051,0.929851,0.078134,0.082565
7476804767,-63.761406,-9.787527,4.215243,1.064961,0.071708,0.068700
7476824768,-71.533974,-9.121071,-1.413779,1.086940,0.027609,0.030740
7476844769,-72.827606,-12.532034,-9.250119,0.992925,-0.031167,0.021393
7476864770,-70.837723,-15.350330,-15.561482,0.962915,-0.043597,0.010336
7476884770,-69.626572,-10.194115,-20.970718,0.974269,0.024177,0.024186
7476904770,-74.191986,-4.024183,-25.051079,0.984721,0.079244,0.050810
7476924771,-86.062874,-2.325642,-29.305777,1.017222,0.079554,0.038088
7476944772,-98.547409,-2.938708,-34.193130,1.080431,0.048471,-0.013886
7476964772,-101.866653,-1.270873,-36.617317,1.102431,0.028701,-0.073290
7476984771,-95.819855,-1.656877,-37.258736,1.058544,0.049667,-0.108899
7477004771,-89.164268,-5.804385,-36.419212,1.016496,0.071999,-0.097077
7477024772,-89.325218,-9.411533,-35.003845,1.016677,0.114404,-0.081125
7477044772,-95.306015,-9.750929,-32.915569,1.067795,0.187035,-0.100973
7477064772,-101.836037,-7.029192,-28.779243,1.072719,0.229743,-0.120371
7477084773,-109.834503,-11.568882,-26.047161,0.995998,0.188650,-0.119873
7477104773,-120.745979,-16.614422,-32.122307,0.998122,0.143188,-0.066521
7477124773,-127.570274,-9.753246,-44.623138,1.086681,0.117761,-0.041431
7477144774,-120.659210,3.470654,-44.889442,1.082388,0.138585,-0.009230
7477164774,-126.889725,9.064596,-32.955383,1.039355,0.153315,-0.053674
7477184776,-133.913208,3.515773,-23.695354,1.078316,0.062887,-0.159437
7477204777,-134.420746,-5.755094,-22.138742,1.081944,0.009668,-0.201272
7477224777,-116.807861,-1.850088,-27.624825,1.020409,-0.006769,-0.113341
7477244777,-99.983360,-2.189371,-29.729168,1.052082,0.046579,-0.035669
7477264778,-105.551277,-0.516239,-29.118568,1.053636,0.197033,0.024062
7477284778,-121.209518,3.318319,-30.546295,1.119231,0.225352,-0.040659
7477304779,-132.485519,2.943648,-31.025042,1.074137,0.120693,-0.128259
7477324777,-135.267380,-3.856825,-24.347288,1.011454,0.001730,-0.167927
7477344778,-121.240677,-3.199351,-17.194971,1.044132,-0.050402,-0.128851
7477364778,-103.063362,1.933858,-18.965530,1.031734,0.017591,-0.033239
7477384779,-97.759544,4.845234,-25.834757,0.990550,0.137732,0.049240
7477404779,-110.663315,6.226353,-33.358604,1.005332,0.214081,0.019392
7477424779,-123.075462,3.164165,-38.523968,1.005001,0.160767,-0.028502
7477444780,-124.305122,-2.320684,-36.540459,1.022606,-0.000904,-0.030584
7477464780,-117.544388,-2.689973,-28.309196,1.011149,-0.122674,-0.018977
7477484781,-104.858810,-1.417431,-24.132481,0.994643,-0.086346,-0.014137
7477504781,-93.640236,-3.726852,-22.083441,1.008989,-0.044513,0.027324
7477524783,-90.348389,-3.135136,-19.129820,1.076969,-0.038221,0.065858
7477544783,-89.745438,1.711857,-17.672674,1.089979,0.003432,0.080035
7477564784,-84.054878,1.390924,-14.406700,1.029462,0.009269,0.118741
7477584784,-77.905121,-0.579198,-8.080416,1.041230,0.009409,0.126885
7477604785,-74.629013,1.581991,-5.407413,1.032078,0.039378,0.117575
7477644785,-77.939018,-1.055188,-10.418697,0.974016,0.017567,0.051103
7477664784,-73.812897,-2.798668,-10.634824,0.957037,-0.007614,0.051319
7477684785,-67.386955,-3.805173,-10.036469,0.971436,-0.004213,0.068925
7477704785,-63.414673,-2.645980,-9.239141,0.987338,0.006329,0.098660
7477724786,-58.477684,-0.967650,-6.100378,0.956326,0.019699,0.142108
7477744786,-53.877502,-1.318525,-1.742583,0.944586,0.053354,0.170571
7477764786,-56.534538,-0.447259,0.347823,0.965818,0.097819,0.164720
7477784787,-64.953407,0.217463,-1.159399,0.993374,0.123403,0.151104
7477804787,-72.283188,0.820135,-5.490668,1.022400,0.104979,0.139000
7477824787,-75.822899,2.897199,-10.210702,1.049383,0.052949,0.138703
7477844788,-74.885017,4.494541,-10.480603,1.023602,0.020900,0.141490
7477864790,-72.204712,2.822707,-4.413400,0.985880,0.002885,0.148046
7477884790,-72.255180,3.170526,-1.815773,0.953995,-0.032226,0.143795
7477904790,-69.692467,3.117447,-1.842437,0.936898,-0.006669,0.138396
7477924791,-66.080734,2.612568,-4.903980,0.955785,0.042260,0.129716
7477944791,-65.553986,3.499264,-12.251364,0.966806,0.069541,0.140353
7477964792,-66.744652,2.331661,-18.054125,0.970684,0.078579,0.167801
7477984792,-69.053238,1.511550,-20.342461,0.990065,0.058445,0.174417
7478004791,-73.200691,1.980216,-20.447229,0.998793,0.023614,0.167287
7478024791,-74.660751,2.813602,-19.213247,0.988429,-0.007037,0.157255
7478044792,-72.401329,2.872725,-16.632462,0.970458,-0.022444,0.146638
7478064792,-70.730515,1.004758,-13.971858,0.982365,-0.014043,0.135136
7478084792,-69.321014,-1.099264,-13.026440,1.020904,-0.009019,0.130338
7478104793,-65.449387,-1.636554,-14.713543,1.031072,-0.019174,0.153674
7478124793,-60.779743,-1.147183,-16.500139,1.021927,-0.015977,0.179256
7478144794,-58.553570,0.242030,-16.478609,0.998685,-0.001207,0.198681
7478164794,-60.073849,2.912417,-15.412260,0.991885,0.010630,0.202626
7478184795,-63.213856,5.008370,-14.237123,0.993856,0.018227,0.202803
7478204796,-63.681961,5.878602,-12.681065,0.982103,0.013323,0.192088
7478224797,-62.720604,5.856283,-11.986217,0.968064,0.013319,0.183737
7478244797,-61.858921,5.734589,-11.404451,0.967074,0.029883,0.189949
7478264797,-61.791546,5.562235,-12.346296,0.981944,0.042446,0.194193
7478284798,-63.335381,5.327603,-16.153048,0.987541,0.021770,0.193290
7478304798,-62.711235,5.438250,-19.826880,0.967782,-0.007140,0.202018
7478324799,-59.602627,4.747417,-20.567484,0.971074,-0.008503,0.219677
7478344797,-58.070862,4.299200,-19.295761,0.990111,0.004476,0.227331
7478364798,-59.898979,4.751070,-18.339540,0.983262,0.001934,0.223835
7478384799,-60.938515,5.928414,-18.302134,0.967875,-0.014839,0.216823
7478404799,-57.118114,5.498334,-16.668579,0.950081,-0.031123,0.227749
7478424800,-52.428764,4.811822,-13.913130,0.965923,-0.027337,0.236333
7478444800,-50.306816,4.986598,-12.768515,0.969380,-0.019074,0.234417
7478464800,-48.239254,5.167372,-13.629904,0.961697,-0.020810,0.235096
7478484800,-46.106617,4.555908,-14.290417,0.964498,-0.022267,0.245454
7478504801,-43.403748,3.378058,-13.438699,0.967215,-0.023736,0.254808
7478524801,-40.962433,1.589181,-11.336726,0.960999,-0.027148,0.261274
7478544803,-40.484516,0.928495,-10.477188,0.944795,-0.037664,0.258354
7478564803,-38.713608,1.256370,-11.041515,0.951380,-0.045831,0.256448
7478584804,-33.823956,1.281250,-10.934776,0.967084,-0.045631,0.261893
7478604804,-30.261723,1.118236,-9.415242,0.961493,-0.030945,0.269821
7478624805,-29.126740,0.465236,-6.522120,0.943099,-0.022179,0.270687
7478644805,-27.554432,0.352645,-3.572651,0.928306,-0.008495,0.277534
7478664805,-26.747372,-0.064873,-2.692922,0.933063,0.003652,0.282229
7478684804,-26.778511,-0.106935,-3.551314,0.937420,0.012101,0.281961
7478704804,-28.212406,0.132143,-5.460880,0.944264,0.019591,0.275530
7478724805,-28.586657,0.267707,-7.671192,0.949241,0.025890,0.272017
7478744805,-29.138287,-0.169050,-8.457023,0.960862,0.024724,0.284010
7478764806,-30.447138,-1.163017,-8.195760,0.971520,0.013661,0.289030
7478784806,-31.231844,-0.925708,-8.466827,0.962272,-0.000781,0.282500
7478804807,-30.711561,-0.489004,-9.337507,0.941628,-0.010386,0.279521
7478824807,-29.310524,-1.026673,-9.333872,0.957964,-0.009513,0.275750
7478844807,-30.223309,-0.460493,-9.469056,0.981703,-0.018335,0.266182
7478864807,-30.840382,-0.269087,-9.672287,0.989175,-0.050136,0.252972
7478884809,-25.897924,-0.636964,-7.109422,0.975159,-0.084286,0.247062
7478904810,-18.441919,-0.274492,-3.391052,0.969806,-0.085913,0.252506
7478924810,-13.673736,-0.361040,-1.102242,0.946617,-0.058644,0.262434
7478944811,-12.109029,-1.893641,-0.160125,0.956768,-0.054718,0.265943
7478964811,-10.591865,-2.401783,2.958575,0.973885,-0.044811,0.278459
7478984811,-10.187566,-1.113981,6.279400,1.000226,-0.068218,0.282642
7479004812,-6.628857,-0.538698,9.140685,1.010947,-0.135653,0.274390
7479024811,3.254670,-2.244334,20.449078,1.023423,-0.166602,0.251914
7479044811,12.468896,-2.620114,38.525509,1.011605,-0.186596,0.291964
7479064812,14.113783,-3.370267,55.156345,1.023350,-0.233338,0.333665
7479084812,12.802739,-1.197445,67.319016,1.017124,-0.253028,0.346037
7479104813,14.546752,0.502646,76.437744,1.003664,-0.270879,0.311057
7479124813,18.682793,0.163346,82.986206,0.984485,-0.308059,0.282702
7479144814,22.777300,-2.678912,90.716515,0.988034,-0.302632,0.273350
7479164814,26.184898,-7.330544,99.180099,0.976925,-0.273664,0.267412
7479184814,21.999706,-8.848607,103.028564,0.964631,-0.223559,0.269346
7479204814,21.610710,-10.559988,103.699249,0.918759,-0.220799,0.254520
7479224816,23.676561,-14.017098,102.671967,0.899240,-0.219776,0.239896
7479244816,27.747446,-13.771840,95.622871,0.897906,-0.184320,0.257125
7479264817,29.679319,-18.387606,81.576202,0.874596,-0.102139,0.260827
7479284817,25.561743,-22.991831,66.364014,0.792048,-0.030090,0.250041
7479304818,17.042793,-25.360634,45.538296,0.733857,0.035013,0.260130
7479324818,1.755665,-18.744019,13.204960,0.766532,0.202465,0.270566
7479344818,-27.574326,-13.560251,-20.904371,0.745868,0.300600,0.325769
7479364817,-66.054962,-15.688808,-42.605030,0.777406,0.081896,0.303815
7479384818,-81.086884,-18.596642,-40.813332,1.014658,-0.319214,0.189498
7479404818,-60.451649,2.222319,-47.362614,1.085705,-0.285295,0.174823
7479424818,-46.850281,-3.716870,-66.715332,1.030942,-0.337319,0.155460
7479444819,-37.549629,-11.305598,-68.045692,1.099934,-0.509051,0.269713
7479464819,-20.376320,1.081603,-55.215832,1.026715,-0.484539,0.305085
7479484820,-13.130329,6.599787,-46.481510,0.978684,-0.341144,0.229973
7479504820,-16.787354,5.323330,-41.200279,0.991877,-0.215259,0.216313
7479524820,-20.809538,5.849644,-35.439194,0.952900,-0.067155,0.216929
7479564823,-36.019672,8.583960,-30.571737,0.946301,-0.009254,0.232118
7479584823,-43.092846,16.533367,-32.292912,0.926385,-0.018360,0.265078
7479604823,-46.876900,19.977924,-34.973801,0.932357,-0.003700,0.237457
7479624824,-50.263885,20.555389,-40.690849,0.970682,-0.035985,0.210791
7479644824,-53.521915,20.972549,-46.369762,0.979778,-0.115253,0.205351
7479664824,-55.127937,20.735067,-52.448418,0.964372,-0.175675,0.216431
7479684825,-54.994713,18.971045,-59.440014,0.962291,-0.159088,0.222632
7479704824,-52.784325,15.685443,-62.832119,0.970023,-0.082743,0.232939
7479744825,-51.074482,18.546669,-56.530258,1.111726,-0.006825,0.227635
7479764825,-52.087025,22.981256,-48.049675,1.083258,-0.011988,0.282066
7479784826,-56.825352,23.590443,-41.305382,1.075286,-0.053678,0.298225
7479804826,-58.452347,24.373741,-37.843800,1.099186,-0.152107,0.259021
7479824827,-52.591408,22.282152,-28.323929,1.085392,-0.208657,0.225454
7479844827,-46.061066,17.692150,-14.600951,0.993036,-0.265855,0.182622
7479864827,-39.601250,13.173287,-5.262792,0.912995,-0.281635,0.149312
7479884828,-29.410591,5.884140,0.917159,0.899189,-0.325845,0.114095
7479904830,-12.907136,0.864590,10.318102,0.948185,-0.381003,0.118355
7479924830,9.182920,-0.389199,21.234314,1.046140,-0.369291,0.154462
7479944830,26.203159,0.612032,31.943089,1.153652,-0.356062,0.170939
7479964831,41.894775,0.296290,52.071880,1.038190,-0.340480,0.243879
7479984833,45.357510,-6.893177,72.226883,0.941264,-0.334234,0.308027
7480004831,37.228054,-9.605042,85.803139,0.954354,-0.311750,0.297780
7480024832,29.508251,-5.509502,92.758026,1.006632,-0.297239,0.271174
7480044831,28.774668,-1.543417,99.058441,1.067361,-0.279085,0.232192
7480064831,27.153790,-0.588619,113.082291,1.013580,-0.262356,0.228931
7480084831,21.041121,-2.343367,123.840843,0.912699,-0.285983,0.245245
7480104832,16.888083,-4.477736,121.483292,0.859776,-0.288079,0.223673
7480124832,24.568369,-5.130954,110.363731,0.890461,-0.261293,0.197026
7480144833,31.532131,-5.507362,97.680733,0.941249,-0.216422,0.206152
7480164833,26.508484,-3.872465,88.835449,0.935880,-0.238852,0.276132
7480184833,17.718220,-3.304811,77.785591,0.880604,-0.278651,0.341590
7480204834,12.913896,-1.131840,60.235634,0.789697,-0.293511,0.350116
7480224834,12.213384,-0.638653,43.031696,0.744026,-0.299096,0.311431
7480244836,10.892419,0.368934,31.087009,0.764173,-0.299163,0.260371
7480264837,11.197611,4.890442,19.863695,0.750089,-0.294252,0.258694
7480284837,9.075376,6.145647,4.957805,0.738515,-0.277417,0.280849
7480304837,1.831464,3.528132,-11.229421,0.755790,-0.253831,0.296624
7480324845,-10.656564,-0.811780,-18.995220,0.796316,-0.301204,0.298763
7480344838,-18.603363,-2.153720,-18.869244,0.797790,-0.369350,0.284227
7480364838,-22.251244,-4.537260,-15.520865,0.814391,-0.455470,0.255798
7480384837,-23.222309,-7.167030,-11.043696,0.814500,-0.519529,0.251767
7480404837,-18.805401,-8.362132,-14.470558,0.834417,-0.495535,0.268200
7480424838,-11.710045,-12.373600,-20.131092,0.906138,-0.478874,0.204632
7480444838,-7.214589,-16.264935,-24.496008,0.910855,-0.505771,0.218775
7480464839,-0.379848,-19.583057,-23.919437,0.884418,-0.473765,0.237264
7480484839,7.947128,-20.221472,-23.361832,0.893878,-0.396658,0.284337
7480504839,7.956723,-19.553438,-25.614307,0.929519,-0.323078,0.314305
7480524840,3.570334,-18.080614,-24.734621,0.953561,-0.315650,0.284514
7480544840,-0.162468,-11.176577,-18.107048,0.947294,-0.305798,0.296705
