Timestamp (us),Gyroscope X (deg/s),Gyroscope Y (deg/s),Gyroscope Z (deg/s),Accelerometer X (g),Accelerometer Y (g),Accelerometer Z (g)
5149775728,11.626334,2.940222,5.305166,0.955602,0.045073,0.218059
5149795729,9.606792,3.466496,4.126509,0.979417,0.050577,0.212286
5149815732,7.181680,3.806934,2.099422,1.002162,0.048198,0.206805
5149835732,5.727252,3.048788,-1.097417,1.010500,0.045624,0.204465
5149855733,5.341049,0.804556,-5.113127,1.015411,0.036618,0.204927
5149875734,6.185331,-2.629924,-8.551514,0.995010,0.030479,0.203082
5149895735,8.107598,-7.231810,-11.510775,0.971611,0.040127,0.194672
5149915735,11.020148,-10.610793,-13.256607,0.974177,0.054163,0.181985
5149935736,13.334398,-11.572017,-13.597193,0.989457,0.074306,0.176539
5149955736,12.587114,-11.721258,-11.723665,0.990500,0.094731,0.188732
5149975737,9.263642,-11.531059,-8.927989,0.981373,0.104341,0.205185
5149995738,5.411136,-10.177256,-7.092688,0.967245,0.103075,0.216465
5150015739,2.354589,-8.195199,-5.765427,0.953557,0.102883,0.220891
5150035739,-0.796820,-6.820007,-5.453292,0.960572,0.104051,0.211274
5150055740,-3.287611,-4.447872,-5.156294,0.970042,0.095983,0.201460
5150115743,6.579067,2.468600,-0.733910,0.971997,0.055241,0.184227
5150135744,12.616157,2.928762,1.827801,0.961783,0.070768,0.180511
5150155747,16.917974,2.658545,3.694010,0.959820,0.090808,0.180457
5150175747,17.655340,2.027231,4.468636,0.961895,0.104622,0.183275
5150195748,14.936163,1.271098,4.195710,0.977984,0.109981,0.187733
5150215749,12.553848,0.810131,3.653931,0.985285,0.103518,0.191555
5150235750,12.446437,0.709852,3.343303,0.982535,0.097638,0.202199
5150255751,13.428414,0.192147,4.101098,0.963939,0.087885,0.204624
5150275752,14.007944,-1.531063,4.455831,0.943001,0.088268,0.206688
5150295751,12.905567,-3.809646,2.442174,0.954229,0.092405,0.201173
5150315752,11.206589,-4.746639,-0.015602,0.972688,0.093758,0.183277
5150335753,12.064126,-3.901644,-1.421628,0.974341,0.081486,0.173084
5150355754,15.521063,-1.819458,-2.480367,0.988357,0.080701,0.170774
5150375755,17.620001,1.589549,-1.084332,1.007698,0.088863,0.185347
5150395756,16.786957,4.264545,1.377131,1.024994,0.079060,0.205648
5150415757,11.525418,11.107963,2.289663,1.042580,0.091623,0.188483
5150435758,7.285670,20.362162,10.595950,1.002583,0.133273,0.231863
5150455759,3.832367,21.920418,15.620224,0.976899,0.099521,0.287309
5150475760,1.302622,23.781054,19.012646,1.005190,0.030159,0.284738
5150495762,5.486943,30.767776,23.627855,1.035369,0.006025,0.250203
5150515763,12.816594,36.824379,26.903027,1.021772,0.028322,0.288946
5150535764,16.971148,40.969986,28.886681,1.030940,0.029390,0.294586
5150555765,20.278820,45.079651,30.828766,1.035133,0.016290,0.306506
5150575766,22.555788,47.924240,27.416170,1.065602,0.014559,0.338674
5150595767,20.020245,57.104958,27.576118,1.129375,0.018658,0.351111
5150615767,11.241005,65.880997,38.511879,1.058923,-0.013102,0.365119
5150635767,6.199228,69.828812,48.092178,0.966340,-0.032871,0.377444
5150655768,5.257985,64.815033,58.021141,0.910370,-0.045846,0.391583
5150675769,0.257821,58.566772,62.426731,0.903574,-0.066467,0.369848
5150695769,-3.346509,56.331432,60.006340,0.915915,-0.108462,0.324827
5150715770,4.485778,58.009048,56.596443,0.932794,-0.150022,0.316970
5150735771,22.990198,57.630020,58.405872,0.921347,-0.132787,0.335563
5150775773,38.777363,44.479710,68.462494,0.841919,-0.073258,0.382011
5150795774,34.703072,39.877422,63.448402,0.851418,-0.064209,0.412251
5150815775,31.947990,37.031700,56.573700,0.850131,-0.045499,0.415508
5150835777,27.151930,34.644791,52.008823,0.809937,-0.018933,0.433669
5150855778,18.772848,27.469885,50.278587,0.776558,-0.018640,0.455494
5150875779,8.518468,15.574511,48.920273,0.755228,-0.049624,0.450373
5150895780,3.379748,5.054608,44.758606,0.745685,-0.081807,0.436086
5150915781,-0.797028,0.327946,34.296825,0.782223,-0.103074,0.433405
5150935781,-3.183221,1.552327,25.669333,0.805716,-0.132536,0.448598
5150955782,-0.163221,-4.654303,20.994883,0.762946,-0.146283,0.460054
5150995783,-1.003379,-25.639669,15.303156,0.740567,-0.051906,0.434389
5151015784,-7.293388,-40.329933,20.315250,0.699214,-0.065408,0.439653
5151035785,-12.627717,-57.003181,17.664238,0.741351,-0.117090,0.422537
5151055785,-19.226051,-64.022873,6.198009,0.870330,-0.155972,0.399440
5151075786,-20.900354,-58.702339,-4.928690,0.981526,-0.150977,0.424107
5151095787,-23.612139,-47.837570,-6.728600,1.021510,-0.158039,0.517112
5151115788,-34.277149,-39.546497,5.350277,1.009866,-0.245072,0.618123
5151135789,-36.272243,-37.232922,21.102324,0.967973,-0.388786,0.613889
5151155790,-14.320496,-31.659409,27.687002,0.960701,-0.428100,0.523933
5151175793,9.414498,-13.883295,24.519062,0.948400,-0.313712,0.424997
5151195794,15.199504,8.867861,17.854073,0.879179,-0.179977,0.393147
5151215794,4.684675,22.265577,8.433393,0.817976,-0.131843,0.407207
5151235795,-12.948861,23.859909,-1.987968,0.811514,-0.153124,0.422429
5151255796,-26.399698,20.752314,-9.329391,0.837072,-0.205085,0.418467
5151275797,-31.712034,16.763515,-9.461827,0.877527,-0.260189,0.432857
5151295817,-31.245945,9.831027,-4.599354,0.899662,-0.301427,0.417203
5151315797,-29.515453,13.337389,-8.681198,0.975602,-0.396798,0.363882
5151335798,-31.972296,42.569931,-21.880949,0.949037,-0.420842,0.359514
5151355799,-19.154949,44.438328,-19.014622,0.783181,-0.337342,0.383926
5151375800,6.100207,14.203076,0.529769,0.705907,-0.307672,0.392544
5151395801,16.039295,1.661040,9.964398,0.785212,-0.314866,0.356693
5151415802,11.955385,5.197225,16.890018,0.838197,-0.243060,0.351927
5151435803,0.001645,20.755014,23.341129,0.917568,-0.233250,0.443518
5151455804,-2.998809,40.474422,33.190178,0.963103,-0.354496,0.557124
5151475805,-1.307355,41.682800,33.351757,0.901545,-0.383170,0.628367
5151495805,-6.364979,13.000229,24.362881,0.759303,-0.273399,0.528924
5151515808,-21.929552,-30.064718,20.099993,0.637700,-0.248358,0.377081
5151535808,-20.795975,-53.773949,5.459582,0.822997,-0.388279,0.282035
5151555809,3.609935,-38.506977,-5.550162,1.103649,-0.445431,0.318668
5151575810,62.613571,-32.090897,-0.331652,1.101868,-0.182701,0.418327
5151595811,102.166466,-17.262823,-11.302205,1.088362,0.308222,0.520929
5151615812,79.447197,9.992541,-42.023293,0.989337,0.907827,0.690781
5151635827,-24.072918,30.488873,-68.225807,1.091957,1.180662,0.812680
5151655812,-159.397018,49.535923,-87.589066,1.315153,0.941815,0.632697
5151675814,-237.750565,62.562836,-101.303383,1.369235,0.575999,0.191353
5151695814,-228.271271,89.625412,-127.816254,1.351560,0.587254,-0.147320
5151715815,-183.673920,142.100784,-162.812027,1.188348,0.792687,-0.263221
5151735816,-159.120575,153.121994,-220.615112,1.020247,1.027748,-0.329641
5151755817,-278.376678,76.728317,-231.746201,1.281639,0.890482,-0.571094
5151775818,-365.465454,48.418030,-260.933472,1.711678,0.454812,-1.093323
5151795819,-299.672211,17.276711,-286.740570,1.842112,0.142287,-1.572663
5151815820,-188.203430,4.307775,-313.993835,1.469213,0.152303,-1.501408
5151835821,-234.749725,-91.842514,-338.521912,0.976585,1.071447,-1.596930
5151855823,-410.663635,-185.945526,-303.193573,1.275700,1.109974,-2.552559
5151875824,-557.322754,-236.953476,-283.119324,1.342551,0.215147,-3.192708
5151895825,-442.762756,-215.050980,-309.625214,2.108672,-1.537777,-2.411362
5151915826,-201.903824,-179.128357,-260.869476,4.529499,-3.111851,-0.192488
5151935827,-384.018311,-22.038496,-54.496140,3.992605,-1.472263,1.489326
5151955828,-500.792450,-59.558273,-39.361511,1.281701,0.829748,-0.190425
5151975831,-540.039795,-29.776943,-105.568237,1.696291,-0.283967,-1.730951
5151995828,-439.457581,-40.273571,-204.019150,1.906448,-2.013031,-1.389122
5152015829,-190.971710,-104.950714,-123.791306,1.195119,-1.276184,-0.603712
5152035830,-105.599228,-130.880310,-49.210270,0.976415,-0.209848,-0.152623
5152055831,-219.006104,-100.232147,-49.796288,0.952524,0.427380,-0.183634
5152075832,-329.098572,-56.653709,-40.622513,0.982394,0.346019,-0.406203
5152095833,-384.428345,-28.142796,-24.760798,0.891563,0.095681,-0.488559
5152115833,-394.149048,-25.495827,-9.210547,0.670157,-0.040088,-0.591047
5152135835,-388.986969,-33.313904,-1.766537,0.646388,-0.180569,-0.577543
5152155835,-354.202454,-38.453213,2.809456,0.824715,-0.260935,-0.478827
5152175836,-293.634125,-36.052425,1.488394,1.006285,-0.144147,-0.357840
5152195839,-259.813446,-24.101696,-5.369688,1.124248,0.169099,-0.266965
5152215840,-278.134521,-6.426442,-14.606915,1.285407,0.482564,-0.357270
5152235841,-342.548981,8.830322,-12.740382,1.417977,0.713842,-0.655578
5152255842,-411.277710,33.820145,11.702164,1.534432,0.734797,-0.911776
5152275842,-449.449280,59.977974,40.126274,1.642849,0.651814,-1.105891
5152295843,-487.477814,92.660149,50.182953,1.691507,0.583924,-1.299379
5152315848,-523.391235,127.723091,42.368343,1.653281,0.363526,-1.549412
5152335844,-520.985413,166.678848,22.620071,1.595233,0.012372,-1.742086
5152355844,-460.033844,216.119202,0.626612,1.570769,-0.485013,-1.869690
5152375845,-400.141083,251.345703,-23.828159,1.419345,-0.806768,-1.696334
5152395846,-353.319489,273.809692,-45.991955,1.240317,-0.725591,-1.599685
5152415847,-341.511292,277.268402,-62.331749,1.214604,-0.584472,-1.591074
5152435848,-357.748474,279.515808,-62.731327,1.273597,-0.682866,-1.556769
5152455849,-376.865570,283.346497,-55.669983,1.221647,-1.015646,-1.390270
5152475850,-357.540161,288.964569,-54.165070,1.099202,-1.412852,-1.218382
5152495851,-297.297241,278.731323,-70.200470,1.016162,-1.685338,-0.924780
5152535854,-168.476501,230.662506,-110.277542,0.903569,-1.607145,-0.385561
5152555855,-127.868134,215.521179,-96.920784,0.697291,-1.211921,-0.198325
5152575856,-149.705948,212.498291,-97.726837,0.630382,-1.003467,-0.182772
5152595857,-176.697723,211.319504,-95.363998,0.714292,-1.085011,-0.172830
5152615858,-168.587845,208.491684,-96.786499,0.793502,-1.235894,-0.193704
5152635859,-134.542831,210.176941,-108.873016,0.782194,-1.265406,-0.208141
5152655859,-93.692230,207.335602,-106.554153,0.650860,-1.155797,-0.213884
5152675859,-74.030449,206.586288,-90.324799,0.489534,-0.960537,-0.167518
5152695860,-90.018059,208.596970,-77.638382,0.332077,-0.836099,-0.065022
5152715861,-121.977730,204.493759,-67.731445,0.197069,-0.834496,-0.006932
5152735862,-145.320007,189.473145,-52.327663,0.044631,-1.023095,0.010941
5152755863,-141.766220,166.102890,-35.496620,0.087704,-1.112587,0.021142
5152775864,-116.353996,140.758011,-21.773411,0.133606,-0.975213,0.147288
5152795865,-102.008926,126.026756,-13.131715,0.206257,-0.851956,0.203227
5152815865,-86.044029,127.189529,-9.258257,0.358973,-0.909457,0.203732
5152835866,-65.406769,131.587265,-11.925838,0.454003,-0.986185,0.223655
5152855867,-56.498787,117.971657,-25.545616,0.481726,-0.850295,0.250944
5152875870,-85.420616,102.520386,-43.543869,0.693534,-0.642874,0.137146
5152915871,-153.865860,130.889877,-47.820629,0.548607,-0.638511,0.271806
5152935872,-199.480423,116.822014,-53.985134,0.323990,-0.952063,0.261957
5152955873,-204.232849,109.998749,-37.084766,0.729518,-1.750673,0.227867
5152975874,-121.846085,109.009399,43.620693,0.232438,-2.426192,0.140019
5152995880,-34.334332,40.250626,34.975788,0.376037,-1.721851,-0.015943
5153015875,65.757881,38.810280,0.822052,0.542581,-0.669504,-0.047948
5153035876,89.711960,81.513535,-39.385056,0.334710,0.010643,0.271811
5153055876,64.413483,120.558319,-74.646606,0.501688,0.160858,0.598013
5153075877,52.112114,205.156052,-92.064804,0.745624,-0.169342,0.150736
5153095878,34.441078,202.831573,-110.546333,0.078961,-0.385909,0.317380
5153115879,56.296265,103.237068,-129.360229,0.226573,-1.030416,0.010240
5153135880,169.697144,90.253822,-152.001831,0.516210,-0.959481,0.631883
5153155881,90.495094,44.270260,-185.917389,0.465464,0.054708,0.883054
5153175882,50.599468,41.736294,-226.630875,1.188246,-0.050684,0.058595
5153195883,58.299145,34.074734,-255.843185,0.995201,-0.488839,0.783722
5153215885,52.125004,-12.696731,-285.544312,0.882798,-0.287160,0.607821
5153235886,17.050358,-65.817581,-314.210754,0.715499,-0.304890,0.753633
5153255887,-39.920059,-126.474342,-356.528229,1.036975,-0.582073,1.076829
5153275888,-63.810345,-200.978104,-457.091705,1.639764,-0.341255,0.890379
5153295888,-91.279434,-241.408859,-586.458069,1.897463,0.518702,-0.590651
5153315889,-122.512283,-210.890533,-633.782349,1.097077,1.216316,-0.429913
5153335889,-351.532501,-264.412506,-504.855103,10.161448,-2.054477,-0.034729
5153355890,-725.507141,117.993622,223.698318,0.690140,-7.678701,4.997419
5153375892,263.562531,169.719437,260.081085,0.378631,-3.012710,-0.023722
5153395892,352.164642,255.079773,208.852615,0.489081,-0.757020,-1.059191
5153415893,182.936859,196.313477,274.767548,1.239711,0.470604,-0.339577
5153435894,5.299805,203.702118,391.085785,1.767039,-0.010670,0.015007
5153455895,9.461174,224.970993,460.876648,0.951816,0.141900,-0.187009
5153475896,1.520574,188.243332,420.719391,0.700150,0.383890,-0.058260
5153495897,-64.853485,177.365356,362.009827,0.792658,0.409116,-0.197551
5153515897,-108.101799,102.225677,315.880463,0.137153,1.320920,-0.335830
5153535900,-160.163986,-4.359413,264.454803,-0.372249,1.347281,-0.429934
5153555900,-223.589020,-99.153717,140.081573,-0.230746,0.777181,-0.279186
5153575901,-191.258316,-153.335938,-4.625850,0.914877,0.323850,-0.486265
5153595902,111.784637,-57.002819,-115.846848,1.531469,0.048851,0.407692
5153615910,317.691986,135.220169,-160.450623,1.499990,0.323689,1.919355
5153635904,27.597038,34.845135,-171.726166,0.960127,0.842228,1.691776
5153655905,-144.140747,6.677083,-206.690460,1.444640,-0.147378,0.764574
5153675904,-69.119720,17.185837,-226.436295,0.683365,-1.472420,0.177702
5153695905,73.839180,-36.520096,-282.913757,0.317549,-1.387742,0.013636
5153715906,130.070374,-110.889259,-327.867126,-0.066287,-0.437165,0.605132
5153735907,55.963078,-188.969696,-385.469177,0.403612,-0.004046,0.960960
5153755908,-25.510532,-282.662109,-506.824036,1.501086,0.039691,0.186326
5153775909,-108.745079,-289.321960,-640.374634,3.642331,1.216933,-0.033776
5153795910,-232.608978,-101.856659,-251.580307,6.595538,-4.821715,4.246940
5153815911,-233.803024,152.794678,362.535797,1.502463,-4.662515,2.166384
5153835912,252.818787,201.088684,266.675385,0.593695,-1.445151,-0.546147
5153855913,230.237152,159.334702,206.043915,1.601158,-0.099286,0.482001
5153875915,-4.588468,173.415024,362.238800,1.450461,-0.090090,0.170844
5153895916,-40.092186,149.487396,409.161804,0.278030,-0.477959,0.005097
5153915917,54.598667,132.482544,350.215454,0.559605,-0.567965,-0.321619
5153935918,106.939552,89.440178,289.019623,0.575358,0.345617,-0.382930
5153955918,42.849388,-5.814790,241.640350,0.385981,1.474347,-0.654940
5153975919,-13.305930,-61.033585,177.332443,0.132324,1.505448,-0.858375
5153995920,-34.586807,-117.376343,47.075283,0.107478,1.442371,-0.672030
5154015920,-21.910995,-133.588699,-109.949394,0.701678,1.888064,-0.689041
5154035921,143.832108,-25.159302,-297.959290,1.333092,2.282882,0.691814
5154055921,-101.608414,-15.472483,-231.398560,2.071098,1.370359,1.677060
5154075923,-414.554260,-130.961990,-295.795319,1.494075,1.205377,-0.536303
5154095924,-232.445969,6.685779,-291.939209,1.405197,-2.513962,-0.488900
5154115925,-24.053194,-115.421989,-411.267212,0.921845,-1.673911,-0.450210
5154135925,86.865570,-188.248138,-494.405670,1.082664,-0.183121,0.417684
5154155926,54.120365,-299.310089,-558.863770,1.752447,0.708532,-0.734407
5154175927,5.421949,-281.924591,-480.591339,4.309588,0.855238,0.664174
5154195928,-400.004578,45.298351,-111.092628,5.667252,-2.982100,3.121296
5154215931,-342.339020,223.566345,243.074387,1.247348,-2.579227,0.046320
5154235931,-39.236092,127.777222,173.441254,0.287735,-1.548812,-0.124663
5154255932,43.450352,101.602478,187.620956,1.951270,-0.910426,0.462140
5154275933,16.519962,144.444717,330.333710,1.666589,-0.638050,0.168852
5154295934,-14.373688,157.072693,364.075012,0.670847,0.002358,0.089149
5154315935,-34.802788,157.522766,356.749359,0.613525,-0.061518,-0.190482
5154335936,-10.762760,151.081848,334.220276,0.578502,0.130583,-0.279438
5154355935,-52.627304,79.194695,249.168869,0.681993,0.999512,-0.040536
5154375936,-137.869049,0.051496,190.778976,0.604077,1.130948,-0.176061
5154395937,-164.866760,-37.771362,125.157127,0.380974,0.720300,-0.279450
5154415938,-146.259399,-44.401218,10.276222,0.516800,0.678141,-0.464247
5154435939,-36.487831,44.641098,-161.811478,0.777366,0.694881,-0.947609
5154455940,90.900658,69.381775,-308.754730,0.736611,1.034428,0.358550
5154475941,-0.409512,91.863335,-312.414001,1.088803,-1.035256,1.705408
5154495942,-162.777435,-108.211655,-317.779541,0.857101,-1.396369,-1.378056
5154515942,4.134429,-159.219360,-381.256042,0.519813,-2.169673,-0.420279
5154535943,90.728470,-310.804626,-418.968719,0.955251,-1.249277,-0.419182
5154555946,185.081146,-349.893524,-446.048187,2.851935,0.025940,-0.266253
5154575947,295.408936,-283.110413,-338.457947,3.201336,1.275509,2.294571
5154595948,-78.351379,-91.866997,-194.666489,3.827910,-0.443445,2.231877
5154615949,-478.799622,91.892105,7.035762,1.602009,-2.828966,-0.077442
5154635949,-265.923767,40.364410,81.401184,-0.346216,-3.634735,-0.541397
5154655951,320.391663,-78.211273,78.447342,0.196859,-1.889268,-0.107577
5154675951,570.250305,-109.948349,21.290791,1.042516,1.372627,-0.266394
5154695951,388.005432,-124.527069,-70.043785,0.328871,3.049819,0.312807
5154715951,-48.910034,-67.837494,-117.776649,0.535050,1.547150,0.651300
5154735953,-306.712585,-25.664202,-72.394897,2.056463,-0.801893,0.623715
5154755954,-258.942627,3.405979,46.511494,0.585140,-1.673177,0.144040
5154775954,82.788612,-11.865610,-21.565653,0.538937,-1.247140,0.593569
5154795956,302.690125,-40.371952,-22.349724,1.094676,-0.335165,0.711669
5154815957,258.200531,-36.655636,11.782884,1.102826,0.519875,0.391396
5154835958,126.770531,-31.714806,24.025826,0.484956,0.196367,0.386497
5154855958,49.335815,-35.028130,46.660614,0.660409,-0.310408,0.489730
5154875959,41.474892,-22.542391,89.895348,0.661749,-0.613585,0.446969
5154895962,103.397400,-6.071786,88.131950,0.857069,-0.578591,0.450131
5154915962,160.269440,-1.202917,85.707077,1.237637,-0.550911,0.483456
5154935963,159.723587,-7.286735,118.102715,0.997352,-0.645815,0.178470
5154955964,166.876556,-3.586812,140.668884,0.607171,-0.725275,-0.165114
5154975965,232.503448,14.622477,147.673126,0.673813,-0.593138,-0.386853
5154995966,297.479980,21.402496,134.890274,0.961774,-0.105257,-0.418724
5155015986,291.232483,16.415976,119.803551,1.260958,0.436943,-0.373417
5155035967,215.771072,27.866257,122.832108,1.030478,0.484072,-0.254778
5155055967,155.650085,43.998890,144.950073,0.649473,0.296510,0.087698
5155075968,93.130562,30.802536,173.048233,0.763954,-0.305030,0.053306
5155095969,92.943642,10.256012,188.166138,1.171116,-0.922857,0.273594
5155115970,155.458160,-1.743781,185.396774,1.542520,-1.099547,0.464032
5155135971,176.655350,-12.034942,218.168152,1.617039,-0.910430,0.462242
5155155972,170.590958,2.118826,253.954956,1.454957,-0.899076,0.481963
5155175973,190.006027,-9.194447,256.303741,1.010179,-0.635244,0.402556
5155195974,162.072342,-43.496437,238.515594,1.073750,-0.489299,0.143723
5155215975,157.085892,-76.071266,194.663116,1.050014,-0.451862,0.075682
5155235977,179.625641,-98.055717,123.248848,1.770157,-0.210220,0.253990
5155255978,168.715881,-57.353828,123.167374,1.976814,0.346322,1.062814
5155275979,94.252319,-14.757399,139.409821,0.898993,0.818354,1.108106
5155295980,24.119785,28.788013,113.451859,0.363092,0.392058,0.947077
5155315981,-3.206351,49.464424,83.518768,0.518825,0.099014,0.748549
5155335982,6.090436,56.056244,80.155914,0.466324,-0.307636,0.669072
5155355981,17.677393,35.706631,71.144424,0.203755,-0.267988,0.706593
5155375982,-3.347137,0.057648,32.037498,-0.022187,-0.185024,0.814146
5155395982,-0.127554,-40.675735,-0.355710,-0.004922,-0.229318,0.761912
5155415984,-45.974403,-76.906326,-51.543541,0.251325,-0.206573,0.507550
5155435984,-99.396072,-73.936066,-85.943153,0.541400,-0.412204,0.505329
5155455985,-102.159561,-78.642982,-62.070076,0.661799,-0.935885,0.762240
5155475986,-40.071609,-97.752754,-28.434820,0.603883,-1.370225,0.918656
5155495987,51.979301,-93.971916,-7.639895,0.451083,-1.429771,0.965282
5155515988,84.623352,-106.160812,-23.114811,0.244079,-0.928476,0.775435
5155535989,36.537128,-125.310951,-28.371063,0.334629,-0.509273,0.422735
5155575992,-34.169773,-62.695309,38.071072,1.255027,-1.766099,1.021051
5155595993,66.746086,2.145702,104.714676,0.699779,-2.242468,1.016760
5155615994,94.620346,-17.664459,79.036995,0.060095,-1.333416,0.595273
5155635995,65.430367,-107.587112,48.230698,0.454977,-0.936787,0.145007
5155655996,115.899399,-144.902466,49.483997,0.919829,-0.932207,-0.288315
5155675997,220.724899,-98.770950,39.243683,0.924369,-0.943958,-0.143510
5155695996,271.505157,-78.041687,47.900169,0.494669,-0.607642,0.151022
5155715997,247.527557,-107.231812,38.034904,0.426946,-0.364850,0.589284
5155735998,197.282944,-140.169708,39.226852,0.823514,-0.219703,0.774392
5155755999,134.385925,-100.428345,56.820080,0.646657,-0.517822,0.713158
5155776000,134.592560,-47.472664,70.007118,-0.589945,-0.851455,0.399072
5155796001,201.797241,-70.235031,88.771248,-0.129222,-0.275477,0.458622
5155816002,229.997650,-81.354271,145.908234,0.968580,0.410581,0.381416
5155836003,201.685455,-68.738220,155.882294,0.970660,0.699670,0.670804
5155856004,112.510994,-56.830849,113.193039,0.262661,0.458999,1.010258
5155876005,32.050835,-60.780083,71.561745,0.033142,0.160786,1.061330
5155896007,-34.855095,-84.769447,62.089375,0.175160,0.068504,0.921515
5155916008,-84.774010,-82.189957,79.806976,0.445928,-0.150512,0.736689
5155936009,-86.993088,-64.024048,95.427399,0.514537,-0.475602,0.704429
5155956010,-57.730728,-48.549038,92.670197,0.295074,-0.715300,0.806514
5155976011,-57.783154,-46.427864,75.053162,0.117997,-0.924510,0.884841
5155996011,-77.846268,-40.696033,64.190979,0.110659,-1.198343,0.770849
5156036012,-37.405094,-35.238373,55.523453,-0.284878,-1.289008,0.316099
5156056013,38.795120,-74.227119,16.154741,-0.120548,-1.154722,0.382826
5156076014,125.576759,-82.530136,0.004551,0.517146,-1.513953,0.669145
5156096015,168.246948,-120.938843,-25.200449,0.153994,-1.895671,0.652016
5156116016,188.893555,-190.149384,-58.083729,0.780876,-0.680331,0.425112
5156136017,227.584213,-199.874359,50.651699,0.601363,-1.251018,0.097400
5156156017,200.545990,-209.071640,19.469643,0.042666,-1.311656,0.101646
5156176018,204.583359,-169.447617,-8.017632,0.797300,-1.065279,0.014059
5156196019,256.061462,-113.671799,3.151763,1.180409,-0.820182,0.823880
5156216021,235.610474,-126.434723,28.570827,0.329684,-0.689748,0.705858
5156236023,275.387878,-107.302704,120.938301,-0.402934,0.469152,0.301671
5156256024,199.271515,-64.746155,187.860840,0.661788,0.969320,0.773650
5156276025,29.865337,-18.430689,203.684174,1.063385,0.595670,1.284396
5156296025,-101.913963,-40.272606,208.389984,0.292969,0.323169,0.812703
5156316026,-127.887840,-74.348366,157.086426,0.120343,-0.459525,0.259272
5156336027,-30.338825,-119.965431,130.044769,0.248966,-0.692941,-0.030750
5156356028,59.340984,-152.912582,143.227676,0.256154,-0.151346,-0.034712
5156376028,65.898529,-170.049194,144.833282,0.232937,-0.058274,0.158463
5156396028,47.412064,-187.008301,96.085289,0.566436,-0.073675,0.281460
5156416029,28.612244,-183.576096,24.843431,1.201508,0.123089,0.748758
5156436030,-2.480336,-61.953430,52.673264,1.749616,-0.537406,1.798183
5156456031,-75.125870,55.648594,170.580872,1.037632,-1.669390,2.101851
5156476032,-48.950531,-34.501709,85.377441,0.628400,-0.830828,0.996450
5156496033,-50.272476,-27.353146,-15.408515,0.806080,0.279097,0.170178
5156516034,-35.722172,85.262413,-30.576202,0.629686,-0.299669,0.362464
5156536035,-42.784599,89.984749,-11.513815,-0.191574,-2.346764,0.952195
5156556036,28.553453,-0.900243,-63.703522,0.115390,-2.427055,0.916384
5156576038,146.488693,-86.312469,-78.612953,-0.081979,-1.684313,0.188029
5156596039,169.811890,-118.010315,-110.348618,-0.097721,-1.206755,0.147422
5156616040,216.140533,-161.807373,-152.340454,0.001670,-1.455174,-0.097147
5156636041,321.733276,-211.440292,-195.169281,0.312702,-1.356616,-0.632705
5156656042,373.968750,-244.869827,-175.589249,1.108169,-0.433186,-0.502425
5156676043,329.046387,-198.501785,-60.897476,2.375211,0.362583,1.391762
5156696044,155.980957,-91.030502,122.641068,1.428766,0.754357,2.750667
5156716043,91.270775,91.459007,207.677933,0.590571,0.129844,1.840387
5156736044,41.611050,205.540741,182.119843,1.998829,0.368238,0.841864
5156776046,-183.784012,80.654259,215.123596,-0.624441,0.040657,-0.385854
5156796047,-135.319153,-39.564491,90.559708,-0.333125,-0.287964,-0.709718
5156816047,24.838865,-121.591911,-11.403166,0.288363,-0.072265,-1.162767
5156836048,361.643372,-118.212456,-113.260605,0.538972,1.529331,-0.772279
5156856049,357.786530,-41.777023,-206.073410,0.872020,3.607116,1.564854
5156876050,-254.295853,-151.080154,-163.037445,0.425597,1.848991,0.275312
5156896051,-71.104843,-63.514118,-228.667969,0.730503,-1.194498,-1.148644
5156916054,115.205063,-160.687469,-365.957703,0.781444,-0.130166,0.521108
5156936055,149.203690,-300.865601,-480.706329,0.821126,1.915138,0.344410
5156956055,-82.792458,-408.948456,-699.263794,0.248257,2.897771,0.570924
5156976057,-479.009094,-277.913544,-575.812561,13.156987,1.618501,-0.241795
5156996057,-1111.592651,210.094254,148.040359,2.165133,-7.942281,2.364377
5157016058,-30.826134,183.115814,216.779785,1.125245,-4.859743,-0.022306
5157036071,468.245636,64.613167,160.831177,1.639141,-1.052429,-1.391978
5157056058,259.809082,63.816723,280.708923,3.169859,-0.279612,0.343490
5157076060,114.499580,130.114197,476.230774,1.909415,0.148424,0.321761
5157096060,1.343608,188.497940,445.644836,0.896545,0.816474,-0.043317
5157116061,-39.039291,213.743454,408.257751,0.556515,0.550337,-0.252176
5157136062,-56.743584,201.321152,371.355743,0.120807,0.385215,-0.290330
5157156063,-122.747383,103.765915,271.317078,0.272318,0.918604,-0.234608
5157176064,-177.573898,-16.088900,199.856339,0.708649,1.004955,-0.465604
5157196064,-164.472473,-46.763672,142.758148,0.185567,0.432123,-0.467542
5157236066,-15.954273,-37.552479,-72.286072,0.801175,0.819753,-0.254035
5157256069,26.054245,12.962170,-170.875183,1.499736,0.869521,0.072312
5157276070,71.598427,257.631195,-187.702576,2.549769,-0.322904,0.770188
5157296070,-17.699482,126.088028,-138.176605,1.062563,0.135020,1.090789
5157316072,-164.573471,38.168404,-249.805313,0.935586,-0.425665,-0.048286
5157336072,-126.870300,28.603987,-300.963684,0.688717,-1.123475,-0.872128
5157356073,1.411954,-20.095146,-389.610413,-0.074236,-1.535694,-0.601832
5157376073,71.256500,-143.333832,-473.799408,0.760511,-0.785931,0.187633
5157396073,45.339756,-254.685852,-532.603027,1.330316,0.218755,0.154126
5157416074,-33.388203,-275.969910,-549.488586,3.966445,0.853396,-0.023742
5157436076,-162.306137,-40.324451,-265.008087,5.409633,-2.629797,2.958404
5157456076,-375.885010,181.461227,209.943405,1.999100,-2.993064,0.986461
5157476077,-171.319290,206.322250,209.762604,-0.080650,-1.933916,-0.271868
5157496078,-48.722149,127.975723,223.107376,1.377547,-1.270332,0.050142
5157516079,46.089417,145.190125,346.047455,2.047234,-0.690203,0.023160
5157536080,32.332588,170.982605,403.885101,1.003740,0.329457,0.030829
5157556081,-20.157345,163.433838,362.643921,0.512623,0.612739,-0.053995
5157576083,-83.692650,132.911011,290.377289,0.298669,0.734710,-0.213912
5157596084,-156.122177,55.412624,211.555161,0.107167,1.062351,-0.261648
5157616085,-207.665939,-9.709776,125.878967,0.355634,0.664452,-0.439936
5157636086,-172.736404,-25.074806,27.940018,0.619703,0.489750,-0.434776
5157656087,-40.792664,36.934341,-80.998734,0.783146,0.338628,-0.487271
5157676088,158.595627,160.052231,-225.464325,0.528710,0.360233,0.448637
5157696089,107.164040,154.768463,-261.112305,1.422893,-0.061836,1.469149
5157716088,-99.299789,19.177267,-283.287231,0.956259,-0.292383,0.116619
5157736089,26.034674,20.106743,-305.886871,0.755887,-1.709254,-0.358023
5157756090,83.317383,-106.173607,-329.149200,0.584397,-1.325133,0.318200
5157776091,83.269196,-173.801193,-362.074341,1.182686,-0.275020,0.458414
5157796092,29.891724,-255.645691,-435.955811,1.561694,0.475263,0.107271
5157816092,-64.717239,-309.694244,-529.046814,2.355849,1.242842,-0.040194
5157836094,-49.529564,-192.528458,-501.947754,5.066237,-1.449877,2.268382
5157856095,-292.627319,67.438217,-13.203693,3.722123,-4.045433,3.803636
5157876096,-137.666718,197.236526,214.369263,0.655086,-1.811636,-1.004373
5157896096,71.324234,70.578453,82.771049,-0.046224,-1.205112,-0.449189
5157916099,109.492233,-21.571033,64.631622,1.578205,-0.719973,0.309968
5157936100,117.919983,-21.781824,140.199860,1.660953,-0.319299,0.601099
5157956101,64.970100,-9.548922,154.513458,0.752541,0.203351,0.686542
5157976101,2.778853,-9.412119,105.743217,0.172577,0.582780,0.169259
5157996102,-69.430374,-69.218544,89.291245,-0.377737,0.454979,-0.219434
5158016103,-110.411064,-51.307640,53.300411,0.093090,-0.351704,-0.200019
5158036104,40.173595,-86.030991,-61.174480,0.023049,-0.340567,-0.059145
5158056103,154.891998,-110.352631,-89.546211,0.240699,0.135295,-0.113887
5158076105,161.791779,-100.783676,-139.161163,0.628628,0.750159,0.033177
5158096105,116.441689,-85.920692,-159.440826,1.042451,1.064271,-0.317299
5158116106,16.116213,-60.671146,-171.734680,0.956112,0.843056,-0.028714
5158136107,-74.364159,-67.630547,-179.975891,1.507323,0.754671,-0.179338
5158156108,-141.642944,-45.969692,-108.454567,1.680314,0.233725,0.073409
5158176109,-178.665695,-21.403584,-56.166588,1.328970,-0.196668,-0.030695
5158196110,-150.225113,-14.105995,-55.273270,0.770468,-0.186547,-0.055537
5158216111,-92.828133,-10.951406,-74.988853,0.807245,0.103610,0.105750
5158236111,-33.203728,2.848871,-86.601181,1.018062,0.317478,0.053506
5158256114,-55.698975,-15.664443,-83.800339,0.917686,0.488386,-0.202983
5158276115,-168.504868,-33.273567,-82.156509,1.015070,0.369922,-0.288298
5158296116,-231.178131,-38.028671,-73.580597,1.140827,-0.357363,-0.307419
5158316116,-190.098053,-28.962055,-58.595478,1.089566,-0.776628,-0.021549
5158336118,-107.079819,-32.042744,-52.774872,1.150918,-0.607060,-0.030378
5158356119,-64.940315,-26.267733,-54.536213,1.238509,-0.324520,0.048714
5158376119,-53.589043,-31.902660,-46.119656,1.208598,-0.136597,0.062857
5158396119,-51.753334,-32.264877,-32.827564,0.828811,0.208740,0.038950
5158416120,-51.306557,-15.029972,-46.670124,0.976525,0.530961,0.026091
5158436121,-78.349564,-40.154045,-46.577091,0.825940,0.623812,-0.270752
5158456121,-150.275681,-43.987164,-46.937908,0.983141,0.492329,-0.173469
5158476122,-162.938568,-35.275909,-37.511574,1.113158,-0.104880,-0.193542
5158496123,-149.133301,-42.262245,-36.137089,1.087005,-0.191958,-0.237893
5158516124,-125.863754,-40.896248,-39.836460,1.065278,-0.287438,-0.125908
5158536125,-72.755997,-38.910908,-38.287006,1.269750,-0.483629,-0.014568
5158556126,-34.803276,-40.161922,-18.894011,1.279899,-0.253012,0.024954
5158576127,-29.880203,-27.067825,-12.258042,1.464206,0.079174,0.140105
5158596129,-59.934948,-40.546993,4.256121,1.160810,0.307631,-0.061025
5158616130,-105.421829,-19.433046,3.091500,0.880911,0.380534,0.159248
5158636131,-91.272263,-30.730261,0.828674,1.188144,0.159250,-0.155433
5158656132,-113.750496,-35.753376,3.986258,1.097845,0.243999,-0.096985
5158676133,-141.025208,-31.982510,4.777692,0.950756,0.055533,-0.157233
5158696134,-118.095062,-31.864988,-10.077892,0.935248,-0.106390,-0.149702
5158716134,-92.666031,-32.341946,-10.366673,1.063078,-0.035884,-0.070961
5158756135,-126.357574,-36.136635,-4.002113,1.135339,-0.059348,-0.028095
5158776136,-120.371635,-35.685452,3.119473,0.964411,-0.217897,-0.046809
5158796137,-99.727898,-26.488972,-0.603401,0.842876,-0.127320,0.029569
5158816138,-69.456497,-32.014362,-17.655548,1.116418,-0.022963,-0.086311
5158836139,-78.653763,-36.510532,-17.745142,1.168882,0.038620,0.006859
5158856140,-104.621735,-29.903526,-8.111708,1.043330,-0.078256,-0.005562
5158876141,-93.842918,-20.323771,-4.305911,0.812118,-0.118432,0.052474
5158896141,-74.718628,-18.508427,-18.733845,0.983538,0.025318,0.028731
5158916142,-71.009827,-26.182434,-20.463846,1.171332,0.063369,0.024747
5158936145,-87.290039,-24.232121,-12.692595,1.202947,-0.072234,0.124477
5158956146,-87.329117,-15.711470,-2.198362,1.135744,-0.220119,0.134282
5158976147,-76.742538,-9.862658,2.620738,1.091976,-0.202578,0.132751
5158996147,-59.262638,-7.704609,6.634750,1.126774,-0.199707,0.181584
5159016148,-42.311935,-4.961944,14.676178,1.131419,-0.191721,0.212978
5159036149,-30.864706,1.693940,24.640038,1.015998,-0.167356,0.245374
5159056151,-18.745462,7.628839,27.597509,0.939920,-0.088135,0.205445
5159076150,-10.482233,11.446379,27.124495,0.962203,-0.048127,0.181885
5159096151,-8.493072,17.501471,28.501436,0.988858,-0.091380,0.222680
5159136153,2.133525,44.388763,40.102383,1.124538,-0.188723,0.355069
5159156154,4.672772,61.239983,49.764347,1.042268,-0.158442,0.399019
5159176154,-3.540517,72.110847,44.341858,0.954928,-0.107500,0.341898
5159196155,-15.134794,86.290138,35.089748,0.981037,-0.073240,0.233633
5159216156,5.232172,89.036346,41.056133,1.014773,-0.095292,0.330728
5159236157,30.797340,74.345459,63.408791,0.978578,-0.063879,0.350496
5159256158,28.341135,60.862701,66.429672,0.928032,-0.034682,0.314876
5159276160,4.133434,52.522820,58.811535,0.929046,-0.034935,0.324103
5159316162,-7.667692,28.607285,65.600471,0.835074,-0.165765,0.368039
5159336163,2.562549,11.213555,61.726536,0.855865,-0.172267,0.357402
5159356164,23.678003,0.621004,56.183777,0.936347,-0.164157,0.338203
5159376165,40.416275,-6.311533,49.648914,0.999091,-0.167376,0.358678
5159396166,43.350979,-4.720023,46.079399,1.016411,-0.142416,0.406996
5159416165,35.175465,2.108275,46.898918,0.951845,-0.075395,0.503556
5159436166,11.622972,3.986552,49.581768,0.853591,-0.051127,0.516515
5159456167,-8.148771,-1.239160,51.808384,0.799356,-0.111682,0.454416
5159476168,1.279608,-6.173179,52.441231,0.866777,-0.232020,0.390721
5159496169,28.136726,-9.070318,47.475704,0.897063,-0.241663,0.333434
5159516170,46.092464,-20.481462,45.963543,0.851962,-0.187357,0.294473
5159536171,46.850334,-35.003277,48.845261,0.760328,-0.173795,0.306021
5159556172,45.034489,-34.146858,40.140835,0.677694,-0.143224,0.350601
5159576172,31.900122,-23.362442,18.205065,0.668083,-0.064130,0.374830
5159596173,13.819200,-35.741257,-9.644582,0.591922,0.053505,0.351094
5159616176,-0.252713,-61.059803,-15.605794,0.913299,-0.021329,0.266907
5159636176,-6.311280,-39.944721,-17.284897,1.280235,-0.361040,0.423501
5159656177,10.403363,-28.342213,-14.343710,1.243988,-0.407866,0.458153
5159676178,41.877579,-24.235216,-18.852919,0.950153,-0.048548,0.382356
5159696179,20.608263,-30.473320,-12.275649,0.788460,0.117560,0.296811
5159716180,-13.245781,-35.949635,-10.143152,0.857565,-0.008355,0.201566
5159736181,-9.608405,-29.382080,-12.317353,1.009038,-0.229136,0.174101
5159756181,19.471531,-21.153515,-7.631513,1.008816,-0.271925,0.220182
5159776182,44.993301,-23.741886,-1.208531,0.929921,-0.171373,0.269107
5159796183,49.778713,-31.131584,-3.453894,0.954971,-0.024365,0.294374
5159816184,34.942181,-29.381462,-4.989917,1.003508,0.041687,0.262013
5159836184,18.383310,-22.284782,-7.249046,0.973350,0.012032,0.260432
5159856185,9.684512,-17.881117,-8.346375,0.962971,-0.012552,0.267729
5159876186,9.808733,-14.180943,-7.831763,0.993013,-0.020444,0.268973
5159896187,9.484980,-13.213919,-8.313425,0.998244,-0.005099,0.256385
5159916188,7.516198,-13.369105,-8.440517,1.004420,0.014343,0.226594
5159936189,1.665994,-10.173097,-6.824822,0.982370,0.005917,0.208623
5159956191,-6.604677,-5.937393,-4.458049,0.962386,-0.004550,0.235309
5159996193,-19.236792,-2.736784,-4.300865,0.967213,-0.042748,0.241235
5160016194,-20.487003,-4.154201,-4.873878,0.989734,-0.071197,0.185983
5160036195,-15.234794,-1.402090,-6.711388,0.984411,-0.132153,0.174735
5160056196,-7.373110,-0.268058,-7.322390,0.965073,-0.117263,0.195565
5160076197,-3.650215,-1.891393,-6.549306,0.984153,-0.086937,0.195838
5160096196,-4.204915,-1.556540,-5.393191,0.981687,-0.085733,0.200082
5160116197,-7.045021,-1.951540,-6.776704,0.964312,-0.093277,0.237969
5160136198,-14.936222,0.991863,-11.473188,1.042873,-0.166052,0.198466
5160156199,-13.591726,13.257586,-14.529070,1.126540,-0.251480,0.171614
5160176200,2.170062,22.929083,-7.683918,1.170018,-0.272765,0.235135
5160196201,33.280704,35.764305,3.347606,1.100012,-0.269986,0.211310
5160216202,62.586426,39.991592,8.559710,0.931969,-0.126173,0.286220
5160236203,66.551155,35.823483,13.150492,0.881189,0.090082,0.260950
5160256204,46.644661,21.163696,16.499596,0.907359,0.246422,0.260271
5160276204,-0.296582,1.513193,17.426243,0.899842,0.259069,0.288004
5160296207,-53.827271,-11.128015,16.443783,0.830564,0.155979,0.305948
5160316207,-82.375084,-17.756733,8.526141,0.777844,0.023770,0.238398
5160336208,-82.965820,-14.727859,-10.969587,0.736176,-0.046790,0.207319
5160356209,-84.316292,-30.920364,-29.044828,0.576185,0.018225,0.225507
5160376210,-89.696190,-59.375557,-28.762077,0.764890,-0.118075,0.134453
5160396211,-53.707844,-41.542545,-41.720989,1.130980,-0.411760,0.215533
5160416212,-3.845132,-25.349571,-56.263321,1.489872,-0.444031,0.410559
5160436212,6.056181,-22.779173,-33.894562,1.347560,-0.148016,0.252155
5160456212,-1.486845,-30.088255,-10.071449,0.890251,-0.002421,0.156469
5160476214,-15.622663,-36.737202,-12.036158,0.802956,-0.064320,0.129359
5160496215,-0.383992,-30.545935,-27.340105,0.915487,-0.096972,0.142486
5160516216,18.840240,-21.388617,-32.135418,0.968694,-0.090296,0.185974
5160536216,20.199488,-28.419659,-24.989180,0.930985,0.040317,0.154124
5160556217,-0.373176,-34.410572,-15.688051,0.929450,0.102747,0.150231
5160576218,-20.205906,-35.228798,-8.564363,0.954464,0.035396,0.118223
5160596219,-17.896053,-34.178093,-5.881913,1.016476,-0.055333,0.089046
5160616220,-3.212074,-24.136587,-6.959621,1.062856,-0.061963,0.075658
5160636222,10.752639,-15.964720,-10.419361,1.061259,-0.003789,0.091897
5160656223,13.401135,-12.071667,-12.789703,1.031826,0.046172,0.109168
5160676224,9.622203,-7.762780,-13.263133,1.001783,0.093264,0.115621
5160696225,-1.360713,-6.119027,-10.781028,0.989496,0.116834,0.118237
5160716226,-14.578844,-6.330252,-6.836432,0.999292,0.086667,0.114694
5160736227,-20.467337,-6.524218,-4.574449,1.020423,0.053354,0.073277
5160756244,-21.235079,-5.950076,-4.550747,1.015906,0.035129,0.057184
5160776227,-19.053040,-5.659458,-6.309880,0.993486,0.029634,0.059231
5160796228,-21.821466,-5.501366,-6.776708,0.975019,0.032860,0.066749
5160816229,-25.151552,-8.398483,-3.815020,0.986594,0.008708,0.060487
5160836230,-24.570414,-10.048836,-0.930045,0.993016,-0.009921,0.064122
5160856231,-19.247635,-12.059582,-0.512082,0.986370,-0.016674,0.058868
5160876232,-13.724867,-8.567241,-2.057809,0.991418,-0.005888,0.057750
5160896232,-11.310596,-6.103071,-1.958418,0.980451,0.007199,0.085715
5160916233,-11.853265,-9.726632,-1.019993,1.000674,0.011653,0.071165
5160936235,-11.437828,-9.155378,0.723367,1.027933,0.007638,0.066028
5160956235,-10.393783,-2.915684,1.875809,1.012846,0.012480,0.064433
5160976238,-7.292732,2.616166,4.534331,0.999838,0.008667,0.077222
5161016240,-5.009380,4.674881,5.897647,1.000381,0.033784,0.060879
5161036241,-12.737822,3.043792,3.029799,0.980567,0.038738,0.047377
5161056241,-16.692942,2.223178,2.899598,0.985279,0.003531,0.052526
5161076242,-15.166908,2.120801,4.747330,0.993006,-0.001754,0.063084
5161096243,-13.699515,-0.691067,5.999664,1.004737,-0.008919,0.068967
5161116243,-12.662374,-0.323344,2.109999,1.004691,0.000182,0.063263
5161136244,-13.038606,1.024784,-0.060204,1.001950,-0.009127,0.075693
5161156245,-12.035732,1.704898,0.859251,0.987887,-0.012327,0.085360
5161176246,-9.868347,0.134782,2.292743,0.988221,0.001361,0.089441
5161196247,-13.169441,0.525052,2.237659,0.997336,-0.007112,0.088933
5161216247,-11.721426,-1.232185,0.734341,0.995145,-0.004375,0.073727
5161236249,-12.392428,0.586844,-0.380342,1.001924,-0.024037,0.075557
5161256250,-8.918025,-0.217616,-0.742136,0.989337,-0.030043,0.075522
5161276250,-3.452516,-2.774617,0.346393,1.014821,0.006338,0.063726
5161296251,-9.511282,1.687380,0.262650,0.995925,-0.003470,0.080927
5161316253,-9.857522,0.843039,2.114698,0.977202,-0.001513,0.094664
5161336254,-7.562439,-1.154357,3.564742,1.007780,-0.011455,0.080439
5161356255,-7.827894,-0.876939,4.028255,1.003718,-0.015125,0.078448
5161376256,-7.402420,-1.148967,3.184019,0.998676,-0.020494,0.057865
5161396257,-7.587820,1.766303,1.986155,0.999530,-0.020690,0.064535
5161416258,-6.794856,1.578424,3.047291,0.986599,-0.018500,0.071304
5161436259,-3.066969,-2.365824,4.826386,0.987555,-0.019269,0.063481
5161456258,-3.566937,-1.500239,3.745641,1.003983,-0.009231,0.071428
5161476259,-3.648671,-2.703552,4.002247,0.984228,-0.007631,0.065001
5161496260,-4.458977,-1.428270,3.924174,1.001951,-0.016507,0.068144
5161516261,-5.741905,-0.105116,4.015229,0.997426,-0.028487,0.069195
5161536262,-3.737932,-2.281013,4.623885,0.996147,-0.031470,0.062113
