Timestamp (us),Gyroscope X (deg/s),Gyroscope Y (deg/s),Gyroscope Z (deg/s),Accelerometer X (g),Accelerometer Y (g),Accelerometer Z (g)
8089167040,0.380290,-0.157728,-0.667610,0.989199,-0.021092,-0.139696
8089187092,0.205390,-0.340662,-0.695650,0.991102,-0.020160,-0.138330
8089207144,0.091302,-0.401551,-0.746626,0.991116,-0.019741,-0.140879
8089227197,0.265623,-0.338557,-0.714639,0.992834,-0.016366,-0.140179
8089247249,0.143105,-0.405462,-0.530961,0.992587,-0.017964,-0.143889
8089267302,0.232977,-0.229066,-0.462130,0.989759,-0.020040,-0.142521
8089287358,0.118917,-0.350563,-0.452892,0.991394,-0.018488,-0.142255
8089307405,0.520599,-0.179921,-0.391856,0.989565,-0.017937,-0.141547
8089327457,0.344891,-0.279033,-0.375458,0.989183,-0.018888,-0.138085
8089347509,0.449826,-0.186232,-0.306702,0.988296,-0.020303,-0.141620
8089387614,0.751541,-0.191349,-0.373014,0.990938,-0.018579,-0.142166
8089407666,0.704143,-0.176469,-0.440198,0.991221,-0.017159,-0.144544
8089427718,0.549387,-0.032883,-0.416840,0.992852,-0.015778,-0.143548
8089447771,0.396789,-0.259990,-0.218181,0.992589,-0.019412,-0.143508
8089467823,0.640036,-0.440121,-0.269940,0.989592,-0.020618,-0.144788
8089487876,0.721469,-0.339266,-0.194028,0.989493,-0.017894,-0.144911
8089527980,0.196444,0.169220,0.281716,0.990494,-0.020954,-0.142960
8089548033,0.142001,0.508030,0.007414,0.990692,-0.017474,-0.147452
8089568085,0.354940,0.258899,0.189922,0.993094,-0.013717,-0.139208
8089588137,-0.079127,0.158040,0.363935,0.993142,-0.019607,-0.144502
8089608190,0.524177,-0.098652,-0.007291,0.990168,-0.017671,-0.135730
8089628242,0.523923,-0.341351,-0.051821,0.990009,-0.017637,-0.139639
8089648294,0.431541,-0.363529,-0.013730,0.987286,-0.019928,-0.140632
8089668346,0.620764,-0.369473,-0.089554,0.986356,-0.019433,-0.137645
8089688399,0.558898,-0.444961,-0.119116,0.989100,-0.019540,-0.139169
8089708451,0.792293,-0.290532,-0.111939,0.989846,-0.018135,-0.142725
8089728504,0.561970,-0.208256,-0.164926,0.991583,-0.017422,-0.143993
8089748556,0.293436,-0.019935,-0.172530,0.989927,-0.016849,-0.141739
8089768610,0.489419,0.201651,-0.127556,0.988772,-0.020171,-0.145162
8089788662,0.859783,0.317593,-0.082283,0.991564,-0.015571,-0.141561
8089808715,0.355401,0.344367,0.008790,0.989854,-0.018786,-0.143808
8089828767,0.720177,0.239599,0.001490,0.990940,-0.018493,-0.142531
8089848819,0.734202,0.125197,-0.036000,0.991385,-0.019820,-0.140058
8089868871,0.504312,0.048448,0.100726,0.988752,-0.020122,-0.141710
8089908976,0.806229,-0.086078,0.077522,0.989650,-0.017382,-0.140826
8089929029,0.653231,-0.299544,0.025111,0.990674,-0.017971,-0.144084
8089949087,0.476531,-0.141855,-0.164715,0.990215,-0.017603,-0.143728
8089969133,0.376378,-0.231990,0.025448,0.992026,-0.016939,-0.141996
8089989186,0.200376,-0.209550,0.055557,0.989743,-0.019010,-0.140352
8090009238,0.124690,-0.383933,0.063597,0.989932,-0.019927,-0.140976
8090029290,0.618965,-0.350296,-0.073067,0.987739,-0.019740,-0.140267
8090049343,0.487366,-0.281043,0.063157,0.990842,-0.017394,-0.141908
8090069395,0.462134,-0.008219,-0.044084,0.989377,-0.023608,-0.137757
8090089446,-0.344454,0.038140,-0.285971,0.987303,-0.021413,-0.142796
8090109498,0.371041,0.042729,-0.270187,0.992473,-0.012858,-0.142585
8090129550,-0.116928,-0.162077,0.238365,0.991873,-0.020889,-0.145041
8090149603,0.188788,-0.207210,-0.080165,0.989754,-0.022463,-0.140403
8090169655,0.478847,-0.539074,-0.169703,0.989910,-0.019694,-0.137344
8090189708,0.180980,-0.463953,-0.199755,0.987758,-0.021680,-0.142517
8090209760,0.370917,-0.454828,-0.343146,0.988931,-0.021017,-0.140789
8090229812,0.423333,-0.438423,-0.380248,0.988293,-0.021290,-0.140700
8090249864,0.566364,-0.338310,-0.463013,0.991200,-0.017921,-0.140627
8090269917,0.306250,-0.279022,-0.545085,0.990925,-0.016294,-0.141193
8090289969,0.213508,-0.149589,-0.476012,0.990948,-0.017070,-0.144638
8090310022,0.135117,0.109670,-0.233460,0.990603,-0.017838,-0.147539
8090330074,0.369380,0.368022,-0.332245,0.992213,-0.016768,-0.142814
8090350126,0.474705,0.270949,-0.081233,0.991572,-0.016854,-0.142364
8090370179,0.199663,0.268636,-0.035499,0.988938,-0.017875,-0.143461
8090390231,0.146583,0.138627,-0.042608,0.989107,-0.017842,-0.141188
8090410283,0.275254,0.154839,0.033156,0.990206,-0.018213,-0.141903
8090430336,0.289792,0.132069,0.070958,0.988748,-0.019031,-0.141631
8090450388,0.297241,0.078110,-0.012295,0.991926,-0.016556,-0.140638
8090470440,0.342291,0.047637,-0.065228,0.989032,-0.019235,-0.143263
8090490493,0.341985,-0.021365,-0.163252,0.989773,-0.021156,-0.144326
8090510545,0.089253,0.016754,0.132535,0.990575,-0.019846,-0.141791
8090530598,0.051585,-0.022251,-0.004071,0.990677,-0.020775,-0.143233
8090550650,0.143076,-0.044900,-0.094922,0.991857,-0.020039,-0.142779
8090570704,0.385261,0.078381,-0.049629,0.989031,-0.019773,-0.142802
8090590756,0.330435,0.109388,0.124449,0.991208,-0.017578,-0.142085
8090610808,0.343432,0.502179,-0.074030,0.987397,-0.021690,-0.143155
8090630861,0.395276,0.682573,-0.180458,0.987753,-0.020045,-0.142536
8090650913,0.219362,0.507035,0.108379,0.990117,-0.014520,-0.144128
8090670965,0.053039,0.209259,0.146882,0.991736,-0.020057,-0.137599
8090691018,0.487513,0.051041,-0.057404,0.990270,-0.018149,-0.137359
8090711070,0.190086,-0.086764,0.072053,0.988194,-0.020367,-0.139711
8090731122,0.076024,-0.162864,0.102562,0.990667,-0.020932,-0.141505
8090751175,0.471006,-0.099689,0.033661,0.989017,-0.019470,-0.140625
8090771227,0.765567,0.054370,0.055694,0.990845,-0.019567,-0.141338
8090791280,0.648909,0.204704,-0.005491,0.990212,-0.020122,-0.141972
8090811332,0.358004,0.255690,0.024765,0.989919,-0.018001,-0.139726
8090831384,0.195587,0.505273,0.197999,0.990381,-0.016843,-0.141372
8090851437,-0.186814,0.933215,0.097654,0.991040,-0.019326,-0.143611
8090871502,-0.673290,0.868180,0.302384,0.993276,-0.015969,-0.137908
8090891540,-1.021505,0.857010,0.445562,0.992225,-0.017790,-0.144348
8090911592,-0.433262,0.813314,0.459494,0.992214,-0.019389,-0.141784
8090931645,0.243553,0.930641,0.639362,0.988849,-0.023836,-0.140939
8090951697,0.699588,0.900032,0.501437,0.987125,-0.027197,-0.140639
8090971749,1.008963,1.043689,0.454083,0.989849,-0.024188,-0.140291
8090991802,1.097736,1.034097,0.437844,0.988923,-0.023253,-0.138309
8091011854,1.184410,1.440719,0.314195,0.991492,-0.023106,-0.141110
8091031907,1.172066,1.665627,0.486690,0.993683,-0.021395,-0.142569
8091051959,-0.248799,2.282688,0.620143,0.996872,-0.020481,-0.142648
8091072012,0.019004,3.452768,1.047107,0.999231,-0.017742,-0.142117
8091092064,1.051491,3.653584,1.720580,0.993161,-0.017668,-0.148705
8091112116,-0.124297,4.292096,1.862792,0.989825,-0.023227,-0.136577
8091132168,-0.391266,4.531695,1.611955,0.996059,-0.028401,-0.124476
8091152221,-0.217589,4.858691,1.519819,0.992549,-0.024638,-0.133996
8091172273,1.081171,5.264057,1.851442,0.998000,-0.015288,-0.135429
8091192325,1.083690,5.696461,2.994374,0.998074,-0.026163,-0.127123
8091212378,1.691258,5.771255,3.388009,0.992869,-0.034635,-0.121518
8091232430,2.561882,5.282436,3.222651,0.982429,-0.025072,-0.118249
8091252482,3.512398,4.762423,1.647687,0.995605,-0.000852,-0.122980
8091272535,2.952991,5.375366,1.911035,0.993768,-0.021932,-0.110025
8091292587,2.408911,4.987184,1.116772,0.994068,-0.032550,-0.109264
8091312639,2.037687,5.437941,-0.445916,0.979710,-0.046135,-0.110390
8091332692,3.277069,5.573168,-3.144925,0.982464,-0.040993,-0.100615
8091352744,4.678076,4.497736,-4.180027,0.989949,-0.042135,-0.086189
8091372798,5.985055,3.383255,-4.093276,0.996577,-0.039337,-0.114075
8091392850,7.520030,3.767054,-3.814714,1.001070,-0.040020,-0.118125
8091412902,9.672869,4.061676,-3.869536,1.000724,-0.052154,-0.115170
8091432955,9.877633,4.147339,-3.741060,0.998748,-0.057423,-0.102036
8091453007,10.648831,4.300036,-2.006276,1.011846,-0.038558,-0.106433
8091473060,11.380068,4.933152,2.500766,0.997557,-0.028504,-0.100016
8091493112,12.624800,3.900148,5.922000,0.981625,0.027241,-0.100410
8091513164,12.055628,4.105826,7.816229,0.977251,0.082207,-0.112620
8091533217,6.925137,3.727888,8.577224,0.993098,0.110154,-0.124010
8091553275,-0.031065,3.650325,8.307083,1.009054,0.092645,-0.131056
8091573321,-6.543708,5.148987,7.129463,1.016431,0.050147,-0.124241
8091613426,-18.191643,5.048287,2.063566,0.988182,0.013558,-0.092480
8091633478,-24.260063,5.725737,1.419145,1.002134,0.041945,-0.091801
8091653531,-31.121700,7.095424,3.008409,1.007970,0.065632,-0.088217
8091673586,-36.533638,8.612151,5.938134,1.006084,0.065519,-0.108587
8091693634,-40.400890,9.559129,7.217069,1.000241,0.075089,-0.112011
8091713686,-45.256142,9.911015,9.051663,1.015445,0.082609,-0.096631
8091733739,-50.680241,9.669299,11.244714,1.001499,0.066965,-0.089278
8091753791,-55.649727,9.177097,11.778677,0.984859,0.047701,-0.086901
8091773843,-59.766777,8.874528,9.014841,0.972219,0.024231,-0.080630
8091793896,-64.595940,8.146596,5.752511,0.980001,0.028896,-0.073176
8091813948,-69.995827,7.448143,5.332386,0.985171,0.026496,-0.083018
8091834000,-73.631775,7.440952,4.355999,0.990013,0.033712,-0.119421
8091854053,-79.896294,8.615179,2.042564,1.003709,0.043795,-0.128074
8091874105,-85.886543,8.935662,1.293241,1.008921,0.051658,-0.119040
8091894157,-89.401352,9.241871,2.922892,1.014639,0.023776,-0.131946
8091914210,-93.902504,10.917337,3.608380,1.011110,-0.006558,-0.136891
8091934262,-96.036209,11.737847,5.902724,1.009885,-0.013990,-0.141812
8091954314,-102.256004,14.102777,10.535074,1.006251,-0.003743,-0.149046
8091974367,-109.807213,16.633520,17.547112,1.002262,0.030514,-0.154560
8091994419,-116.520111,18.927294,24.635466,1.026402,0.044995,-0.143014
8092014471,-117.096161,19.869600,27.770107,1.056256,0.009722,-0.117128
8092034524,-112.408798,18.756687,24.619453,1.043993,-0.125361,-0.088296
8092054576,-102.078033,14.595057,17.346798,0.962597,-0.173519,-0.082408
8092074629,-93.532463,10.420554,8.687863,0.933938,-0.151950,-0.056322
8092094681,-87.825752,6.815320,1.740806,0.916774,-0.140843,-0.026490
8092114733,-82.537407,3.990151,-3.874897,0.921010,-0.096291,-0.024885
8092134785,-78.839111,0.552744,-8.623934,0.920732,-0.049420,-0.031973
8092154839,-77.050026,-2.135762,-9.433823,0.947933,-0.033706,-0.030054
8092174892,-76.573288,-3.992778,-10.655382,0.980000,-0.063211,-0.027031
8092194944,-76.167061,-5.488990,-14.765741,0.987075,-0.078794,-0.044160
8092214996,-77.375435,-6.217470,-17.059233,0.998974,-0.112560,-0.082038
8092235048,-80.095375,-6.382520,-18.732662,0.994820,-0.096052,-0.128064
8092255101,-76.255333,-5.815582,-18.288801,1.024780,-0.096578,-0.137752
8092275153,-73.347672,-4.972014,-13.965142,1.054718,-0.087088,-0.133105
8092295205,-68.696266,-3.162718,-8.796576,1.046908,-0.068501,-0.147372
8092315258,-63.475838,-0.599187,-1.402597,1.039183,-0.095358,-0.169201
8092335310,-58.746624,3.073441,5.411733,1.036032,-0.132229,-0.141985
8092355363,-54.315384,4.193919,8.733482,0.972254,-0.038673,-0.101986
8092375415,-56.086700,4.124123,13.918350,0.982239,0.058425,-0.111855
8092395468,-59.587399,7.060790,25.694735,1.079536,0.130430,-0.136356
8092415520,-69.288239,10.229799,38.601757,1.011135,0.100574,-0.116864
8092455625,-83.247108,10.493667,16.793495,0.951034,-0.038601,-0.074509
8092475676,-82.449425,9.479844,4.549114,0.940608,-0.060919,-0.057783
8092495728,-82.177887,10.125441,-1.667951,0.978469,-0.051559,-0.082707
8092515780,-85.746864,10.973417,-0.744990,1.001600,-0.039708,-0.115399
8092535833,-97.455688,13.406340,1.115149,1.023785,0.009792,-0.145534
8092555885,-101.588905,11.523668,1.797611,0.984820,0.031939,-0.134706
8092575938,-106.593018,9.793318,-2.529838,1.004697,-0.037026,-0.131767
8092595990,-105.427620,7.470933,-7.213618,0.991630,-0.034391,-0.065817
8092616042,-103.883583,2.673592,-6.310890,1.005180,-0.032294,-0.061019
8092636094,-106.600166,1.476554,-4.320127,1.012111,0.014074,-0.053509
8092656147,-111.440727,1.214921,-1.081316,1.002456,0.062117,-0.078945
8092676199,-119.074440,2.924710,7.047687,0.996786,0.048497,-0.115818
8092696252,-131.079910,6.659407,18.157352,0.951351,0.027074,-0.145793
8092716304,-141.707306,9.101250,28.687408,0.983142,0.057918,-0.141198
8092736356,-145.201141,10.664206,34.534203,1.056633,0.044335,-0.136612
8092756409,-140.161346,11.219952,33.173889,1.033233,-0.087799,-0.122252
8092776461,-128.396790,6.982253,22.005409,0.965345,-0.167127,-0.118907
8092796513,-115.935799,2.818490,12.200644,0.903512,-0.186732,-0.120755
8092816565,-105.747124,-2.137356,-0.450283,0.908055,-0.093967,-0.102256
8092836618,-101.557785,-5.824635,-9.192740,0.943919,-0.051547,-0.082861
8092856670,-100.762054,-8.307468,-14.853524,0.928932,-0.060514,-0.072230
8092876723,-102.481491,-9.197710,-19.382071,0.954137,-0.045858,-0.086945
8092896775,-105.506088,-9.131815,-21.435135,0.977954,-0.027859,-0.115522
8092916827,-107.719574,-8.126513,-21.043720,1.018151,-0.028735,-0.144946
8092936881,-108.627151,-7.382074,-18.840490,1.017377,-0.109128,-0.143839
8092956934,-105.174095,-8.717585,-21.103207,0.989056,-0.148898,-0.176025
8092976986,-97.661057,-10.127695,-21.358664,1.017745,-0.143767,-0.158250
8092997038,-88.892464,-11.131555,-16.310688,1.035985,-0.080181,-0.206753
8093017090,-81.442818,-8.483494,-8.660095,1.041511,-0.028041,-0.195593
8093037143,-81.257874,-7.292535,2.969436,1.064567,0.018531,-0.201785
8093057195,-82.633698,-3.711443,16.008543,1.063174,-0.027820,-0.189807
8093077248,-81.241905,-2.346461,22.710732,0.944849,0.036433,-0.176666
8093097300,-84.300446,-0.889154,28.209103,0.946305,0.084929,-0.184761
8093117360,-91.125130,2.297590,38.553368,1.061587,0.109408,-0.174320
8093137405,-102.925232,4.099868,41.620766,1.012443,0.154140,-0.164553
8093157457,-111.140068,5.636929,36.282761,0.955705,0.059935,-0.174044
8093177509,-113.876266,5.658508,25.748892,0.929775,-0.068831,-0.165285
8093197562,-113.347488,3.550876,7.702893,0.958732,-0.104671,-0.172753
8093217614,-112.340965,2.799953,-0.411935,0.997080,-0.054801,-0.192144
8093237666,-115.502853,3.761625,-1.134143,1.018780,-0.022952,-0.223987
8093257717,-123.317604,7.007503,0.403516,0.996213,0.015730,-0.234865
8093277770,-130.538055,7.421429,1.291356,1.007511,0.077092,-0.202231
8093297822,-137.231567,5.014941,7.008947,0.993681,0.020393,-0.194039
8093317874,-141.218658,3.140582,10.048386,0.998999,0.028591,-0.218998
8093337927,-143.343979,4.506409,16.918537,1.001799,0.002960,-0.232860
8093357979,-151.177170,9.240570,25.704136,0.968529,-0.023647,-0.220336
8093378032,-167.119781,13.130617,34.245380,0.987497,0.051196,-0.212071
8093398084,-177.777710,15.452478,45.041126,1.025822,0.117863,-0.251469
8093418136,-176.959946,18.328384,55.952206,1.045340,-0.033229,-0.286299
8093438189,-162.381927,17.906406,47.407070,0.938716,-0.228438,-0.273344
8093458241,-145.193817,13.679628,28.778957,0.920179,-0.297109,-0.218241
8093478293,-129.525406,8.000514,8.958911,0.913142,-0.216365,-0.193505
8093498345,-120.823380,5.136615,-3.888179,0.974405,-0.104658,-0.187002
8093518398,-116.654243,3.696110,-15.063638,0.938192,-0.120345,-0.160085
8093538450,-111.272125,1.184525,-25.197514,0.928921,-0.121025,-0.148964
8093558502,-107.827553,-2.551865,-31.339956,0.952846,-0.073138,-0.133080
8093578555,-104.395363,-5.186090,-28.876499,0.991944,-0.083696,-0.172397
8093598607,-97.844337,-7.476606,-23.315527,0.999334,-0.135826,-0.178376
8093618659,-93.389076,-7.071306,-19.066685,1.003678,-0.138356,-0.171681
8093638712,-87.399025,-4.144839,-12.697386,1.004278,-0.158370,-0.186351
8093658764,-82.178802,-0.005971,-8.287364,1.004591,-0.139028,-0.187118
8093678817,-79.856392,1.911258,-0.458142,1.043635,-0.123307,-0.199383
8093698869,-84.146095,5.222765,6.595538,1.014750,-0.072868,-0.149185
8093718923,-83.307991,2.657924,8.309347,0.927398,0.072474,-0.156849
8093738975,-86.970375,-0.051770,16.959978,1.043606,0.119329,-0.253359
8093759028,-95.942177,1.813718,33.061977,1.030904,0.106820,-0.210952
8093779080,-110.449944,2.813293,36.845512,1.022639,0.074522,-0.200004
8093799132,-125.367722,4.363276,27.288326,0.905631,0.007560,-0.143710
8093819185,-126.419029,-3.858506,8.036160,0.935272,0.030779,-0.157492
8093839237,-128.873505,-6.058643,-1.171412,0.977406,0.036619,-0.194160
8093859289,-135.300980,-6.752386,-4.577302,1.009075,-0.021520,-0.217620
8093879342,-142.587875,-2.924567,-5.194257,1.039472,-0.008764,-0.277263
8093899394,-151.015823,1.587227,1.462630,1.045906,-0.006429,-0.318506
8093919447,-157.876312,4.790744,10.897375,1.015655,-0.002214,-0.292140
8093939499,-167.231995,6.804626,22.065094,1.058414,0.039591,-0.297955
8093959551,-180.769424,9.746759,35.474453,1.051097,0.093672,-0.320900
8093979603,-187.922974,10.516905,48.169060,1.084668,0.100920,-0.359463
8093999656,-188.013489,16.377651,54.234802,1.073247,-0.015358,-0.343656
8094019717,-174.067734,17.373663,46.079102,0.782993,-0.061923,-0.276557
8094039759,-156.912415,23.510651,40.814884,0.955955,-0.209575,-0.144294
8094059812,-143.998230,21.488167,28.213528,0.894928,-0.264186,-0.141731
8094079864,-131.119476,20.838842,11.908918,0.884980,-0.259220,-0.142405
8094099916,-118.496758,15.438080,0.812357,0.888413,-0.152783,-0.158972
8094119968,-113.907684,11.743531,-3.504103,0.941179,-0.081418,-0.144882
8094140021,-114.350021,9.032263,-6.799031,0.950173,-0.078808,-0.109676
8094160073,-111.290039,5.078160,-10.962483,0.951162,-0.102988,-0.110752
8094200178,-99.948273,0.348922,-16.604061,0.975344,-0.199330,-0.097742
8094220230,-96.215622,-3.885183,-21.320047,1.005751,-0.152392,-0.098433
8094240283,-97.760635,-7.273857,-17.768457,1.031404,-0.018993,-0.171139
8094260335,-100.146240,-3.387096,-3.373416,1.034494,-0.008396,-0.205867
8094280388,-101.980453,1.046433,5.691540,0.990003,-0.040746,-0.173817
8094300440,-97.265991,2.742305,7.275627,0.965533,-0.081344,-0.162614
8094320492,-94.143303,-1.418333,2.802128,0.925048,-0.063951,-0.185551
8094340544,-97.891632,-7.342893,-2.185836,1.003731,0.024202,-0.215278
8094360597,-118.735657,-7.947487,2.977237,1.038296,0.165859,-0.226125
8094380649,-136.440186,-7.085918,15.826800,1.032375,0.169405,-0.244203
8094400702,-150.052429,-4.394892,29.221891,0.951850,0.123785,-0.232522
8094420754,-158.937485,-3.787551,28.806067,0.970936,0.085715,-0.203590
8094440806,-158.977020,-4.923768,25.657148,1.012915,0.001687,-0.215498
8094460859,-159.038864,-3.950861,27.101397,0.999279,-0.087522,-0.301993
8094480911,-163.030563,1.812013,28.939785,1.053395,-0.055176,-0.374146
8094500965,-162.363281,5.860431,30.964340,1.074117,-0.070134,-0.355831
8094521017,-159.833710,6.684680,25.450712,1.065542,-0.130816,-0.309111
8094541070,-149.776489,1.691566,16.634909,1.007119,-0.158182,-0.282216
8094561122,-143.458374,1.297195,11.381839,0.974873,-0.146460,-0.277127
8094581174,-135.762146,4.427273,10.989410,0.868035,-0.037751,-0.161629
8094601227,-130.818024,8.205894,13.945610,0.926033,-0.088919,-0.107822
8094621279,-128.126404,7.507091,13.507495,0.938772,-0.120977,-0.134353
8094641331,-129.260529,6.457603,9.600767,0.966786,-0.118932,-0.186527
8094661384,-131.832062,8.428677,8.223084,0.994213,-0.095743,-0.195690
8094681436,-131.029388,8.789097,9.161352,1.006633,-0.151974,-0.171412
8094701489,-125.714653,7.975926,7.138712,0.959124,-0.126400,-0.135509
8094721541,-124.160172,8.161940,6.137104,0.985891,-0.104372,-0.155932
8094741594,-123.634148,6.599927,5.892197,0.997522,-0.104322,-0.211654
8094761646,-119.994576,6.058386,6.529421,1.020944,-0.154477,-0.247443
8094781698,-113.409416,7.381175,3.619817,0.994441,-0.210753,-0.239436
8094801752,-109.321869,7.925442,-3.356131,1.010128,-0.175471,-0.227009
8094821802,-107.737251,8.014931,-4.046679,1.025290,-0.099801,-0.191969
8094841854,-109.616592,7.205604,3.149198,1.016992,-0.035257,-0.130610
8094861906,-114.136269,7.666279,13.411102,0.995096,-0.095720,-0.066446
8094881959,-118.890739,9.074665,27.307720,0.969395,-0.139024,-0.123930
8094902011,-118.181564,14.789209,39.421692,0.983759,-0.149609,-0.174055
8094922063,-117.751480,16.020018,35.536873,0.991137,-0.102018,-0.118933
8094942115,-104.471939,14.130322,37.509266,0.958408,-0.276517,-0.156134
8094962168,-89.684753,16.156269,31.676468,0.961784,-0.326624,-0.147078
8094982220,-74.605385,16.583504,24.841072,0.944951,-0.340413,-0.130224
8095002273,-55.369652,15.451027,17.971704,0.986019,-0.391903,-0.096437
8095022325,-31.256870,13.864052,15.808727,0.971077,-0.473643,-0.072785
8095042378,-5.078101,9.568323,11.752044,0.991621,-0.359588,-0.041877
8095062430,0.374364,10.936598,5.212358,1.013889,-0.211654,-0.088601
8095082482,-1.792952,14.445724,0.539966,0.951262,-0.184966,-0.086991
8095102534,6.361940,13.795106,-5.114550,0.953570,-0.182167,-0.031113
8095122587,13.426374,10.476428,-7.780960,1.018060,-0.161156,-0.001089
8095142639,20.229225,9.547247,-8.083298,1.029689,-0.167361,0.039963
8095162691,23.009779,8.562424,-7.027403,0.992079,-0.114418,0.037539
8095182744,20.793724,8.344131,-3.251554,0.963086,-0.065540,0.029043
8095202796,16.825188,9.592198,1.315646,0.973140,-0.073028,0.044015
8095222849,17.017263,10.916124,3.978810,0.985197,-0.124160,0.049963
8095242901,19.724112,13.179239,3.704801,1.006019,-0.164707,0.064122
8095262955,24.052635,13.562550,1.026592,1.017714,-0.214121,0.037602
8095283007,26.101744,16.192913,-1.711614,1.028332,-0.240131,0.027800
8095303059,25.892923,22.082220,-2.989942,1.018270,-0.192128,0.025173
8095323112,23.995457,25.494385,-2.879771,0.983432,-0.149190,0.021521
8095343164,25.040398,24.067558,-3.890801,1.031833,-0.170474,-0.013153
8095363216,26.906992,23.513084,-3.465122,1.068865,-0.071535,-0.019125
8095383269,21.382681,23.532345,1.675279,1.027708,0.053449,-0.027952
8095403321,10.385906,25.940855,4.937360,0.949917,-0.026880,0.079034
8095423373,6.045298,23.371796,1.749413,0.966278,-0.190599,0.153479
8095443426,10.297365,15.211288,-4.931334,0.915923,-0.140706,0.040757
8095463478,10.910197,5.750648,-11.757905,0.880081,0.018248,-0.020684
8095483530,5.932747,-0.390882,-8.991417,0.939672,0.088821,-0.050616
8095503583,-2.876462,-2.583175,-6.820776,0.951811,0.038706,-0.043497
8095523635,-9.966575,-3.647660,-9.345997,0.987966,0.009669,-0.084803
8095543687,-14.684002,-4.200340,-9.031704,0.989156,-0.014698,-0.073424
8095563761,-13.612000,-4.490267,-7.970025,1.031896,-0.029682,-0.047591
8095583791,-13.649811,-2.732730,-8.521753,1.062680,-0.030136,-0.026737
8095603843,-13.059048,-1.375739,-7.041161,1.043480,0.001918,0.013291
8095623895,-13.931652,-1.804496,-4.318532,1.028114,0.008954,0.018462
8095643948,-14.444300,-1.943818,-3.014291,1.021113,0.017141,0.026588
8095664000,-15.394712,-2.612512,-2.132495,1.014466,-0.014996,0.010281
8095684052,-16.964680,-2.790458,-1.039962,0.986970,-0.053035,0.023069
8095704105,-16.648624,-6.674844,-0.958477,0.966636,-0.033582,0.014065
8095724157,-18.560194,-12.233514,-1.620760,0.951843,-0.004608,0.034892
8095744210,-18.590836,-19.101822,-0.043396,0.920577,-0.011259,0.006482
8095764262,-22.327875,-23.918583,3.241041,0.899831,-0.008180,-0.048504
8095784314,-31.475117,-23.683586,7.828703,0.876376,0.007773,-0.098659
8095804367,-32.623257,-21.388573,11.769833,0.872323,-0.079017,-0.157122
8095824419,-24.831024,-21.560705,4.128109,0.956816,-0.163923,-0.313952
8095844471,-11.397138,-8.585016,0.077004,1.105355,-0.202622,-0.362074
8095864524,7.795098,-3.195527,-11.430408,1.246398,-0.237019,-0.253432
8095884576,19.439074,2.764177,-16.222187,1.501575,-0.072419,-0.103387
8095904629,19.472834,15.060789,-11.785406,1.470059,-0.037458,-0.125373
8095924681,12.899497,20.704613,-3.314119,1.144859,0.003016,-0.174316
8095944734,7.147833,23.602549,10.661085,0.952725,0.033120,-0.072237
8095964786,12.104778,29.613684,22.067705,1.020338,-0.134505,0.141217
8095984838,5.870118,40.646694,9.693326,0.926779,-0.104545,0.192465
8096004891,3.946719,45.093639,8.996570,0.775730,-0.108303,0.238970
8096024943,1.130634,42.873825,10.225417,0.845352,-0.056428,0.202419
8096044997,-0.852763,39.351151,9.859303,0.852015,-0.050067,0.182307
8096065049,0.067290,34.871746,10.063890,0.910378,-0.132361,0.251473
8096085102,0.240205,28.950869,7.598334,0.931461,-0.167952,0.358551
8096105154,-2.311416,26.055437,4.971727,0.961617,-0.051242,0.319152
8096125206,-11.600979,28.395088,1.601861,0.938128,0.004305,0.254905
8096145258,-17.255411,32.187347,-0.319124,0.929217,-0.062518,0.253161
8096165311,-18.625229,37.017925,-0.949185,0.956001,-0.153394,0.177333
8096185363,-17.495552,36.946548,-4.988919,0.975086,-0.214339,0.124643
8096205415,-17.480917,30.717262,-10.431889,0.885771,-0.245801,0.104743
8096225468,-16.860382,14.807826,-16.607187,0.852501,-0.082989,0.224680
8096245520,-15.266613,-4.239074,-7.356416,0.854608,0.115727,0.263657
8096265573,-22.948952,-13.331253,2.189196,0.944844,0.075200,0.255768
8096285625,-31.738537,-17.821077,1.184585,0.889319,0.010005,0.164881
8096305677,-38.370647,-24.858013,-5.049063,0.844491,-0.061389,0.102861
8096325729,-38.315838,-30.916126,-8.681265,0.849894,-0.084468,0.063631
8096345797,-33.389751,-30.043711,-7.875048,0.890349,-0.114277,0.082349
8096365833,-26.080175,-28.243343,-9.248023,0.984692,-0.178932,0.070225
8096385885,-18.527296,-27.711679,-11.010818,1.058305,-0.223492,0.100709
8096405937,-10.183312,-28.613434,-9.775262,1.107257,-0.207176,0.077692
8096425990,-4.871868,-27.398022,-5.559830,1.106672,-0.202744,0.050825
8096446042,0.569914,-26.667580,-3.730145,1.069291,-0.174157,-0.009573
8096466095,7.006672,-25.621502,-4.630320,1.078177,-0.121851,-0.089548
8096486147,11.364841,-18.536366,-5.209525,1.095653,-0.106916,-0.185662
8096506199,19.499657,-9.536244,-6.994125,1.015963,-0.147682,-0.101051
8096526252,31.380320,-3.179640,-6.906505,1.258015,-0.218392,0.025995
8096546304,34.800030,5.415712,-6.603846,1.250510,-0.089816,0.060081
8096566357,27.287073,9.348590,-2.393288,1.027208,0.036907,0.112289
8096586409,17.172266,5.875181,3.814231,0.925853,0.058328,0.113685
8096606462,10.014676,2.130540,6.103327,0.829438,0.032082,0.135754
8096626514,5.595528,-1.880458,6.664382,0.820434,0.029073,0.149176
8096646566,2.081220,-0.990516,6.965703,0.895156,-0.050189,0.147896
8096666619,1.071185,0.407072,3.330921,0.970883,-0.078909,0.167488
8096686671,1.363623,0.903630,1.123630,1.017463,-0.077389,0.152168
8096706723,3.241398,1.581462,0.726532,1.030603,-0.088848,0.155757
8096726776,4.869673,2.279628,2.595558,1.026174,-0.036054,0.169656
8096746828,3.734717,1.546787,4.326483,1.034244,0.036860,0.171778
8096766880,-2.581125,3.056923,3.558016,1.044816,0.055474,0.162912
8096786933,-8.958854,5.671464,1.027447,1.023890,-0.009848,0.172790
8096806985,-5.753701,7.831695,-0.421121,0.987375,-0.125662,0.161239
8096827039,6.063089,10.427313,-0.752519,0.941286,-0.233113,0.176970
8096847091,16.756781,10.772800,-3.986089,0.915967,-0.270900,0.207038
8096867143,24.622604,9.785987,-6.092393,0.946388,-0.191066,0.187607
8096887196,25.699762,4.170845,-5.573210,0.950480,-0.007816,0.128985
8096907248,14.595485,-3.140899,2.140936,0.894874,0.112877,0.114561
8096927300,8.944101,-14.360917,10.450218,0.878361,-0.023809,0.076037
8096947353,11.377958,-19.619183,9.580748,0.840856,-0.130274,0.057554
8096967405,24.084146,-24.419168,3.347778,0.867824,-0.151763,0.024548
8096987457,34.751236,-21.263552,-6.852950,0.937122,-0.170976,-0.014636
8097007510,49.733051,-19.734402,-13.411685,1.073387,-0.149853,-0.051723
8097027562,59.122963,-14.124416,-17.155571,1.240237,-0.088054,-0.069977
8097047614,58.114887,-7.741734,-16.426895,1.154595,-0.014711,0.008727
8097067667,56.457016,-2.863775,-11.683538,1.204650,-0.017656,0.055830
8097087719,50.379959,1.651452,-10.499495,1.128976,0.061742,0.079550
8097107771,42.105930,-0.149592,-7.041964,1.030415,0.118316,0.131091
8097127822,31.546988,-3.641902,0.234408,0.958325,0.117294,0.127865
8097147875,22.934950,-6.254994,6.476331,0.869583,0.060912,0.131524
8097167927,18.866117,-7.039833,6.624460,0.859876,0.032536,0.137419
8097187979,18.872129,-6.001001,5.226350,0.867479,-0.006004,0.135010
8097208032,20.957472,-3.703418,3.845912,0.919990,-0.025235,0.129062
8097228084,24.159601,-1.659392,0.836480,0.961288,-0.034579,0.149275
8097248137,26.197039,-4.462939,-1.610155,1.020630,-0.004224,0.166249
8097268189,23.931890,-6.881197,-1.115976,1.054520,0.007736,0.133178
8097288241,23.775833,-8.169908,-3.051693,1.036021,-0.026488,0.086910
8097308294,25.670757,-7.841290,-9.450130,0.996553,-0.028253,0.071110
8097328346,22.878546,-8.353672,-11.948442,1.014172,0.002297,0.082787
8097348398,17.457130,-7.923419,-9.143811,1.062397,0.063882,0.067874
8097368451,13.253805,-5.791265,-3.791364,1.043518,0.061153,0.070499
8097388503,10.805887,-3.925224,-2.705568,1.008328,0.042223,0.080102
8097408555,8.296087,-1.370833,-5.540442,0.968483,-0.009402,0.091323
8097428608,6.388213,-0.834843,-7.640992,0.977135,-0.010278,0.124204
8097448660,1.827180,-0.913132,-6.903966,0.999196,0.018409,0.125573
8097468712,-1.934795,0.090174,-5.231157,1.005809,0.028631,0.127774
8097488765,-7.251528,-0.077809,-3.493135,1.000255,0.046464,0.117622
8097508817,-17.201733,1.023484,0.856876,0.993715,0.031918,0.105202
8097528870,-23.782093,-0.464890,5.184314,1.004286,-0.005798,0.109258
8097548922,-25.759584,-1.613951,6.795705,1.010757,-0.017728,0.099899
8097568974,-25.430511,-1.811104,6.493111,0.993881,-0.026850,0.106338
8097589027,-26.282684,-2.199950,7.108644,0.992542,-0.036704,0.090810
8097609080,-29.922295,-1.347244,8.850140,0.985696,-0.013022,0.096031
8097629133,-35.306969,-0.418590,11.198302,1.003887,-0.013565,0.118979
8097649185,-35.323952,0.290533,10.506180,1.004792,-0.046154,0.120816
8097669238,-34.801514,0.784556,7.662187,0.978230,-0.043376,0.109417
8097689290,-31.384848,0.318235,6.025542,0.973958,-0.089903,0.083932
8097709342,-27.502924,-0.717293,5.133434,0.985086,-0.084260,0.095670
8097729394,-26.339275,-1.685879,4.431521,1.011876,-0.078088,0.110239
8097749447,-26.304289,-0.523278,3.366449,0.992805,-0.051202,0.099886
8097769499,-24.601389,0.610391,2.005313,0.966055,-0.054868,0.108191
8097789558,-19.910906,0.659401,1.306237,0.994976,-0.085441,0.119747
8097809604,-17.184748,1.439254,-0.637618,1.013351,-0.061086,0.130047
8097829656,-18.891167,2.904951,0.002141,1.016237,-0.069214,0.139432
8097849709,-18.112179,4.568182,1.693823,0.999933,-0.097381,0.135462
8097869761,-12.789400,6.831965,2.419318,0.983644,-0.103209,0.117873
8097889813,-8.269779,9.805021,3.286650,1.003749,-0.103374,0.109565
8097909868,-6.722245,12.804780,5.443353,1.041871,-0.079753,0.141917
8097929917,-4.533460,16.096630,6.310402,1.087538,-0.090294,0.179444
8097949969,-4.997661,18.582724,7.355474,1.072565,-0.075891,0.191531
8097970022,-7.243835,21.179209,8.491735,1.008831,-0.063015,0.186750
8097990074,-7.145008,22.368612,9.192445,0.970492,-0.065288,0.211770
8098030179,-5.462340,22.265930,9.222525,0.983229,-0.102557,0.266004
8098050231,-3.045695,22.782520,6.787055,0.937484,-0.142439,0.266960
8098070283,-1.120323,20.816580,4.852941,0.921244,-0.115173,0.302065
8098090336,-2.202000,17.639696,5.409952,0.933350,-0.081462,0.319574
8098110388,-1.761046,15.634407,3.590178,0.914937,-0.104641,0.315258
8098130440,1.070692,13.515499,1.739644,0.889291,-0.138898,0.306203
8098150493,4.013343,10.314314,0.302063,0.895146,-0.125363,0.311450
8098170545,5.830266,7.699843,0.363489,0.941902,-0.125954,0.313788
8098190597,7.829857,7.302436,-0.916686,0.949150,-0.120276,0.303049
8098210650,8.265545,7.743283,-2.479622,0.957939,-0.102754,0.288003
8098230702,6.675387,7.686235,-2.653185,0.972506,-0.095419,0.303199
8098250755,4.180690,6.412857,-0.957816,0.995896,-0.074986,0.330849
8098270807,2.537196,5.418195,0.713557,0.997169,-0.065865,0.326753
8098290859,2.767356,4.927833,0.965272,0.972639,-0.089848,0.324403
8098310912,4.227981,3.968395,0.202592,0.950367,-0.112061,0.324684
8098330964,4.022193,2.861753,-0.505945,0.947892,-0.084880,0.313355
8098351016,3.050156,2.519928,-0.731795,0.928145,-0.082392,0.306097
8098371069,3.370432,2.115634,-0.169671,0.911943,-0.087994,0.304411
8098391121,3.837489,1.572046,-0.175541,0.920902,-0.068377,0.321606
8098411175,3.058608,0.692049,-0.467815,0.934447,-0.047327,0.317551
8098431228,2.606363,0.220768,-1.292139,0.942558,-0.047520,0.302705
8098451280,2.509542,-0.055036,-1.586734,0.940345,-0.053679,0.278858
8098471332,1.876746,-0.810165,-2.690438,0.970030,-0.053890,0.284979
8098491384,-0.675371,-0.453994,-2.554351,0.965656,-0.045514,0.280488
8098511437,-2.781619,-0.034556,-1.281794,0.969911,-0.038346,0.266348
8098531489,-5.749702,-0.662528,-0.278168,0.997840,-0.013604,0.264079
8098551542,-9.090176,-1.054378,0.035089,1.003275,-0.033718,0.279982
8098571594,-8.558725,-2.108536,-0.340413,0.985212,-0.065793,0.282588
8098591646,-6.663806,-2.601236,-2.173486,0.956919,-0.087147,0.267548
8098611698,-6.986558,-3.761827,-1.691899,0.952817,-0.061047,0.269944
8098631751,-8.807799,-4.563632,0.645820,0.938641,-0.036248,0.265375
8098651803,-8.764527,-4.827464,2.094295,0.933747,-0.062980,0.258288
8098671855,-8.584208,-5.739005,1.824530,0.943561,-0.082498,0.257948
8098691908,-8.779587,-8.097271,2.461779,0.964712,-0.066640,0.296449
8098711966,-4.375707,-9.788885,4.118279,0.954034,-0.222582,0.283001
8098732011,4.497798,-16.891375,3.881961,0.940144,-0.173958,0.279885
8098752064,2.507609,-21.893431,6.075055,0.920269,-0.044782,0.262254
8098772116,2.982247,-28.128107,5.293003,0.870230,0.009867,0.170927
8098792168,3.275557,-32.796356,3.899300,0.854503,-0.049471,0.115245
8098812220,0.866114,-35.984856,2.797024,0.906505,-0.092558,0.099299
8098832273,-4.380627,-34.948643,1.612973,0.979223,-0.105045,0.110865
8098852325,-6.168465,-33.342712,-1.885834,1.055325,-0.076087,0.084531
8098872377,-3.014961,-28.116392,-1.040947,1.021828,-0.152674,0.051735
8098892430,0.317359,-24.667189,-10.057801,1.010520,-0.188432,-0.007643
8098912482,11.109349,-23.786690,-20.008205,1.031568,-0.253484,-0.113076
8098932534,14.909677,-22.454304,-29.305929,1.063299,-0.131627,-0.206054
8098952587,10.728392,-19.847948,-18.634695,1.250281,0.097926,-0.212202
8098972639,-3.978956,-12.641871,6.341025,1.245722,0.084452,-0.143188
8098992692,-10.172800,-10.622172,16.363195,1.106087,-0.002583,-0.089277
8099012744,-7.960944,-6.722645,4.093810,0.903733,0.010868,-0.070509
8099032796,-5.378143,0.300329,-16.424795,0.901518,-0.061976,0.001663
8099052849,-3.652895,7.973946,-18.460266,0.752167,-0.379034,0.148235
8099072901,5.745750,5.306726,-21.364685,0.999655,-0.132181,0.122594
8099092953,3.052180,23.072495,-14.823689,1.240215,-0.092741,0.060496
8099113006,-6.458666,38.934963,-11.676699,1.128374,0.097046,0.102495
8099133058,-12.851298,41.034092,1.498115,1.197597,0.146002,0.135410
8099153111,-15.765415,43.189919,11.647509,1.131777,-0.030572,0.129989
8099173163,-14.825375,38.991474,9.448592,1.025214,-0.131520,0.209835
8099193215,-13.363766,30.370399,2.452093,0.954404,-0.077307,0.225155
8099213269,-13.763670,23.936991,-1.231708,0.912224,-0.007036,0.247218
8099233321,-15.186474,19.431028,-1.602210,0.916052,0.032438,0.243244
8099253374,-18.913834,18.591007,-0.931062,0.905879,0.112696,0.227883
8099273426,-21.319635,18.730103,1.934147,0.881883,0.045712,0.249119
8099293479,-17.895468,12.902511,4.840612,0.876024,-0.054668,0.225610
8099313531,-12.910735,9.802994,5.357337,0.879683,-0.059329,0.210330
8099333585,-9.066891,5.272982,5.341285,0.879040,-0.018865,0.206404
8099353635,-7.975944,-0.762110,4.270329,0.893588,-0.040560,0.192762
8099373688,-15.084637,-2.163477,3.709225,0.920795,-0.026381,0.163344
8099413793,-21.493374,-3.023473,5.192329,0.966553,-0.079750,0.160105
8099433845,-17.991617,-5.160970,3.311308,0.917244,-0.116474,0.191990
8099453897,-11.320466,-11.675199,-0.056375,0.969441,-0.110295,0.164842
8099473949,-8.695263,-14.613957,-2.881697,1.048717,-0.075519,0.138281
8099494002,-6.724903,-17.695316,-2.379137,1.056294,-0.086752,0.126650
8099514053,-3.241891,-18.883356,-1.769947,0.960713,-0.079444,0.067540
8099534105,0.479296,-18.556496,-7.934069,0.861486,-0.138903,0.041804
8099554158,4.113750,-22.898102,-12.740599,0.951056,-0.104626,0.016868
8099574210,5.601326,-23.286724,-7.320825,1.116225,0.039681,-0.051431
8099594262,3.341915,-15.326763,0.398232,1.099398,0.079236,-0.046555
8099614315,3.179330,-12.355715,4.579215,1.052543,-0.067504,-0.020650
8099634367,-0.156642,-11.960030,4.571441,1.010052,-0.075026,0.000039
8099654419,-3.212665,-7.756324,-2.187247,0.980230,0.006184,0.054691
8099674472,-5.689689,-6.561172,-0.318495,0.983506,-0.095480,0.137505
8099694524,0.114556,-6.274824,0.542487,1.070830,-0.054483,0.119109
8099714577,-1.531803,1.566937,0.963201,1.113329,-0.093069,0.088956
8099734629,-1.435534,9.695056,-1.944845,1.117903,-0.104631,0.061039
8099754681,-4.844708,15.755776,-5.215908,1.053119,-0.063741,0.096915
8099774734,-4.850955,14.530037,-3.362417,1.022739,-0.027849,0.082742
8099794786,-8.885887,12.829262,3.155181,1.015473,-0.009448,0.100018
8099814838,-10.194523,10.794538,6.876339,1.030868,-0.053373,0.139444
8099834891,-12.498715,10.571766,6.445914,0.978727,0.015221,0.166454
8099854943,-16.426550,11.577590,7.489719,0.938945,0.032396,0.179242
8099874996,-21.931046,12.339270,12.362290,0.940354,0.055678,0.129542
8099895048,-33.487469,16.834738,16.079693,0.943739,0.073763,0.071827
8099915100,-36.814281,17.661661,14.630428,0.889389,-0.018946,0.058518
8099935153,-30.173885,16.378157,10.100309,0.876536,-0.146041,0.106158
8099955205,-20.536591,11.104066,5.294892,0.952773,-0.202815,0.146254
8099975259,-11.010142,8.190517,0.526853,1.047003,-0.217181,0.143726
8099995311,-6.068051,7.644121,-2.140788,1.073774,-0.155119,0.133745
8100015364,-8.374039,9.832628,-0.631730,1.023150,-0.069109,0.126574
8100035416,-7.905357,7.826661,-1.390457,0.981409,-0.071397,0.125487
8100055468,-10.324154,5.084800,-2.683742,1.008025,-0.107403,0.113096
8100075521,-13.997980,5.545451,-1.676042,0.954474,-0.095638,0.066956
8100095573,-13.023233,5.745693,-2.230337,0.912867,-0.049685,0.065584
8100115625,-16.101822,3.919590,-3.291600,0.972137,-0.076573,0.107940
8100135678,-23.174053,6.950116,-2.958513,1.096439,-0.124558,0.062299
8100155730,-26.067135,12.822567,0.660164,0.959219,-0.133441,0.084968
8100175782,-20.491724,7.312404,1.124357,0.946992,-0.065893,0.115364
8100195835,-14.501057,0.268715,-0.035786,0.923318,-0.133433,0.097437
8100215887,-10.591386,-3.226608,-6.952278,0.887273,-0.218991,0.130527
8100235939,-7.129140,-4.318094,-16.233953,0.942474,-0.134422,0.127122
8100255992,-4.589557,-2.671467,-15.384093,0.977001,-0.008127,0.083825
8100276044,-4.974288,2.213523,-8.450888,0.973926,0.008639,0.055799
8100296095,-4.860774,5.777323,-3.264043,0.967419,-0.071134,0.101391
8100316148,-0.055488,3.785778,-0.234858,0.975211,-0.151783,0.134371
8100336200,3.750182,0.676727,-0.005688,1.043730,-0.172976,0.166821
8100356253,7.362194,-9.443598,-2.617136,1.040821,-0.073650,0.053681
8100376305,5.898805,-16.972998,-2.052572,0.971369,-0.050953,-0.007058
8100396357,8.560291,-23.986406,-2.188495,0.958833,-0.117952,-0.058902
8100416410,14.530114,-24.248993,-5.456211,0.985364,-0.139192,-0.048744
8100436462,18.612225,-22.949383,-5.848646,0.964867,-0.074497,-0.083538
8100456515,17.375332,-17.088079,-6.891570,0.950950,-0.008499,-0.059680
8100476567,15.859209,-14.207711,-6.036962,1.029324,-0.000887,0.003498
8100496619,12.913898,-10.351548,-1.873213,1.172038,-0.088104,0.071229
8100516672,12.008863,-7.933817,2.014357,1.130546,-0.126484,0.030208
8100536724,13.144826,-6.622739,7.663342,1.011311,-0.126043,0.028540
8100556776,19.217678,-9.871779,8.619781,0.946548,-0.130068,0.036579
8100576828,23.894836,-14.078859,3.600214,0.911966,-0.137766,-0.001021
8100596881,25.468084,-16.105822,-0.410200,0.913605,-0.087637,-0.041306
8100616933,27.623760,-18.761364,1.204935,0.960536,-0.017172,-0.057694
8100636986,30.206646,-21.292885,5.176548,0.970143,-0.047213,-0.095268
8100657038,34.330063,-24.162643,5.700363,0.991014,-0.113760,-0.107710
8100677090,38.800163,-27.381332,2.322094,1.054067,-0.123634,-0.128143
8100697143,38.691334,-27.998610,-1.525851,1.078125,-0.071554,-0.136845
8100717195,30.592825,-25.772863,-0.143736,1.097223,-0.023368,-0.137540
8100737248,23.467167,-19.938301,6.652137,1.108878,-0.076073,-0.139938
8100757300,25.573910,-12.692202,11.029804,1.093614,-0.182181,-0.111189
8100777354,33.413307,-6.933251,12.022796,1.076471,-0.260969,-0.071318
8100797406,40.096981,-1.900897,10.964798,1.034065,-0.226344,-0.070565
8100817459,45.314877,2.086494,10.646073,1.009681,-0.192076,-0.033781
8100837511,46.779327,6.021534,10.730526,0.996587,-0.178884,-0.030482
8100857563,48.032310,8.657701,9.728161,0.939461,-0.188836,-0.031499
8100877616,53.662132,5.870907,7.416632,0.933484,-0.080337,-0.061335
8100897668,53.458664,3.914804,10.424709,0.996390,0.100834,-0.089888
8100917720,51.038548,4.351556,12.356688,1.074573,0.131511,-0.021253
8100937773,56.797005,0.926464,8.622468,1.135390,-0.044291,-0.075044
8100957825,58.734138,4.473448,-2.690658,1.030678,-0.285535,0.054698
8100977877,72.827332,-5.206462,-14.894676,0.852128,-0.357103,0.160777
8100997930,85.276413,-13.645761,-11.739844,0.886436,-0.118762,0.067832
8101017982,77.742493,-10.344290,1.863225,0.908475,0.196829,0.023074
8101038035,58.100784,-4.293012,9.049260,1.033271,0.371989,-0.016149
8101058087,36.221409,5.020345,9.790304,1.033056,0.188051,0.019060
8101078138,27.429344,6.362758,10.266231,0.993536,0.050778,0.064266
8101098190,19.835768,1.394833,6.860320,1.008185,0.075095,0.072450
8101118242,7.034155,-1.885776,0.752309,0.998375,0.109990,0.048892
8101138295,-12.064878,-4.245282,-3.257299,1.009670,0.167879,-0.009410
8101158347,-30.068167,-3.350338,-1.594288,1.016208,0.106091,-0.036368
8101178400,-42.887863,-2.556624,0.309784,1.038057,0.051412,-0.019403
8101198452,-50.818626,0.021974,0.894834,1.022776,0.003983,-0.017236
8101218504,-57.975990,1.143425,-0.440420,1.000998,0.034312,-0.034191
8101238557,-65.880318,1.636473,-3.129881,1.020944,0.037250,-0.047898
8101258609,-74.860077,5.442124,-5.496907,1.034793,0.013534,-0.050252
8101278661,-83.762466,8.637785,-7.164593,1.021111,0.015457,-0.034285
8101298714,-91.036232,10.251350,-8.592450,1.025195,0.012402,-0.045308
8101318766,-95.410896,12.756077,-11.350711,1.037749,-0.020912,-0.070645
8101338819,-100.908234,14.734111,-14.599397,1.014468,0.008298,-0.063877
8101358871,-109.570213,16.278166,-14.783579,0.993114,0.064506,-0.088400
8101378923,-125.556137,21.054550,-8.890432,1.008516,0.066781,-0.135214
8101398976,-126.487747,21.902821,-3.458916,0.997434,0.001846,-0.125270
8101419028,-135.945038,25.464060,-3.172297,0.979674,0.107859,-0.181154
8101439080,-150.702087,29.272770,3.292176,1.028331,0.146344,-0.133813
8101459133,-150.940720,28.752777,5.340370,1.232883,-0.031617,-0.118851
8101479185,-142.780960,31.647860,5.721642,1.228387,-0.281457,-0.097996
8101499237,-126.160988,29.730490,2.281584,1.104773,-0.483609,-0.091444
8101519290,-111.661736,24.013210,-6.790963,0.990728,-0.478812,-0.094307
8101539342,-94.904984,20.204254,-15.355507,0.878846,-0.299121,-0.040286
8101559396,-82.190430,22.211075,-23.264149,0.975740,-0.161227,0.064321
8101579448,-77.316177,26.682474,-21.128838,0.932981,-0.247019,0.107636
8101599501,-75.815079,26.800188,-10.102386,0.916911,-0.287139,0.131980
8101619553,-72.230392,22.415102,-1.365150,0.886896,-0.274472,0.113716
8101639606,-70.107483,14.414834,2.655785,0.880674,-0.156080,0.089581
8101659658,-73.040947,13.461946,2.667675,0.900757,-0.130451,0.118964
8101679710,-72.738754,11.924989,0.618967,0.937026,-0.232216,0.125670
8101699762,-69.533539,11.824231,0.580297,0.936381,-0.274694,0.147970
8101719815,-71.010689,10.998344,2.357136,0.951742,-0.207892,0.153576
8101739867,-73.156174,12.631363,4.694159,0.972567,-0.133707,0.140869
8101759920,-70.380936,14.280252,5.657611,0.906260,-0.145907,0.136541
8101779972,-68.998642,11.286286,3.787862,0.936120,-0.133859,0.091080
8101800024,-72.332771,8.254937,-5.098221,0.946267,-0.190173,0.052360
8101820077,-82.276161,3.724097,-16.167141,0.959501,-0.227298,0.052792
8101860180,-91.671761,-3.940825,-24.004398,0.989636,-0.102379,0.028385
8101880232,-102.885956,-5.527149,-23.161318,1.025382,0.017033,-0.032728
8101900285,-122.063995,0.809785,-13.308637,0.997579,0.003280,0.020311
8101920337,-129.496384,-4.569549,-7.535070,0.944750,-0.009167,0.002903
8101940389,-136.811752,-2.201971,-0.158762,0.968470,-0.011579,-0.029801
8101960442,-145.744507,2.968536,9.133508,1.052655,-0.072722,-0.068122
8101980494,-147.498444,9.949591,11.611122,1.122022,-0.116807,-0.137737
8102000547,-138.498154,16.347942,6.886971,1.052133,-0.315934,-0.137655
8102020599,-121.769012,18.001720,1.418565,1.040498,-0.535241,-0.096119
8102040651,-103.277061,16.608084,-8.754068,1.005120,-0.560667,-0.051360
8102060704,-88.412697,13.405985,-22.625309,0.975923,-0.425696,-0.036952
8102080756,-80.824181,9.527781,-32.656723,0.997239,-0.288968,-0.009027
8102100809,-76.083740,11.178654,-32.209335,1.005580,-0.151425,0.007889
8102120861,-72.928520,16.835093,-21.005495,1.002728,-0.220641,0.015850
8102140913,-68.650543,25.012775,-13.228844,1.041791,-0.397230,0.018716
8102160966,-59.169559,33.304440,-13.192526,1.064728,-0.407016,0.029807
8102181018,-51.637413,37.714745,-11.459621,0.972976,-0.264126,0.074036
8102201071,-48.691528,35.832382,-4.860473,0.922722,-0.162468,0.151391
8102221123,-50.794628,31.516424,-4.496232,0.914655,-0.128508,0.157575
8102241175,-57.036095,33.020218,-7.538390,0.990348,-0.096767,0.090672
8102261228,-64.488121,37.512276,-7.392101,0.942137,-0.089719,0.037899
8102281280,-61.711735,32.766182,-9.256302,0.977273,-0.220054,0.112182
8102301332,-44.924004,19.102867,-10.715732,0.973123,-0.306932,0.085893
8102321386,-27.984629,8.126380,-11.237104,0.953536,-0.357244,0.077702
8102341439,-13.011409,0.119938,-16.648869,0.933110,-0.279625,0.102016
8102361491,-8.130285,-5.019420,-19.247610,0.909333,-0.104685,0.089462
8102381543,-12.578951,-8.912895,-19.278111,0.936321,0.006409,0.064465
8102401596,-20.565516,-11.903648,-15.771109,0.925799,-0.010019,0.048130
8102421648,-21.028202,-15.581319,-12.218901,0.884513,-0.128257,0.058476
8102441700,-17.254524,-18.285765,-9.209636,0.876180,-0.149427,0.059753
8102461752,-15.537396,-18.439438,-7.678758,0.921915,-0.094235,0.068436
8102481805,-15.054518,-17.469885,-4.931106,0.958437,-0.056452,0.055534
8102501857,-12.966015,-15.229244,1.464661,0.986685,-0.073718,0.050935
8102521910,-5.197961,-18.207197,8.702527,1.032243,-0.124816,0.002954
8102541962,0.406409,-19.915707,11.245403,1.068517,-0.146033,-0.031534
8102562015,12.935253,-25.172668,9.750919,1.184356,-0.163270,-0.079591
8102582067,19.899229,-22.868191,5.625165,1.120690,-0.217230,-0.171393
8102602119,50.508614,-19.663736,-10.251774,1.007463,-0.421495,-0.085036
8102622170,82.849266,-15.140026,-32.970085,1.081592,-0.420307,-0.134329
8102642222,97.881798,-12.707927,-43.245636,1.152906,-0.174700,-0.105402
8102662275,88.592911,-4.487993,-37.563751,1.115275,0.163885,-0.044605
8102682327,75.841614,9.892264,-14.606705,1.022669,0.059882,0.144073
8102702380,66.089790,21.516954,1.704464,1.189841,0.166417,0.173017
8102722432,42.870296,35.219803,14.830025,1.034390,0.243842,0.230094
8102742484,34.934925,33.014389,17.621880,0.927957,0.160315,0.263570
8102762537,26.650112,31.779892,18.250509,0.862201,0.102520,0.234599
8102782589,21.942905,26.729231,20.368933,0.798569,-0.058130,0.236916
8102802642,21.841579,20.526047,15.570127,0.784631,-0.102300,0.257232
8102842746,21.435392,16.519098,6.648486,1.017138,0.020196,0.267642
8102862799,12.797009,17.896801,0.560860,1.007767,-0.029527,0.273695
8102882851,4.579897,12.181197,-7.571526,0.975224,-0.098287,0.260809
8102902903,7.025888,-0.394812,-16.722324,0.886615,-0.065987,0.181919
8102922955,10.814463,-15.822796,-18.481857,0.805812,0.029270,0.139709
8102943008,6.877121,-29.861923,-11.148725,0.835751,0.033176,0.115882
8102963060,-9.589283,-30.931492,-2.415893,0.870210,0.197937,0.049419
8102983113,-23.918903,-28.393791,3.105440,0.873131,0.158483,0.021813
8103003165,-28.705982,-28.179218,2.371217,0.893679,0.019688,-0.023786
8103023217,-18.856796,-26.213207,1.754678,1.062378,-0.149491,-0.133237
8103043270,-12.803496,-18.841480,1.522525,1.336315,-0.158797,-0.095197
8103063322,-10.568256,-16.570791,-1.858719,1.461437,-0.014473,-0.034724
8103083376,-11.409691,-13.792130,6.203591,1.176107,-0.037429,0.113750
8103103428,-10.894426,-12.497133,7.563160,1.175333,-0.047208,0.141760
8103123481,-14.009076,-10.238052,6.669728,0.963556,-0.105524,0.124301
8103143533,-12.754865,-10.742779,2.404076,0.851249,-0.092848,0.132174
8103163585,-11.917130,-11.840448,-1.556230,0.799313,-0.079329,0.151644
8103183638,-14.296168,-12.272872,-5.040227,0.804741,-0.054717,0.130949
8103203690,-21.684505,-9.943078,-4.742510,0.854650,-0.041278,0.148233
8103223742,-23.454617,-7.713548,-4.499467,0.888412,-0.050660,0.147763
8103243795,-21.597799,-7.970334,-3.809547,0.939304,-0.095027,0.150637
8103263847,-20.104914,-8.180490,-3.771451,1.044907,-0.137500,0.150423
8103283899,-24.388140,-7.010268,-3.971037,1.093311,-0.098087,0.116138
8103303952,-24.667072,-6.516560,-0.054319,1.090692,-0.079466,0.071461
8103324004,-18.729710,-6.058442,-0.975031,1.033054,-0.095728,0.067696
8103344056,-13.835071,-7.669266,-3.843619,1.037570,-0.101841,0.077978
8103404212,-19.349550,0.802381,7.709767,1.021707,-0.032344,0.105417
8103424265,-16.650553,2.049727,12.471687,1.021869,-0.035683,0.126178
8103444317,-14.321218,2.450591,14.621915,0.968266,-0.075809,0.130353
8103464369,-9.473204,0.984279,11.843793,0.926577,-0.130946,0.131241
8103484422,-6.476262,-1.424101,8.470827,0.930083,-0.134066,0.141299
8103504474,-5.776483,-3.480260,6.742086,0.965049,-0.086089,0.155442
8103524526,-6.453265,-3.838747,7.175559,0.977012,-0.080338,0.149098
8103544579,-3.371482,-3.508840,6.938396,0.965492,-0.144724,0.140310
8103564631,0.130385,-4.473147,5.697544,0.977923,-0.155691,0.140252
8103584684,1.439706,-5.510836,4.722975,0.996353,-0.127951,0.139426
8103604736,2.717520,-6.336167,3.747686,1.009483,-0.118544,0.134411
8103624788,4.959345,-6.436256,2.413349,1.003694,-0.133863,0.118643
8103644841,8.786159,-6.297811,-0.051629,0.993380,-0.151217,0.113863
8103664893,10.464773,-6.146737,-1.902003,0.993567,-0.125296,0.115745
8103684945,10.009873,-5.183129,-1.518637,1.000066,-0.108706,0.118508
8103704998,9.674176,-4.234931,-0.096943,0.994578,-0.058256,0.127519
8103725050,9.442147,-3.473966,2.818415,0.997217,-0.057879,0.128078
8103745103,8.881509,-2.813030,3.468124,1.000349,-0.061287,0.124323
8103765155,9.506685,-2.646448,2.754909,1.006192,-0.073383,0.128958
8103785207,12.675198,-2.634350,-0.997826,1.006637,-0.107369,0.147622
8103805260,13.542546,-2.533844,-3.999743,0.988842,-0.095055,0.160168
8103825312,9.345468,-1.132903,-2.623731,0.999153,-0.048323,0.135252
8103845365,6.103539,2.323295,2.223607,0.969020,-0.035269,0.105895
8103885471,14.863156,5.915770,1.821634,1.046870,-0.127841,0.184043
8103905523,14.685228,9.490862,1.907903,1.096100,-0.106368,0.204229
8103925576,11.012126,13.770082,4.099920,1.056986,-0.071813,0.218730
8103945628,8.020720,16.179979,5.312876,1.051378,-0.073387,0.243065
8103965680,5.385539,18.175972,7.929240,1.029418,-0.071616,0.255977
8103985733,1.873485,19.551458,9.373311,0.987865,-0.052857,0.259009
8104005785,-0.985597,20.211689,9.887405,0.930304,-0.072112,0.274729
8104025838,-1.757792,18.790470,8.043307,0.911103,-0.104314,0.300504
8104045890,-3.401337,16.648893,6.035261,0.907312,-0.094003,0.304266
8104065942,-5.395017,15.153535,5.730374,0.929488,-0.090258,0.283022
8104085995,-5.179494,15.119097,4.866416,0.956819,-0.142016,0.280906
8104106047,-1.927130,14.479015,2.336111,0.971033,-0.145576,0.283957
8104126099,-1.525774,14.355603,0.418920,0.960814,-0.110122,0.267751
8104146152,-2.876899,14.000151,-0.367594,0.991730,-0.095387,0.289703
8104186255,-5.632554,13.364191,-2.039387,0.976270,-0.093348,0.282117
8104206307,-5.354408,12.733503,-2.416259,0.951214,-0.103981,0.253888
8104226360,-4.858748,12.809535,-2.909327,0.937076,-0.131097,0.253193
8104246413,-4.097129,11.692448,-3.868272,0.950436,-0.114741,0.283181
8104266465,-3.649089,11.675437,-3.421212,0.948258,-0.115853,0.281997
8104286517,-2.523957,12.919644,-2.319365,0.924176,-0.124109,0.241842
8104306569,-2.962919,12.693158,-2.864116,0.957843,-0.109085,0.245360
8104326622,-5.876826,11.523419,-1.153800,0.990757,-0.078192,0.291496
8104346674,-7.416412,10.648404,1.320495,0.986428,-0.098162,0.293423
8104366726,-4.047608,9.587183,1.694341,0.964436,-0.182938,0.277162
8104386779,3.094479,7.101253,-0.224649,0.936138,-0.221150,0.271497
8104406831,9.657207,2.502813,-0.665839,0.941583,-0.221258,0.275808
8104426883,14.426498,-2.335858,1.168114,0.950005,-0.177039,0.278900
8104446936,15.522116,-6.346795,3.235449,0.952691,-0.096779,0.293714
8104466988,14.662817,-9.530148,6.134302,0.941321,-0.143185,0.296987
8104487040,25.232908,-14.298722,4.661557,0.891877,-0.197488,0.236373
8104507093,30.238708,-17.303465,-0.248585,0.847301,-0.133771,0.219596
8104547197,33.304897,-28.010227,-2.592558,0.904801,-0.119347,0.138859
8104567250,32.145451,-31.011091,-1.732968,0.963968,-0.065812,0.112030
8104587302,23.529894,-30.121000,-0.937228,0.995574,-0.045235,0.091021
8104607355,18.203327,-27.895302,-0.025979,1.022896,-0.089894,0.102547
8104627408,16.434475,-25.871315,0.126825,1.025826,-0.167132,0.107733
8104647461,13.124454,-21.681314,-2.546669,1.007494,-0.157809,0.088955
8104667513,13.783187,-17.004354,-4.351649,1.012133,-0.154772,0.027060
8104687566,17.538757,-10.609629,-9.028480,1.016678,-0.219626,-0.093760
8104707618,21.361214,-10.066703,-13.548748,1.080278,-0.105234,-0.160797
8104727670,18.723690,-8.391383,-6.429377,1.147726,-0.033151,-0.194417
8104747723,14.245462,-5.205410,0.177643,1.158060,-0.070529,-0.134654
8104767775,14.378115,-5.418878,2.292861,1.128557,-0.058583,-0.037574
8104787827,8.398880,-3.749611,3.524573,1.053970,-0.036454,0.015899
8104807880,7.218280,-3.136878,5.591930,0.941533,-0.032205,0.018961
8104827932,13.907380,-0.524307,-4.734375,0.866805,0.016670,0.036497
8104847985,2.443192,7.928475,2.796733,0.788475,-0.189377,0.158203
8104868037,4.195944,4.384521,0.011695,0.852679,-0.035075,0.201406
8104888089,7.009088,15.260962,-2.088244,1.013936,-0.113178,0.134108
8104908142,21.461594,27.024567,-9.174692,1.215029,-0.280106,0.018225
8104928193,30.255424,38.717926,-17.911129,1.194078,-0.251246,0.032012
8104948245,24.681299,37.386040,-11.492790,1.152059,-0.118336,0.088705
8104968297,16.143858,34.023647,-6.165364,1.143129,0.031653,0.152979
8104988349,7.135351,31.214939,-5.220320,1.087745,0.109928,0.184035
8105028454,-5.292780,28.625120,-6.935047,0.959613,-0.063626,0.247210
8105048507,-2.683741,25.650721,-3.393917,0.928580,-0.079983,0.277353
8105068559,2.947796,23.354378,-1.394710,0.926062,-0.059594,0.261194
8105088611,-2.117325,26.651281,-0.631243,0.876868,0.017180,0.185795
8105108664,-7.546010,27.722004,-2.171560,0.805081,0.044403,0.194514
8105128716,-8.900478,24.765312,-2.524688,0.778724,0.019393,0.177712
8105148768,-12.561614,24.309826,1.252484,0.838786,-0.059906,0.188871
8105168821,-17.053230,20.791897,-0.567928,0.890458,-0.035223,0.210764
8105188873,-18.348450,15.998724,0.328201,1.018891,0.020755,0.217207
8105208926,-16.137465,15.044482,0.808189,1.080715,0.003704,0.254469
8105228978,-13.085912,15.017620,-1.784790,1.060964,-0.062314,0.266363
8105249030,-11.031540,13.795918,-5.009936,0.961288,-0.163741,0.260377
8105269083,-4.736687,7.935863,-5.393631,0.939300,-0.185196,0.211755
8105289135,0.614469,1.739312,-5.192258,0.943220,-0.080148,0.206023
8105309187,0.504068,-1.000321,-1.332669,0.967451,0.016237,0.207715
8105329240,0.600728,-1.893998,1.300275,0.929504,-0.005805,0.222515
8105349292,2.725134,-2.639362,2.484417,0.880747,-0.088717,0.245578
8105369345,5.983037,-3.874283,1.919109,0.876608,-0.135860,0.259817
8105389398,6.054135,-5.065018,3.226768,0.932330,-0.089248,0.264217
8105409451,4.897268,-5.995238,4.981118,0.976617,-0.033310,0.255250
8105429503,4.480844,-6.910771,5.893893,0.990332,-0.022101,0.242766
8105449555,4.300309,-8.428107,5.042763,0.965971,-0.039417,0.223617
8105469608,6.356097,-10.043217,2.031184,0.947544,-0.070811,0.210217
8105489660,5.878887,-10.685525,-0.596334,0.948251,-0.042247,0.199803
8105509713,4.788924,-9.819092,-1.713045,0.958102,-0.042330,0.198874
8105529765,6.038199,-10.113244,-1.500258,0.975953,-0.062174,0.180690
8105549817,5.814292,-10.099472,-0.295173,0.995359,-0.073198,0.188317
8105569870,3.838123,-9.725841,0.803180,1.000615,-0.057956,0.185997
8105589922,3.525655,-10.379360,2.222807,0.986574,-0.035439,0.206267
8105609974,1.813698,-10.977117,3.104625,0.969326,-0.037911,0.194813
8105630027,2.103441,-10.459000,1.905263,0.956694,-0.050072,0.178596
8105650079,4.923094,-10.403721,0.532294,0.961150,-0.071944,0.160431
8105670131,6.188176,-9.045788,0.269487,0.985257,-0.091022,0.163186
8105690184,6.057610,-7.660359,0.992339,0.995905,-0.056634,0.164681
8105710235,5.376763,-6.509115,0.071556,1.006545,-0.024523,0.153024
8105730287,4.952413,-5.781615,-2.090805,1.014747,-0.061035,0.171773
8105750339,2.162550,-6.408618,-2.315036,1.005504,-0.087301,0.159833
8105770392,2.412574,-4.154731,-0.314466,0.991244,-0.069185,0.126167
8105790444,5.123954,-1.902643,-2.331600,1.011738,-0.052496,0.121030
8105810496,-1.206301,3.107207,-4.294438,1.025135,-0.051953,0.106032
8105830549,-7.410717,4.628366,-1.046135,1.002075,-0.070421,0.114262
8105850601,-1.522220,2.405678,1.528729,0.918735,-0.089730,0.110986
8105870653,8.693815,-3.337709,-2.456747,0.894192,-0.161768,0.134730
8105890706,13.105110,-3.262572,-7.127188,0.950162,-0.160381,0.166103
8105910758,14.840148,-0.629407,-9.099820,0.981331,-0.017272,0.142855
8105930811,11.826707,2.632971,-3.925999,0.972822,0.084676,0.112805
8105950863,3.301915,4.297144,1.520522,0.888851,0.030472,0.141102
8105970916,0.234734,1.096997,1.653886,0.973574,-0.028531,0.227635
8105990968,-0.456790,-11.080130,1.173141,1.023540,-0.055264,0.084247
8106011020,-7.848416,-19.344833,-0.357057,0.979594,-0.034627,0.028075
8106031072,-8.084347,-33.229679,-0.043866,1.002535,-0.021200,-0.066347
8106051125,-5.299487,-34.352470,-0.397184,1.066175,-0.060749,-0.109971
8106071177,1.637003,-31.125835,-1.539995,1.137045,-0.051002,-0.183017
8106091230,-1.792331,-14.574266,-2.543198,1.128130,-0.114513,-0.092369
8106111282,-1.796727,-2.760859,-6.024750,1.187529,-0.099268,0.031297
8106131334,-1.561804,5.124178,-9.098744,1.165642,-0.037549,0.017431
8106151387,-3.415235,10.400084,-6.046797,1.102701,-0.031013,0.020363
8106171440,-3.867813,10.544212,-2.007551,1.059455,-0.015623,0.080680
8106191493,0.773029,6.268406,1.325141,1.004948,-0.059661,0.116520
8106211545,5.867053,2.165547,2.732023,0.978614,-0.085783,0.142902
8106231598,11.802495,1.008852,-0.229442,0.901021,0.022747,0.075204
8106251650,15.421035,1.688695,0.289897,0.870521,0.023072,0.083618
8106271702,19.404545,1.502301,-3.280545,0.913184,-0.023637,0.076373
8106291755,21.222853,4.748147,-3.299945,0.962040,0.028621,0.082749
8106311807,17.966274,6.129495,2.395812,0.964020,0.133842,0.127805
8106331859,12.328366,0.091849,4.267856,0.991173,0.166222,0.145255
8106351912,6.272527,-6.868747,4.688067,1.004051,0.110542,0.137902
8106371964,-0.669409,-7.671302,6.201476,1.028342,0.050605,0.129770
8106392016,-4.800200,-5.623166,4.217757,1.013102,0.057026,0.098051
8106412069,-6.461064,-0.808673,1.352060,1.003309,0.015853,0.047381
8106432121,-3.735568,4.145581,0.439718,1.007694,-0.014601,0.045492
8106452174,-6.738643,7.907661,0.602122,0.987285,-0.012690,0.042508
8106472225,-10.208197,9.422565,0.044852,0.977681,0.008413,0.084002
8106492277,-12.505835,9.127427,0.167937,1.016693,0.018127,0.064717
8106512329,-15.396564,10.431396,2.862565,1.031026,-0.009959,0.106405
8106532382,-22.712933,4.504778,6.015658,1.002708,0.032286,0.110533
8106552434,-33.641647,2.280995,6.603149,0.981395,0.084208,0.065793
8106572486,-44.141876,4.628733,3.362521,0.979016,-0.021085,0.073174
8106592539,-47.866749,7.843281,-1.861575,1.039230,-0.080503,0.064019
8106612591,-54.082664,10.356583,-4.960273,1.047510,0.034788,0.055927
8106632643,-65.565826,12.167979,-6.766286,1.066650,0.130766,0.055406
8106652696,-78.270889,14.172609,-10.361172,1.043308,0.059144,0.076246
8106672748,-89.333611,14.426444,-12.798598,1.046162,0.010895,0.126630
8106692800,-101.009987,13.124374,-13.343287,1.059800,0.004892,0.104893
8106712853,-111.197113,13.514341,-13.174326,1.020919,-0.044641,0.090558
8106732905,-114.450058,12.018927,-12.190349,0.956838,-0.108740,0.058945
8106752958,-116.610115,8.341491,-11.638814,0.928066,-0.107497,0.067724
8106773010,-122.619232,4.550488,-11.858595,0.970849,-0.054251,0.067775
8106793062,-133.836395,7.740534,-13.222292,0.987905,0.054902,0.073994
8106813114,-144.450439,15.556452,-12.419402,0.972062,-0.010817,0.119085
8106833167,-147.410156,18.316006,-12.367243,0.947583,-0.131030,0.109305
8106853220,-149.572784,15.462238,-12.417283,0.918806,-0.133542,0.058508
8106873272,-152.536240,13.075652,-9.800861,0.897609,-0.020062,-0.021207
8106893324,-166.425903,12.264594,-6.056777,0.972701,0.074034,-0.047757
8106913376,-174.445236,14.457304,-8.767213,1.153978,-0.016248,-0.009800
8106933430,-171.281036,18.825531,-16.347172,1.192544,-0.253453,0.030390
8106953483,-157.033432,22.206799,-22.192030,1.134770,-0.390431,0.048016
8106973535,-137.456085,21.985826,-24.547602,1.018424,-0.453068,0.082543
8106993587,-119.778671,17.013573,-24.764025,0.911013,-0.378984,0.095284
8107013640,-105.718010,11.848118,-24.182728,0.868309,-0.286304,0.102361
8107033692,-98.743774,7.911149,-26.089081,0.884664,-0.238155,0.118642
8107053745,-96.320496,7.012830,-25.389568,0.887509,-0.255926,0.139953
8107073797,-95.802834,8.643028,-22.651783,0.940069,-0.235824,0.152635
8107093849,-93.274658,9.890301,-22.512968,0.971397,-0.195350,0.138029
8107113902,-89.377968,11.221801,-24.868397,0.985508,-0.173801,0.130609
8107133954,-85.015594,12.380538,-27.412870,0.949379,-0.165333,0.131073
8107154006,-89.461571,14.872749,-26.086002,0.931706,-0.183407,0.153424
8107174059,-94.106384,12.927052,-27.631359,0.972289,-0.109079,0.160485
8107194111,-93.378929,10.810344,-28.162426,1.022385,-0.103346,0.134236
8107214163,-97.426620,15.173555,-25.508249,1.047497,-0.106937,0.082288
8107234216,-105.612068,21.399355,-21.767673,1.054804,-0.071241,0.093196
8107254267,-117.263153,18.572710,-17.335321,1.077026,-0.099478,0.142213
8107274319,-120.210915,13.530758,-15.657124,0.991742,-0.033714,0.039238
8107294371,-118.290550,9.349749,-11.330962,0.954672,-0.079217,0.071675
8107314424,-111.361427,10.554867,-11.602804,0.950934,-0.217735,0.094064
8107334476,-101.388214,14.518501,-16.978277,0.904296,-0.279302,0.071634
8107354529,-91.906395,16.708412,-20.217781,0.915621,-0.275201,0.128288
8107374581,-77.187706,10.177983,-21.269064,0.943262,-0.296334,0.120186
8107394633,-65.248932,1.305077,-20.120983,0.957787,-0.209676,0.071935
8107414686,-58.083008,-6.192278,-18.612181,0.944228,-0.148779,0.037325
8107434738,-53.507637,-11.319402,-17.770010,0.980997,-0.158384,0.052602
8107454790,-50.448772,-12.597857,-17.812151,1.030815,-0.192439,0.077979
8107474843,-40.694187,-13.327795,-14.879994,1.010673,-0.263923,0.050580
8107494895,-29.408426,-13.079749,-11.345428,1.019630,-0.161497,0.057729
8107514947,-24.372816,-12.232753,-8.674737,1.006017,-0.186237,0.121810
8107535000,-15.246756,-13.930695,-8.096081,0.982846,-0.273119,0.136557
8107555052,-6.102118,-14.958199,-7.163530,0.972377,-0.185990,0.106028
8107575105,3.135622,-15.727252,-1.487476,0.918430,-0.147007,0.082836
8107595157,12.436958,-20.641705,5.271474,0.857284,-0.085496,0.047700
8107615209,18.637186,-26.903225,9.914043,0.807875,-0.107316,-0.035193
8107635262,30.258659,-32.814342,4.367388,0.965728,-0.116170,-0.100772
8107655314,42.393322,-26.935087,-1.644496,1.082264,-0.315435,-0.036929
8107675366,65.957207,-30.446255,-14.562772,1.118023,-0.348533,0.006787
8107695419,76.116386,-24.817453,-18.526783,1.197486,-0.243485,0.053304
8107715473,82.960396,-23.984125,-23.465950,1.224655,-0.046501,-0.014220
8107755577,54.795265,-4.799305,-15.897766,0.999928,0.189236,0.024447
8107775630,49.011311,11.067341,3.216769,1.109690,0.089273,0.120992
8107795682,46.722313,22.680342,12.385988,1.107762,0.069854,0.148560
8107815735,48.362564,31.383564,14.773111,1.022868,-0.015566,0.147856
8107835787,45.414631,35.178963,14.147169,0.930766,-0.113205,0.138699
8107855840,41.829918,31.139299,12.919394,0.804118,-0.152096,0.177059
8107875892,38.509315,25.296062,13.130167,0.849296,-0.025444,0.182821
8107895944,37.832150,25.444534,15.691578,0.970604,0.108445,0.168135
8107915997,30.584513,30.956650,17.259125,1.101885,0.181788,0.162219
8107936049,13.335817,35.288612,11.838862,1.068461,0.136526,0.179046
8107956101,-3.930450,32.735790,-2.993473,0.985934,-0.054924,0.216213
8107976154,-4.012270,18.555241,-8.765220,0.911412,-0.044513,0.186754
8107996206,-5.445481,8.105934,-5.378812,0.832427,-0.003614,0.219075
8108016277,-10.613649,-0.386622,-0.838259,0.818547,0.084901,0.209954
8108036309,-24.822874,-4.443012,0.264485,0.864033,0.155653,0.175558
8108056361,-46.389194,-6.823449,-3.304608,0.905432,0.176300,0.132442
8108076413,-56.217777,-6.316650,-6.630075,0.926147,0.054773,0.080828
8108096466,-60.137215,-6.392247,-9.720657,0.914464,-0.044666,0.086077
8108116518,-54.745510,-12.635680,-13.361668,0.972964,-0.266456,-0.000372
8108136570,-42.506699,-17.900108,-14.537709,0.976875,-0.058594,-0.040467
8108156623,-47.858994,-18.288645,-4.446903,1.233683,0.211145,-0.081030
8108176675,-61.009285,-9.818714,7.526005,1.406943,0.043932,-0.020973
8108196728,-57.422268,-3.433824,6.259799,1.359547,-0.209317,0.041515
8108216780,-46.799488,6.166473,0.781307,1.212001,-0.318482,0.118530
8108236833,-31.522161,10.538789,-1.884165,0.974259,-0.365476,0.185643
8108256885,-21.917774,8.329480,0.166403,0.827221,-0.318975,0.207147
8108276937,-15.033901,4.160626,1.292465,0.769037,-0.253824,0.178260
8108296990,-8.127625,0.139368,-0.666626,0.755057,-0.197445,0.171056
8108317042,-9.223076,-0.712816,-2.232150,0.806235,-0.183987,0.189531
8108337095,-12.677709,0.097999,-1.301522,0.914014,-0.087581,0.230895
8108357147,-17.166965,2.902627,1.449126,1.041926,0.023727,0.314037
8108377199,-18.531736,4.800153,1.594644,1.072627,-0.019277,0.339200
8108397252,-17.771093,7.322206,-0.134736,1.012539,-0.154761,0.315258
8108417304,-17.470182,7.201791,-1.475902,0.907124,-0.202573,0.266168
8108437356,-15.687788,6.891800,-4.309988,0.825300,-0.178466,0.293665
8108457408,-15.232405,1.683149,-8.483363,0.896779,-0.132325,0.300818
8108477461,-15.636389,-0.278979,-7.415406,0.978678,-0.084349,0.224591
8108497515,-20.606735,-1.983956,-4.186734,0.951941,0.010522,0.166046
8108517567,-34.384693,-12.817275,-0.741628,0.931841,0.052996,0.121151
8108537619,-43.677063,-21.939610,-1.472415,0.851891,0.013378,0.062877
8108557671,-46.174511,-27.873720,-4.467517,0.799350,-0.024605,0.102569
8108577724,-43.742149,-31.433510,-8.056108,0.790248,-0.068584,0.090835
8108597776,-38.022625,-26.916094,-9.111994,0.825658,-0.153995,0.033818
8108617829,-12.616842,-29.227152,-9.469137,0.830312,-0.281114,-0.012392
8108637881,2.923689,-34.128281,-10.632428,1.087721,-0.217395,-0.145905
8108657933,3.022281,-33.320763,-9.096717,1.297400,-0.133470,-0.109853
8108677986,4.472119,-34.774963,-7.659791,1.408515,-0.092566,-0.081001
8108698038,5.416970,-35.056213,-7.492416,1.457510,-0.153242,-0.010789
8108718090,6.706998,-39.383064,-12.343649,1.312823,-0.150590,-0.057469
8108738143,4.889811,-40.078339,-14.758304,0.859807,-0.015079,-0.029167
8108758195,5.626295,-33.354664,-6.353929,0.881132,-0.042758,0.110357
8108778248,-2.893147,-21.191339,6.233685,0.942256,-0.068723,0.147082
8108798300,-9.749180,-12.187135,8.577271,0.805230,-0.054897,0.156584
8108818351,-12.236182,-10.228856,9.882554,0.830524,-0.022335,0.148752
8108838403,-20.747536,-8.477405,9.924973,0.866751,-0.030176,0.115654
8108858455,-24.097019,-9.679404,9.392181,0.914756,-0.068436,0.094807
8108898560,-8.680583,-14.279325,5.575261,1.059543,-0.098139,0.060187
8108918612,-6.634504,-16.582882,1.755108,1.075810,-0.096484,0.052648
8108958717,-4.716281,-14.111153,2.867606,1.056990,-0.083425,0.021918
8108978770,1.447612,-10.129996,-4.196702,1.058565,-0.038788,0.010779
8108998822,7.175087,-4.792027,-9.946794,1.018693,-0.061246,-0.003422
8109018874,10.736588,-1.715062,-9.663063,0.981735,-0.172041,-0.019761
8109038927,18.897924,-0.589402,-15.354018,0.993007,-0.165081,-0.017671
8109058979,29.263672,2.319897,-17.398832,1.006770,-0.186246,-0.006695
8109099084,31.679697,1.236748,-13.515521,1.044453,-0.043218,0.071986
8109119137,15.833255,3.458292,-3.611930,1.047108,0.146528,0.099801
8109139189,-0.188143,5.359520,9.832200,1.035682,0.163407,0.080984
8109159241,-10.530113,7.134066,20.190140,0.988893,-0.004422,0.106134
8109179293,-13.302968,5.220457,21.774128,0.977291,-0.121826,0.106683
8109199346,-9.810388,0.443761,16.741779,0.948744,-0.124694,0.094699
8109219398,-3.864663,-3.283773,11.811061,0.911064,-0.083517,0.063509
8109239450,-2.242673,-4.001976,7.023068,0.928084,-0.043137,0.063707
8109259503,-3.001270,-5.854090,6.650768,0.957448,-0.040170,0.076151
8109279556,-3.233643,-6.704279,6.903885,1.006385,-0.108749,0.082563
8109299609,0.265809,-7.403819,3.123170,1.012239,-0.152654,0.054575
8109319661,8.226931,-7.919724,-1.440372,1.004516,-0.127474,0.037506
8109339714,11.323640,-9.073497,-4.605485,1.011735,-0.107883,0.040420
8109359766,10.336789,-10.844846,-5.175036,1.022164,-0.097985,0.044833
8109379818,9.147273,-12.110947,-4.874678,1.013740,-0.087760,0.030386
8109399871,6.790697,-11.740233,-3.844392,0.989450,-0.078825,0.017205
8109419923,6.004411,-10.236377,-2.924666,0.991756,-0.094529,0.005043
8109460029,7.291006,-9.231123,-4.952162,1.047091,-0.061088,0.035221
8109480080,7.843633,-6.134383,-6.827450,1.032518,-0.031200,0.018050
8109500133,8.613342,0.268091,-4.811041,1.000741,-0.053946,-0.023992
8109520185,9.987956,4.487426,-2.901007,0.977735,-0.061107,0.031822
8109540237,10.572775,5.232873,-0.880199,1.030193,-0.052707,0.052182
8109560290,10.076733,9.158083,0.872346,1.094795,-0.059110,0.045625
8109580354,11.400223,13.521800,1.660216,1.070110,-0.080954,0.053064
8109600393,10.360514,15.156951,3.193474,1.019067,-0.053328,0.099734
8109620445,6.650525,15.867373,8.906858,1.033298,-0.023339,0.129934
8109640498,4.680238,16.867365,15.391690,1.062114,-0.045128,0.139388
8109660550,4.470746,18.866570,16.013929,1.016491,-0.088653,0.152474
8109680602,4.922123,19.115320,11.677749,0.955004,-0.124592,0.177538
8109700655,2.991768,19.106773,7.532765,0.947950,-0.090476,0.181819
8109720707,1.788761,18.859825,8.140353,0.971857,-0.065446,0.181244
8109740760,1.536333,19.041189,8.268659,0.949241,-0.100251,0.184213
8109760812,1.826078,16.942423,6.229472,0.925532,-0.124827,0.197508
8109780865,2.240457,13.930120,4.860336,0.951416,-0.106620,0.189665
8109800917,3.509439,13.205200,4.165125,0.977073,-0.119058,0.173540
8109820969,5.289137,13.089258,2.004899,0.996696,-0.125293,0.172934
8109841022,3.264833,13.487508,1.049287,1.009627,-0.084866,0.170649
8109861074,0.412838,14.917566,3.235677,1.029110,-0.070597,0.167986
8109881126,0.749135,17.188301,4.212999,1.028369,-0.113809,0.145033
8109901179,-0.368921,19.417236,2.492865,1.009603,-0.119297,0.145327
8109921231,-0.969095,21.228895,1.478831,1.024723,-0.090736,0.164462
8109941283,-2.292795,24.045321,1.628748,1.043617,-0.110958,0.170647
8109961336,-2.708797,28.081463,1.637723,1.028560,-0.108069,0.171688
8109981388,-2.081083,32.174683,1.191398,1.015911,-0.118513,0.142000
8110001440,-2.396759,34.967175,0.120832,1.011584,-0.125291,0.183582
8110021493,-0.940009,35.104549,-1.267101,1.037559,-0.123616,0.246184
8110041545,2.625631,36.495537,-2.281144,1.007542,-0.127066,0.283001
8110061599,0.292219,37.795502,-3.186702,0.933101,-0.086960,0.271649
8110081651,-4.091302,36.313972,-3.634799,0.906840,-0.083447,0.286327
8110101704,-4.977517,32.503315,-3.856306,0.922770,-0.118138,0.323286
8110121756,-2.330619,28.525093,-4.214894,0.901526,-0.130500,0.345363
8110141808,-2.489152,24.029177,-1.910501,0.872385,-0.103678,0.357661
8110161861,-2.387615,17.803461,0.301235,0.869565,-0.091070,0.350224
8110181913,-1.989830,10.760173,1.378841,0.903405,-0.146831,0.359471
8110201965,0.077381,3.961737,1.037753,0.906197,-0.170918,0.377492
8110222018,1.393079,-3.064074,0.333923,0.917227,-0.155827,0.370034
8110242070,8.799217,-8.624352,-0.612038,0.872345,-0.183476,0.311052
8110262122,13.408317,-12.750803,-0.031011,0.826951,-0.102989,0.285351
8110282175,12.799734,-20.141659,2.344146,0.824990,-0.058714,0.255650
8110302227,11.158008,-26.168322,4.222332,0.844460,-0.033204,0.187330
8110322280,7.585488,-28.757095,4.315873,0.888083,-0.018371,0.156657
8110342332,4.245525,-28.580252,3.323589,0.934954,-0.070071,0.149227
8110362386,3.062423,-28.088581,0.669674,0.996817,-0.131591,0.170917
8110382435,-1.965636,-25.010059,-0.718544,1.031510,-0.161718,0.161787
8110402488,-4.406748,-20.956161,-0.610395,0.979747,-0.153626,0.170142
8110422540,0.528830,-21.081743,-1.559060,1.019856,-0.204584,0.056229
8110442592,10.038369,-14.348341,-6.648335,1.017705,-0.230520,-0.061363
8110462645,13.305721,-13.795715,-5.476645,1.060991,-0.078691,-0.118616
8110482697,9.270988,-15.995839,4.900362,1.241618,0.086213,-0.159234
8110502750,4.461281,-9.596094,9.844212,1.256218,-0.035551,-0.054112
8110522802,10.486670,-9.215387,7.400365,1.146654,-0.200783,0.010006
8110542854,9.885511,-7.659882,4.303001,0.992745,-0.202483,0.061193
8110562906,10.181991,-6.670718,-0.437359,0.821510,-0.169722,0.033880
8110582959,12.437275,-3.417867,-10.574845,0.749099,-0.027518,0.122696
8110603011,1.331660,-6.238259,-8.113235,0.832460,-0.026506,0.193802
8110623064,5.391743,-1.667872,-6.288718,1.102454,-0.113739,0.119383
8110643116,13.266568,19.544708,-10.616366,1.159675,-0.270725,0.047534
8110663168,10.980777,38.285217,-13.598042,1.117690,-0.113555,0.008519
8110683221,-0.545120,41.847218,-11.059751,1.196129,-0.025664,0.113756
8110703273,-3.263990,40.828232,-8.523914,1.230641,-0.023791,0.150697
8110723325,-9.750485,43.784565,-4.931826,1.113429,-0.049912,0.159256
8110743378,-16.665663,43.913593,-3.793005,1.043498,-0.073914,0.188030
8110763430,-18.662853,43.649147,-5.125291,0.969034,-0.042658,0.231583
8110783482,-19.329243,42.095482,-6.415706,0.914629,-0.053846,0.264682
8110803535,-17.886854,39.924831,-6.613363,0.919389,-0.101698,0.285173
8110823588,-16.513727,36.960651,-4.974154,0.893339,-0.106499,0.283771
8110843641,-14.204438,32.772911,-0.913369,0.852063,-0.059846,0.318838
8110863693,-12.809278,26.519037,1.510222,0.829932,-0.023974,0.359437
8110883746,-16.801289,24.135994,-1.435962,0.814960,0.016680,0.358224
8110903798,-25.642958,22.349773,-2.237659,0.809768,0.004438,0.347968
8110923850,-27.992590,20.472750,-2.503211,0.848779,-0.013387,0.296011
8110943903,-23.663673,18.001831,-2.746318,0.850770,-0.058573,0.274372
8110963955,-17.760603,14.701272,-3.752592,0.889508,-0.155929,0.277682
8110984008,-14.414706,10.543579,-9.188707,0.945417,-0.130309,0.307319
8111004060,-15.746234,7.616780,-9.640473,1.022542,-0.021622,0.284250
8111024112,-17.259579,6.977184,-5.984681,1.019515,0.016745,0.299326
8111044164,-14.164274,4.169508,-5.384932,0.996510,-0.027243,0.295491
8111064217,-11.170047,3.196162,-7.527471,0.945274,-0.114798,0.292779
8111084269,-9.221110,0.553673,-8.428523,0.942015,-0.082523,0.288383
8111104321,-9.087158,-0.971401,-7.233418,0.925025,-0.037824,0.271659
8111124374,-6.524210,-0.551864,-7.167551,0.899780,-0.067024,0.253914
8111144425,-2.279356,-2.445079,-8.405463,0.892889,-0.129740,0.278766
8111164477,-2.065432,-3.458015,-6.742255,0.939427,-0.086362,0.280775
8111184529,-2.317745,-3.130864,-3.976974,1.004320,-0.013350,0.293750
8111204582,-3.077358,-1.482637,-1.867859,1.005706,-0.008881,0.288346
8111224634,-3.007481,-0.492056,-1.363507,0.967049,-0.034346,0.286095
8111244686,-3.422096,-1.419495,-1.132797,0.947336,-0.053865,0.283818
8111264739,-4.668254,-3.281282,-1.330577,0.953454,-0.047381,0.278878
8111284791,-6.058772,-2.010327,-1.796786,0.947612,-0.032166,0.257121
8111304844,-5.365304,-1.081782,-0.943806,0.935901,-0.055806,0.244951
8111324896,-4.155500,-2.088745,-1.759288,0.964886,-0.053204,0.244582
8111344948,-4.208509,-3.420694,-2.239733,1.006151,-0.031486,0.270343
8111365001,-7.849277,-3.483646,-1.230240,1.016880,-0.011907,0.265467
8111385053,-11.658262,-3.313369,-0.380649,0.963994,-0.025931,0.258619
8111405106,-11.449237,-5.761388,0.052135,0.939065,-0.049459,0.230813
8111425158,-11.341769,-7.956233,1.007030,0.961485,-0.065492,0.224342
8111445210,-9.925304,-8.683594,2.168621,0.980563,-0.087703,0.231187
8111465263,-7.927498,-8.495638,3.410222,0.963145,-0.119974,0.232709
8111485315,-5.271731,-8.454062,3.636518,0.956262,-0.098818,0.245594
8111505368,-5.190825,-7.899204,3.657315,0.957669,-0.048261,0.229114
8111525420,-7.815141,-8.520462,4.168165,0.951903,0.008475,0.220146
8111545472,-11.283338,-7.788777,4.606437,0.977324,0.005458,0.208546
8111565525,-12.760317,-4.498356,4.239405,0.999220,-0.040222,0.212956
8111585577,-13.851197,-1.788813,2.858659,1.000880,-0.071659,0.225419
8111605631,-15.223843,-1.244129,2.773894,0.985926,-0.056838,0.202966
8111625684,-15.972064,-1.205966,3.577394,1.000408,-0.016938,0.169797
8111645736,-15.605563,1.792986,3.233458,1.012864,-0.025982,0.164447
8111665788,-13.422483,4.229155,2.057139,1.012161,-0.119999,0.191432
8111685841,-10.644897,5.201344,0.461236,0.992684,-0.183130,0.201840
8111705893,-10.711784,5.301949,-0.365194,0.981129,-0.149249,0.196640
8111725945,-10.417972,5.941226,-0.420552,0.966481,-0.089501,0.177213
8111745998,-9.625673,7.238172,-0.235825,0.968153,-0.091568,0.204151
8111766050,-12.437147,6.776608,1.706963,0.990874,-0.103078,0.221804
8111786102,-18.707287,8.215557,4.030941,1.001707,-0.081107,0.244529
8111806154,-16.263720,8.935906,2.572443,0.885199,-0.107952,0.195663
8111826207,-10.486552,8.775317,0.024443,0.855623,-0.137284,0.201246
8111846259,-6.733289,6.605102,-4.880557,0.913305,-0.155060,0.245667
8111866312,-4.349154,7.272919,-9.772121,0.925565,-0.155579,0.207316
8111886364,-1.146066,7.623377,-6.894446,0.899656,-0.154176,0.163037
8111906435,6.166977,3.592356,-1.236793,0.880523,-0.220554,0.194207
8111926467,17.610771,-3.367349,-0.762081,0.903907,-0.302979,0.227591
8111946520,25.724257,-5.644886,-1.946970,0.953125,-0.201710,0.287751
8111966572,31.056253,-8.551565,2.282659,1.046834,-0.138475,0.273233
8111986624,34.285130,-16.302687,4.945714,1.002662,-0.074096,0.156024
8112006677,35.432758,-31.452618,5.459833,0.933743,-0.076921,0.063866
8112026729,33.755604,-41.339844,1.962696,0.965479,-0.086699,0.035848
8112046781,34.327057,-46.458794,-0.157131,0.992148,-0.046729,-0.039042
8112066833,29.906507,-45.206200,-0.394848,0.995924,-0.003895,-0.004793
8112086886,29.728060,-39.586487,-1.118993,1.103649,-0.007075,0.048812
8112106938,27.790100,-27.834137,-1.461969,1.101064,-0.023715,0.124966
8112126991,30.812632,-17.273251,-4.455212,1.076076,-0.134082,0.181505
8112147043,33.691013,-10.306235,-6.572019,1.137374,-0.132139,0.174556
8112167096,26.364428,-7.228543,-2.131211,1.125389,0.031331,0.069152
8112187148,19.553141,-5.105367,2.100495,1.043081,0.069972,0.000776
8112207200,21.700809,-3.084430,-2.265121,1.025686,0.015696,-0.037345
8112227253,22.383692,-0.521369,-3.433773,1.082538,-0.001816,-0.038103
8112247305,17.820518,7.998605,-0.801319,1.068918,-0.071674,0.111660
8112267358,19.034317,10.498361,1.865014,1.076008,-0.124114,0.141400
8112287410,19.573734,16.746588,4.935510,0.985476,0.000214,0.157951
8112307462,10.815758,16.070545,7.919436,0.807526,0.166434,0.214113
8112327515,-0.006358,7.657309,11.643167,0.791549,0.213510,0.179100
8112347567,-9.758360,5.898729,12.546960,0.879902,0.048931,0.150004
8112367619,-13.850209,8.931270,5.337933,0.984585,-0.075143,0.129915
8112387673,-19.143793,13.367171,-2.004351,1.042112,0.013674,0.162923
8112407725,-27.963821,14.148393,-1.405217,1.087124,0.132659,0.185313
8112427778,-41.667847,16.915565,0.151312,1.081849,0.119187,0.158802
8112447830,-54.466721,19.525560,-3.657837,1.029939,0.029563,0.132115
8112467882,-64.606918,18.612179,-10.335780,1.020267,-0.048048,0.125765
8112487935,-73.725212,17.632938,-11.693426,1.028429,-0.043377,0.146309
8112507987,-83.042900,16.637081,-9.481255,1.034952,0.005658,0.175325
8112528039,-95.817352,18.272068,-9.042836,1.030750,0.069451,0.144928
8112548092,-107.936211,21.828684,-12.726643,0.978527,0.034311,0.128878
8112568144,-116.154007,22.319481,-17.841251,0.935006,-0.052605,0.131575
8112588196,-124.841087,22.474390,-20.370115,0.931526,-0.068233,0.157633
8112608249,-134.243744,20.386463,-21.481316,0.943742,-0.057250,0.167772
8112628301,-146.402481,15.492779,-22.839565,0.964019,-0.034874,0.134484
8112648353,-167.504486,16.617157,-27.292477,0.978599,0.013929,0.126752
8112668406,-180.598694,21.568424,-30.321379,0.958870,-0.001038,0.125149
8112688471,-185.075882,22.566704,-34.688728,0.977320,-0.086118,0.068462
8112708509,-184.250397,25.132030,-38.040176,0.962172,0.009382,0.007629
8112728561,-185.777191,25.736452,-34.532669,1.053004,0.044638,0.000231
8112748614,-186.956482,26.255978,-32.798466,1.146044,-0.000212,0.013770
8112768666,-185.812851,25.621487,-32.273731,1.183398,-0.153646,0.047893
8112788719,-179.338318,25.866041,-31.511368,1.111649,-0.284560,0.097977
8112808771,-163.227066,24.459423,-30.504166,0.951805,-0.396506,0.128222
8112828823,-144.811874,20.202175,-34.853840,0.815712,-0.475590,0.133716
8112848876,-127.070084,12.976300,-40.943790,0.818709,-0.514749,0.139644
8112868928,-112.720505,7.641380,-45.834019,0.842559,-0.459192,0.164618
8112888980,-104.478668,3.500273,-48.914848,0.888826,-0.321699,0.165808
8112909033,-99.881111,4.759958,-51.346069,0.957923,-0.168874,0.168256
8112929085,-101.468658,6.196388,-55.443096,0.977402,-0.019436,0.176570
8112949138,-109.801521,5.691226,-58.272972,1.007663,0.019838,0.173604
8112969190,-116.822693,3.890878,-53.603245,1.052736,-0.059831,0.129131
8112989242,-119.686913,5.755289,-41.573284,1.009979,-0.230485,0.121169
8113009294,-113.501152,4.946643,-33.008442,0.984719,-0.274312,0.237647
8113029347,-107.580032,-1.783883,-31.403320,1.018816,-0.081619,0.110057
8113049399,-114.346436,-0.580909,-25.076668,0.937731,0.026276,0.094055
8113069452,-118.126892,-0.387179,-20.558954,0.956302,-0.060937,0.111010
8113089504,-115.383942,3.178313,-22.603361,1.012552,-0.132374,0.068702
8113109556,-109.889191,8.026930,-28.662420,1.012158,-0.134045,0.027911
8113129609,-97.208351,9.699775,-25.754728,0.999042,-0.216830,0.067221
8113149661,-77.601524,7.028827,-17.029009,1.009280,-0.314820,0.158130
8113169715,-51.384960,2.624737,-11.876901,1.032400,-0.395584,0.142324
8113189767,-29.885330,1.157485,-10.424213,1.004711,-0.302072,0.122505
8113209819,-19.813768,-1.783182,-8.060550,0.985021,-0.114649,0.137374
8113229872,-18.417713,-7.694278,-6.653721,0.983939,-0.043177,0.084189
8113249924,-17.330957,-11.915777,-6.654713,0.941688,-0.119908,0.036246
8113269976,-13.665660,-14.856143,-8.411761,0.928844,-0.173098,0.061036
8113290029,-9.201826,-16.488657,-9.468753,0.940508,-0.175264,0.047421
8113310081,-4.766397,-18.272751,-8.062052,0.942459,-0.111177,0.055872
8113330134,-0.329034,-20.533997,-6.479391,0.967881,-0.089178,0.078337
8113350186,2.614431,-23.448608,-5.826166,0.990920,-0.101207,0.104178
8113370238,7.245863,-26.400234,-4.370036,0.997366,-0.163173,0.077494
8113390291,14.588047,-29.722622,-5.513160,0.989399,-0.179252,0.091711
8113410343,22.294472,-35.836754,-6.715003,0.950311,-0.158331,0.093009
8113430396,28.430588,-42.068008,-6.809363,0.918095,-0.013894,0.057936
8113450448,29.588829,-45.749207,-3.090974,0.930475,0.060191,0.039535
8113470521,31.260775,-54.696327,0.531697,0.860429,0.055472,-0.077058
8113490552,30.054224,-60.772587,10.898335,0.817528,0.092493,-0.195213
8113510604,20.462730,-50.816097,21.371819,0.995811,0.060808,-0.297736
8113530656,26.125933,-34.076805,21.440998,1.116285,-0.202467,-0.173958
8113550708,60.888031,-28.512173,-3.638804,1.257847,-0.456951,-0.106117
8113570761,83.858139,-14.681816,-44.355610,1.334663,-0.312504,-0.125331
8113590813,93.745575,-4.996462,-45.241287,1.023920,-0.040704,-0.112230
8113610866,90.535416,4.957526,-35.755291,1.211106,0.093828,-0.027937
8113630918,79.702011,10.600723,-19.400400,1.287650,0.239583,-0.063799
8113650985,60.882561,22.332405,0.384739,1.074264,0.206501,-0.006036
8113671022,48.965752,22.385277,7.838844,1.003119,0.115173,0.061226
8113691075,39.457859,21.995079,14.770685,0.988981,0.054639,0.061735
8113711127,32.711807,25.735065,20.095745,0.933106,-0.018542,0.112172
8113731180,34.012478,27.792770,22.399784,0.947139,-0.063951,0.104891
8113751232,34.532120,32.901348,20.563047,0.920802,-0.147082,0.160288
8113771284,30.907187,35.566376,21.957239,0.943934,-0.085805,0.242538
8113791337,21.402346,34.685238,25.692453,1.050405,0.049649,0.269990
8113831441,-6.513677,44.913666,12.949490,1.094841,0.283668,0.037659
8113851493,-18.886925,43.884377,-1.321386,0.875265,-0.044109,0.163226
8113871546,-14.623495,29.813931,-15.757782,0.895915,-0.229533,0.154613
8113891598,-8.403631,21.697300,-15.155992,0.870204,-0.173713,0.173779
8113911651,-3.959023,16.879772,-8.456306,0.898629,-0.060771,0.182671
8113931703,-5.341340,13.495934,2.871221,0.876444,0.091248,0.174483
8113951757,-17.574064,11.126713,10.599047,0.863055,0.075839,0.211102
8113971809,-27.937933,1.303178,10.538000,0.896595,0.059476,0.205258
8113991861,-38.347115,-8.521518,10.340549,0.853173,0.025280,0.164902
8114011914,-37.354778,-22.345148,9.463204,0.795822,-0.030994,0.101073
8114052018,-50.336796,-31.559763,-0.815459,0.881858,-0.048720,-0.072610
8114072071,-38.069046,-37.982349,-5.079734,0.874231,-0.043028,-0.220599
8114092123,-31.152212,-28.757767,-1.339622,1.005713,-0.013819,-0.161112
8114112176,-14.667491,-26.054314,3.336666,1.438248,-0.210112,-0.071250
8114132228,-4.048419,-17.254894,0.862202,1.641046,-0.288387,-0.086811
8114152280,1.987297,-4.009910,-0.981765,1.361784,-0.230928,-0.002661
8114172333,15.968050,1.694770,0.683790,1.174494,-0.203976,0.036779
8114192385,14.504181,13.703482,1.969240,1.001329,-0.139475,0.120509
8114212438,13.459318,14.740163,3.709194,0.898134,-0.085783,0.155328
8114232490,10.296408,13.555964,4.593541,0.847890,-0.053207,0.141053
8114252561,1.840308,13.439577,4.536271,0.822829,-0.033849,0.145286
8114272593,-5.711414,12.890091,5.882284,0.851838,-0.035014,0.173861
8114292645,-6.688804,14.372184,7.158364,0.893105,-0.087987,0.205577
8114312698,-3.572448,18.141533,4.552280,0.919618,-0.260293,0.294281
8114332750,-3.812330,15.420166,5.440901,0.935270,-0.242686,0.399160
8114352803,-7.337661,12.891575,7.792746,0.998783,-0.085745,0.372437
8114372855,-12.863649,13.350204,6.800258,0.953750,-0.064727,0.330431
8114412959,-20.891672,9.254349,4.884548,0.943001,-0.120168,0.247746
8114433012,-25.975599,3.689685,0.562760,0.926778,-0.075685,0.209308
8114473116,-37.899620,-19.247602,-6.713195,0.788857,-0.103070,0.081046
8114493169,-33.352112,-31.317303,-5.233195,0.781463,-0.189426,0.079175
8114513221,-28.421499,-30.459482,-9.125883,0.813303,-0.218968,-0.003326
8114533273,-15.707552,-29.310015,-12.165877,0.874722,-0.303797,-0.080978
8114553326,-5.294281,-28.721846,-16.347557,1.107415,-0.164346,-0.079488
8114573378,-7.811071,-24.485950,-13.799584,1.364132,-0.057062,-0.101176
8114593430,-12.637545,-14.554690,-6.230421,1.377699,-0.040866,0.064506
8114613483,-10.137727,-13.965455,0.307314,1.256645,-0.183756,0.149006
8114633535,-11.429901,-17.139048,2.797021,1.105365,-0.172782,0.196521
8114653588,-11.639275,-19.140781,8.192630,0.921560,-0.088754,0.172796
8114673640,-8.527137,-20.444939,5.240242,0.803333,-0.058230,0.139704
8114693692,-11.816138,-18.863333,-0.546801,0.756886,-0.115758,0.113775
8114713745,-14.227089,-18.572464,-4.866965,0.783853,-0.163241,0.124877
8114733799,-12.097839,-17.499825,-9.108045,0.874847,-0.023711,0.115455
8114753851,-9.199421,-14.938938,-4.525035,0.990719,-0.035316,0.105686
8114773903,-7.082906,-9.898892,0.337705,1.038833,-0.155807,0.122690
8114793956,-4.822032,-8.482277,-2.472182,1.049603,-0.161575,0.092387
8114814008,-2.609595,-7.201710,-3.940108,1.084050,-0.178764,0.041117
8114834060,1.762185,-5.514871,-8.214404,1.061194,-0.219592,0.010345
8114854113,4.486508,-4.453084,-9.992493,1.074755,-0.119071,0.010641
8114874165,2.515764,-2.094962,-0.041179,1.095150,0.022135,0.053321
8114894218,2.124928,-1.525383,8.771322,1.070538,-0.064440,0.096228
8114914270,5.781681,-1.528095,10.558685,1.033785,-0.108604,0.120472
8114934322,8.274149,-0.654244,10.509327,0.970197,-0.140336,0.128659
8114954375,10.092197,-0.500677,7.711527,0.902974,-0.164076,0.130820
8114974427,14.467541,-2.804241,3.882981,0.891941,-0.152559,0.156511
8114994480,15.302248,-3.864545,1.029075,0.924189,-0.062729,0.162425
8115014532,10.751919,-3.560357,-0.183013,0.938487,-0.043176,0.155211
8115034584,9.486546,-3.942686,-1.704623,0.959047,-0.100198,0.128934
8115054635,13.869263,-4.652212,-5.576560,0.959344,-0.172544,0.114414
8115074687,17.483881,-7.175387,-12.124929,0.974950,-0.162267,0.106317
8115094740,15.896237,-8.550579,-16.644274,1.019613,-0.059135,0.087354
8115114792,15.241976,-6.756222,-14.346224,1.048710,-0.053877,0.082046
8115134844,15.145049,-5.078401,-15.435762,1.059543,-0.114840,0.099642
8115154897,15.355898,-5.300018,-17.079706,1.033966,-0.079320,0.090506
8115174949,15.812159,-2.727997,-13.011250,1.047435,-0.044862,0.077297
8115195002,15.612008,2.329958,-10.118289,1.003918,-0.069111,0.110261
8115215054,13.123551,4.681738,-9.011415,1.003530,-0.066451,0.144036
8115235106,7.150029,6.854209,-5.053014,1.026471,0.007373,0.143890
8115255159,1.893827,9.345462,0.548671,1.029231,-0.009553,0.148013
8115275211,1.001331,11.578764,2.875607,1.007336,-0.076323,0.183985
8115295264,-1.804568,11.759637,4.361442,1.027214,-0.051722,0.217741
8115315316,-8.171296,14.890583,5.436673,1.042561,-0.014106,0.209144
8115335368,-14.456634,20.550743,11.399166,1.016873,-0.006815,0.201879
8115355421,-15.501556,23.544519,15.284801,1.035090,-0.034020,0.202687
8115375473,-16.132969,26.463867,15.388646,1.042006,-0.080937,0.243904
8115395526,-13.665161,28.275826,11.258586,1.033221,-0.125354,0.271621
8115415578,-8.839384,29.496199,5.985316,0.972058,-0.190412,0.287118
8115435630,-1.789054,27.599543,0.115691,0.952689,-0.169113,0.299186
8115455683,2.388840,25.462143,-1.250198,0.926455,-0.100813,0.307934
8115475735,4.561345,23.781265,0.808731,0.901920,-0.059209,0.304825
8115495787,5.588953,21.767040,1.762681,0.894280,-0.078535,0.326988
8115515840,4.637678,18.971014,1.189069,0.919393,-0.082605,0.337211
8115535893,1.842131,17.559353,1.740597,0.916021,-0.083375,0.321927
8115555946,2.137762,16.045856,2.200447,0.937494,-0.118308,0.315485
8115575998,5.184090,14.783268,1.082045,0.933687,-0.137496,0.321225
8115596050,5.959700,14.089236,-0.219416,0.956999,-0.111038,0.312540
8115616103,3.493636,14.642770,-1.372461,0.978573,-0.072803,0.314523
8115636155,3.109259,15.549420,-1.663451,0.966690,-0.088040,0.311889
8115656207,6.727770,15.543326,-2.763646,0.963865,-0.128594,0.316428
8115676260,5.684897,15.559189,-2.778493,0.960406,-0.073054,0.318850
8115696312,-0.035864,15.487545,-0.995189,0.977857,0.000845,0.337659
8115716364,-4.633415,15.330263,-0.705037,0.983210,-0.015089,0.334428
8115736417,-4.290483,15.204025,-0.613774,0.976942,-0.075357,0.314087
8115756469,-5.664368,15.954203,-0.615878,0.964857,-0.073999,0.321983
8115776521,-7.818719,14.369819,-0.427769,0.937522,-0.065714,0.346596
8115796574,-8.897083,10.817410,-0.430308,0.931529,-0.068543,0.359401
8115816626,-7.977864,8.105925,-0.375813,0.940116,-0.096301,0.354784
8115836678,-4.983978,6.038532,-0.256053,0.934474,-0.132465,0.355435
8115856730,-4.726727,3.179633,-0.018923,0.903953,-0.128608,0.350267
8115876782,-8.697538,-0.298075,2.768349,0.884923,-0.055734,0.340927
8115896834,-15.511790,-3.776393,7.193674,0.896350,0.011453,0.348682
8115916886,-19.616970,-8.618448,5.673268,0.913721,0.060760,0.331240
8115936939,-13.805758,-12.596848,3.221781,0.877577,-0.194585,0.263776
8115956991,-6.100851,-19.355797,0.900475,0.893090,-0.176840,0.205878
8115977044,-4.458797,-21.510868,2.953645,0.898991,-0.154486,0.198845
8115997096,2.084273,-24.771257,1.636271,0.903188,-0.129251,0.139053
8116017148,5.266886,-24.220299,0.238730,0.925560,-0.110655,0.108005
8116037201,2.336443,-20.700293,-0.734901,0.961098,-0.095342,0.118713
8116057253,0.992973,-16.579124,-4.318320,1.033716,-0.106337,0.177703
8116077305,-1.850728,-12.390984,-7.765024,1.067002,-0.104935,0.175287
8116097358,-7.476754,-7.810060,-7.460523,1.070026,-0.072206,0.125216
8116117410,-11.775681,-2.987003,-8.650375,1.048552,-0.060481,0.096845
8116137462,-9.369327,-3.779879,-10.459857,1.048880,-0.145212,0.067563
8116157515,-3.477237,-4.882518,-14.429494,1.019782,-0.159645,0.015447
8116177567,2.166907,-5.815042,-14.064466,1.018993,-0.059855,-0.039790
8116197620,1.822681,-6.300918,-6.529189,1.135199,0.011908,-0.039524
8116217672,-8.048532,-2.998119,1.314687,1.150144,0.062684,-0.017194
8116237724,-12.246363,-0.774358,4.347656,1.071614,-0.005833,0.038846
8116257777,-10.318517,-0.673295,6.324740,0.973908,-0.117298,0.106152
8116277829,-8.403728,-3.786917,7.782380,0.860739,-0.094164,0.146798
8116297881,-10.965843,-9.461159,8.719883,0.827492,-0.073167,0.178129
8116317935,-14.623375,-14.319267,7.798114,0.852681,-0.064425,0.169209
8116337988,-10.762474,-11.343717,1.359553,0.947440,-0.060417,0.238361
8116358040,-8.227474,-8.377157,-1.539140,0.932007,-0.095897,0.167227
8116378092,-7.441344,-0.545160,-2.771457,0.966870,-0.088597,0.017158
8116398145,-1.097598,3.650132,-6.183507,0.979595,-0.240454,0.006191
8116418197,6.942175,0.571666,-12.678461,1.017144,-0.129443,-0.000644
8116438249,-0.183980,1.001531,-12.965447,1.080538,0.022539,0.026493
8116458302,-3.368615,2.566349,-11.931407,1.202715,-0.000921,0.050988
8116478354,-4.181047,6.826396,-12.120118,1.242701,-0.051448,0.082393
8116498406,-8.558928,11.558371,-12.028786,1.172459,-0.061521,0.126000
8116518459,-14.571053,16.678764,-7.663687,1.044393,-0.041114,0.143306
8116538511,-20.591274,21.991352,-0.517770,0.969046,0.014883,0.169752
8116558564,-27.922937,27.589701,3.959828,0.924583,0.048865,0.163954
8116578616,-33.187832,29.858898,4.484379,0.966594,0.049124,0.182062
8116598668,-37.042400,30.358629,4.658323,1.004784,0.016170,0.184441
8116618721,-40.127403,29.009502,2.200891,0.986861,-0.053566,0.228473
8116638772,-37.060417,22.762495,-3.197612,0.959975,-0.110931,0.255757
8116658824,-34.690231,16.254982,-9.451394,0.911364,-0.123167,0.265370
8116678876,-29.376421,12.073735,-13.448116,0.906040,-0.127269,0.226845
8116698929,-25.956322,13.885966,-14.925877,0.907646,-0.064570,0.201682
8116718981,-26.166193,18.244413,-15.782085,0.910333,-0.004546,0.179831
8116739033,-31.505987,26.711304,-15.930655,0.923930,0.021692,0.195528
8116759086,-34.174129,23.486958,-14.039028,0.919131,0.017157,0.254349
8116779138,-34.182716,19.923586,-9.691583,0.944040,-0.042498,0.233949
8116799190,-29.541428,17.397589,-6.971237,0.933774,-0.112150,0.231592
8116819243,-26.856897,14.320553,-8.916945,0.956618,-0.093926,0.244540
8116839295,-29.825443,8.755994,-7.024728,0.968693,-0.033630,0.285098
8116859348,-28.667654,4.817341,-5.594296,0.952736,-0.004957,0.240211
8116879400,-20.809223,2.690068,-5.566981,0.919973,-0.122098,0.211433
8116899452,-10.937261,-2.407193,-4.279608,0.917910,-0.176301,0.201594
8116919504,-5.881107,-7.286757,-4.400986,0.958229,-0.070961,0.191663
8116939557,-2.970966,-9.688206,-6.591627,0.956162,0.003598,0.195966
8116959609,-2.340747,-13.110678,-8.217110,0.986159,-0.002081,0.213694
8116979662,-1.622236,-14.706750,-9.242600,1.014531,-0.010045,0.198719
8116999714,-0.826249,-14.704722,-10.940573,0.994084,-0.031807,0.198553
8117019767,1.231218,-14.149493,-12.898577,0.959548,-0.029034,0.194459
8117039819,2.156851,-14.218634,-11.587503,0.928069,0.030724,0.184729
8117059871,-0.260088,-16.391495,-11.745907,0.958637,0.077275,0.156778
8117079923,-4.734993,-16.587566,-11.713349,0.985184,0.058848,0.147455
8117099976,-6.086527,-16.181023,-10.857853,1.017173,0.027327,0.149319
8117120030,-5.097761,-14.710722,-7.483051,1.013453,0.035395,0.142201
8117140082,-3.616430,-14.000349,-4.734856,0.999012,0.062157,0.135245
8117160134,-6.424675,-11.260463,-4.349208,1.001226,0.077977,0.122899
8117180187,-9.225072,-11.284380,-1.642457,0.999620,0.078288,0.132245
8117200240,-12.320531,-12.356993,2.401907,1.011742,0.057174,0.127849
8117220292,-14.169205,-12.705305,5.647549,1.025918,0.058085,0.119487
8117240344,-15.369303,-10.781322,9.794607,1.009129,0.047260,0.127491
8117260396,-16.976551,-9.926853,14.506336,1.005966,0.015982,0.107200
8117280449,-22.734629,-8.643540,19.293831,1.010695,0.033304,0.085039
8117300501,-25.459066,-7.774505,26.256855,1.006777,0.038484,0.066593
8117320554,-21.651423,-7.634384,31.257149,0.989419,-0.044261,0.051886
8117340606,-12.690162,-7.701826,36.521622,0.969452,-0.178567,0.072657
8117360659,-0.819690,-8.732184,34.194275,0.983962,-0.280631,0.074487
8117380711,7.768644,-7.309164,24.674772,0.969998,-0.241600,0.042126
8117400763,13.641923,-3.026262,11.622149,0.994838,-0.176589,0.080085
8117420829,16.039179,-2.491792,4.843881,1.004686,-0.224077,0.118967
8117440866,18.499983,-4.989476,5.897522,0.990452,-0.182219,0.100114
8117460919,9.928516,-5.565078,10.161880,0.995144,-0.022344,0.090753
8117480971,-3.836020,-6.417086,9.714898,1.009197,0.100492,0.120423
8117501023,-20.972775,-5.438225,5.761310,1.037143,0.193897,0.065373
8117521076,-41.395149,1.597836,-2.145478,1.022187,0.126108,0.022245
8117541128,-58.668228,4.771389,-10.638799,0.975811,0.015891,0.041550
8117561180,-74.254715,2.684693,-13.559207,0.996674,0.053668,0.056166
8117581233,-85.223297,0.982496,-13.284238,1.005917,0.137982,0.054711
8117601285,-96.284309,0.118377,-11.246225,1.002884,0.110672,0.025831
8117621337,-106.571014,2.080159,-10.923490,0.995484,0.029254,0.007090
8117641390,-114.755768,5.200317,-13.265694,1.029746,0.000678,0.024023
8117661442,-120.377014,7.883711,-14.099079,1.045051,0.010353,0.005570
8117681495,-132.540253,18.444031,-17.087002,1.074962,0.033812,-0.023300
8117701547,-137.399078,26.929525,-20.782755,0.999691,-0.001430,-0.010975
8117721599,-140.384399,27.247637,-23.806812,1.010263,-0.008528,-0.007000
8117741652,-144.832489,26.899521,-25.031845,1.067160,0.153796,-0.011929
8117761704,-145.023529,26.588711,-21.173018,1.086854,0.206275,0.008052
8117781756,-145.879181,25.068836,-22.925800,1.121653,0.070766,-0.013036
8117801808,-142.248596,22.952450,-27.595995,1.051871,-0.058775,0.011871
8117821861,-137.449188,20.732040,-30.720133,1.006035,-0.124911,0.025854
8117841913,-131.435181,20.188377,-32.865208,1.015150,-0.156372,0.041914
8117861966,-126.189026,20.240971,-33.572067,1.013101,-0.147160,0.044702
8117882018,-118.699135,20.435951,-30.899994,0.998543,-0.108441,0.067144
8117902072,-107.736389,18.350601,-27.463381,0.968153,-0.081547,0.059074
8117922124,-103.517471,16.745850,-25.087114,0.928142,-0.013480,0.085540
8117942177,-105.876396,14.197927,-23.394979,0.957989,0.026593,0.074927
8117962229,-111.582169,16.091404,-19.412973,0.973581,-0.000083,0.087798
8117982281,-116.390388,16.878820,-15.988316,1.027970,-0.036916,0.127963
8118002334,-111.923996,11.850454,-11.432756,0.947617,0.074350,0.125287
8118022386,-108.583664,4.762700,-6.036021,1.028551,0.076136,0.065857
8118042438,-108.703041,4.572137,-3.640373,0.957624,-0.037086,0.075753
8118062491,-100.723091,0.733261,-9.071630,0.926920,-0.161813,0.088157
8118082543,-91.111725,-2.437288,-19.735243,0.895145,-0.259946,0.098883
8118102595,-76.254280,-7.861185,-23.617340,0.917786,-0.218215,0.103741
8118122648,-59.820992,-12.665013,-13.950947,0.948388,-0.192688,0.111570
8118142700,-41.826359,-17.730921,-4.125042,0.971406,-0.255251,0.104187
8118162753,-24.444250,-21.119421,-2.103450,0.995448,-0.318354,0.077913
8118182805,-8.514658,-26.339006,-0.014407,0.973218,-0.329342,0.049799
8118202857,6.698986,-31.277197,1.694968,0.933683,-0.271454,0.031217
8118222908,18.043306,-34.104572,0.260737,0.965251,-0.202131,0.039091
8118242960,26.689140,-34.094147,-2.220645,0.959994,-0.143048,0.035371
8118263013,32.852058,-31.711868,-2.829750,0.970107,-0.139852,0.034951
8118283065,38.469879,-31.807562,0.230512,1.001785,-0.158384,0.036663
8118303118,43.227875,-35.384953,1.044542,1.010962,-0.085434,-0.010013
8118323170,47.598343,-39.944965,0.543356,1.001796,-0.055912,-0.047410
8118343222,44.861698,-41.902405,-0.032520,0.988705,-0.023192,-0.070057
8118363275,44.918034,-45.178814,-0.779146,1.014219,-0.029912,-0.080160
8118383327,40.960457,-43.439976,-1.435542,1.047934,-0.034065,-0.121861
8118403379,40.575352,-40.019333,-6.335622,1.055191,-0.010146,-0.127721
8118423432,38.957287,-36.059952,-6.416909,1.036567,0.026181,-0.125911
8118443484,37.531723,-31.703678,-5.165735,1.015745,-0.009450,-0.117376
8118463537,32.342930,-27.330591,-5.762567,1.030552,-0.008028,-0.109107
8118483589,24.720119,-23.581448,-2.877655,1.021636,-0.009264,-0.111610
8118503641,15.688534,-20.960983,-0.541625,1.021906,0.037698,-0.118786
8118523694,7.513926,-19.995644,3.285285,1.019287,0.037592,-0.138617
8118543746,1.106780,-18.730078,5.943381,1.016746,0.009644,-0.142128
8118563798,-1.701492,-17.628532,6.562043,1.016949,-0.014493,-0.133577
8118583851,-3.302194,-15.297670,5.849729,1.000138,-0.010330,-0.144923
8118603903,-5.681568,-12.666358,5.432232,1.012711,-0.011717,-0.174083
8118623955,-10.611980,-11.402397,5.118865,0.994047,-0.014614,-0.176908
8118644008,-14.569937,-9.190199,3.687784,1.000965,-0.024908,-0.154291
8118664060,-15.787955,-6.989448,2.414941,1.009724,-0.036777,-0.134188
8118684112,-16.306293,-4.992651,1.779189,1.012668,-0.040444,-0.136942
8118704166,-19.139563,-2.806108,1.128435,1.005859,-0.038672,-0.158187
8118724218,-21.135229,-1.274794,1.639226,0.996088,-0.039605,-0.139251
8118744271,-22.153362,-2.260805,2.832876,0.999793,-0.046414,-0.145871
8118764324,-23.903921,-2.625013,3.471377,1.000356,-0.057908,-0.142826
8118784376,-25.419504,-2.220363,3.000618,0.996245,-0.070568,-0.150706
8118804428,-26.094845,-1.536392,3.809446,0.990531,-0.085175,-0.148397
8118824481,-23.535107,-1.945030,3.772063,0.991045,-0.112970,-0.128804
8118844533,-19.556114,-3.035320,3.721374,1.000337,-0.081192,-0.112565
8118864585,-16.001408,-2.941159,6.524019,1.013873,-0.073327,-0.123829
8118884638,-13.693971,-2.100275,7.452526,1.002807,-0.090035,-0.140619
8118904690,-12.615716,-1.044488,6.425351,0.989609,-0.105400,-0.152077
8118924742,-13.542102,-0.703546,4.878393,1.004531,-0.079147,-0.129190
8118944795,-13.911728,-1.006600,4.159565,1.004038,-0.069725,-0.111853
8118964847,-13.899302,-1.299654,5.820363,1.030425,-0.100659,-0.118942
8118984899,-12.789576,-2.222034,5.277468,0.931996,-0.109682,-0.150437
8119004955,-8.644251,3.185130,4.886015,0.924832,-0.104014,-0.051034
8119025003,-9.288845,5.012028,6.319948,0.959451,-0.097127,-0.019332
8119045055,-8.549694,3.919978,8.134822,0.962336,-0.103115,-0.057504
8119065108,-5.074762,3.332961,7.756681,0.994995,-0.118549,-0.100083
8119085160,-2.950768,2.247552,6.797149,0.991676,-0.116844,-0.094673
8119105212,-1.594355,1.131708,5.421149,0.986603,-0.106067,-0.089926
8119125265,-0.543975,-0.132296,4.940084,0.984285,-0.095514,-0.088610
8119145317,0.074664,-1.509297,3.845664,0.981357,-0.115833,-0.092213
8119165369,1.694233,-2.435503,3.370813,0.991526,-0.103119,-0.107011
8119205474,5.726542,-5.587476,1.386997,0.995873,-0.117654,-0.094724
8119225527,7.038469,-7.658895,1.408833,0.995622,-0.106433,-0.104308
8119245579,9.281952,-7.009521,0.935915,0.991246,-0.119330,-0.128820
8119265631,11.133837,-5.476991,0.065984,0.986957,-0.110760,-0.132494
8119285690,11.731799,-3.241544,-0.002560,0.982812,-0.115537,-0.122743
8119305736,12.224820,-2.776630,-0.224124,0.981209,-0.108286,-0.117385
8119325788,11.105827,-2.783752,-0.193392,0.982962,-0.096745,-0.111054
8119345841,10.101194,-3.030557,0.232232,0.985911,-0.090913,-0.103920
8119365893,8.611207,-3.577374,0.537796,0.985461,-0.093364,-0.103713
8119385945,7.383857,-4.709285,0.489073,0.988015,-0.092962,-0.088613
8119405997,5.848383,-6.640277,0.450791,0.987470,-0.095042,-0.087866
8119426050,5.621593,-8.328964,0.161110,0.982090,-0.094999,-0.103173
8119446102,5.063752,-9.080766,-0.495473,0.983090,-0.101435,-0.115088
8119466155,7.293911,-8.391120,-1.787053,0.982998,-0.108818,-0.142269
8119486208,8.947964,-6.792568,-2.816300,0.984777,-0.105899,-0.167283
8119506261,8.086124,-4.555663,-3.543708,0.990283,-0.093627,-0.148482
8119526313,5.835360,-3.432504,-3.683210,0.994139,-0.093323,-0.153275
8119566418,5.289722,-0.559001,-1.320707,0.997991,-0.078754,-0.164414
8119586470,3.696748,0.316790,0.753467,0.996818,-0.080372,-0.150225
8119606523,2.949540,-0.187452,2.218205,0.994813,-0.086512,-0.147260
8119626575,3.715130,0.125301,2.861070,0.990112,-0.082739,-0.155880
8119646627,3.784443,1.439721,2.955043,0.982500,-0.091166,-0.159563
8119666680,1.199855,2.783014,1.958476,0.981990,-0.096770,-0.131873
8119686732,-0.728920,3.497708,1.721741,0.987091,-0.088449,-0.135296
8119706784,-1.235139,3.743771,2.736651,0.982044,-0.090998,-0.128486
8119726837,-0.926388,2.827930,2.853383,0.979665,-0.103251,-0.120817
8119746889,-1.081306,2.162461,2.226677,0.985677,-0.109091,-0.117163
8119766941,-1.824343,1.438087,2.494697,0.984428,-0.101813,-0.109894
8119786994,-2.408572,0.844770,2.913788,0.980899,-0.104499,-0.112978
8119807044,-2.633553,0.362627,2.536580,0.976919,-0.110086,-0.115486
8119827097,-3.062498,-0.147134,1.606275,0.972583,-0.115516,-0.119726
8119847149,-2.733963,0.294456,0.270742,0.978241,-0.111907,-0.122363
8119867202,-2.446063,1.049534,-0.671751,0.986464,-0.113146,-0.140467
8119887254,-1.652106,2.364941,-1.169194,0.991053,-0.116547,-0.143940
8119907306,-1.035214,2.525608,-1.609543,0.990498,-0.120229,-0.140811
8119927359,-0.365685,2.710691,-1.845363,0.990227,-0.116987,-0.142850
8119947411,-0.701277,2.665160,-1.496457,0.990928,-0.110745,-0.125649
8119967463,-1.111580,2.270745,-1.017480,0.990762,-0.100639,-0.117770
8119987516,-0.518368,2.148353,-0.577686,0.986209,-0.098407,-0.119827
8120007568,0.516152,2.269229,-0.540570,0.983426,-0.105194,-0.123858
8120027620,1.062159,2.930188,-1.028092,0.985359,-0.104693,-0.127304
8120047673,1.234398,3.545655,-1.121221,0.990107,-0.097805,-0.116444
8120067725,0.659749,3.873576,-0.296043,0.989625,-0.087096,-0.117207
8120087778,-0.671823,4.774711,0.716898,0.987846,-0.094244,-0.121227
8120107830,-0.514983,5.113034,1.231047,0.988170,-0.100138,-0.126882
8120127882,0.275006,5.264649,1.578880,0.993692,-0.094348,-0.123093
8120147935,0.319185,5.396061,1.904307,0.991464,-0.113151,-0.122437
8120167987,-0.633452,6.172628,0.840910,0.984312,-0.114872,-0.114561
8120188039,-1.605701,5.951306,0.463065,0.990751,-0.097095,-0.117720
8120208092,-0.982849,5.936063,1.008585,0.993510,-0.107162,-0.116857
8120228144,-0.194762,5.398800,0.472054,0.989520,-0.111782,-0.102563
8120248196,0.622930,5.081260,-0.163770,0.984509,-0.114238,-0.101934
8120268250,1.263734,5.494429,-1.514473,0.981641,-0.119323,-0.107712
8120288302,2.161979,6.220053,-2.942132,0.986596,-0.117766,-0.113966
8120308355,2.440843,7.046041,-3.468024,0.988168,-0.104966,-0.108559
8120328407,1.229732,7.085212,-3.225208,0.989090,-0.096561,-0.099106
8120348460,-0.308151,6.828485,-2.617468,0.990001,-0.093179,-0.085052
8120368512,0.036785,6.194921,-2.319827,0.988236,-0.104240,-0.089481
8120388564,0.700684,6.052665,-2.690938,0.993632,-0.097284,-0.080344
8120408617,0.752578,6.011396,-2.069339,0.993862,-0.089190,-0.092614
8120428669,0.714234,6.251818,-2.426365,0.992421,-0.107547,-0.086323
8120448721,1.084881,5.806381,-3.614857,0.994188,-0.103080,-0.079091
8120468774,1.777349,5.826380,-3.569694,0.991864,-0.091068,-0.077429
8120488826,1.852728,5.978655,-3.577824,0.987752,-0.091685,-0.075452
8120508878,0.541717,6.199468,-3.320441,0.990013,-0.092447,-0.071882
8120528931,0.145304,6.220854,-3.130902,0.997261,-0.082129,-0.069405
8120548983,-1.058510,5.690901,-1.658337,0.992581,-0.077193,-0.066587
8120569034,-1.597287,5.188403,-1.330522,0.990463,-0.093658,-0.054870
8120589086,-1.833126,3.893121,-1.826187,0.991772,-0.099867,-0.057242
8120609139,-0.984295,3.304123,-2.203403,0.995503,-0.094791,-0.058638
8120629191,-0.663121,2.950140,-2.088611,0.996067,-0.078011,-0.054375
8120649243,-1.715118,2.984634,-1.550255,0.986436,-0.092725,-0.052546
8120669296,-1.963068,2.810134,-2.474200,0.986110,-0.094534,-0.058344
8120689348,-0.872240,2.219068,-2.230019,0.996578,-0.080579,-0.062521
8120709400,-0.408682,2.006461,-1.517026,0.997227,-0.084844,-0.062285
8120729453,0.052943,1.142549,-1.749159,1.001533,-0.082952,-0.051280
8120749505,-0.036155,0.544059,-1.459065,0.995863,-0.072185,-0.053535
8120769558,-0.700722,0.695441,-0.845458,0.989864,-0.074859,-0.055364
8120789610,-0.000009,0.728945,-1.073188,0.984752,-0.090461,-0.046404
8120809662,0.987901,-0.051674,-1.881792,0.990451,-0.087997,-0.040121
8120829714,1.265218,-0.500360,-2.289607,0.996188,-0.081781,-0.057511
8120849767,1.058673,-0.334214,-2.214318,0.994774,-0.080539,-0.065806
8120869819,1.660226,-0.450834,-2.070126,0.991367,-0.084976,-0.057872
8120889872,1.518510,-1.081284,-1.976956,0.999136,-0.078743,-0.048801
8120909924,0.346373,-1.471549,-1.255201,1.001152,-0.071907,-0.053955
8120929977,0.055696,-1.642431,-0.367772,0.999807,-0.072687,-0.057500
8120950029,0.199711,-1.812490,0.201186,0.991686,-0.070159,-0.057405
8120970081,0.151227,-1.505971,0.700358,0.992950,-0.079369,-0.066287
8120990134,0.459853,-0.760605,0.599155,0.995706,-0.083293,-0.067949
8121010186,0.785512,-0.409505,0.559936,0.995978,-0.084280,-0.067118
8121030238,0.586932,-0.251668,0.513988,0.995041,-0.081334,-0.064250
8121070345,0.993010,-0.922933,0.789001,0.998573,-0.080818,-0.060505
8121090397,0.864747,-1.249007,0.979644,0.995102,-0.080179,-0.059719
8121110449,0.978209,-0.976555,0.728559,0.990459,-0.081557,-0.060099
8121130502,-0.006412,-0.196448,0.256321,0.992817,-0.083599,-0.057060
8121150554,-0.530198,-0.293326,-0.114531,0.991122,-0.084865,-0.062783
