Timestamp (us),Gyroscope X (deg/s),Gyroscope Y (deg/s),Gyroscope Z (deg/s),Accelerometer X (g),Accelerometer Y (g),Accelerometer Z (g)
6221641918,0.032955,0.566237,0.362889,0.995087,-0.016524,0.097502
6221661971,0.055975,0.603432,0.218752,0.996203,-0.017475,0.094340
6221682024,0.292707,0.520607,0.082534,0.999107,-0.018700,0.097192
6221702076,0.163837,0.405987,0.098132,1.001854,-0.022694,0.097076
6221722129,0.042637,0.283778,0.106174,0.996932,-0.024059,0.097693
6221742182,0.126419,0.164206,0.318768,0.994371,-0.019986,0.096991
6221762235,0.180102,0.103584,0.281063,0.993450,-0.017800,0.097505
6221782288,-0.002037,0.048580,0.175211,0.990899,-0.019973,0.098421
6221802340,-0.069482,-0.066936,-0.013842,0.995000,-0.021585,0.099468
6221822393,-0.099263,-0.181245,-0.051332,0.994178,-0.020861,0.099363
6221842446,0.219984,-0.133080,0.031759,0.995001,-0.021588,0.099196
6221862505,0.303576,-0.124702,0.069595,0.996474,-0.023333,0.097681
6221882550,0.075428,-0.194181,0.122967,0.998008,-0.020406,0.098840
6221902603,-0.092608,-0.141369,0.244108,0.996473,-0.020987,0.096564
6221922656,0.211286,-0.047995,0.289153,0.995286,-0.018548,0.095709
6221942709,0.447823,-0.025357,0.023729,0.998025,-0.018731,0.095185
6221962761,0.287473,0.199804,-0.219517,0.998845,-0.021435,0.096586
6221982814,0.126482,0.276542,0.075854,0.994199,-0.022627,0.096566
6222002867,0.810839,0.365195,0.181414,0.995215,-0.023016,0.094579
6222022920,0.406835,-1.214425,0.512894,0.991562,-0.013538,0.090808
6222042973,-0.866612,-2.120621,0.190567,1.003587,-0.018181,0.094673
6222063025,-1.201988,-1.499250,-0.842195,1.002474,-0.023280,0.100450
6222083078,-1.443027,-0.798507,-0.230629,1.005692,-0.015037,0.091834
6222103131,-1.682968,-0.122936,0.002074,0.996874,-0.025312,0.092617
6222123184,-1.483209,-0.006174,-0.945768,0.997246,-0.027404,0.092372
6222143237,-0.637131,0.191449,-1.780430,0.999507,-0.027807,0.095664
6222163290,-0.137455,0.606247,-1.531929,0.998600,-0.026376,0.094187
6222183343,-0.032377,0.760543,-1.252076,0.991112,-0.025911,0.096128
6222203395,0.355503,0.958825,-1.510580,0.993095,-0.021162,0.097541
6222223448,0.700319,0.700514,-1.896337,0.994257,-0.014878,0.098386
6222243501,0.748008,0.553413,-2.396058,0.994605,-0.012222,0.099812
6222263554,0.849148,0.271263,-2.698280,0.992592,-0.012929,0.101532
6222283607,0.660866,-0.207323,-2.552564,0.988607,-0.014896,0.097982
6222303659,-0.054161,-0.423119,-2.324202,0.987890,-0.018805,0.097932
6222323712,-0.367553,-0.391965,-1.877041,0.997060,-0.013012,0.101383
6222343765,-0.725464,-0.611383,-1.391106,1.000049,-0.003485,0.100022
6222363819,-1.144601,-0.627912,-1.171113,1.001149,0.000291,0.097077
6222383872,-1.784357,-0.736164,-0.821883,0.998471,-0.004724,0.089846
6222403925,-2.424849,-0.782631,-0.306130,0.997350,-0.019316,0.086099
6222423978,-2.352928,-0.396958,0.579254,0.999564,-0.012569,0.093852
6222444031,-1.209486,0.434876,1.280830,0.998537,-0.017874,0.085091
6222464083,1.236429,1.618042,0.972739,0.998718,-0.038118,0.079873
6222484136,4.383694,2.863160,0.133661,0.999083,-0.052912,0.087318
6222504189,6.481271,3.492220,0.198969,1.010791,-0.048071,0.093707
6222524242,7.409174,3.447547,0.577746,1.006747,-0.033256,0.107503
6222544295,7.388217,2.992877,0.730899,1.002129,-0.017155,0.109556
6222564348,6.517231,2.511604,-0.040191,0.994046,0.003182,0.109808
6222584400,4.762438,2.289105,-0.993758,0.989740,0.012336,0.108854
6222604453,2.825518,2.259047,-2.539084,0.992916,0.016257,0.109376
6222624506,0.808753,2.297564,-2.765879,0.990703,0.000307,0.106183
6222644559,-0.026493,2.137149,-3.257666,0.991233,-0.015439,0.116911
6222664612,-0.273410,1.427692,-3.543136,0.995229,-0.009620,0.116599
6222684664,-0.460832,1.007008,-3.844779,0.995485,0.000707,0.114391
6222704716,-0.777435,0.397468,-3.865304,0.985181,0.001682,0.114307
6222724769,0.053268,-0.139561,-3.211955,0.980085,-0.004125,0.115611
6222744822,0.990115,-0.412403,-2.908184,0.989058,-0.006995,0.110436
6222764874,1.531987,-0.674855,-2.952943,0.994888,-0.008865,0.112226
6222784927,2.530984,-1.062847,-2.914061,0.997007,-0.008283,0.108144
6222804980,3.261630,-1.230370,-2.549950,0.996280,-0.002337,0.104708
6222825033,4.089064,-1.084516,-1.952004,0.993177,0.000101,0.104112
6222845086,4.727027,-0.979396,-1.596379,0.997646,-0.003231,0.105455
6222865147,5.232037,-0.334029,-0.909094,0.997971,-0.009851,0.099899
6222885191,6.201127,0.142458,0.203031,1.001065,-0.010282,0.101107
6222905244,6.689907,0.775180,1.307208,0.996778,-0.015969,0.104324
6222925297,7.186388,1.272746,2.639215,0.994034,-0.022358,0.109104
6222945350,7.582422,1.675820,4.737059,0.985889,-0.012828,0.109663
6222965403,8.042006,1.885339,6.176178,1.004690,-0.010222,0.104768
6222985455,9.326156,2.101637,6.637300,0.998068,-0.011939,0.100015
6223005508,10.466894,-0.647802,6.464479,0.987712,0.010994,0.097858
6223025561,10.758776,-2.804263,3.705488,0.987432,0.035005,0.086854
6223045614,9.223263,-3.411726,4.071909,1.004768,0.025045,0.073823
6223065666,7.197432,-3.354721,4.375580,0.994147,0.016653,0.085932
6223085719,6.294587,-2.876776,5.253409,1.009473,0.001594,0.091577
6223105772,4.928481,-1.789494,4.530139,1.003171,-0.004346,0.096509
6223125825,1.244079,-0.860310,2.815383,0.980424,0.030491,0.102761
6223145878,-1.459807,0.131164,1.532070,0.982582,0.058353,0.093911
6223165930,-4.184895,0.916036,0.014528,0.988778,0.065501,0.090873
6223185983,-9.370177,1.726296,-0.948976,1.008944,0.070593,0.100772
6223206038,-14.652061,2.087733,-1.956373,1.010685,0.096597,0.101847
6223226090,-20.840189,2.331872,-2.568944,1.004362,0.105862,0.102695
6223246143,-27.273315,2.735372,-2.939450,0.997639,0.100290,0.101621
6223266196,-33.813847,3.170219,-3.044764,1.005992,0.085915,0.098938
6223286249,-39.736931,3.471924,-3.233203,1.007961,0.065671,0.099823
6223306301,-44.775490,3.873053,-4.218086,1.003112,0.050778,0.094689
6223326354,-50.012676,4.117163,-4.618778,1.001029,0.048573,0.093337
6223346407,-54.086205,4.243667,-4.413156,1.002018,0.053210,0.093381
6223366460,-58.589993,4.081087,-5.055229,1.000512,0.072809,0.091780
6223386513,-63.626652,3.922664,-5.689553,0.992754,0.080933,0.089268
6223406566,-68.721642,3.375151,-6.565042,0.984376,0.077464,0.089431
6223426618,-73.595306,2.970104,-7.948888,0.990815,0.070664,0.083011
6223446671,-78.584816,2.943349,-9.417367,0.995664,0.072887,0.078839
6223466724,-83.855804,2.666925,-10.460465,0.994600,0.074797,0.072811
6223486777,-89.022293,2.598656,-11.110211,0.992627,0.072910,0.068184
6223506832,-95.315979,2.629686,-11.699272,0.992408,0.095643,0.063193
6223526883,-103.676399,3.751780,-12.890108,1.003468,0.112737,0.049623
6223546934,-110.450050,3.701797,-10.197034,0.970035,0.080580,0.061573
6223566987,-119.653458,0.138145,-5.990369,1.004119,0.008121,0.053020
6223587039,-121.714142,-1.915937,-11.727419,0.990560,0.006498,0.049580
6223607092,-120.516571,-3.024163,-10.541702,0.978603,-0.042339,0.060875
6223627145,-119.361801,-3.307262,-12.079659,1.001117,0.030472,0.040743
6223647198,-117.459908,-3.198774,-8.905116,0.988515,0.019952,0.018509
6223667251,-115.334496,-2.870643,-7.239620,1.008223,0.002377,-0.006505
6223687303,-114.213173,-1.118266,-8.602684,1.020211,0.016097,-0.021120
6223707356,-113.857315,0.902025,-8.829561,1.054931,0.025407,-0.023436
6223727409,-112.837311,3.176933,-10.292917,1.078040,0.027466,-0.016388
6223747462,-110.094040,5.103225,-12.240727,1.080358,-0.014611,-0.017521
6223767515,-104.669708,5.996804,-15.792658,1.055040,-0.048110,-0.005316
6223787568,-98.013054,6.004311,-20.274179,1.022705,-0.085288,0.023968
6223807621,-91.087608,4.980403,-23.668447,0.974244,-0.105927,0.043222
6223827673,-85.622070,3.729306,-24.272367,0.959377,-0.103016,0.058533
6223847726,-82.545090,2.882443,-23.315578,0.949742,-0.070732,0.068543
6223867779,-81.891586,2.102002,-21.357746,0.939497,-0.034506,0.087500
6223887832,-82.539719,1.215612,-19.202044,0.954635,-0.000525,0.085215
6223907884,-81.786179,0.448172,-17.691450,0.976051,0.009567,0.050441
6223927937,-78.977417,-0.227095,-19.327160,0.983191,0.031114,0.050333
6223947990,-78.325508,-1.858246,-21.027035,1.022101,0.017759,0.044402
6223968043,-75.590096,-3.238182,-22.372292,1.035981,-0.017708,0.027097
6223988096,-72.875656,-3.891815,-22.893938,1.050305,-0.064744,0.033196
6224008149,-69.143799,-4.457595,-22.582560,1.041055,-0.094653,0.039839
6224028201,-66.655060,-4.545640,-22.272388,1.035409,-0.084357,0.049132
6224048256,-64.251945,-4.003607,-19.486040,1.030945,-0.049384,0.062146
6224068308,-63.261787,-3.324115,-15.115669,1.015775,0.016066,0.066825
6224088361,-64.270531,-3.009880,-11.213237,0.981950,0.054379,0.063688
6224108414,-65.385368,-2.824963,-7.242109,0.963631,0.043412,0.068411
6224128467,-66.226151,-2.225909,-4.091033,0.956064,0.041629,0.084737
6224148520,-67.040466,-2.662931,-0.337658,0.972431,0.025980,0.099848
6224168572,-66.753624,-3.019047,4.263896,0.993467,0.015347,0.109209
6224188625,-65.172173,-3.578256,9.024855,0.999082,0.035839,0.105376
6224208678,-63.058178,-4.714312,12.059612,0.996019,0.033500,0.069210
6224228731,-61.125088,-5.297044,10.355678,0.996296,0.043324,0.063554
6224248784,-63.103886,-4.819181,6.345455,1.005626,0.081560,0.054725
6224268837,-70.854370,-1.824664,4.094480,1.001080,0.099475,0.043761
6224288889,-80.071518,0.052044,3.068081,1.023205,0.080284,0.058137
6224308942,-89.151093,0.634855,1.379144,1.036930,0.070437,0.085522
6224328995,-95.747459,0.667027,0.085341,1.036493,0.065739,0.100206
6224349048,-99.098335,1.099322,-0.119607,1.016310,0.063887,0.107264
6224369101,-100.002083,0.570991,0.102320,0.962348,0.060411,0.107558
6224389152,-100.663643,-0.330921,-1.372237,0.978427,0.091720,0.070592
6224409205,-106.198578,0.936925,-0.450035,0.979015,0.122038,0.017442
6224429258,-115.094780,2.388788,1.829343,0.944417,0.082804,-0.001708
6224449311,-121.864197,2.122412,0.324419,0.923370,0.027116,0.008421
6224469364,-125.671051,2.163924,-2.372500,0.939692,0.008019,0.017483
6224489416,-127.684769,2.330072,-4.024580,0.978574,0.013535,0.022421
6224509469,-129.993713,2.778788,-3.911634,1.008056,0.036198,0.020641
6224529522,-133.676086,3.751619,-3.534749,1.015264,0.070030,0.002759
6224549575,-139.838120,4.344039,-3.125369,1.023247,0.075296,-0.024329
6224569627,-146.139175,3.691976,-2.484283,1.018242,0.058355,-0.032893
6224589680,-148.100311,4.137211,1.508980,0.991269,0.040288,-0.072501
6224609733,-156.210815,7.775915,1.847913,1.029291,0.002838,-0.085976
6224629786,-160.284882,9.752433,-4.304006,1.131190,-0.012079,-0.090079
6224649839,-158.755829,11.616923,-7.562338,1.133702,-0.062885,-0.104469
6224669891,-152.475586,11.862885,-11.165390,1.092125,-0.115596,-0.092703
6224689945,-143.991516,11.022368,-17.175577,1.021980,-0.140014,-0.073922
6224709997,-134.328552,8.965778,-23.424517,0.971271,-0.181251,-0.065262
6224730050,-125.870918,7.376463,-26.574848,0.958704,-0.217809,-0.033754
6224750103,-118.985130,6.659717,-26.984051,0.974955,-0.182440,-0.008873
6224770156,-114.303070,6.193218,-26.362610,0.956367,-0.150670,0.004714
6224790208,-111.092667,5.179921,-26.648243,0.956519,-0.102432,0.016972
6224810261,-109.203712,4.799236,-26.374750,0.976694,-0.052757,0.018630
6224830314,-108.472168,4.974490,-27.027399,0.995922,-0.032760,0.009901
6224850367,-107.453346,4.612904,-28.830305,1.005221,-0.019838,0.003456
6224870419,-107.720772,2.814157,-30.870329,1.006744,-0.032891,-0.001018
6224890474,-107.050011,1.537821,-31.707426,1.014837,-0.058251,-0.015844
6224910527,-103.807701,0.944725,-30.410519,1.040860,-0.077872,-0.013161
6224930579,-101.268188,-0.452821,-29.542591,1.041296,-0.081973,-0.007748
6224950632,-99.502670,-1.763753,-29.781219,1.036674,-0.080204,0.002378
6224970685,-97.597992,-3.060460,-27.920574,1.043455,-0.062552,0.003130
6224990738,-95.898544,-2.570839,-26.687489,1.020314,-0.044014,0.006932
6225010791,-94.347527,-3.066353,-25.018951,1.013944,-0.047356,0.022104
6225030843,-92.143867,-3.852755,-22.008165,1.012290,-0.037223,0.019339
6225050896,-89.949783,-4.499447,-18.505224,0.985330,0.000678,0.011711
6225070949,-87.312248,-3.472185,-16.061687,0.985943,0.008137,0.012265
6225091002,-87.395775,-2.498643,-12.101217,1.000441,-0.019986,0.025781
6225111055,-87.442947,-1.715707,-7.109365,1.004493,-0.033206,0.041050
6225131107,-86.114410,-1.244936,-3.678185,1.005161,-0.008209,0.054579
6225151161,-85.936348,-0.441506,-0.475117,0.997941,-0.001959,0.054365
6225171213,-84.769638,0.940442,1.952558,0.978034,-0.017025,0.052126
6225191266,-83.904869,0.248398,4.463274,0.984317,-0.005228,0.062940
6225211319,-84.450958,-1.488309,4.113239,1.013663,0.040586,0.072797
6225231370,-85.947884,-2.201484,-1.454313,1.033230,0.111928,0.058387
6225251423,-91.033157,0.309162,-6.137401,0.987694,0.126073,0.012276
6225271476,-98.720329,1.288394,-5.410503,0.985760,0.034429,0.014686
6225291529,-105.649742,0.301460,-5.450150,1.034651,-0.033460,0.044084
6225311582,-109.431145,0.475323,-6.457427,1.039620,-0.013092,0.057243
6225331634,-110.072083,1.749780,-8.341175,1.022188,0.022771,0.058159
6225351687,-112.564377,2.026488,-7.628833,0.989481,0.066752,0.063689
6225371740,-119.750923,1.772288,-6.784177,0.984549,0.091790,0.068181
6225391793,-127.134850,-0.411421,-8.320174,0.998465,0.108641,0.049817
6225411846,-136.994476,6.214962,-5.527762,0.937720,0.112570,-0.009462
6225431898,-149.598816,5.565175,-7.605323,0.994493,0.073828,-0.001703
6225451951,-153.450119,7.327911,-8.193628,0.952084,0.098174,0.004621
6225472004,-155.192581,8.957030,-5.689997,1.032616,0.035042,-0.000530
6225492057,-153.917938,10.872666,-7.803995,1.063081,-0.001145,-0.000713
6225512110,-152.290344,11.107870,-10.700537,1.074152,-0.048801,0.000644
6225532163,-147.458557,10.251372,-14.268967,1.052366,-0.067116,-0.006115
6225552216,-141.276520,8.623976,-17.486580,1.004481,-0.092375,-0.005162
6225572268,-135.114044,6.276023,-20.580441,0.977563,-0.150243,0.012312
6225592321,-128.488098,4.131709,-20.772427,0.976461,-0.164027,0.020644
6225612374,-122.206482,2.214525,-20.707388,0.975296,-0.138419,0.019884
6225632427,-116.830521,0.786024,-21.659296,0.985797,-0.112507,0.019568
6225652479,-112.686035,0.001583,-21.536779,0.990303,-0.097756,0.021156
6225672532,-109.559814,-0.400127,-19.869120,0.998394,-0.091277,0.021866
6225692585,-107.647141,-0.486790,-17.550329,1.011075,-0.071297,0.025723
6225712638,-107.049965,-0.592718,-15.716066,1.017698,-0.051859,0.037088
6225732692,-106.260902,-0.131394,-15.611827,1.022568,-0.039180,0.039884
6225752745,-106.076080,-0.375375,-15.967260,1.009594,-0.032193,0.041256
6225772798,-106.119804,-0.470413,-16.542919,1.004712,-0.050616,0.043434
6225792851,-105.562119,-0.269247,-17.718546,1.018484,-0.067291,0.050723
6225812903,-104.338173,0.454905,-18.517260,1.021138,-0.068843,0.049760
6225832956,-102.717636,0.737303,-18.753750,1.001779,-0.057080,0.049395
6225853009,-100.750137,-0.098747,-18.539345,0.983566,-0.040709,0.053348
6225873062,-99.471672,-1.480610,-18.686611,0.980596,-0.031567,0.057766
6225893115,-98.206726,-1.835728,-18.526672,0.989713,-0.040389,0.062113
6225913168,-95.985580,-1.720165,-18.156479,0.993597,-0.063340,0.064042
6225933220,-93.591476,-1.815791,-16.550249,1.005749,-0.060543,0.073548
6225953273,-91.478302,-2.522402,-14.032341,1.006987,-0.046734,0.073306
6225973326,-89.154312,-2.689547,-11.660365,0.999047,-0.034823,0.068749
6225993379,-87.316788,-3.210052,-11.833530,0.966868,-0.020193,0.061081
6226013431,-85.678093,-4.033172,-14.029165,0.971329,0.003958,0.065650
6226033485,-86.053215,-4.675327,-11.950187,0.996934,0.014058,0.062716
6226053557,-86.142433,-4.257553,-10.625278,0.993777,0.008788,0.044032
6226073589,-84.607849,-3.460355,-10.999930,0.992515,-0.032427,0.046590
6226093642,-84.419556,-3.701714,-9.748636,1.003242,-0.028591,0.065526
6226113694,-84.391808,-4.692319,-6.766703,0.996012,0.018952,0.062016
6226133747,-85.178459,-5.418412,-4.331080,0.988603,0.028159,0.046134
6226153800,-87.318443,-5.992154,-2.812562,0.999544,0.011077,0.069949
6226173853,-91.134293,-6.104788,-4.667683,0.985707,0.021272,0.092544
6226193906,-93.701584,-5.542456,-7.920094,1.005360,0.016858,0.085828
6226213958,-93.983192,-4.411959,-10.129368,1.021589,-0.014494,0.070037
6226234011,-95.632973,-4.375032,-10.985340,1.020812,-0.010631,0.060717
6226254064,-97.783234,-3.974912,-10.319017,1.009760,-0.000319,0.059247
6226274117,-98.973427,-3.263510,-10.639367,0.992687,0.001779,0.062464
6226294169,-99.481438,-3.129129,-11.670392,0.991979,-0.005492,0.062362
6226314222,-99.337303,-3.134528,-11.473371,1.000630,-0.012486,0.067593
6226334275,-100.464981,-3.581534,-10.167854,1.001684,-0.008239,0.072187
6226354328,-101.620453,-4.477633,-9.019939,0.997720,-0.005113,0.062580
6226374381,-102.766396,-5.273396,-8.819744,0.989683,-0.011269,0.052597
6226394433,-103.190163,-5.574688,-9.205084,0.997497,-0.020339,0.046122
6226414486,-102.627014,-5.600749,-9.106665,1.011779,-0.020003,0.035586
6226434539,-101.621857,-5.497701,-9.456005,1.011563,-0.029975,0.030792
6226454592,-99.803543,-5.251198,-9.571174,1.016343,-0.034751,0.026428
6226474645,-97.341202,-4.670828,-9.179930,1.021863,-0.046317,0.023693
6226494697,-93.420761,-3.502767,-8.601748,1.014226,-0.057120,0.025491
6226514750,-89.349655,-1.894995,-8.275240,1.005628,-0.067626,0.035549
6226534803,-85.558487,-0.465630,-8.258755,1.005738,-0.056352,0.042417
6226554856,-82.337936,0.516909,-7.482637,1.000990,-0.035286,0.048683
6226574910,-79.913246,0.916085,-6.893703,1.003865,-0.026519,0.051419
6226594963,-77.781471,1.123746,-7.471165,0.996392,-0.021939,0.048769
6226615016,-76.803581,0.611411,-7.863848,0.992543,-0.015223,0.048845
6226635069,-74.808540,0.397569,-7.727388,1.003997,-0.039246,0.050841
6226655122,-71.719345,0.623021,-7.683773,1.008526,-0.057158,0.049262
6226675174,-68.317642,0.437017,-7.002217,1.010672,-0.052271,0.053947
6226695227,-66.346054,-0.180433,-5.841199,1.014164,-0.036233,0.056694
6226715280,-65.509918,-0.524610,-4.711041,1.009415,-0.026568,0.053459
6226735333,-64.739159,-1.206848,-4.148118,0.995780,-0.033101,0.049802
6226755386,-63.176075,-1.773158,-4.078503,0.996903,-0.044264,0.050485
6226775439,-61.362991,-1.907470,-4.381833,0.999147,-0.055723,0.062176
6226795491,-58.678631,-1.681203,-3.792394,1.005126,-0.061574,0.071465
6226815544,-55.645267,-1.307405,-3.044428,0.995550,-0.059510,0.071101
6226835597,-53.765217,-0.845103,-3.910680,0.982244,-0.039029,0.075859
6226855650,-52.128685,-0.556979,-4.457931,0.979406,-0.054963,0.054756
6226875703,-49.332134,-0.775090,-2.229945,0.982821,-0.106969,0.058018
6226895771,-47.434296,-0.866693,2.915818,0.983442,-0.114556,0.080286
6226915807,-46.538544,0.997041,6.175614,1.006878,-0.089403,0.082070
6226935860,-46.570938,1.893977,5.187270,1.005027,-0.026691,0.071061
6226955913,-44.375626,1.015741,5.697317,1.016823,-0.036547,0.085346
6226975965,-39.579117,-0.204176,4.714577,1.014221,-0.085588,0.087258
6226996018,-34.121326,-2.935922,4.077868,1.028901,-0.114560,0.085789
6227016071,-27.007322,-3.748329,3.911439,1.020287,-0.132645,0.086755
6227036124,-19.817446,-3.652236,2.074483,0.984981,-0.136630,0.093094
6227056176,-11.672706,-4.038166,-0.140095,0.965984,-0.147234,0.104261
6227076229,-6.021371,-4.527162,-0.473863,0.946275,-0.138303,0.102837
6227096282,-5.153298,-3.356372,0.090221,0.953314,-0.074512,0.083244
6227116335,-7.641502,-1.117694,1.318748,0.966738,-0.015369,0.080928
6227136388,-9.448683,0.295687,-0.201281,0.995108,-0.006469,0.089024
6227156440,-11.302496,0.020217,-1.025789,1.025845,0.007816,0.079352
6227176493,-11.845888,-0.572116,-1.690506,1.038304,-0.010926,0.062844
6227196546,-10.184919,-1.731183,-3.013411,1.040766,-0.050295,0.066861
6227216599,-7.230198,-2.656258,-4.686208,1.024766,-0.082374,0.075208
6227236652,-2.827588,-3.047422,-5.065349,1.013713,-0.090505,0.067408
6227256705,1.763111,-3.319494,-4.815913,0.995101,-0.064127,0.072332
6227276758,4.898170,-3.979115,-3.124630,0.997687,-0.057488,0.078818
6227296810,6.508022,-3.771785,-2.019381,1.003561,-0.067816,0.092793
6227316863,6.729936,-2.779729,-1.439297,0.998602,-0.077481,0.103867
6227336916,6.292772,-2.437072,-0.826430,0.968176,-0.069807,0.111560
6227356969,7.395498,-1.404037,0.518679,0.966944,-0.049219,0.109223
6227377022,8.418704,-0.411791,0.302691,1.001948,-0.051751,0.111045
6227397075,9.514721,1.368916,-0.158566,0.975983,-0.059063,0.111946
6227417129,11.421240,4.248018,1.755900,0.931145,-0.050408,0.120525
6227437182,12.954228,6.934979,1.291367,0.979375,-0.033262,0.111308
6227457234,15.561252,10.219463,-0.630761,1.073045,-0.027325,0.054282
6227477287,16.955410,16.831701,-2.094035,1.044602,0.020245,0.030445
6227497340,14.797886,24.924063,1.259050,1.031709,0.043896,0.040805
6227517393,13.527007,28.476873,0.155883,1.049043,0.014263,0.069081
6227537446,16.529589,27.310707,-4.865999,1.046338,-0.039032,0.059409
6227577551,12.734888,18.657845,-4.274011,1.001536,-0.003656,0.017511
6227597611,9.692825,15.605856,-2.352532,1.044613,0.058973,-0.006266
6227617657,5.728282,14.969737,-1.606214,1.060397,0.060512,-0.009080
6227637710,3.542869,13.844104,-2.071465,1.038555,0.066959,-0.018761
6227657763,0.596826,14.433084,-3.125938,1.047971,0.051089,-0.030871
6227677815,-2.767840,18.959597,-2.958463,1.069633,0.045359,-0.021926
6227697868,-5.743598,24.720362,-2.499797,1.087507,0.068917,-0.003623
6227717921,-9.421231,30.165482,-0.812007,1.068479,0.082838,0.000716
6227737972,-12.193246,33.405014,-0.685778,1.051360,0.067955,0.004584
6227758025,-15.363314,35.908920,-1.223823,1.029799,0.061704,0.015592
6227778078,-20.225088,37.143013,-1.529532,1.018246,0.058771,0.028358
6227798131,-24.243551,39.128891,-2.671811,1.013338,0.048028,0.046716
6227818184,-24.096289,40.724327,-3.836941,1.012802,0.008125,0.064715
6227838237,-21.679974,41.425282,-3.537044,0.997127,-0.028097,0.082018
6227858289,-19.413063,41.300961,-2.734040,0.992886,-0.030209,0.106642
6227878342,-18.830772,39.983112,-1.645912,0.990256,-0.008609,0.124550
6227898395,-19.321976,37.260433,-0.704146,0.972813,-0.009167,0.145518
6227918463,-19.313860,33.727486,0.043184,0.953558,-0.016702,0.168099
6227938500,-19.207077,29.022413,0.218518,0.940481,-0.022946,0.178258
6227958553,-19.288378,24.535694,-0.895258,0.927544,-0.028279,0.194951
6227978606,-18.574354,20.521149,-1.397044,0.914198,-0.044100,0.208944
6227998659,-16.551891,16.614521,-1.793554,0.902822,-0.063118,0.215082
6228018711,-13.077692,12.812471,-1.561880,0.901587,-0.081584,0.232828
6228038764,-9.409744,9.104327,0.109405,0.895685,-0.075881,0.225904
6228058817,-6.562093,5.349020,1.174824,0.899286,-0.074049,0.232815
6228078870,-2.610664,2.313135,0.820111,0.917969,-0.086264,0.239815
6228098923,3.018572,-0.318651,1.403210,0.938284,-0.106883,0.237107
6228118976,9.808077,-2.272393,2.362513,0.963926,-0.116228,0.253211
6228139028,17.359972,-4.501606,3.390710,0.960425,-0.113841,0.242707
6228159081,21.026506,-8.281300,5.751926,0.937357,-0.050256,0.258076
6228179134,19.676910,-13.799578,8.484680,0.900805,0.034302,0.261655
6228199187,16.797108,-19.705757,9.089621,0.896226,0.063921,0.281547
6228219240,14.584505,-30.324976,8.035618,0.869778,0.078526,0.213754
6228239294,7.562432,-39.467407,6.584105,0.876762,0.106827,0.190210
6228259347,0.859249,-39.532795,5.578675,0.904979,0.089633,0.190699
6228279400,-7.005692,-35.361313,7.075268,1.022201,0.074142,0.201344
6228299452,-11.003955,-28.738623,6.834057,1.157483,0.017782,0.152878
6228319505,-11.340198,-20.256676,2.704731,1.257446,-0.083215,0.242095
6228339558,-6.182562,-12.409147,-5.372968,1.186856,-0.134774,0.288270
6228359611,0.977985,-6.212314,-7.655359,1.053828,-0.079022,0.325580
6228379664,7.244927,-5.919000,-6.173088,0.912097,-0.025350,0.371396
6228399716,9.407688,-12.296055,-6.007871,0.816297,0.037467,0.337544
6228419776,9.285382,-20.693665,-7.259735,0.790855,0.049050,0.255161
6228439822,7.600839,-27.286095,-8.358114,0.801761,0.024731,0.210895
6228459875,5.743143,-30.386469,-8.104254,0.845165,-0.005419,0.224367
6228479928,4.430154,-30.775772,-5.889397,0.908963,0.003733,0.238346
6228499981,3.103438,-28.544443,-3.425881,0.969588,-0.014849,0.231992
6228520033,3.283873,-25.043499,-3.430429,1.019702,-0.047683,0.221822
6228540086,5.241224,-22.454136,-2.962563,1.026120,-0.055643,0.204146
6228560138,7.301049,-21.132563,-1.398993,1.019919,-0.032649,0.192839
6228580190,7.119525,-20.135601,-0.826365,1.013535,-0.007307,0.180594
6228600243,4.666158,-19.133360,-1.867276,1.014831,-0.007840,0.162069
6228620296,2.722491,-17.216120,-1.607939,1.011114,-0.020658,0.149377
6228640349,1.215086,-15.811826,-1.278776,1.027799,-0.030729,0.154156
6228660402,1.466623,-13.486629,-0.006032,1.041062,-0.048218,0.155361
6228680455,2.804759,-10.654821,1.022058,1.040076,-0.048982,0.152909
6228700507,2.223555,-7.930119,2.702981,1.022753,-0.025341,0.156875
6228740613,-1.554184,-5.654653,5.076255,0.989596,0.036347,0.168104
6228760666,-3.938711,-6.246192,4.040811,0.966634,0.046371,0.161009
6228780719,-6.784124,-6.856603,1.702013,0.948476,0.052235,0.160903
6228800771,-11.200842,-7.431732,0.561119,0.951097,0.054821,0.163437
6228820824,-14.958143,-8.010715,0.526535,0.958563,0.034343,0.159819
6228840877,-17.037821,-8.012679,1.163902,0.975680,-0.003536,0.151290
6228860930,-17.161915,-7.647892,1.352162,0.984434,-0.043747,0.139912
6228880983,-16.587606,-7.078997,1.880528,0.979290,-0.056603,0.137479
6228901036,-15.566792,-6.305909,3.021930,0.991298,-0.060755,0.143974
6228921088,-15.584642,-4.575136,6.608397,0.980798,-0.063086,0.147744
6228941141,-16.495232,-4.554367,8.427594,0.999892,-0.062832,0.156329
6228961194,-14.328455,-5.276070,4.920266,1.047552,-0.073416,0.164969
6228981247,-11.406495,-4.264835,3.346914,1.054983,-0.054618,0.163168
6229001299,-10.665238,-1.395279,2.563712,1.029685,-0.054242,0.155168
6229021352,-12.097363,1.177508,3.911982,1.002156,-0.045649,0.150329
6229041405,-12.339249,2.333843,6.932086,1.005417,-0.047485,0.154918
6229061459,-9.760386,2.954275,6.337887,0.995342,-0.081627,0.164239
6229081512,-6.534769,3.856986,5.295330,0.974623,-0.090543,0.173011
6229101565,-6.196655,4.642378,5.489557,0.954584,-0.071375,0.175919
6229121618,-7.754599,5.199740,6.397657,0.967032,-0.051180,0.188498
6229141671,-8.473040,6.368188,8.227990,0.987899,-0.038183,0.230302
6229161724,-6.707350,8.817155,9.499778,1.045481,-0.036970,0.204521
6229181776,-1.961846,13.792490,7.434653,1.119484,-0.057902,0.203380
6229201829,0.969684,21.637589,3.662588,1.132663,-0.129679,0.246020
6229221882,2.945613,29.351574,1.748155,1.075530,-0.172864,0.278379
6229241935,2.493659,33.918365,2.869420,1.009863,-0.136748,0.342932
6229261988,0.113998,33.644608,5.250990,0.953408,-0.055798,0.415302
6229282041,-2.351309,29.299671,7.404091,0.900094,-0.005459,0.449423
6229302093,-5.162301,23.535679,7.614411,0.851816,-0.030740,0.455281
6229322146,-6.253352,16.947660,6.599176,0.809677,-0.089591,0.457026
6229342199,-4.736887,10.148646,4.340808,0.782669,-0.143171,0.456637
6229362252,-1.213730,3.407051,3.081961,0.778321,-0.176264,0.468532
6229382313,3.529456,-2.420866,2.183328,0.770136,-0.192661,0.473208
6229402356,7.209502,-7.080864,0.993043,0.774993,-0.166276,0.455850
6229422409,9.108853,-10.325143,-0.178760,0.813257,-0.127109,0.424949
6229442462,10.566411,-13.496536,-1.373397,0.882244,-0.114989,0.423208
6229462515,12.282681,-15.275107,-2.277344,0.919948,-0.103808,0.424164
6229482568,13.015872,-15.328840,-3.126259,0.953460,-0.102461,0.398756
6229502620,13.389010,-13.965875,-2.873401,0.997397,-0.088771,0.377097
6229522673,11.550453,-12.119394,-1.909014,1.033904,-0.071430,0.376974
6229542726,8.182978,-9.902949,-2.082209,1.033460,-0.035023,0.388000
6229562779,5.445560,-8.206736,-3.534676,1.003083,-0.026061,0.371231
6229582832,2.876856,-6.519991,-5.457065,0.983772,-0.037137,0.342867
6229602884,-1.351565,-5.518107,-5.921353,0.967500,-0.033135,0.332889
6229622937,-4.592172,-5.964032,-5.858050,0.952154,-0.036394,0.355267
6229642990,-2.681006,-7.134051,-6.771742,0.925867,-0.081290,0.351965
6229663043,1.336681,-7.805690,-7.884941,0.909658,-0.108244,0.331076
6229683095,2.719794,-8.837224,-7.965239,0.908868,-0.086588,0.346271
6229703148,-0.270204,-9.685062,-6.892638,0.912108,-0.047468,0.349385
6229723201,-1.867150,-10.434090,-6.040655,0.935413,-0.031680,0.331554
6229743254,-1.466254,-9.952864,-5.989401,0.967690,-0.056056,0.311889
6229763307,-1.622936,-8.237131,-4.631045,0.981273,-0.076361,0.306676
6229783360,-0.841064,-5.902410,-2.403572,0.986040,-0.077499,0.302634
6229803412,0.147563,-2.991930,-1.777315,1.010621,-0.049615,0.279037
6229823465,1.955783,-0.643590,-2.051303,1.031704,-0.042991,0.256025
6229843518,6.019348,0.532944,-3.875730,1.040737,-0.102660,0.269049
6229863571,10.975076,0.863998,-4.666817,1.035412,-0.134287,0.275648
6229883624,15.034613,0.389440,-4.674183,1.034558,-0.105751,0.282674
6229903678,18.225502,-0.141053,-4.226313,1.022456,-0.083098,0.267421
6229923731,21.415421,-0.016757,-4.675017,0.980132,-0.081770,0.239567
6229943784,23.905737,0.832337,-3.837550,0.959589,-0.067073,0.222074
6229963836,24.957348,1.874741,-3.356457,0.968242,-0.041867,0.210665
6229983889,25.532207,2.622280,-3.389551,0.976020,-0.036056,0.202837
6230003942,25.589758,3.320744,-3.445030,0.994130,-0.032149,0.206465
6230023995,23.219116,3.576050,-2.641711,1.014138,-0.023820,0.194877
6230044048,20.562229,3.518286,0.565318,1.008979,-0.029965,0.191640
6230064101,17.929192,3.803160,2.710103,0.985453,0.002204,0.176468
6230084154,15.347065,4.173069,2.649101,0.983056,0.026310,0.153360
6230104206,15.880472,4.460083,1.867293,0.971045,0.001602,0.161922
6230124259,15.239850,4.931377,1.426313,0.945921,-0.029720,0.186645
6230144312,14.454646,6.717568,1.374960,0.957933,-0.022786,0.186832
6230164365,12.054443,9.621315,-0.354629,0.977445,-0.020983,0.170045
6230184418,6.906725,12.000017,1.753506,0.940701,-0.029082,0.174786
6230204470,0.679163,11.935875,5.242228,0.926800,0.022676,0.187630
6230224523,-1.902062,10.972651,4.458239,0.977725,0.037296,0.217541
6230244575,0.687125,10.506645,4.921255,1.022252,-0.041485,0.203682
6230264627,2.568713,13.094650,5.252731,0.948518,-0.094804,0.164878
6230284680,-2.976714,14.481925,7.061263,0.898688,0.028531,0.143648
6230304733,-6.633618,13.075160,8.075393,0.999590,0.056437,0.148221
6230324786,-3.942253,12.170577,11.101572,1.040310,-0.052948,0.161500
6230344839,0.219577,11.309985,7.578865,1.036654,-0.138407,0.190182
6230364892,-1.269849,10.840711,4.549420,1.021163,-0.085474,0.209182
6230384944,-3.956806,10.538275,5.119824,0.977198,-0.007489,0.205332
6230404997,-2.767997,9.215633,1.235961,0.954975,-0.011817,0.172779
6230425050,5.018051,9.351023,-4.595450,0.980963,-0.113423,0.160325
6230445103,9.799915,10.716471,-4.904988,0.994048,-0.148604,0.169731
6230465156,9.716974,11.542500,-3.854330,0.990630,-0.100083,0.215224
6230485208,7.169047,10.677188,-0.007925,0.989736,-0.019497,0.234279
6230505261,4.298967,10.100750,4.231704,0.965709,0.023914,0.236697
6230525314,2.861440,10.261202,3.481337,0.951885,0.009421,0.222770
6230545367,2.747350,10.031693,0.928060,0.936003,-0.042250,0.220711
6230565420,2.726408,8.148558,0.889082,0.937288,-0.072490,0.234339
6230585473,2.575165,6.442837,3.820490,0.952506,-0.037900,0.249315
6230605525,3.330153,5.941829,4.246374,0.938234,-0.046007,0.230858
6230625578,5.122633,5.929420,2.836103,0.933239,-0.079806,0.244392
6230645631,2.931350,5.159124,6.932161,0.916491,-0.030891,0.262157
6230665684,1.038098,4.684289,7.032988,0.925852,0.017297,0.212043
6230685737,3.281342,4.168624,0.023443,0.981883,-0.021765,0.190989
6230705789,3.159205,5.375714,3.740594,1.036651,-0.064124,0.200320
6230725844,0.267570,5.339535,9.395634,1.016330,0.015497,0.205616
6230745897,0.683535,4.171750,6.784772,0.978731,0.028963,0.174475
6230765949,7.698130,3.521547,-2.416298,1.020631,-0.082971,0.174431
6230786002,8.364653,5.254862,-1.528187,1.021177,-0.105741,0.170427
6230806055,4.507399,6.776772,6.600141,1.030684,0.006111,0.156749
6230826108,0.931013,8.899067,4.964603,1.020001,0.014647,0.170843
6230846161,2.942962,10.904884,-2.841760,0.976626,-0.071870,0.195167
6230866214,6.477593,11.311068,-4.686084,0.973738,-0.061443,0.200479
6230886266,5.265912,9.668223,-3.914524,0.956443,-0.013882,0.218982
6230906319,2.088437,6.847841,-6.033380,0.952082,0.023680,0.228787
6230926372,-0.238791,5.189486,-6.557378,0.966719,0.002891,0.214953
6230946425,-0.943158,3.252920,-7.134038,0.951399,-0.007727,0.205334
6230966478,-2.280068,1.854056,-8.462646,0.947603,0.009959,0.191015
6230986530,-6.260533,2.190519,-6.370618,0.976344,0.020648,0.197093
6231006583,-11.052655,3.969367,-2.252118,1.011847,0.004738,0.229248
6231026636,-12.897993,5.090273,-3.164809,0.969979,0.012051,0.245226
6231046689,-12.538674,3.562870,-3.765989,0.925568,0.041977,0.248109
6231066740,-13.372676,0.505075,-5.036004,0.880077,0.042559,0.232148
6231086793,-15.453392,-3.580740,-7.908779,0.863117,0.041809,0.233127
6231106846,-20.552118,-6.016131,-9.588709,0.883781,0.031720,0.274379
6231126899,-23.582548,-8.380440,-10.572345,0.914086,0.013342,0.261537
6231146952,-22.709358,-12.988300,-12.618250,0.910728,0.006969,0.184517
6231167005,-20.098259,-16.987276,-13.818016,0.942893,0.007526,0.078131
6231187057,-20.309570,-19.643877,-12.323313,1.004283,0.061715,0.013866
6231207110,-22.096331,-21.647341,-15.150313,1.121957,0.050642,0.053999
6231227163,-19.915297,-21.114233,-20.723450,1.159281,-0.011887,0.078799
6231247216,-14.197086,-19.600445,-21.352142,1.131092,-0.061188,0.059993
6231267269,-7.500059,-16.558231,-17.810438,1.097046,-0.051059,0.061907
6231287321,-2.958453,-12.315929,-13.150429,1.052075,-0.015740,0.079992
6231307374,-0.132917,-9.740919,-9.855866,1.035363,0.008460,0.103951
6231327427,-0.293379,-7.048590,-8.925297,1.014644,0.001926,0.126873
6231347480,0.818735,-4.625315,-5.046030,0.976386,0.004010,0.151571
6231367533,1.724161,-3.471472,-1.207792,0.941272,0.030261,0.156563
6231387586,0.903635,-5.317878,1.777388,0.897531,0.061700,0.137893
6231407638,-1.564742,-10.191364,3.189573,0.931243,0.086306,0.144391
6231427691,-4.752321,-14.310588,4.569096,0.960455,0.107656,0.126992
6231447744,-7.518787,-17.135731,2.472849,0.982386,0.106458,0.103259
6231467797,-13.871668,-18.747654,1.449890,0.982366,0.197975,0.092202
6231487850,-24.127651,-20.269203,-0.451173,0.994105,0.267105,0.076853
6231507902,-36.343651,-20.639360,-3.128572,1.004994,0.282457,0.062211
6231527955,-47.816658,-20.217545,-6.187907,1.020948,0.248403,0.048177
6231548008,-56.865746,-18.802254,-9.516777,1.033933,0.230795,0.034658
6231568061,-65.601410,-16.537201,-12.052896,1.037098,0.218286,0.029827
6231588115,-74.436798,-14.270881,-14.285825,1.053508,0.200186,0.038696
6231608168,-83.025146,-10.882995,-17.091125,1.066622,0.162008,0.028961
6231628221,-91.485008,-6.940992,-17.647434,1.044190,0.152011,0.019465
6231648273,-98.729012,-3.586110,-16.269506,1.031870,0.171952,0.011604
6231668327,-105.866699,-1.178377,-15.911514,1.030717,0.169255,0.007446
6231688379,-112.779900,1.319178,-17.183388,1.047655,0.161360,-0.000885
6231708432,-121.130135,3.556001,-18.582699,1.047452,0.150093,-0.007300
6231728485,-129.031036,5.645180,-19.784607,1.037119,0.172519,-0.013177
6231748538,-135.810333,7.855126,-22.253012,1.026203,0.186642,-0.008692
6231768591,-141.887161,9.074450,-23.634457,1.020688,0.204691,-0.010030
6231788644,-147.084503,8.864481,-23.851698,0.992605,0.167843,-0.022072
6231808696,-149.240219,7.587298,-26.696232,0.991147,0.136766,-0.022178
6231828749,-151.744751,5.554736,-28.583092,0.958783,0.092773,-0.031259
6231848802,-154.618729,4.197139,-30.199305,0.946387,0.046291,-0.039534
6231868855,-153.642975,1.875444,-32.184906,0.964208,-0.025898,-0.026575
6231888908,-151.971161,1.896714,-28.161144,0.996764,-0.020889,-0.030765
6231908963,-152.777435,3.201787,-19.063030,1.016242,-0.007869,-0.031868
6231929012,-155.488937,4.796429,-12.617882,1.124013,0.029913,-0.068622
6231949065,-152.594025,3.523337,-14.039352,1.232012,-0.010490,-0.089746
6231969117,-141.888916,-0.586743,-21.948950,1.236753,-0.138253,-0.072693
6231989170,-127.728035,-4.839376,-29.563686,1.165047,-0.170675,-0.047833
6232009223,-119.738777,-6.354389,-31.289265,1.093755,-0.159499,0.039872
6232029276,-114.202309,-0.461307,-31.910246,1.034512,-0.187048,0.066764
6232049329,-106.930466,3.369632,-25.499039,0.905270,-0.185880,0.092190
6232069382,-98.179138,6.105211,-26.936373,0.862709,-0.108084,0.113164
6232089434,-97.511398,4.438760,-25.839495,0.855100,-0.037900,0.085487
6232109487,-100.872475,-1.323827,-24.840775,0.828209,0.041243,0.045391
6232129540,-108.373230,-5.567993,-18.366251,0.850699,0.026756,0.026269
6232149593,-110.717514,-7.420898,-14.834831,0.893612,-0.036097,0.046568
6232169646,-105.594147,-7.910180,-17.063152,1.017282,-0.098339,0.084610
6232189698,-98.698769,-7.056861,-21.297565,1.110746,-0.161422,0.112813
6232209751,-92.467995,-6.310619,-27.365486,1.070088,-0.163282,0.128906
6232229804,-85.592468,-4.546520,-25.630814,0.986321,-0.099636,0.125940
6232249857,-82.290062,-2.400759,-17.491982,0.952007,-0.061515,0.128527
6232269910,-78.638535,-0.748769,-10.958312,0.999986,-0.013632,0.146762
6232289963,-71.262474,-1.549158,-3.515600,1.036111,-0.086789,0.101605
6232310015,-61.675896,-1.030099,-5.771696,1.111480,-0.102368,0.035883
6232330068,-57.222641,0.902751,-9.645185,1.036666,0.030885,0.025994
6232350121,-59.953220,1.982040,-6.631522,1.052570,0.051491,-0.022482
6232370174,-60.731850,2.803747,-10.332612,1.085295,-0.005743,-0.039946
6232390227,-53.811008,3.444435,-12.209247,1.088201,-0.083011,-0.030488
6232410280,-45.381317,4.345377,-9.320139,1.041084,-0.067918,-0.009639
6232430334,-38.013710,5.136800,-4.649230,0.997575,-0.038648,0.010890
6232450387,-33.908386,5.100792,-2.589067,0.976191,-0.030812,0.015737
6232470440,-30.493240,4.158216,-2.708278,0.973172,-0.057588,0.030840
6232490492,-27.011322,2.920344,-1.575967,0.980756,-0.075116,0.036549
6232510545,-22.476627,1.957129,1.078399,0.995940,-0.079947,0.045892
6232530598,-17.663729,0.794128,5.461359,0.999503,-0.076128,0.058325
6232550651,-12.609226,0.327430,9.258255,1.001760,-0.069575,0.058810
6232570704,-8.739712,0.656965,10.544188,1.003132,-0.064711,0.055583
6232590756,-4.329608,-0.018832,10.764761,0.989221,-0.068710,0.051259
6232610809,-0.579876,-0.928423,10.713531,0.991314,-0.072485,0.053862
6232630862,3.895514,-2.086966,10.162692,0.985830,-0.092803,0.050695
6232650915,9.317362,-2.837159,10.777274,0.971466,-0.120354,0.057729
6232670968,15.053998,-3.655821,13.438301,0.968782,-0.105339,0.072623
6232691021,18.850145,-5.639310,15.186966,0.966080,-0.068990,0.079908
6232711074,20.653534,-9.060400,16.160650,0.965941,-0.054479,0.065289
6232731127,20.404617,-12.546846,16.127277,0.944756,-0.023278,0.071230
6232751179,18.998587,-15.658061,15.403333,0.932675,0.001916,0.113296
6232771231,16.995173,-18.407831,12.434979,0.916092,-0.008761,0.163652
6232791284,14.088212,-25.116802,7.388792,0.892733,0.001602,0.193177
6232811337,13.717474,-31.464394,4.038158,0.900269,0.027556,0.138762
6232831389,11.952873,-36.934265,5.255099,0.938674,0.106493,0.048600
6232851442,8.470921,-35.707726,7.124095,1.091229,0.141729,-0.052790
6232871495,5.618960,-28.496218,3.977713,1.295405,0.070403,-0.135675
6232891548,0.324910,-17.929443,-0.285903,1.298959,-0.184031,0.084781
6232911601,10.960952,-10.982227,-8.733788,1.352982,-0.323065,0.145030
6232931653,23.987946,-9.169572,-10.472598,1.010809,-0.185653,0.174914
6232951706,29.073040,-14.941247,-11.235123,0.894471,-0.022446,0.188559
6232971759,27.890415,-21.416809,-12.379555,0.773515,0.077602,0.150826
6232991812,23.054140,-28.253592,-12.846934,0.744047,0.095554,0.114419
6233011865,18.309334,-31.967182,-10.543631,0.798142,0.064838,0.092801
6233031917,14.844376,-31.997217,-6.919572,0.896046,0.050596,0.085662
6233051970,13.753485,-27.480680,-5.881279,0.984163,0.028562,0.087905
6233072023,13.745185,-21.735352,-4.930967,1.038703,-0.000555,0.082903
6233092076,14.582904,-17.880611,-3.694015,1.073542,-0.002807,0.066090
6233112129,14.582179,-14.654533,-3.758184,1.098457,-0.005112,0.047116
6233132181,13.482939,-12.520655,-3.727257,1.112300,0.005739,0.028548
6233152234,11.806765,-11.466720,-2.206932,1.096406,0.026491,0.008019
6233172287,9.289896,-10.975972,-1.237635,1.069016,0.034067,-0.004441
6233192340,6.643858,-10.044177,-1.217182,1.043287,0.031445,0.000405
6233212393,5.053192,-7.453112,-0.414605,1.028597,-0.000856,0.018579
6233232446,6.840472,-4.543513,0.446323,1.000396,-0.036387,0.041603
6233252499,9.846808,-2.997284,0.546048,0.955582,-0.016924,0.056328
6233272551,12.288816,-1.362155,0.880611,0.949675,0.008266,0.071627
6233292606,13.889881,0.220338,-0.231930,0.935106,0.004583,0.070476
6233312659,13.556229,1.662420,-3.533629,0.932832,0.020934,0.076996
6233332711,11.589316,2.662028,-4.294281,0.998893,0.026664,0.079943
6233352764,9.021320,2.517247,-2.928670,1.019193,0.073330,0.061642
6233372817,5.910522,2.341141,-3.548448,1.006129,0.092495,0.056874
6233392870,3.585530,3.744172,-4.969734,1.048037,0.056399,0.048592
6233412923,2.143256,5.989538,-4.961808,1.055382,0.017547,0.043459
6233432975,1.524798,7.381099,-3.965965,1.062387,0.006232,0.051728
6233453028,0.057690,8.172758,-3.316388,1.048562,0.008688,0.060508
6233473081,-1.472494,9.464280,-2.789776,1.030690,0.013839,0.074045
6233493134,-3.614008,11.170113,-2.143114,1.010721,0.020521,0.087005
6233513187,-5.926801,13.544087,-1.309220,0.996032,0.024126,0.087222
6233533240,-6.460475,16.407043,-0.621634,0.979757,0.031330,0.091568
6233553292,-8.086153,18.870453,-0.758396,0.974908,0.032032,0.109793
6233573345,-7.615115,20.094145,0.177013,0.954639,0.019792,0.121061
6233593398,-9.305679,21.239521,4.160190,0.986581,0.027347,0.142649
6233613451,-11.919484,22.208248,6.378402,1.021231,0.050037,0.161172
6233633502,-13.493119,24.326479,4.431441,1.049325,0.046632,0.160229
6233653555,-16.453798,28.873161,1.377648,1.055355,0.037992,0.177822
6233673608,-20.850113,32.450478,4.966866,1.016976,0.039529,0.176805
6233693661,-24.022053,32.154255,10.607741,1.031742,0.073888,0.175603
6233713714,-22.906946,33.970638,8.569931,1.057554,0.008831,0.190535
6233733767,-18.732710,38.204704,5.128191,1.080080,-0.062873,0.256053
6233753819,-16.848148,42.067490,7.751698,1.053440,-0.090129,0.272993
6233773872,-14.443348,41.600529,11.845102,0.989770,-0.098712,0.298997
6233793925,-10.974510,40.537323,11.802076,0.972807,-0.127665,0.361196
6233813978,-6.686925,37.688091,10.605340,0.924531,-0.139403,0.437696
6233834031,-5.172494,33.113445,10.741837,0.872541,-0.104062,0.471181
6233854084,-4.519737,26.670013,9.179808,0.822499,-0.085256,0.491603
6233874136,-3.033350,18.433977,6.608086,0.784327,-0.073957,0.512560
6233894189,-1.668086,9.970553,4.219084,0.738863,-0.078142,0.525555
6233914242,-0.702929,2.054955,2.434651,0.733723,-0.079413,0.500904
6233934295,1.161566,-5.021611,1.541329,0.749858,-0.070031,0.480915
6233954348,2.820743,-10.791559,0.992208,0.775173,-0.065162,0.467951
6233974400,3.050168,-15.347936,0.545512,0.807584,-0.067693,0.476662
6233994453,2.081702,-18.229259,0.904412,0.850461,-0.070828,0.473185
6234014506,0.870176,-19.602509,1.091463,0.894223,-0.060583,0.452110
6234034559,1.644483,-19.089918,0.915109,0.942213,-0.055595,0.412130
6234054612,3.149302,-16.731163,0.201612,0.990394,-0.061091,0.376000
6234074665,1.750484,-13.272742,-1.287712,1.009089,-0.028728,0.374395
6234094717,-0.733198,-9.864119,-1.131851,1.019822,-0.023684,0.376048
6234114770,-1.092145,-6.451746,-1.378432,1.029527,-0.063716,0.357858
6234134823,-0.599241,-3.800704,-2.842899,1.040490,-0.081110,0.346959
6234154877,0.103934,-2.164789,-4.182679,1.027967,-0.074201,0.349153
6234174930,0.919250,-1.771621,-5.275690,0.995115,-0.082584,0.358923
6234194983,2.307858,-2.460489,-5.198012,0.964203,-0.092919,0.365277
6234215036,3.579735,-3.769892,-5.883631,0.929830,-0.082429,0.360731
6234235089,4.248328,-5.681966,-7.605279,0.903071,-0.071638,0.363415
6234255142,3.115875,-7.241895,-8.205822,0.880356,-0.055864,0.358073
6234275195,1.975284,-9.153056,-7.918416,0.876581,-0.030019,0.336026
6234295247,1.937186,-10.566635,-8.118164,0.894469,-0.018389,0.326930
6234315300,3.015575,-11.127085,-9.018506,0.932331,0.003766,0.326487
6234335353,3.942216,-10.313777,-9.817425,0.968775,0.009415,0.296416
6234355406,2.405950,-9.251002,-9.441600,0.971752,0.026238,0.277792
6234375458,-2.405342,-9.618157,-8.506439,0.968254,0.049224,0.271958
6234395511,-4.774688,-10.134499,-9.670989,0.983419,0.066864,0.257774
6234415564,-4.985048,-9.805166,-11.392474,1.034816,0.050038,0.223070
6234435617,-9.172752,-8.899498,-12.705287,1.044763,0.069432,0.211646
6234455670,-17.046415,-8.710671,-11.922549,1.021246,0.095211,0.213635
6234475733,-23.473263,-8.858811,-10.699576,1.025058,0.053954,0.206051
6234495774,-24.869139,-8.110845,-11.027560,1.039328,-0.013367,0.184937
6234515827,-26.383017,-7.309303,-9.968739,1.027098,-0.036894,0.167946
6234535880,-29.106638,-7.859273,-6.494727,1.016853,-0.019875,0.165222
6234555933,-28.048275,-7.174683,-4.981665,1.013792,0.005056,0.161822
6234575986,-22.867643,-5.630288,-3.821641,0.980201,-0.017266,0.117945
6234596038,-17.132923,-4.190953,-1.842922,0.947692,-0.062341,0.103058
6234616092,-13.427293,-2.720247,-1.205076,0.977734,-0.060651,0.140605
6234636144,-10.342518,0.316746,-1.944201,1.005817,-0.003969,0.173685
6234656197,-7.157168,3.653980,-0.933656,0.983458,0.032035,0.159749
6234676250,-4.418042,5.961422,0.959752,0.940645,-0.010981,0.144312
6234696303,-3.437625,5.918967,1.634082,0.945187,0.020500,0.146797
6234716356,-3.156581,5.359800,2.954649,0.961513,0.049375,0.162211
6234736409,-0.101969,8.594464,4.685594,0.975453,0.044606,0.150550
6234756461,1.134296,13.296111,6.177172,0.986127,0.049352,0.131212
6234776514,-1.584555,13.877986,8.555912,1.013461,0.022166,0.131993
6234796567,-2.257015,13.812525,9.700794,1.027436,0.000480,0.138251
6234816620,0.550804,12.809569,9.066635,1.043530,0.014419,0.138385
6234836673,1.566017,11.969313,9.599703,1.038946,0.022772,0.138710
6234856726,2.099054,11.897266,9.660397,0.991960,0.009494,0.151437
6234876779,1.359482,11.831884,7.296246,0.963436,-0.024014,0.150713
6234896831,2.398434,12.395504,7.710782,0.989038,-0.057429,0.154553
6234916884,3.053833,11.314382,6.547119,1.015850,-0.021408,0.166142
6234956990,3.491785,8.637893,4.237027,1.000228,0.029416,0.177439
6234977043,1.487098,7.593202,4.377750,0.984176,0.039449,0.189024
6234997097,0.296266,7.020229,3.842036,0.969413,0.013743,0.185400
6235017150,0.335411,6.650373,4.138876,0.953232,-0.020003,0.178769
6235037203,0.643669,6.856690,5.229427,0.951376,-0.027276,0.172387
6235057256,0.989888,7.160985,6.168047,0.943397,-0.033803,0.168225
6235077308,1.837478,6.185053,7.027536,0.938965,-0.040664,0.165638
6235097361,2.984658,5.001924,7.228264,0.964855,-0.024417,0.173267
6235117414,2.958531,3.615276,5.277680,0.949386,0.012677,0.196540
6235137467,0.792279,3.050094,2.188172,0.943394,0.003001,0.181523
6235157520,-1.690527,3.112282,2.582932,0.956593,0.006285,0.167673
6235177572,-3.862079,2.679653,7.231085,1.017367,0.033962,0.175054
6235197625,-2.825111,1.696110,5.498530,1.021432,0.040829,0.178094
6235217678,0.298753,2.365350,0.068596,1.022852,-0.029368,0.142017
6235237731,4.341993,3.198159,-2.065377,1.039409,-0.125624,0.149429
6235257784,8.399941,3.210996,0.563056,1.014164,-0.122592,0.162120
6235277837,8.906738,1.651170,1.879413,0.967389,-0.010022,0.169302
6235297889,6.824472,0.515971,-0.200159,0.976340,0.041820,0.171673
6235317942,3.252521,1.397604,-1.149316,0.993972,0.047721,0.162278
6235337994,-1.071419,3.061494,-1.274799,0.982891,0.045434,0.156500
6235358046,-4.997200,4.189802,-1.269733,0.982675,0.042177,0.163898
6235378099,-7.378679,5.135341,-0.552156,0.984453,0.012750,0.170704
6235398152,-7.700502,6.165832,-1.730333,0.984384,-0.005256,0.176001
6235418205,-8.447398,6.898194,-2.793649,0.966765,-0.016966,0.185828
6235438258,-9.460876,7.066801,-2.695349,0.960005,-0.009369,0.184419
6235458311,-10.749961,6.892519,-1.314927,0.973653,0.000650,0.184037
6235478363,-12.345517,7.159994,-2.982660,0.987372,0.011347,0.186646
6235498416,-13.835410,7.557842,-4.552354,0.972704,-0.006879,0.178664
6235518469,-13.537154,6.442913,-5.890092,0.977690,-0.015090,0.156346
6235538522,-12.035652,4.468387,-8.741081,0.998563,-0.020306,0.144103
6235558574,-9.724986,1.361090,-10.284868,0.997554,-0.025719,0.178876
6235578627,-7.794642,-1.565766,-9.320511,0.999778,-0.056615,0.203789
6235598680,-4.983547,-4.725044,-10.000293,0.910255,-0.076700,0.198024
6235618733,-2.028646,-8.556654,-3.121590,0.908777,-0.048599,0.187328
6235638786,0.161801,-11.230361,2.775707,0.953559,-0.018559,0.184480
6235658839,2.695999,-9.101757,1.820115,0.972228,0.021687,0.136614
6235678892,2.893263,-5.615706,-1.746498,0.910171,0.001821,0.142039
6235698945,3.784159,-3.642324,-2.738874,0.886283,-0.028394,0.142128
6235718998,5.412639,-2.622190,-1.575800,0.902293,-0.057376,0.178113
6235739050,9.997632,-7.626684,-1.757214,0.938440,-0.058426,0.124214
6235759103,10.874568,-15.644379,-1.593472,0.937885,-0.044350,0.040797
6235779156,8.211290,-21.628851,0.807875,0.946041,-0.001776,-0.065336
6235799209,2.279896,-26.263208,1.598974,1.035728,0.090061,-0.061310
6235819262,0.731526,-27.127583,-1.421509,1.141898,0.054567,-0.037244
6235839315,4.900196,-23.580976,-4.322773,1.151481,-0.027881,-0.028860
6235859369,9.753643,-18.822201,-3.537500,1.102356,-0.037404,-0.026462
6235879421,13.701107,-14.743792,-1.362617,1.117096,-0.045742,-0.001722
6235899474,17.680210,-9.862100,1.749277,1.132600,-0.024032,0.001953
6235919527,17.957331,-8.458340,3.745188,1.090558,0.053396,-0.003058
6235939580,15.840876,-8.527244,1.048058,1.060445,0.118279,0.047146
6235959633,10.315262,-6.142240,-3.839075,1.031122,0.111256,0.107275
6235979686,4.822752,-3.163905,-4.984258,1.003413,0.055300,0.118724
6235999738,1.620926,-1.781874,-2.827896,0.935459,0.051861,0.111011
6236019791,0.166433,-2.824644,-0.557685,0.962031,0.085608,0.071365
6236039844,-1.641941,-4.126643,0.705541,0.972586,0.121857,0.056751
6236059897,-8.183572,-4.802577,0.225108,0.969721,0.163211,0.058252
6236079950,-18.529623,-5.049376,-1.687896,0.956049,0.191670,0.074639
6236100002,-28.891882,-4.828921,-4.125452,0.967480,0.163695,0.067046
6236120055,-35.051945,-5.114810,-5.744205,0.990655,0.125691,0.036113
6236140108,-38.573479,-5.481802,-6.113077,1.040081,0.112826,0.024616
6236160161,-44.568443,-6.064736,-3.266860,1.064082,0.137216,0.023777
6236180214,-54.836472,-7.901924,0.138438,1.041809,0.194691,0.031042
6236200274,-67.031525,-9.875736,-1.646703,0.963429,0.243351,0.034013
6236220318,-77.846863,-11.106612,-8.611316,0.929680,0.199451,0.012470
6236240371,-87.427872,-10.907915,-12.890757,0.968856,0.128839,0.005294
6236260424,-93.821281,-9.454740,-12.984472,1.035040,0.115237,-0.003077
6236280477,-99.897156,-5.988348,-13.183764,1.067598,0.123811,-0.024939
6236300530,-105.272667,-1.910200,-14.605621,1.048875,0.139097,-0.026885
6236320583,-111.586845,0.499358,-14.808765,1.041069,0.149503,-0.022244
6236340636,-118.534592,1.668262,-14.863413,1.040836,0.154676,-0.016216
6236360688,-125.456024,3.342323,-14.298337,1.032706,0.118173,-0.026303
6236380741,-130.138367,4.773050,-13.710467,1.014926,0.090405,-0.027562
6236400794,-134.149841,5.755600,-12.658975,0.998814,0.091483,-0.032323
6236420846,-138.941895,6.492230,-12.470361,1.007704,0.094857,-0.026392
6236440899,-142.343048,5.799493,-11.655834,0.986664,0.059903,-0.027773
6236460952,-147.697952,5.699057,-10.001401,0.959472,0.019318,-0.034403
6236481005,-149.649551,5.015118,-10.490993,1.005540,-0.008647,-0.072106
6236501058,-149.228241,4.906350,-11.316871,1.030047,-0.060918,-0.058785
6236521111,-149.345032,5.590518,-8.658974,1.056902,-0.081104,-0.057634
6236541164,-146.126068,5.365939,-7.886274,1.086806,-0.037930,-0.048288
6236561216,-137.662628,5.603340,-13.892591,1.089430,-0.058176,-0.034857
6236581269,-127.139801,3.838012,-20.589991,1.080287,-0.110034,-0.051135
6236601322,-116.650597,1.289235,-27.489311,1.045897,-0.157821,-0.039192
6236621375,-109.064011,2.038148,-30.942974,1.015891,-0.290656,0.029114
6236641428,-100.943413,4.916743,-27.135941,1.002914,-0.281998,0.045736
6236661481,-94.865295,8.065664,-22.889545,0.954009,-0.161734,0.070353
6236681533,-91.907898,9.555977,-24.373615,0.947034,-0.037796,0.078594
6236701586,-92.596710,7.513712,-24.874126,0.941602,0.003047,0.082809
6236721640,-94.953865,3.690558,-24.352339,0.931157,0.030305,0.078148
6236741693,-95.499359,-0.297052,-26.490829,0.936237,0.032465,0.050348
6236761746,-97.635315,-3.793855,-23.817816,0.949312,-0.003224,0.030405
6236781799,-101.243500,-8.207415,-18.139862,0.936272,-0.038930,0.064353
6236801852,-102.531075,-12.543171,-18.147209,0.954646,-0.038610,0.071296
6236821905,-97.880661,-14.142898,-17.817430,0.988428,-0.073019,0.048667
6236841957,-91.086662,-13.794259,-20.125013,0.980195,-0.185495,0.062998
6236862010,-80.439552,-11.478806,-17.938822,0.996781,-0.167672,0.055093
6236882063,-72.568207,-10.102840,-9.003150,1.013495,-0.120926,0.011046
6236902116,-64.274307,-10.683087,-3.706363,1.053673,-0.087268,0.014122
6236922179,-53.753696,-8.836601,-4.709253,1.128523,-0.095309,-0.013428
6236942222,-43.999184,-3.739832,-7.155497,1.098063,-0.068245,-0.009504
6236962275,-34.301197,0.588155,-3.876960,1.069929,-0.005475,-0.031515
6236982327,-30.588097,3.075222,-2.196723,1.096493,0.016653,-0.064029
6237002380,-29.457174,4.410317,-3.528037,1.088491,-0.012733,-0.052839
6237022433,-25.969711,6.679307,-2.483601,1.069807,-0.051349,-0.050071
6237042486,-20.625784,10.975704,-2.091013,1.052128,-0.044649,-0.023463
6237062544,-16.213221,16.566147,-0.194346,1.039905,-0.030095,-0.013993
6237082590,-12.801090,22.270601,2.755754,1.039684,-0.042313,-0.016943
6237102643,-8.990610,25.710625,6.160676,1.034929,-0.057264,-0.006989
6237122696,-5.223951,27.334961,9.412711,1.026888,-0.052596,0.009441
6237142749,-0.873930,27.961313,12.713456,1.025551,-0.040094,0.013468
6237162802,3.328495,28.230419,14.901375,1.013913,-0.036907,0.022164
6237182854,7.178419,27.756990,16.485659,0.990921,-0.037545,0.025553
6237202907,10.709693,25.955502,17.278841,0.996197,-0.039760,0.028706
6237222960,13.517785,24.261959,17.882433,0.989401,-0.035865,0.035339
6237243013,16.225950,22.427658,19.138332,0.983549,-0.020009,0.045929
6237263066,18.344030,20.678141,18.810144,0.972436,-0.020648,0.060217
6237283119,19.090250,19.096428,18.822912,0.961185,-0.018199,0.080831
6237303172,18.682735,16.861843,18.830757,0.954935,-0.007586,0.099749
6237323224,18.644562,14.634953,17.277178,0.947947,-0.014764,0.113597
6237343277,18.378937,11.976932,16.210217,0.950724,-0.025828,0.127378
6237363330,17.612328,8.674822,15.850498,0.953378,-0.027250,0.141954
6237383383,15.935328,5.066943,14.900989,0.947200,-0.015238,0.163402
6237403436,14.753441,1.731414,13.290999,0.940851,-0.036440,0.168510
6237423488,14.538683,-0.785396,12.890484,0.931205,-0.034300,0.179869
6237443541,13.292283,-5.780917,12.953609,0.921236,-0.014268,0.190927
6237463594,12.142781,-16.983027,11.067555,0.887651,0.021099,0.210546
6237483647,9.788820,-24.360748,11.328751,0.929067,0.015323,0.162193
6237503700,9.058535,-22.563198,10.617968,0.983833,-0.033963,0.144338
6237523753,8.800733,-16.883596,11.038067,1.105262,-0.001175,0.144002
6237543805,2.964575,-12.978785,11.488972,1.236562,0.035697,0.090702
6237563858,-5.386595,-9.813358,5.683086,1.259579,0.001789,0.162512
6237583912,-4.681657,-4.991002,0.421584,1.084599,-0.076043,0.300316
6237603965,-1.762034,-2.050706,-1.029572,1.030843,-0.089111,0.348073
6237624018,0.687324,-2.716470,-7.978040,0.901469,-0.048497,0.329782
6237644071,1.834658,-7.633897,-12.433082,0.801354,-0.053887,0.272877
6237664124,2.676752,-15.142230,-14.514456,0.742613,-0.033619,0.205789
6237684177,2.801272,-21.866684,-14.354906,0.713415,-0.024911,0.190122
6237704229,0.898008,-25.627531,-12.855804,0.773119,-0.024771,0.222717
6237724282,0.595906,-25.466715,-11.128250,0.885436,-0.043655,0.231911
6237744335,2.674954,-23.408775,-9.589963,0.980827,-0.063230,0.220726
6237764388,6.089782,-21.366232,-9.461775,1.034767,-0.102994,0.214571
6237784441,8.259686,-21.308472,-9.773471,1.045465,-0.087441,0.201288
6237804494,8.997306,-22.910324,-9.336208,1.034939,-0.035977,0.167354
6237824547,8.811256,-24.331738,-8.224717,1.024283,-0.000972,0.132428
6237844600,8.685474,-25.721237,-6.931463,1.031722,0.000227,0.107020
6237864652,8.783173,-25.110104,-7.630867,1.043685,-0.010028,0.093227
6237884705,9.319792,-22.858963,-7.555444,1.038641,0.000045,0.093165
6237904758,8.672873,-19.781542,-7.649190,1.023636,0.025984,0.105028
6237924809,6.321077,-17.120544,-7.005745,0.997238,0.040754,0.106306
6237944862,3.857506,-15.336046,-5.593767,0.974573,0.031509,0.104980
6237964915,3.073494,-13.144223,-3.933675,0.982728,0.017624,0.104835
6237984968,2.816054,-11.012285,-2.682824,0.991768,0.011654,0.105332
6238005021,2.476204,-9.371550,-0.990672,1.000190,0.025884,0.107953
6238025074,1.687420,-7.651637,0.481574,1.006567,0.039439,0.101843
6238045126,1.763598,-6.425338,1.038165,1.016387,0.019006,0.100968
6238065179,4.532773,-5.608733,0.056696,1.044138,-0.033026,0.105129
6238085232,7.640120,-4.647892,-2.471496,1.028282,-0.040925,0.107926
6238105285,8.074930,-3.492485,-5.082791,1.021176,-0.006812,0.105572
6238125338,8.599860,-0.953994,-3.977615,1.046703,-0.021052,0.097011
6238145390,9.698174,2.197053,-5.034754,1.014051,-0.019011,0.098574
6238165443,5.053065,3.757465,-4.386714,1.038085,-0.018877,0.104287
6238185496,5.318075,4.752170,0.157140,1.015722,0.030797,0.099645
6238205549,0.528407,8.826957,4.783099,0.990361,0.032754,0.132616
6238225602,-1.833160,10.923554,1.434380,1.023591,0.012188,0.150721
6238245655,-1.563902,13.617727,1.015739,1.026830,-0.026765,0.177460
6238265707,-3.064530,16.969976,0.845555,0.999057,0.009621,0.184840
6238285760,-8.556672,20.078482,2.269189,0.950943,0.054199,0.189981
6238305813,-14.116516,20.237749,3.187641,0.961597,0.065118,0.202291
6238325866,-18.637619,20.091578,0.362777,0.975157,0.053297,0.212248
6238345919,-19.472996,20.748884,-1.670356,0.979714,-0.000588,0.223810
6238365971,-18.577276,22.676607,-1.487839,0.992690,-0.035367,0.235938
6238386024,-18.132250,26.146225,-0.719317,1.002542,-0.034600,0.249995
6238406077,-17.931429,29.135836,1.225681,1.020346,-0.008695,0.248004
6238426130,-18.986906,31.004688,2.515613,1.036793,0.034271,0.251259
6238446184,-19.252897,32.527843,2.351299,1.048775,0.028547,0.294126
6238466237,-19.178844,35.214149,0.894436,1.052694,-0.032027,0.340115
6238486290,-18.553522,37.967255,1.021152,1.012499,-0.055903,0.334926
6238506343,-16.998768,37.961182,3.248842,0.945746,-0.051490,0.336128
6238526396,-14.995748,34.717155,3.206266,0.931455,-0.043427,0.375014
6238546448,-14.486117,31.463451,0.784454,0.883745,-0.092366,0.435771
6238566501,-12.888587,26.062397,-0.190338,0.841308,-0.117260,0.487108
6238586554,-11.180696,19.467930,-0.319791,0.823394,-0.114046,0.524207
6238606607,-9.816599,12.593256,-2.380794,0.820834,-0.076734,0.522484
6238626660,-8.456103,5.086339,-4.773089,0.800830,-0.046604,0.529537
6238646712,-6.564433,-2.833050,-5.716570,0.769002,-0.047548,0.531958
6238666765,-5.394063,-9.753097,-6.352503,0.742563,-0.046378,0.516125
6238686818,-4.891927,-15.762917,-6.422918,0.746896,-0.046976,0.492533
6238706871,-4.994637,-21.475618,-5.705933,0.775173,-0.035766,0.484242
6238726924,-5.795418,-24.971338,-4.238447,0.841433,-0.016672,0.462224
6238746977,-7.883370,-24.461792,-4.337998,0.897554,-0.007739,0.417258
6238767039,-9.372366,-21.584229,-5.150762,0.955173,-0.015094,0.389487
6238787081,-8.475077,-18.471874,-4.919274,1.005720,-0.036827,0.393187
6238807134,-5.506777,-15.602509,-4.437568,1.019297,-0.062404,0.407030
6238827187,-3.253759,-12.550865,-4.403399,1.022266,-0.063421,0.398883
6238847240,-3.254411,-9.639934,-3.882902,1.034447,-0.041699,0.378360
6238867292,-3.481096,-7.448552,-2.867215,1.028726,-0.036351,0.371987
6238887345,-3.949125,-5.819131,-1.629717,1.000423,-0.032796,0.377198
6238907398,-3.591386,-4.643316,-0.944209,0.970526,-0.019250,0.369649
6238927451,-3.730089,-4.062652,-1.416056,0.944290,-0.023684,0.368515
6238947504,-4.443356,-4.530208,-1.383880,0.913631,-0.029278,0.375996
6238967556,-7.325630,-5.582651,-0.363664,0.892545,-0.015147,0.389043
6238987610,-12.572412,-5.993683,1.284224,0.892471,0.023281,0.382418
6239007662,-17.821449,-5.979265,2.983698,0.918408,0.035096,0.353109
6239027715,-20.106958,-5.996796,3.772771,0.950377,-0.020632,0.339440
6239047768,-19.501656,-6.654989,3.509563,0.983088,-0.043472,0.338300
6239067821,-17.571272,-7.396101,3.170388,0.995933,-0.034851,0.335565
6239087874,-15.040603,-7.808293,2.602500,0.998047,-0.060007,0.329691
6239107926,-10.255630,-8.651251,2.414256,0.996777,-0.090197,0.328032
6239127979,-4.385767,-9.699445,1.066758,0.982433,-0.111433,0.312816
6239148032,3.261490,-9.924492,-0.405462,0.971267,-0.104753,0.285940
6239168085,8.757164,-9.543734,-1.098383,0.971993,-0.074741,0.255969
6239188138,10.557231,-8.840030,-0.927122,0.974163,-0.034186,0.238792
6239208191,8.326738,-7.635486,-0.225649,0.991339,0.022547,0.219717
6239228244,5.908302,-6.505399,-0.296907,0.998773,0.042834,0.201176
6239248296,4.586396,-5.189263,-0.892138,1.008902,0.010225,0.200262
6239268349,2.539621,-3.333628,-1.860343,1.006024,-0.002868,0.200030
6239288403,-0.560910,-2.117721,-3.257976,1.021248,0.002762,0.197437
6239308456,-3.621955,-0.691484,-2.655502,1.025288,-0.001670,0.179067
6239328509,-5.737117,1.414474,-1.191700,0.986282,-0.038670,0.164405
6239348562,-7.170344,3.258940,-0.962606,0.973698,-0.044143,0.152019
6239368615,-7.168017,4.486723,-1.292733,0.958556,-0.069093,0.150473
6239388668,-5.340686,6.607889,3.292166,0.965802,-0.139411,0.162426
6239408721,-3.535499,10.343126,7.431932,1.000354,-0.105144,0.145370
6239428774,1.213771,12.827066,8.748027,0.955629,-0.029832,0.132548
6239448826,8.011896,12.591812,8.935931,0.931635,-0.051586,0.146263
6239468879,15.908450,11.900558,9.109864,1.000316,-0.087693,0.158619
6239488934,20.193890,13.330742,6.352274,1.011792,-0.030497,0.147405
6239508985,19.487640,15.069435,2.322104,0.962424,0.018988,0.146391
6239529038,20.007586,14.268600,0.005520,0.998462,0.008393,0.162492
6239549091,19.769121,12.957211,0.563387,1.002670,0.011294,0.174122
6239569144,16.248672,13.228592,1.495896,1.005157,0.047544,0.167267
6239589197,10.863129,15.479225,1.611290,1.004992,0.065856,0.170780
6239609249,5.631210,15.838003,-1.063487,1.009064,0.022994,0.197298
6239629307,2.720095,15.291726,-7.586067,0.988373,-0.015581,0.215957
6239649353,2.203238,14.042022,-11.378638,0.932861,-0.032552,0.238662
6239669406,3.064113,13.415869,-10.444570,0.933068,-0.028150,0.247883
6239689459,4.211030,13.672890,-7.012589,0.925272,-0.035440,0.228463
6239709512,3.019278,14.796638,-4.560462,0.918191,-0.032009,0.221648
6239729565,2.516580,14.985213,-1.840090,0.931075,-0.002705,0.248574
6239749618,1.297626,15.118468,1.274829,0.939697,0.014547,0.246527
6239769670,1.699737,14.509356,2.974473,0.970585,-0.017758,0.218946
6239789723,2.228376,12.775702,7.982374,1.028308,-0.051592,0.233107
6239809776,3.868477,10.032951,11.939889,1.024220,-0.023370,0.263288
6239829829,2.065340,8.354662,8.929877,0.961613,0.034161,0.261542
6239849882,-0.674884,7.673301,7.265814,0.975963,0.038189,0.191162
6239869935,-1.168954,5.838592,10.561577,0.975901,0.028465,0.191001
6239889987,1.006268,3.412597,10.046227,0.974726,-0.027446,0.201547
6239910040,4.804934,2.499277,5.765932,0.976251,-0.063507,0.208337
6239930093,5.766719,2.873893,3.990829,0.973450,-0.042104,0.193255
6239950146,7.335373,3.238601,6.012604,0.951438,-0.033482,0.195998
6239970198,9.085100,1.696458,6.441727,0.932262,-0.041437,0.220948
6239990251,9.198465,-1.678703,4.429736,0.949869,-0.002377,0.230436
6240010304,8.449270,-4.315038,4.886242,0.986705,0.011146,0.191733
6240030357,7.310315,-6.522645,5.114038,0.962411,-0.040987,0.209614
6240050410,6.212430,-10.623218,4.886024,0.919171,-0.125533,0.225554
6240070463,7.840843,-15.376620,5.447519,0.934497,-0.130293,0.195090
6240090515,12.506360,-17.976942,4.803055,0.989768,-0.118004,0.169074
6240110568,16.811110,-18.903856,5.039690,0.991167,-0.073650,0.157210
6240130621,17.637409,-17.409300,6.421199,0.993254,-0.033889,0.154493
6240150676,17.111345,-14.268818,6.569721,0.977974,0.002208,0.145969
6240170728,14.212312,-11.530872,6.743196,0.953189,0.008078,0.140908
6240190781,11.431564,-8.086185,6.906616,0.944020,-0.011160,0.143974
6240210834,9.688173,-4.235060,5.446375,0.948797,-0.040158,0.167792
6240230887,10.039897,-2.583230,4.584138,1.002608,-0.069005,0.162600
6240250940,12.201243,-5.162589,3.841952,0.991139,-0.061303,0.124621
6240270992,12.951603,-9.405167,4.455047,0.967221,-0.077762,0.076201
6240291045,12.464415,-11.211637,5.014705,0.985330,-0.038786,0.015803
6240311098,6.723334,-9.613655,5.534157,1.127301,0.025938,0.041054
6240331151,3.165133,-4.473057,5.767796,1.207461,0.041956,0.075337
6240351204,0.578354,-0.267242,0.054832,1.177626,0.043843,0.078466
6240371257,-1.699210,4.266129,-2.210942,1.095678,0.031323,0.098752
6240391310,-3.654084,8.212935,-1.534172,1.036104,0.009542,0.148023
6240411362,-6.926254,11.934822,-0.249850,0.965579,0.019791,0.183213
6240431415,-7.569128,11.065661,-0.170840,0.867386,0.004813,0.160968
6240451468,-5.348671,5.911656,-1.139122,0.806600,0.000029,0.159775
6240471521,-8.205321,0.109842,-0.860445,0.817919,0.013358,0.181695
6240491584,-12.767755,-5.618750,-0.445002,0.863400,0.001264,0.173978
6240511625,-13.881299,-11.682812,-2.614035,0.909842,-0.024698,0.149251
6240531678,-12.945994,-17.691681,-5.375134,0.963331,-0.045568,0.117335
6240551731,-12.080592,-22.861609,-6.259519,1.004912,-0.047745,0.085572
6240571783,-12.121278,-26.743282,-6.579604,1.009063,-0.044103,0.059930
6240591836,-12.721302,-30.154667,-6.385743,1.007774,-0.044784,0.031391
6240611889,-12.811909,-32.410385,-5.248674,1.004186,-0.045784,0.006384
6240631942,-12.495106,-33.199760,-5.549223,1.005795,-0.034955,-0.024630
6240651995,-10.869283,-32.326721,-6.030275,1.010031,-0.018178,-0.040245
6240672048,-10.254995,-31.061253,-4.640322,1.055853,-0.024170,-0.047031
6240692100,-7.448091,-28.931578,-2.117272,1.087756,-0.022557,-0.047096
6240712153,-5.945757,-27.327770,-3.358694,1.072454,0.025310,-0.026582
6240732206,-8.793998,-25.707962,-5.970440,1.100353,0.049582,-0.023575
6240752259,-13.040406,-21.981161,-7.694640,1.107126,0.093544,-0.019128
6240772312,-21.337137,-18.323593,-8.977602,1.094281,0.151670,-0.018620
6240792365,-31.438652,-14.353358,-10.571748,1.071796,0.170887,-0.018274
6240812417,-41.321571,-10.646433,-10.816010,1.045418,0.170095,-0.012454
6240832470,-48.269016,-5.909011,-12.004640,1.014359,0.112594,-0.019643
6240852523,-51.650520,-1.517244,-13.913327,1.032693,0.103769,-0.016957
6240872576,-55.818398,1.645324,-12.513081,1.034370,0.115543,-0.013446
6240892629,-57.867580,4.785269,-12.076024,0.999533,0.085606,-0.043156
6240912682,-58.546204,5.841102,-13.678584,0.989063,0.038882,-0.068774
6240932735,-62.648666,4.392472,-8.033413,1.040235,0.049778,-0.032456
6240952788,-68.150269,3.834779,-1.716292,1.033898,0.079777,-0.023941
6240972840,-74.990990,4.320808,-0.624202,0.996109,0.075580,-0.044882
6240992893,-80.735847,5.136977,-0.079318,1.007966,0.049982,-0.064224
6241012947,-86.585121,5.763353,2.967313,1.007936,0.072275,-0.023584
6241033000,-93.997086,6.715402,0.321571,0.975587,0.109326,-0.013427
6241053053,-103.658249,9.746670,-4.937709,0.986236,0.097894,-0.020399
6241073106,-112.471024,13.569557,-7.153273,1.021029,0.058995,-0.026610
6241093159,-119.539642,17.989744,-7.961819,1.032573,0.038584,-0.026201
6241113212,-126.538338,20.896009,-9.341174,1.035837,0.032901,-0.004663
6241133264,-134.325211,22.993816,-10.497679,1.058655,0.005642,0.004448
6241153317,-137.280579,20.775005,-11.360578,1.038712,-0.041355,-0.006964
6241173371,-139.596954,19.565931,-8.089069,0.986443,-0.107729,-0.015110
6241193423,-141.739532,17.135445,-10.846264,1.019768,-0.160361,-0.028533
6241213481,-142.233170,17.781967,-12.538426,0.995309,-0.125499,0.005335
6241233529,-144.960403,21.856382,-13.688354,0.998551,-0.083149,0.037587
6241253582,-150.600159,23.733812,-8.713474,1.009807,-0.025502,0.032546
6241273634,-152.955963,24.530134,-8.806342,1.064059,0.028584,0.019672
6241293687,-148.991837,23.360632,-17.739292,1.053195,-0.072869,0.010862
6241313740,-138.777023,20.394920,-26.653082,0.972910,-0.239905,0.026677
6241333793,-127.938225,15.461413,-31.664722,0.911695,-0.311787,0.054249
6241353845,-116.838463,11.746338,-33.959808,0.912553,-0.262321,0.069770
6241373897,-107.431923,9.768093,-32.379864,0.943810,-0.205126,0.074600
6241393950,-99.231834,6.902737,-30.576653,0.947491,-0.172955,0.068165
6241414003,-93.312004,0.014263,-31.130989,0.982395,-0.174074,0.086330
6241434056,-91.012383,-5.116646,-33.327168,1.022335,-0.138888,0.113834
6241454108,-93.189301,-10.248601,-32.270401,1.026963,-0.077323,0.148963
6241474161,-97.875015,-17.271725,-28.758245,0.998068,0.003154,0.139102
6241494214,-106.526428,-25.798044,-22.359510,0.907728,0.018321,0.146284
6241514267,-108.740074,-30.254654,-26.102543,0.879043,0.021644,0.045796
6241534320,-108.868042,-31.548838,-24.142668,0.906401,-0.149910,0.021165
6241554372,-99.974335,-27.941196,-17.503885,0.948040,-0.302653,0.039315
6241574425,-85.857635,-20.797436,-9.325434,0.981760,-0.339941,0.044257
6241594478,-70.104324,-12.593331,-3.227844,1.028541,-0.285662,0.046051
6241614531,-52.102962,-4.017070,-1.816118,1.030766,-0.252600,0.038686
6241634584,-34.876900,0.956142,-2.718446,1.073756,-0.234456,0.036508
6241654637,-21.056641,4.329445,-2.196803,1.094816,-0.184856,0.058259
6241674690,-11.344398,7.857802,-2.917205,1.111857,-0.121136,0.089725
6241694743,-5.092781,11.379490,-4.712584,1.108351,-0.084645,0.094276
6241714796,-0.390623,13.878057,-5.829368,1.076787,-0.081057,0.095920
6241734848,4.776780,15.837449,-6.254772,1.049585,-0.079228,0.100977
6241754901,7.129967,17.904383,-4.777243,1.014241,-0.047757,0.096090
6241774954,7.584455,20.960667,-0.960559,1.057951,-0.027657,0.109982
6241795007,10.344869,28.217232,0.802103,1.099131,-0.088760,0.144972
6241815060,16.256912,41.364601,2.846522,1.035403,-0.181428,0.129597
6241835112,18.695055,50.855530,16.091295,0.982551,-0.125910,0.144485
6241855167,23.326485,55.604240,26.289747,1.017029,-0.036073,0.112243
6241875220,25.067953,60.175114,21.006012,1.011082,0.084932,0.086535
6241895273,22.169460,62.563538,12.752891,1.007270,0.119631,0.144090
6241915325,14.632322,62.623470,7.230263,1.032295,0.037339,0.192934
6241935378,9.651704,55.597588,7.021269,0.994720,0.014016,0.207025
6241955431,5.097836,45.450043,9.733203,0.941145,0.061178,0.209462
6241975484,-0.227516,35.112995,10.892372,0.902729,0.126265,0.198621
6241995536,-5.000618,25.039249,9.905597,0.877998,0.167100,0.166981
6242015589,-8.093661,16.548990,6.684564,0.891550,0.107186,0.155683
6242035642,-10.082899,9.554088,3.488307,0.942590,0.043606,0.142785
6242055695,-12.384165,5.151398,1.154806,0.953505,0.008880,0.133358
6242075748,-12.634501,3.588195,-2.068356,0.952548,-0.001658,0.146378
6242095800,-11.522112,3.731719,-5.722297,0.966975,-0.020189,0.182776
6242115853,-11.042601,4.004880,-6.238776,0.967356,-0.050178,0.195032
6242135906,-12.177276,3.008884,-4.105259,0.944768,-0.046941,0.189745
6242155959,-13.712766,0.969025,-0.960004,0.920054,-0.008826,0.203216
6242176012,-14.081687,-0.513114,0.341234,0.927668,0.002651,0.236037
6242196091,-13.848238,-0.662935,1.614934,0.937470,-0.006514,0.248118
6242216116,-13.427667,-1.242334,1.995731,0.941368,-0.005948,0.236143
6242236169,-14.180939,-2.331414,1.029641,0.925626,0.006034,0.225077
6242256222,-16.321220,-5.734852,-0.723779,0.916181,0.011868,0.247028
6242276274,-17.748720,-11.068959,-3.584903,0.927923,0.042199,0.250577
6242296327,-22.758636,-18.603867,-6.217399,0.937186,0.113976,0.236361
6242316380,-27.032049,-22.147766,-9.962854,0.992872,0.172596,0.209903
6242336433,-29.083805,-21.198490,-10.192775,1.033778,0.087288,0.210362
6242356486,-28.740519,-17.801643,-5.232804,1.105250,-0.065081,0.224629
6242376539,-24.157280,-11.831897,-2.359818,1.208907,-0.201203,0.245571
6242396592,-19.302670,-6.213542,-3.699616,1.134998,-0.316492,0.283098
6242416645,-8.683187,-1.647915,-6.993176,1.044439,-0.380355,0.335999
6242436698,4.011874,-2.799377,-4.128808,0.920309,-0.304159,0.384860
6242456750,13.296679,-9.191331,-2.882242,0.799682,-0.174497,0.385049
6242476803,17.595402,-17.609245,-3.514110,0.730705,-0.061293,0.337989
6242496856,17.355732,-25.343832,-1.850319,0.731824,-0.002388,0.288874
6242516909,15.527308,-30.214529,-0.658157,0.773796,0.002128,0.280485
6242536962,14.265582,-32.510525,0.123250,0.833516,-0.025634,0.293227
6242557015,13.050882,-33.598579,0.991426,0.897139,-0.020652,0.307889
6242577068,13.105762,-33.969582,1.091212,0.944403,-0.013789,0.297693
6242597120,14.314148,-34.883102,0.646778,0.974927,-0.006273,0.265649
6242617173,14.584194,-36.708603,-0.180712,0.986806,-0.010543,0.231883
6242637226,12.171274,-39.078728,-1.520754,0.994365,0.001413,0.196171
6242657279,8.045607,-40.353786,-1.999969,1.013711,-0.006968,0.166050
6242677332,5.031194,-40.545498,-1.588990,1.036500,-0.034325,0.149078
6242697385,4.413825,-39.314075,-0.706279,1.051568,-0.053882,0.138778
6242717439,4.789921,-37.302296,0.097606,1.044877,-0.051593,0.128253
6242737492,4.782497,-34.910900,1.302001,1.025966,-0.040390,0.113993
6242757544,5.593628,-33.049122,1.947092,1.003168,-0.034420,0.096494
6242777597,5.762306,-31.930040,2.261493,1.002152,-0.046968,0.089543
6242797650,5.120204,-29.674257,1.890155,1.001701,-0.045719,0.087980
6242817703,3.035911,-26.946697,1.980013,1.004923,-0.033116,0.092038
6242837756,1.735767,-24.364353,2.305044,1.011228,-0.030343,0.088051
6242857809,1.916625,-22.322866,2.009945,1.017293,-0.028641,0.078986
6242877862,2.614752,-21.638134,1.522288,1.013375,-0.035458,0.066586
6242897915,3.015642,-20.609457,0.510602,1.026571,-0.035954,0.055234
6242917967,2.374217,-18.415314,-0.004524,1.033863,-0.030974,0.052956
6242938020,0.421603,-15.999926,-0.194059,1.033875,-0.026762,0.048818
6242958073,-1.753382,-13.574508,0.230346,1.033338,-0.028504,0.047834
6242978126,-2.911569,-11.558253,-0.268829,1.033560,-0.027335,0.040552
6242998179,-2.633005,-9.348101,-0.405384,1.030023,-0.036317,0.041994
6243018232,-1.884887,-6.679147,-0.505790,1.018456,-0.041151,0.042422
6243038303,-1.752202,-4.549370,0.002193,1.004022,-0.038314,0.046104
6243058349,-2.051674,-2.929035,0.830400,1.003050,-0.032759,0.053576
6243078388,-2.416293,-1.849762,1.402810,1.002648,-0.039295,0.047651
6243098441,-2.263226,-0.504861,1.428437,1.003086,-0.035551,0.048883
6243118494,-2.369783,0.645385,2.152091,0.998961,-0.029372,0.049600
6243138547,-2.898477,1.310372,2.210617,0.995451,-0.022772,0.054225
6243158600,-3.150862,1.896587,1.534158,0.996457,-0.023229,0.053874
6243178653,-2.672791,2.443228,1.047053,0.992105,-0.025100,0.050774
6243198706,-2.800447,2.295654,0.653501,0.988927,-0.027665,0.049782
6243218758,-3.011395,1.771515,0.822118,0.992209,-0.032619,0.052316
6243238811,-2.837591,1.753241,1.352647,1.003795,-0.046866,0.058107
6243258864,-4.010295,2.890272,2.288930,1.019440,-0.059508,0.054820
6243278917,-6.590664,3.188407,1.682490,0.983488,-0.043229,0.067828
6243298970,-4.891597,3.603985,3.211412,0.960717,-0.047166,0.081981
6243319023,-5.444843,4.411572,6.626933,1.029467,-0.048770,0.111933
6243339075,-3.891685,6.426665,5.543234,1.041125,-0.067524,0.107507
6243359128,-3.484755,10.683533,4.793264,1.042135,-0.051802,0.113967
6243379181,-5.302769,15.310108,7.172909,1.029620,-0.014612,0.130806
6243399234,-9.190713,18.561138,9.065386,1.017452,0.020548,0.151762
6243419287,-9.076505,23.529509,8.282751,1.051543,-0.001649,0.163712
6243439340,-5.417730,31.920284,4.811710,1.094952,-0.066171,0.162404
6243459393,-0.929335,40.931541,0.163502,1.089338,-0.097349,0.155817
6243479445,4.931478,43.220016,-4.151284,1.022300,-0.090771,0.111278
6243499498,4.760173,42.159828,-3.556412,0.996033,-0.123780,0.145283
6243519551,2.007504,41.223793,0.123572,1.012247,-0.134664,0.246315
6243539604,0.881277,41.106796,3.186268,1.043885,-0.086517,0.330413
6243559658,2.289586,39.672211,2.970929,1.013813,-0.086095,0.390270
6243579711,3.591810,35.251419,2.447600,0.957186,-0.066042,0.429080
6243599764,1.925886,29.246841,1.847400,0.868297,-0.050813,0.453176
6243619816,-1.456730,21.523987,0.222983,0.810037,-0.041866,0.465202
6243639869,-2.602685,12.757645,-1.853359,0.767694,-0.059036,0.465464
6243659922,-3.004294,4.375022,-4.044968,0.733249,-0.075658,0.471138
6243679975,-4.467807,-3.060165,-6.580523,0.720410,-0.057679,0.459569
6243700028,-5.747600,-9.293242,-8.892915,0.736876,-0.040008,0.441031
6243720080,-6.466556,-14.035808,-10.187480,0.777090,-0.060953,0.418656
6243740133,-4.728963,-17.493944,-10.198910,0.839218,-0.080270,0.405142
6243760186,-3.714652,-19.520462,-9.972492,0.907715,-0.074513,0.396927
6243780239,-4.129992,-19.407663,-8.517576,0.965255,-0.056379,0.385401
6243800292,-4.676393,-17.435787,-7.069020,0.998322,-0.039904,0.350454
6243820345,-4.395171,-14.883563,-5.941069,1.035197,-0.062563,0.323076
6243840397,-4.817032,-12.299076,-3.789824,1.071342,-0.076973,0.307231
6243860450,-3.776927,-10.306255,-0.674524,1.079671,-0.075680,0.301095
6243880516,-1.104204,-8.221857,0.833149,1.063046,-0.069723,0.288094
6243900554,0.062026,-6.947306,0.691927,1.047109,-0.060955,0.280972
6243920607,-0.038637,-6.261362,0.022651,1.016502,-0.044622,0.284201
6243940660,1.034013,-5.795447,-0.638700,0.982016,-0.046080,0.289245
6243960713,4.604959,-5.429769,-1.725001,0.949992,-0.071029,0.290397
6243980766,7.284445,-4.917749,-2.758442,0.929374,-0.077174,0.295866
6244000819,6.598012,-4.461409,-3.115985,0.922299,-0.050855,0.307690
6244020872,5.821394,-4.615913,-2.736233,0.927832,-0.037513,0.305848
6244040924,7.075559,-4.738403,-1.796459,0.936788,-0.063928,0.299764
6244060977,6.784690,-4.406371,-1.812659,0.957929,-0.050327,0.294576
6244081030,2.664655,-4.413117,-1.022982,0.974234,0.000844,0.287011
6244101083,-0.103623,-5.276901,-0.299035,0.978535,0.003030,0.267567
6244121136,-1.210182,-6.360599,-0.052387,0.976076,-0.038830,0.256946
6244141188,0.017663,-7.846771,-1.032960,0.969842,-0.069060,0.246891
6244161241,2.278084,-9.533381,-3.559311,0.978279,-0.063929,0.235803
6244181294,3.053759,-10.100086,-5.134054,0.989843,-0.045056,0.213127
6244201347,3.400498,-9.752065,-4.483583,0.979330,-0.041839,0.185387
6244221400,2.949436,-9.390233,-4.424041,0.983441,-0.020057,0.157535
6244241452,1.098095,-7.759766,-3.989432,1.008559,0.013172,0.132789
6244261505,-1.552706,-6.133947,-3.463579,1.027173,0.035366,0.118941
6244281558,-2.404502,-4.720323,-3.536362,1.051233,-0.002221,0.123545
6244301611,-1.180819,-3.763046,-4.684512,1.054735,-0.032075,0.132005
6244321664,-0.686668,-2.970921,-5.983417,1.056833,-0.024315,0.127931
6244341717,-1.347518,-1.730127,-5.972303,1.037398,-0.000138,0.118788
6244361770,-2.170842,-0.341491,-5.226482,1.009525,-0.000747,0.099421
6244381822,-3.138258,0.362484,-3.356567,0.989932,0.022416,0.102104
6244401877,-6.588170,1.292875,-1.532036,0.974731,0.040732,0.089060
6244421930,-7.736012,3.351101,-0.212409,0.972946,-0.011046,0.077287
6244441982,-6.280489,5.695890,0.514160,0.970504,-0.063965,0.100330
6244462035,-3.172185,7.891433,1.142139,0.996704,-0.070268,0.113040
6244482088,-1.937856,10.325876,1.868477,1.013952,-0.011467,0.111573
6244502141,-1.136213,13.860576,2.954965,0.983721,0.019867,0.089911
6244522194,1.333807,16.401733,2.475448,0.977368,-0.023017,0.090908
6244542247,3.609441,18.415588,1.649185,0.992242,-0.030274,0.076646
6244562300,4.650015,19.200235,1.001905,1.000994,-0.003474,0.094303
6244582353,5.160306,19.367798,0.561570,1.008122,0.008125,0.116576
6244602406,5.513215,19.981853,1.256594,1.029056,-0.017408,0.119565
6244622459,5.135478,19.893528,3.280612,1.027091,-0.032355,0.135720
6244642511,5.009577,19.464212,2.751609,1.031564,-0.021185,0.160252
6244662564,3.396044,18.534843,1.520006,1.012246,0.004360,0.176997
6244682617,1.457356,16.769613,-1.891342,0.996306,0.042671,0.170987
6244702669,-0.727478,16.639961,-4.520029,0.990173,0.049034,0.172142
6244722722,-3.386716,16.779314,-3.746524,0.947616,0.028512,0.179531
6244742773,-6.270348,16.022648,-2.772800,0.921899,0.005110,0.192616
6244762827,-7.340100,15.369698,-2.876281,0.913420,-0.015205,0.202879
6244782879,-5.168389,15.198089,-3.444872,0.929376,-0.033257,0.196021
6244802932,-2.368231,15.432232,-0.536340,0.966981,-0.056651,0.199921
6244822985,-0.303946,14.868150,2.958781,0.947102,-0.017953,0.228052
6244843038,-2.243129,12.192809,4.476891,0.930869,0.047833,0.211816
6244863091,-2.303925,10.040242,2.695696,0.972618,0.013123,0.198790
6244883144,-2.410718,8.915230,4.973297,1.001657,-0.031626,0.197333
6244903196,-3.087308,7.566387,7.259448,0.978412,0.018196,0.203226
6244923249,-3.129971,6.317818,5.550921,0.983814,0.040795,0.187916
6244943302,0.025395,5.882311,1.860364,1.001196,-0.010414,0.187632
6244963355,0.775835,5.718756,0.435821,0.991174,-0.045313,0.188419
6244983408,-2.156022,4.900514,2.523881,0.983773,0.023393,0.203658
6245003461,-6.270217,4.418185,4.929513,0.987072,0.072656,0.191751
6245023513,-7.684000,4.486586,4.005139,0.973550,0.028684,0.187619
6245043566,-5.760465,4.680965,1.548214,0.951769,-0.042149,0.206189
6245063619,-1.569138,4.058942,0.897099,0.984587,-0.054294,0.196838
6245083672,1.693582,4.341794,1.433088,0.992822,-0.059439,0.178779
6245103725,2.461385,5.612638,2.315178,0.975195,-0.058588,0.183824
6245123778,3.122706,6.702607,3.516245,0.968630,-0.037269,0.188984
6245143830,2.024817,7.640828,5.347504,0.989446,-0.008028,0.184703
6245163883,-0.519316,8.149707,8.006856,1.003100,0.003147,0.182581
6245183936,-3.772066,7.707264,9.828469,1.031090,-0.001579,0.184561
6245203989,-4.839375,6.665912,9.529272,1.031451,-0.028041,0.182870
6245224042,-4.841093,4.308187,8.855290,1.006686,-0.024564,0.175656
6245244094,-4.473036,0.363688,6.587489,0.991157,-0.043868,0.175042
6245264149,-1.146105,-4.572400,4.125013,0.956488,-0.099673,0.191802
6245284202,3.052195,-10.494067,2.173419,0.956195,-0.182573,0.221024
6245304254,9.479164,-15.358589,-4.170814,0.866278,-0.181529,0.225282
6245324307,13.243923,-20.695362,-4.426584,0.840187,-0.136294,0.190219
6245344360,16.172928,-22.415985,-3.428838,0.835498,-0.124288,0.159873
6245364413,17.768841,-23.539234,-0.234785,0.806762,-0.068011,0.135025
6245384466,15.943428,-23.284916,4.638247,0.817359,-0.022724,0.155388
6245404518,16.174915,-23.587442,6.973527,0.905682,-0.019505,0.125349
6245424571,19.703379,-30.908310,7.740256,0.933901,-0.049426,0.023105
6245444624,18.959167,-39.919003,3.830508,0.936697,-0.041102,-0.069219
6245464677,17.891560,-47.546822,1.636532,1.012298,-0.015452,-0.117240
6245484730,13.595375,-48.699451,5.075275,1.155884,0.028590,-0.077197
6245504783,12.014388,-46.240524,-0.601704,1.213497,0.028259,-0.045429
6245524835,12.432697,-38.850960,-2.984370,1.209946,-0.012073,-0.057075
6245544888,12.313437,-30.369833,-2.680078,1.159325,-0.018130,-0.034370
6245564941,13.486897,-23.973034,-0.777476,1.094698,-0.005071,-0.058064
6245584996,14.381454,-21.952488,-0.322435,1.053776,0.007623,-0.066317
6245605045,12.819645,-20.065861,-0.495127,1.051053,-0.001575,-0.048235
6245625098,10.507412,-17.355793,-0.533971,1.005563,0.007203,-0.037299
6245645151,7.047460,-15.107181,-0.328297,0.976862,0.043436,0.004158
6245665204,1.253724,-13.046125,-0.954845,0.961407,0.051585,0.023767
6245685257,-2.097948,-12.671876,-0.735171,0.951533,0.011048,0.017804
6245705309,-3.281618,-13.318700,-0.952318,0.945670,-0.017212,0.005639
6245725362,-2.514986,-15.265399,-2.249459,0.945032,-0.015490,-0.026468
6245745415,-2.438864,-17.671818,-3.499301,0.960416,-0.021885,-0.050460
6245765468,-3.639954,-19.299366,-3.917693,0.983193,-0.017327,-0.065711
6245785521,-5.324227,-20.373722,-3.996770,1.002243,-0.012446,-0.083173
6245805574,-6.607058,-21.365648,-3.462376,1.010552,-0.009933,-0.086688
6245825626,-7.466453,-21.403025,-3.681736,1.031777,-0.012862,-0.097864
6245845679,-7.666701,-20.633696,-4.267896,1.039210,-0.027849,-0.098728
6245865732,-6.686512,-18.557241,-4.661922,1.034851,-0.043326,-0.093854
6245885785,-6.021938,-16.331736,-3.972559,1.050343,-0.046758,-0.075619
6245905838,-6.263612,-12.450129,-3.371954,1.052402,-0.035656,-0.074733
6245925890,-7.259271,-8.744883,-2.270266,1.047074,-0.008607,-0.050181
6245945943,-7.785568,-5.776314,-1.696732,1.030164,-0.008498,-0.027127
6245965996,-7.666728,-3.747483,-1.529448,1.030001,-0.022348,-0.023514
6245986049,-7.110623,-2.234039,-1.678858,1.020151,-0.037734,-0.030586
6246006102,-5.516962,-1.079554,-2.039605,1.007460,-0.038800,-0.026937
6246026155,-4.961596,0.668166,-2.356560,1.022396,-0.037197,-0.025123
6246046208,-3.774715,2.345637,-2.430966,1.022008,-0.029833,-0.024757
6246066260,-3.618688,3.874393,-0.950813,1.014754,-0.015020,-0.023344
6246086313,-3.365848,5.382923,-1.562416,1.013992,-0.015394,-0.017619
6246106368,-2.972121,6.582942,-3.082481,1.010723,-0.025175,-0.014893
6246126420,-1.982304,6.611176,-3.242083,1.011354,-0.020555,-0.015942
6246146473,-1.800806,6.420270,-2.407803,1.011810,-0.016587,-0.018075
6246166526,-1.264801,6.026031,-2.876528,1.010950,-0.018115,-0.010429
6246186579,-0.927752,5.678061,-3.027025,1.009534,-0.019356,-0.001609
6246206632,-0.331527,5.360852,-3.382352,1.011698,-0.025788,0.005752
6246226685,0.737285,5.112605,-4.124609,1.017992,-0.022264,0.003392
6246246738,1.270650,5.002265,-4.116837,1.020545,-0.015766,-0.000027
6246266791,1.762400,4.109338,-4.166985,1.019618,-0.016943,-0.012381
6246286844,1.639794,2.832095,-4.329277,1.023723,-0.010805,-0.015876
6246306901,0.944349,2.163333,-4.917888,1.033068,-0.002737,-0.012177
6246326949,1.342783,2.391998,-6.381555,1.037286,-0.012890,-0.011212
6246347002,2.372304,2.663948,-7.656117,1.038126,-0.021507,-0.010379
6246367055,2.038936,5.139890,-7.149163,0.956207,-0.017562,0.043344
6246387108,3.470350,13.002774,-7.767917,0.994616,-0.064703,0.108599
6246407160,6.108346,14.362806,-9.115002,0.954895,-0.051681,0.097624
6246427213,7.340290,14.066190,-8.076095,0.917488,-0.020248,0.071274
6246447265,7.806530,10.536331,-4.918827,0.939077,0.007627,0.060290
6246467317,7.230192,9.087481,-2.943104,0.954452,0.034531,0.052271
6246487370,5.430811,7.219731,-1.117088,0.965008,0.042992,0.051430
6246507423,3.402441,5.494532,0.678201,0.975420,0.047067,0.061636
6246527476,0.834013,3.937379,1.995625,1.001859,0.050137,0.075420
6246547529,-0.420833,2.400628,1.584518,0.996806,0.055815,0.079318
6246567581,-1.494258,0.973122,1.453391,1.001525,0.045734,0.072470
6246587634,-2.153085,0.000652,2.017816,1.002996,0.024738,0.065271
6246607687,-2.044538,-0.318446,1.867298,1.001829,-0.001600,0.059842
6246627740,-1.228630,-0.204191,1.085986,0.995621,-0.019224,0.054548
6246647793,0.600454,-0.295300,0.395975,0.992929,-0.008560,0.057314
6246667846,2.640009,0.018905,-0.045402,0.997918,0.002158,0.056317
6246687898,3.897151,-0.088338,-0.295578,0.985828,0.010296,0.061863
6246707951,3.562586,-0.413838,0.198293,0.989617,0.019241,0.064149
6246728004,3.052284,-0.731356,0.934725,0.996642,0.016717,0.064501
6246748057,2.716797,-0.739650,1.169818,1.004971,0.012147,0.061250
6246768110,2.191474,-0.840284,1.405297,1.003422,0.016833,0.058822
6246788162,2.001649,-0.970149,1.474021,1.005463,0.012421,0.054888
6246808215,2.457629,-0.537958,0.919108,1.004137,0.006003,0.051045
6246828268,2.347747,0.189345,0.795377,1.000765,0.006896,0.050465
6246848321,1.681641,0.906912,0.906822,1.004832,0.012131,0.053796
6246868374,0.742732,1.312258,1.148281,1.002347,0.015071,0.056471
6246888427,0.452931,1.184240,1.611140,1.008889,0.018115,0.058664
6246908479,-0.170924,1.111934,1.626766,1.013930,0.014723,0.055739
6246928532,-0.368347,1.049479,1.558839,1.010018,0.004411,0.059557
6246948585,-0.025115,0.945007,1.490868,1.001480,-0.003263,0.057950
6246968640,0.058057,0.924411,1.748595,0.993082,-0.011015,0.063524
6246988692,-0.676668,1.086867,2.983662,0.991423,0.001926,0.060181
6247008745,-1.395117,1.479337,3.361509,1.001078,0.013877,0.055749
6247028798,-1.504095,2.001962,3.283957,1.002287,0.012921,0.052224
6247048851,-0.950512,2.198109,3.715088,0.999568,0.007642,0.051993
6247068904,-0.272546,2.373734,3.176140,0.998503,-0.010563,0.056195
6247088956,0.744198,2.182178,1.850126,0.992261,-0.028194,0.056810
6247109009,0.769421,1.914042,1.441777,0.998702,-0.016015,0.056078
6247129062,0.904248,1.935250,2.252605,1.005482,0.015894,0.049940
6247149115,0.334736,1.658231,2.253760,0.999514,0.029514,0.050286
6247169168,-0.408151,1.570922,1.223583,0.990166,0.016672,0.049550
6247189220,-0.822672,1.100704,0.528084,1.000407,0.001015,0.052258
6247209273,-1.663871,0.381262,0.477805,1.005976,-0.009458,0.056054
6247229326,-2.329303,-0.481224,0.435536,0.989338,-0.005594,0.061980
6247249379,-2.275882,-1.212217,-1.161124,0.982908,-0.005761,0.070389
6247269431,-1.331873,-2.012440,-2.621436,0.977794,-0.010624,0.074226
6247289484,-0.132229,-2.668286,-3.127386,0.979538,-0.014077,0.073915
6247309536,0.576805,-3.116406,-2.694090,0.984336,-0.021782,0.068040
6247329589,0.925175,-3.177310,-1.883053,0.994322,-0.027021,0.062264
6247349642,1.355867,-2.889280,-1.202091,1.004759,-0.020518,0.051538
6247369694,1.487530,-2.252935,-0.355486,1.022545,0.000248,0.039609
6247389747,0.897094,-1.698764,0.249128,1.021341,0.011659,0.037196
6247409800,0.194518,-1.210288,0.187059,1.007398,0.011615,0.036280
6247429853,-0.468404,-0.912929,-0.124471,0.999083,0.006862,0.041911
6247449906,-1.276448,-0.847771,0.209062,0.994766,-0.000018,0.050776
6247469958,-1.665077,-0.856750,0.391124,0.990642,-0.003133,0.055963
6247490011,-1.723366,-1.125960,-0.100561,0.994910,-0.003083,0.058810
6247510064,-1.355637,-1.391809,-0.501458,1.002939,-0.005697,0.059079
6247530117,-1.177545,-1.825480,-0.833500,0.996222,-0.003978,0.053195
6247550170,-2.107803,-1.632593,-0.583734,0.996575,0.005163,0.050638
6247570223,-5.379474,-0.986252,0.559607,1.007459,0.026032,0.034205
6247590275,-6.182310,-0.922690,1.832934,0.990497,0.004677,0.030151
6247610328,-7.398989,0.412392,1.722654,1.005525,-0.016496,0.027594
6247630381,-10.714985,1.752587,0.991618,1.023593,0.008171,0.027982
6247650434,-10.487811,2.169397,0.641470,1.007974,0.017860,0.028123
6247670487,-7.155684,1.794488,-0.859039,1.022875,-0.002826,0.047008
6247690540,-3.890177,1.287058,-2.836542,1.009217,-0.026802,0.056187
6247710593,-2.089468,1.018224,-3.988247,1.002990,-0.037974,0.051001
6247730645,0.210514,1.120174,-4.648773,0.998060,-0.030572,0.048426
6247750698,1.888544,1.756198,-4.249868,0.992199,0.004251,0.051072
6247770751,3.095670,2.454152,-4.373959,0.977339,0.016939,0.044730
6247790804,4.819626,3.659793,-5.182086,0.987102,0.006798,0.032920
6247810858,5.983069,5.368582,-5.082276,1.002216,-0.009401,0.028670
6247830911,7.525073,6.091308,-5.236886,1.027206,-0.013303,0.044343
6247850964,8.609310,6.255122,-6.859727,1.036865,-0.017471,0.062818
6247871017,9.476754,5.470495,-8.176064,1.033517,-0.003515,0.067177
6247891070,9.733117,4.304655,-7.922031,1.011973,0.037233,0.067280
6247911123,9.356865,2.649303,-6.392827,0.987727,0.045148,0.078104
6247931175,9.133420,1.391007,-5.857885,0.974619,0.029736,0.082552
6247951228,9.824999,0.187217,-6.051032,0.981530,0.004314,0.082714
6247971281,11.372753,-0.356418,-5.981490,0.981279,-0.021402,0.076102
6247991334,12.082164,-0.407999,-6.466614,0.991178,-0.020606,0.066621
6248011387,12.767086,-0.545695,-6.140484,0.994046,0.002164,0.063742
6248031440,12.601479,-0.307734,-4.360191,0.985590,0.031991,0.060519
6248051492,12.570708,0.101392,-2.065166,0.976383,0.050013,0.051429
6248071546,11.801683,0.400517,0.404813,0.958766,0.052644,0.053910
6248091605,11.368919,0.256100,3.217255,0.975266,0.043118,0.058681
6248111651,11.225135,0.369185,5.634604,1.005614,0.038247,0.062861
6248131704,11.084023,0.535762,6.907343,1.019305,0.041216,0.058743
6248151779,12.738781,-0.165732,7.113813,1.032587,0.033553,0.067287
6248171808,13.039474,-1.106620,4.487052,1.027679,0.050648,0.056239
6248191860,12.587107,-1.281217,0.167806,0.958948,0.063431,0.032974
6248211913,10.879468,-1.956979,-0.481058,0.990046,0.038985,0.027751
6248231966,12.435218,-1.294135,-2.909153,1.022448,-0.015886,0.048702
6248252019,15.991574,-1.297559,-3.524282,0.987464,-0.019047,0.061850
6248272072,17.422182,-1.793293,-5.357183,0.998093,0.013594,0.036282
6248292125,15.504237,-1.974870,-8.069152,1.005004,0.073633,0.040453
6248312177,7.212139,-0.679407,-9.525872,0.988869,0.134156,0.056633
6248332230,-3.699203,0.934512,-8.345296,0.986836,0.164388,0.061722
6248352283,-13.521906,1.760214,-5.684487,1.000204,0.182001,0.058705
6248372336,-21.505228,1.843392,-3.491660,1.004846,0.203048,0.049406
6248392389,-27.502901,1.728419,-3.466427,0.994653,0.207044,0.044470
6248412442,-32.988522,1.446750,-3.918273,0.979894,0.180966,0.040214
6248432494,-39.690300,0.905504,-4.543115,0.978494,0.156284,0.042580
6248452547,-45.927536,0.651689,-5.813321,0.981239,0.147333,0.045248
6248472600,-50.902073,0.475652,-6.894764,0.982533,0.147024,0.042443
6248492653,-54.894958,0.464157,-8.181749,0.983490,0.131941,0.042261
6248512706,-58.559383,-0.200466,-8.648070,0.973615,0.117283,0.054448
6248532758,-62.573372,-1.828664,-7.466317,1.002710,0.126699,0.047638
6248552811,-66.315956,-2.503790,-7.114048,1.006341,0.142893,0.042206
6248572864,-68.958496,-2.858941,-8.915690,1.017252,0.127159,0.039375
6248592917,-72.675003,-2.758354,-8.376629,1.029573,0.102755,0.033655
6248612970,-77.043671,-2.161944,-6.793153,1.004065,0.156194,0.019496
6248633023,-82.921371,-2.695211,-8.206523,0.972130,0.208643,0.013391
6248653075,-90.714478,-2.644192,-8.886076,0.967909,0.187601,-0.002482
6248673128,-97.810181,-2.113074,-6.407103,0.982767,0.126846,-0.002855
6248693183,-102.298172,-2.183387,-4.487812,0.993174,0.110144,0.003047
6248713235,-106.098434,-2.761790,-5.583437,0.984089,0.106529,-0.000611
6248733288,-108.711563,-2.821734,-7.552845,0.988369,0.111962,-0.002552
6248753341,-110.551743,-3.520701,-6.935897,0.970256,0.083707,0.006735
6248773394,-111.411552,-5.536874,-3.146748,0.967942,0.083424,0.012721
6248793447,-113.161346,-7.376342,-2.897270,0.995040,0.105443,-0.001975
6248813499,-116.309044,-7.919064,-6.221460,1.016914,0.123098,-0.009749
6248833552,-119.054245,-7.853406,-7.403043,0.998728,0.143101,-0.012291
6248853605,-123.276192,-9.192032,-5.835687,1.002309,0.110260,-0.015793
6248873658,-124.580879,-10.913897,-4.260452,1.020841,0.089221,-0.009511
6248893711,-122.815331,-12.089911,-4.772388,1.020468,0.074584,-0.016433
6248913764,-120.516922,-12.786569,-3.270158,1.006863,0.057477,-0.035326
6248933816,-117.072968,-13.061420,-1.080098,0.996967,0.043696,-0.050960
6248953869,-113.274246,-11.684379,-0.942173,1.008438,0.033384,-0.043125
6248973922,-109.807617,-9.780400,0.027738,1.008808,-0.020346,-0.032776
6248993975,-103.181313,-6.470414,-2.017148,1.023652,-0.026140,-0.027242
6249014043,-98.158699,-5.205067,-3.993796,1.031941,-0.026556,-0.025815
6249034079,-93.173019,-4.733718,-7.832119,1.021636,-0.026170,-0.009897
6249054132,-89.152016,-5.698382,-9.664310,1.015045,-0.032485,0.013487
6249074185,-84.905472,-7.558195,-11.622339,1.006229,-0.020982,0.018745
6249094237,-81.820999,-9.135727,-12.163668,0.998537,-0.009639,0.018922
6249114290,-79.488831,-10.050209,-11.524700,0.993365,0.001605,0.024572
6249134343,-78.086464,-10.877892,-10.605286,0.991867,0.014958,0.024589
6249154396,-76.742119,-11.810459,-10.602543,0.978532,0.007193,0.017313
6249174449,-73.569527,-12.704605,-11.214468,0.970330,-0.008028,0.008797
6249194502,-70.234451,-13.435570,-10.205115,0.976098,-0.002662,0.001869
6249214555,-69.229767,-13.530279,-7.021979,0.997872,-0.001858,0.003922
6249234607,-69.183998,-12.926684,-5.265757,1.015433,0.020636,-0.001485
6249254660,-70.192963,-12.668003,-4.137030,1.022679,0.046296,-0.006274
6249274713,-71.337257,-12.496790,-3.493008,1.034879,0.071172,-0.015837
6249294766,-72.896194,-11.682042,-2.699479,1.028687,0.080342,-0.021713
6249314819,-74.498734,-11.247591,-1.972835,1.021473,0.078462,-0.018652
6249334872,-76.009315,-10.904021,-1.306542,1.006667,0.059173,-0.018261
6249354925,-75.095818,-10.898292,-1.344777,0.994826,0.037430,-0.024819
6249374977,-72.380180,-9.811431,-2.751580,1.014080,0.012762,-0.031031
6249395030,-69.251808,-8.032527,-3.198384,1.009958,-0.013943,-0.029934
6249415083,-66.231239,-6.948759,-1.816227,0.999191,-0.029191,-0.020745
6249435136,-64.053963,-6.249360,-0.318766,0.994238,-0.007708,-0.010759
6249455189,-61.748329,-5.276594,1.056445,0.994308,0.023777,-0.007306
6249475242,-60.012966,-4.444012,2.462655,0.990120,0.034799,0.001716
6249495294,-59.015285,-3.182911,2.768697,0.993022,0.022843,0.010237
6249515347,-58.809082,-3.183246,2.503362,1.001567,0.009749,0.020992
6249535401,-55.531315,-4.680758,3.606323,0.997869,0.008111,0.014986
6249555455,-53.393028,-5.070284,4.622497,1.003320,0.026755,0.008992
6249575508,-54.557789,-5.452429,5.420013,1.010368,0.023724,0.005624
6249595560,-53.068947,-6.518730,5.733902,1.003521,0.007134,0.015673
6249615613,-49.233414,-7.702788,5.410745,0.996027,0.016403,0.029691
6249635666,-47.023716,-8.934953,3.966636,0.990017,0.048166,0.028099
6249655719,-44.425667,-10.037446,2.218786,1.013612,0.047988,0.031086
6249675772,-40.943035,-8.888730,1.395081,1.021795,-0.011060,0.017649
6249695824,-35.623867,-6.826141,3.917483,0.993180,-0.103376,0.015243
6249715886,-28.313181,-5.523763,9.011073,0.985053,-0.162711,0.016054
6249735930,-19.619953,-4.370199,9.564898,1.004296,-0.151410,0.009153
6249755983,-11.263531,-3.090317,7.640085,1.022433,-0.117578,0.008708
6249776036,-3.575681,-2.264235,9.066970,1.017638,-0.129405,0.008356
6249796088,3.907801,-1.322300,9.819000,1.012113,-0.115751,0.010976
6249816141,10.062006,-0.643278,9.988821,1.016842,-0.095466,0.018319
6249836194,14.185403,0.543737,8.558443,1.005900,-0.075056,0.024094
6249856246,15.350181,1.203309,7.214287,1.001572,-0.035590,0.027242
6249876298,16.421654,1.424607,7.485991,1.003102,-0.010329,0.033595
6249896351,17.631287,1.464033,7.667327,1.001903,-0.011021,0.036230
6249916404,20.782871,1.573760,7.355108,0.993688,-0.030178,0.032031
6249936457,24.410046,1.227688,6.506187,0.985060,-0.033342,0.028099
6249956510,27.403696,0.859267,6.377567,0.987109,-0.053290,0.030616
6249976563,30.221985,0.617892,6.112148,1.000310,-0.054572,0.034269
6249996616,31.909508,0.416986,7.408251,1.007262,-0.030936,0.034136
6250016668,32.054630,0.454210,7.142808,1.002545,-0.002368,0.031227
6250036721,28.660227,1.045976,5.792903,0.999246,0.025724,0.020245
6250056774,21.117077,1.431601,4.945372,0.994289,0.064808,0.022120
6250076827,15.155528,1.876525,4.635190,1.007884,0.096786,0.019756
6250096880,9.009127,4.473892,3.946286,1.029751,0.064487,0.006834
6250116932,5.687732,8.095561,3.844021,1.018113,0.006661,-0.000668
6250136985,1.632530,9.751604,5.795105,0.997282,-0.034594,0.027654
6250157038,3.611005,8.288561,8.884089,1.055907,0.003296,0.069893
6250177091,8.951306,8.353499,10.026419,1.060524,0.019392,0.083008
6250197144,15.918839,9.138065,10.438119,1.033146,-0.054382,0.093666
6250217197,21.001812,9.917662,9.615125,1.000886,-0.123397,0.094781
6250237250,23.359102,10.411195,9.589862,0.968282,-0.131488,0.093098
6250257302,21.929827,10.232676,9.249925,0.967138,-0.066195,0.084609
6250277355,22.009842,9.361273,9.427216,0.984695,-0.024706,0.085980
6250297408,23.310909,8.355099,8.642015,0.981394,-0.033508,0.093693
6250317461,25.989729,7.275336,8.000587,0.973607,-0.068207,0.101856
6250337514,28.731031,5.674662,7.755037,0.975493,-0.096230,0.105193
6250357567,33.031742,4.229045,7.606934,0.987756,-0.109128,0.103520
6250377621,37.896278,2.793263,7.231230,0.977834,-0.104041,0.098574
6250397674,41.891785,1.677422,6.725885,0.975808,-0.099707,0.084241
6250417726,45.314770,0.869333,6.257576,0.967459,-0.094764,0.075309
6250437779,46.893291,0.257622,6.334920,0.963982,-0.083013,0.071603
6250457832,46.825974,0.074311,6.229470,0.984929,-0.069656,0.068507
6250477885,49.586601,0.765649,5.854753,1.005368,-0.081873,0.055979
6250497938,53.257168,0.732894,5.285158,0.988874,-0.103977,0.050301
6250517990,53.952911,0.114981,5.294623,0.983507,-0.113348,0.037466
6250538043,52.867428,-0.173283,7.645473,1.009958,-0.066732,0.027480
6250558096,49.223129,-1.191114,8.923521,1.016434,0.001285,0.024012
