Timestamp (us),Gyroscope X (deg/s),Gyroscope Y (deg/s),Gyroscope Z (deg/s),Accelerometer X (g),Accelerometer Y (g),Accelerometer Z (g)
8624591736,3.167157,-0.014583,-0.726771,0.849165,0.448401,-0.212104
8624611697,1.879377,-0.329623,-0.601536,0.863642,0.460521,-0.199743
8624631657,2.535490,-0.393443,-1.039458,0.865143,0.449676,-0.219299
8624651617,3.415565,-0.029419,-0.149133,0.861329,0.459271,-0.230999
8624671579,1.690192,-0.813693,0.407954,0.863908,0.467089,-0.222885
8624691540,-1.643908,-0.619582,0.874779,0.857176,0.468780,-0.211471
8624711500,-2.588040,-0.136313,1.440142,0.849269,0.465722,-0.208652
8624751423,-1.037017,0.130157,0.276100,0.840972,0.470250,-0.221900
8624771384,-3.571525,0.001440,0.313454,0.867669,0.462523,-0.221648
8624791345,-3.504568,0.161896,0.791568,0.867807,0.449879,-0.209692
8624811306,-3.308992,-0.485313,0.709698,0.869977,0.444715,-0.200734
8624831267,-3.460534,-0.812715,0.277090,0.865328,0.432487,-0.207267
8624851228,-1.173180,-1.100605,0.672139,0.866053,0.431211,-0.213242
8624871189,1.918360,-0.753428,0.484512,0.871004,0.462038,-0.208921
8624891150,1.596380,-0.061414,-0.041256,0.860576,0.468500,-0.197107
8624911111,0.028916,-1.077299,-0.948057,0.860267,0.444593,-0.197359
8624931073,-0.906014,-0.236691,-0.413555,0.873006,0.449818,-0.210233
8624951034,1.640310,-0.289349,0.133787,0.868980,0.448422,-0.215292
8624970996,2.404067,0.506900,0.218604,0.850058,0.457309,-0.211505
8624990957,1.610385,-0.571371,-0.230182,0.846699,0.460531,-0.204881
8625010918,-0.967220,-0.777272,-0.822777,0.876162,0.444670,-0.205719
8625030879,-0.328397,0.356014,0.262926,0.865244,0.449379,-0.214648
8625050840,1.952822,-0.062029,0.217963,0.865285,0.453456,-0.209341
8625070801,1.704253,-0.069977,-0.344463,0.858362,0.452419,-0.204352
8625110723,3.538303,-0.319763,-0.626426,0.865613,0.447688,-0.199497
8625130684,3.260676,-0.396798,-1.553137,0.854090,0.450440,-0.205946
8625150645,2.681675,-0.905078,-1.850278,0.853227,0.450212,-0.203499
8625170606,2.210784,-1.041094,-2.162796,0.881464,0.449190,-0.209885
8625190566,3.032087,-0.068322,-1.190091,0.885704,0.466650,-0.225027
8625210527,4.864824,1.023364,0.013461,0.870079,0.456493,-0.222052
8625230488,4.414728,0.583439,-0.123979,0.846887,0.460535,-0.210705
8625250449,2.129535,0.451335,-1.368407,0.853267,0.457061,-0.207526
8625270410,0.378464,1.170151,-2.179745,0.854516,0.451858,-0.214339
8625290371,0.234315,2.351318,-1.218132,0.850405,0.479269,-0.220054
8625310332,-2.195317,3.430985,-1.409920,0.851938,0.484765,-0.216109
8625330293,-3.529423,2.704983,-1.504317,0.865943,0.461518,-0.217019
8625350254,-1.623868,2.144641,-1.056997,0.876953,0.436747,-0.224789
8625370216,1.925797,1.513605,0.875798,0.849324,0.428898,-0.221616
8625390177,4.834441,-0.016938,0.743499,0.859110,0.426080,-0.214743
8625410138,4.751609,-0.245618,0.348917,0.849181,0.451320,-0.211423
8625430099,2.034631,-0.008120,0.681107,0.857528,0.468135,-0.205626
8625450060,0.926379,-0.112421,0.002143,0.862309,0.469225,-0.202278
8625470021,-0.291833,0.604589,-0.860558,0.864854,0.456646,-0.209037
8625489982,1.810806,1.465259,-0.649981,0.859503,0.442924,-0.212553
8625509945,4.236834,1.793276,-0.080838,0.857019,0.467476,-0.213729
8625529905,3.681687,1.596828,-0.325240,0.854840,0.485571,-0.214885
8625549866,-0.294607,2.232844,-0.468351,0.848889,0.479623,-0.221817
8625569827,-3.179492,2.311113,-0.166836,0.849514,0.464746,-0.213002
8625589789,-4.820410,1.457665,0.162951,0.864472,0.442277,-0.216002
8625609750,-0.687844,0.883662,1.133732,0.858242,0.433497,-0.224077
8625629711,2.452001,0.463403,1.349650,0.851872,0.453355,-0.213319
8625649672,2.306654,-0.610020,0.561475,0.849198,0.462749,-0.200591
8625669633,0.604695,-0.392347,0.214002,0.858301,0.465682,-0.198742
8625689594,-1.339112,0.541524,0.145467,0.860457,0.471390,-0.204715
8625709555,-0.972187,1.263371,0.418820,0.849182,0.461056,-0.216955
8625729514,-0.016287,0.705412,0.544243,0.844868,0.460856,-0.215027
8625769437,-2.588644,-0.139425,-0.100505,0.854033,0.455909,-0.204943
8625789397,-4.336808,-1.296957,0.115540,0.869659,0.455035,-0.197722
8625809359,-3.626094,-0.302551,0.328906,0.871305,0.448791,-0.207060
8625829320,-0.111640,-0.686701,0.189306,0.847760,0.457912,-0.215381
8625849281,2.006761,-2.078066,-0.059654,0.853735,0.460906,-0.211587
8625869242,-0.485201,-1.271823,-0.175345,0.859462,0.474602,-0.203329
8625889203,-3.723925,-0.630324,-0.202186,0.856237,0.467876,-0.199362
8625909164,-5.078830,-1.265736,-0.661078,0.848815,0.441862,-0.205720
8625929125,-2.109967,-2.506671,-0.391373,0.847637,0.448124,-0.213493
8625949086,-1.193697,-1.543448,-0.230407,0.879793,0.485848,-0.209332
8625969047,-6.735470,-0.400473,-0.356680,0.868237,0.489501,-0.191483
8625989008,-9.170518,-0.514512,-0.425272,0.876894,0.437785,-0.209782
8626008969,-2.913979,-0.059639,1.234037,0.852798,0.422951,-0.209344
8626028930,3.258571,-1.729977,1.059606,0.845816,0.455200,-0.209545
8626048893,3.664583,-1.770584,0.423498,0.863392,0.482934,-0.221332
8626068854,-2.100214,0.048834,-0.250961,0.865938,0.537120,-0.212703
8626088815,-13.329697,5.353703,-0.850025,0.875878,0.592508,-0.209876
8626108776,-23.403198,9.157644,-0.987662,0.888576,0.618791,-0.224917
8626128737,-31.228161,11.169045,-0.234817,0.926997,0.646625,-0.252442
8626148698,-40.394958,16.329899,-1.100069,0.938642,0.671315,-0.265291
8626168659,-51.516563,18.971527,-6.043529,0.853509,0.651319,-0.244579
8626188620,-59.655159,19.287418,-13.121460,0.843132,0.583857,-0.227910
8626208581,-63.272057,22.425510,-16.431906,0.809133,0.559072,-0.168938
8626228542,-68.839073,27.958847,-15.449181,0.800174,0.478491,-0.140919
8626248503,-72.341812,30.130663,-11.274648,0.763338,0.412070,-0.158901
8626268463,-77.599251,32.001163,-4.684439,0.759877,0.432841,-0.158212
8626288424,-95.976074,36.028015,5.805684,0.782313,0.475814,-0.081648
8626308385,-125.064545,43.954342,21.028322,0.788383,0.427242,0.007680
8626328346,-148.318481,55.451115,39.793980,0.754562,0.345203,0.067685
8626348308,-154.903061,61.896767,57.848152,0.737257,0.182748,0.091792
8626368268,-139.728653,66.856140,78.549263,0.761543,0.024888,0.092729
8626388229,-111.854080,63.651356,98.492477,0.787902,-0.093567,0.116917
8626408191,-78.527222,56.983643,114.428917,0.885540,-0.107600,0.146438
8626428152,-53.698627,54.409348,125.435974,0.933592,-0.053096,0.227836
8626448113,-45.523708,50.319481,127.852165,0.935790,0.033054,0.302410
8626468074,-51.957703,50.529945,123.982765,0.929534,0.049042,0.309683
8626507996,-38.510250,22.317997,104.981995,0.956396,-0.032560,0.367971
8626527957,-16.992424,19.546471,95.949959,1.005656,0.018837,0.293452
8626547918,-4.260622,10.545351,87.505341,1.008244,0.122475,0.283516
8626567879,-10.817791,-0.172559,75.865128,0.999439,0.215266,0.344485
8626587841,-24.707764,-2.534031,59.482742,0.974172,0.275276,0.402320
8626607802,-33.942799,-7.816546,42.558506,0.972778,0.277731,0.345340
8626627763,-25.706518,-10.802936,34.158348,0.980528,0.186670,0.321204
8626647724,-13.076858,-12.991212,32.503330,1.087733,0.147375,0.314525
8626667685,-13.083698,-23.505285,22.948774,1.339561,0.282385,0.295351
8626687646,-4.649189,-25.803383,1.714552,1.415892,0.401734,0.311824
8626707607,0.025763,-28.102634,-41.086021,1.344204,0.944898,0.294145
8626727568,-25.674042,-23.169622,-79.224037,1.072572,0.972950,0.204927
8626747529,-51.464394,-17.500296,-76.782875,1.026530,0.264749,0.129356
8626767491,-71.187729,-11.465511,-79.596848,0.856961,-0.067878,0.418631
8626787452,-81.456116,-18.704273,-80.219521,0.887566,-0.095578,0.168133
8626807411,-56.717930,-63.385445,-68.580627,1.144844,-0.051042,-0.222540
8626827390,-12.709287,-44.509903,-93.030327,0.950577,0.472602,-0.163652
8626847334,-18.523529,-48.287502,-101.210106,0.884766,0.688201,0.031217
8626867295,-88.795555,-60.873596,-106.895485,1.049130,0.701023,0.104503
8626887256,-141.311462,-59.881790,-113.073738,1.110648,0.541799,-0.036276
8626907217,-142.758255,-68.755844,-107.395973,1.157501,0.232588,-0.206101
8626927178,-111.902412,-68.846634,-111.073395,1.052434,0.265760,-0.330867
8626947139,-100.223572,-73.763718,-113.562309,0.940548,0.444095,-0.342579
8626967100,-122.401268,-87.231483,-114.480667,0.916475,0.476210,-0.339175
8626987061,-140.581467,-100.919830,-112.858208,0.997720,0.448335,-0.410078
8627007022,-144.910339,-113.816574,-107.813866,1.029254,0.353714,-0.437090
8627026983,-144.050934,-126.313782,-103.845848,1.010357,0.287737,-0.449287
8627046944,-141.931885,-131.905869,-97.963882,0.947515,0.317061,-0.421689
8627066905,-153.491150,-139.631836,-89.581474,0.936449,0.250978,-0.510323
8627086866,-150.255112,-143.246841,-78.257149,0.991831,0.223134,-0.510308
8627106827,-144.689102,-141.319366,-64.003906,1.042295,0.184390,-0.538161
8627126790,-154.036163,-138.547913,-50.818180,1.050947,0.298846,-0.556177
8627146751,-174.763916,-137.664398,-41.522663,1.004895,0.253287,-0.446819
8627166712,-168.277084,-140.869843,-36.897255,1.054804,0.067020,-0.343686
8627186673,-148.310165,-137.045166,-31.979765,1.125561,0.045184,-0.257525
8627206634,-134.421356,-130.489502,-24.961407,1.052021,0.022202,-0.196485
8627226595,-120.463333,-129.352936,-16.257460,1.054307,0.054593,-0.080778
8627246556,-120.921883,-111.157204,-14.608910,1.034637,0.169129,0.004951
8627266517,-133.736481,-98.250359,-7.885613,0.902567,0.157387,-0.071131
8627286478,-150.842880,-90.391022,4.416851,0.932483,0.136240,-0.134798
8627306439,-172.606003,-75.815742,21.042620,0.912907,0.192656,-0.076254
8627326401,-214.535126,-79.832329,33.204906,0.987932,0.443458,0.020909
8627346360,-262.370636,-65.634102,40.303856,1.081788,0.594687,-0.001793
8627366321,-299.313019,-61.544655,37.367577,0.995885,0.540320,-0.063307
8627386282,-333.636475,-72.547485,29.005728,1.028318,0.464819,-0.062568
8627406243,-343.359436,-77.866119,12.254486,0.969421,0.529040,-0.039021
8627426204,-337.062164,-78.019501,2.758403,0.967515,0.481112,-0.017053
8627446165,-317.969391,-73.358582,-5.139170,0.972296,0.306162,0.013583
8627466126,-277.415100,-69.031395,-12.540316,0.953367,0.149805,0.061965
8627486087,-225.798386,-69.179970,-11.997638,0.927266,0.073041,0.071577
8627506049,-179.779938,-73.497574,-2.246095,0.943824,0.087855,0.064444
8627526010,-152.620209,-77.818474,9.932457,1.025634,0.106848,0.034945
8627545971,-149.151886,-75.867569,13.652225,1.056525,0.137152,0.034287
8627565932,-162.441772,-68.701279,12.679280,1.008425,0.185395,0.073137
8627585893,-190.378967,-68.970528,8.390414,0.980853,0.201472,0.058982
8627605854,-216.214859,-71.574974,3.421348,1.005304,0.157931,0.026542
8627625815,-228.058502,-73.578781,-5.851110,1.036185,0.105020,0.072868
8627645776,-228.366135,-76.195457,-14.151031,1.016907,0.067085,0.175490
8627665738,-227.919022,-79.323112,-18.212803,0.989687,0.030554,0.181872
8627685699,-217.385635,-75.596817,-20.437618,0.937373,0.041687,0.185101
8627705660,-203.979080,-72.667328,-21.035202,0.924897,0.062713,0.196821
8627725621,-193.508575,-69.367447,-19.859531,0.921257,0.018106,0.177270
8627745582,-178.524216,-65.264175,-16.666542,0.940057,-0.017330,0.160529
8627765543,-164.568405,-62.177933,-14.090172,0.999637,-0.003550,0.150468
8627785505,-161.598541,-55.303726,-13.475890,1.015817,0.049829,0.138417
8627805466,-174.777130,-51.390541,-13.388679,1.002285,0.118936,0.136582
8627825427,-196.008163,-46.577904,-13.708893,1.033342,0.136720,0.119012
8627845388,-212.917496,-40.049549,-12.446382,1.046594,0.087784,0.088913
8627865370,-219.759277,-35.630287,-11.572455,1.044941,0.043307,0.048543
8627885308,-217.991318,-36.018051,-12.499531,1.048229,0.041911,0.036241
8627905270,-210.702911,-34.528172,-12.606692,1.060792,0.050124,0.041072
8627925230,-206.381424,-30.460722,-13.888691,1.052985,0.042531,0.057172
8627945192,-204.855209,-27.883987,-15.898692,1.050953,0.021281,0.063401
8627965153,-200.833282,-25.554762,-19.782249,1.094787,-0.026275,0.062344
8627985114,-193.778351,-21.804136,-26.754387,1.117351,-0.050091,0.072072
8628005075,-183.592621,-15.699045,-34.053631,1.126376,-0.056712,0.073256
8628025036,-171.278900,-9.672444,-39.197926,1.117898,-0.065539,0.085265
8628044997,-157.540482,-6.486198,-43.931026,1.055853,-0.047271,0.097123
8628064958,-148.595596,-8.200439,-46.395821,1.011140,0.035048,0.093953
8628084919,-149.067001,-10.367879,-43.396320,1.016483,0.113433,0.068545
8628104880,-157.412582,-10.975913,-37.594326,1.056849,0.119485,0.032306
8628124841,-170.437576,-10.707288,-34.389500,1.091669,0.059625,-0.008510
8628144802,-179.909622,-9.816606,-33.860516,1.069109,0.006946,-0.033922
8628164763,-182.292496,-9.187081,-34.696575,1.048385,-0.007902,-0.044531
8628184724,-181.557083,-8.909745,-35.536987,1.062192,-0.028694,-0.070436
8628204687,-182.154816,-7.377983,-34.911331,1.084160,-0.064684,-0.091754
8628224648,-182.892151,-4.518094,-35.859127,1.083257,-0.075736,-0.071101
8628244609,-188.610764,-5.796486,-37.750702,1.095423,-0.062586,-0.039677
8628264570,-198.337387,-8.019474,-39.236687,1.112860,-0.072464,-0.031455
8628284531,-202.776535,-6.947433,-42.615074,1.091690,-0.114672,-0.036069
8628304492,-201.178772,-4.886113,-47.424557,1.074340,-0.157030,-0.029592
8628324453,-195.529510,-3.167768,-49.966091,1.083979,-0.181107,-0.009443
8628344414,-189.125626,0.292238,-51.247887,1.087016,-0.186115,0.029487
8628364375,-188.841980,1.292681,-52.485519,1.059410,-0.191004,0.054831
8628404297,-200.431824,-8.871918,-57.942650,0.890069,-0.168159,0.135948
8628424257,-198.085632,-16.292728,-53.446049,0.889878,-0.343364,0.207839
8628444218,-177.438049,-8.077523,-38.689407,0.846926,-0.571649,0.187661
8628464179,-109.245056,-15.724333,-15.600907,0.581272,-0.737807,0.068405
8628484140,-17.493746,-54.657169,-3.893348,0.414541,-0.781276,-0.125717
8628504102,27.314800,-99.512360,-20.299046,0.834034,-0.193702,-0.302214
8628524062,-8.723074,-134.912125,-31.544436,2.000189,1.280023,-0.257340
8628544024,-161.275162,-13.043816,-58.436932,1.762299,1.796090,1.019644
8628563984,-392.629395,42.087715,-87.493698,1.335846,0.964501,0.784039
8628583946,-366.456909,-30.392712,-71.444618,1.266227,-0.616277,-0.461020
8628603907,-136.399139,8.174149,-71.683090,1.118843,-1.307877,-0.560940
8628623868,21.080879,34.287594,-60.751080,0.503987,-0.880470,-0.094860
8628643829,10.466253,11.890434,-43.995262,0.599616,-0.164306,0.380614
8628663790,-62.141865,1.531423,-42.656303,0.682908,-0.086725,0.616903
8628683751,-121.371628,-28.491798,-34.178009,0.891932,-0.368409,0.436397
8628703712,-110.966370,-5.449760,-29.449858,1.128647,-0.247499,0.299980
8628723673,-102.585304,21.745102,-27.656525,0.952524,0.029693,0.345571
8628743636,-112.922386,23.617722,-16.757141,0.829679,-0.093622,0.341969
8628763597,-98.876999,27.292765,-4.922275,0.806337,-0.431987,0.373127
8628783558,-56.968086,27.643595,9.134675,0.816196,-0.539875,0.393378
8628803519,-14.548741,27.524391,20.962727,0.851261,-0.446019,0.440019
8628823480,3.087267,23.258999,19.213511,0.804015,-0.300717,0.465456
8628843441,24.033089,4.640470,21.382465,0.886222,-0.152214,0.440764
8628863402,32.206928,2.570890,22.497854,1.106864,0.167894,0.363713
8628883363,-20.983273,10.185073,3.215744,0.950921,0.515714,0.336306
8628903324,-77.217560,-3.340246,-19.801594,0.863994,0.677287,0.358473
8628923285,-51.185947,-23.892807,-48.403183,1.017711,0.487512,0.351015
8628943246,50.104061,-33.769089,-90.265999,1.107154,0.554802,0.142111
8628963206,140.418640,-51.510246,-135.113220,1.067555,1.104630,-0.081253
8628983167,126.265602,-94.321510,-181.634262,0.964377,1.464727,-0.251407
8629003128,6.628029,-90.228928,-204.599060,1.139678,1.322681,0.242409
8629023089,-149.675674,-48.461533,-187.661652,1.050950,0.480573,0.565460
8629063011,-73.832352,-109.047646,-190.826782,0.951845,0.099841,-0.273081
8629082973,18.522589,-100.418373,-188.993835,0.690619,0.965485,-0.321919
8629102933,38.193596,-121.927803,-181.823349,0.603893,0.943549,-0.397821
8629122894,-13.325333,-145.121826,-176.228928,0.614485,1.127256,-0.427955
8629142855,-119.748634,-160.141708,-163.891434,0.635686,1.295759,-0.458373
8629162816,-195.695358,-162.768051,-146.014969,0.675598,1.025337,-0.616212
8629182777,-189.358322,-173.854355,-123.884682,0.644971,0.588204,-0.705684
8629222700,-80.724998,-217.230331,-48.788647,0.711610,0.191109,-0.773174
8629242661,-70.330238,-225.673416,-3.045839,0.717901,0.422311,-0.622769
8629262622,-115.141144,-222.433029,46.883759,0.773765,0.571857,-0.563547
8629282583,-178.803711,-205.258560,86.757751,0.905211,0.538593,-0.600659
8629302545,-234.980392,-185.416275,107.610649,1.058387,0.448875,-0.585361
8629322506,-277.604858,-170.880356,101.892616,1.238380,0.366573,-0.497573
8629342467,-297.927155,-163.138809,73.406723,1.291532,0.281126,-0.385195
8629362428,-295.378296,-174.053345,35.302261,1.142215,0.228062,-0.209403
8629382389,-275.084961,-205.828003,-4.761530,1.120207,0.186329,-0.076264
8629402350,-248.296494,-224.276703,-37.272308,1.081403,0.146905,0.153328
8629422313,-204.771744,-216.492126,-48.911285,1.109229,0.223752,0.318677
8629442272,-146.053329,-188.504196,-45.510803,0.881806,0.225040,0.326596
8629462234,-80.777092,-181.099518,-45.184723,0.716385,0.373342,0.062790
8629482195,-37.178524,-178.836929,-34.532696,0.738089,0.544087,-0.056532
8629502156,-38.094936,-164.145477,1.029068,0.799085,0.430293,-0.124396
8629522115,-55.038960,-148.174820,38.380180,0.817034,0.207466,-0.107395
8629542076,-89.667923,-142.042664,48.904522,0.766587,0.267515,-0.008680
8629562038,-117.194046,-149.859177,36.166103,0.776790,0.545768,-0.131886
8629581999,-135.373077,-163.705460,27.368542,0.907745,0.641153,-0.286034
8629601960,-146.597580,-161.203964,28.185314,1.003115,0.502919,-0.266358
8629621921,-153.361969,-154.466064,32.516804,0.962828,0.336956,-0.100376
8629641882,-154.842194,-159.213562,29.172075,0.988432,0.323391,0.022156
8629661843,-149.458328,-157.757187,24.527794,1.043320,0.376213,0.036777
8629681804,-132.609406,-153.992706,17.314779,1.025294,0.396937,0.042572
8629701765,-122.173561,-148.779358,9.433310,1.096421,0.503305,0.112616
8629721726,-122.136597,-134.027527,1.123747,1.121755,0.635468,0.179850
8629741687,-119.083130,-123.684494,-5.165652,1.047105,0.626603,0.173435
8629761648,-99.584656,-122.399353,-8.260332,1.084200,0.525881,0.180865
8629781609,-72.174965,-114.385849,-14.883179,1.138876,0.485723,0.227237
8629801570,-50.155006,-101.328186,-21.463072,1.094944,0.585263,0.252301
8629821531,-44.916344,-95.276161,-25.211563,1.038462,0.673084,0.275233
8629841492,-41.885609,-81.359940,-28.334003,1.076856,0.701022,0.254808
8629861455,-43.426949,-68.965103,-31.355438,1.038569,0.565818,0.225360
8629881416,-31.703268,-65.197525,-37.606358,1.054625,0.464081,0.210565
8629901377,-9.649620,-44.208664,-44.501564,1.004432,0.573471,0.196106
8629921338,-5.720616,-24.374937,-45.770481,0.852355,0.670265,0.255293
8629941299,6.608728,-6.969663,-42.515068,0.932226,0.698776,0.216314
8629961260,17.585693,16.488258,-34.302109,1.029197,0.518387,0.089281
8629981221,28.676302,33.422745,-25.122757,0.891722,0.180226,0.034839
8630001182,37.081554,37.694847,-24.046438,0.884808,0.330501,0.030976
8630021144,20.466257,44.135422,-20.597073,0.787882,0.481898,0.046387
8630041104,-0.860604,59.336323,-17.335749,0.788581,0.564696,0.039762
8630061065,-4.204935,72.061806,-10.117931,0.795932,0.487716,0.014750
8630081026,-0.991718,77.252388,0.715018,0.815416,0.464880,0.045896
8630100986,0.308182,82.667320,14.174837,0.813313,0.474086,0.046071
8630120948,-3.192606,86.748840,26.307814,0.779755,0.603961,0.039413
8630140909,-19.486000,85.144524,42.110645,0.686728,0.574673,0.009593
8630160870,-8.497989,57.124805,65.420021,0.701769,0.152066,-0.079826
8630180831,25.156311,48.726406,109.820404,0.870438,0.024536,-0.364584
8630200792,12.727726,62.339584,184.438766,0.971027,0.818963,-0.595484
8630220753,-47.051624,93.855629,274.963501,1.261938,1.031426,-0.250417
8630240714,-135.982697,138.425812,374.122955,1.344881,0.306627,0.241142
8630260675,-195.803162,174.744888,432.855865,1.276726,0.230597,0.320999
8630280636,-339.279633,141.477219,384.838287,1.464090,0.486137,0.461213
8630300597,-191.618927,-66.641846,214.184860,1.505276,0.383566,-0.514173
8630320558,199.382294,-33.708031,74.302704,2.241600,3.054014,-0.107314
8630340519,128.020615,88.490662,-14.509624,0.477289,3.046659,1.082589
8630360480,-104.967339,10.129538,-108.094780,0.024764,1.539695,1.066465
8630380441,-154.231995,4.773139,-202.274811,1.486673,0.276961,0.115376
8630400403,-167.302658,42.565559,-172.244522,2.139342,-0.000922,-0.666805
8630420364,-117.871971,22.392815,-133.967346,0.891486,-0.049264,-0.417353
8630440326,-9.214926,-49.793880,-143.245209,0.377419,-0.111092,-0.446713
8630460287,124.100098,-94.955139,-156.147644,0.518254,-0.172570,-0.292780
8630480248,184.737259,-102.878220,-150.000504,0.744201,0.239899,0.051372
8630500209,123.466759,-108.929260,-136.495041,0.635997,0.627352,0.350374
8630520170,1.382425,-130.092224,-144.319656,0.661075,0.685576,0.315368
8630540131,-94.743965,-132.099243,-149.172806,0.978989,0.418219,0.166129
8630560092,-120.383499,-94.371262,-144.540176,1.088250,0.045697,0.112221
8630580053,-93.315788,-61.270256,-137.214355,0.939771,-0.188180,0.169605
8630600014,-44.800411,-59.613159,-132.411789,0.738111,-0.236089,0.281612
8630619974,15.835268,-49.835674,-131.854141,0.648165,0.013446,0.517371
8630639935,57.001980,-36.368916,-105.182869,0.802735,0.319144,0.577029
8630679857,85.245857,27.539476,-9.512929,1.082006,0.083931,0.534918
8630699818,109.151550,35.642780,41.577568,0.917412,-0.178762,0.630634
8630719779,146.580719,62.706318,50.646671,1.160029,0.590952,0.600894
8630739740,130.639099,63.424774,19.696428,0.996290,1.231140,0.134280
8630759701,108.231735,57.317211,-1.072405,0.762965,0.662782,-0.127591
8630779662,51.880993,54.163151,-17.662216,1.201657,1.136191,0.015121
8630799623,-14.170729,87.446991,-21.891909,0.900312,1.025275,-0.019186
8630819584,-29.113382,83.989471,4.755836,0.573735,-0.019112,0.058953
8630839546,32.391159,47.882088,30.854994,0.384203,-0.624920,-0.146865
8630859507,134.378845,34.833324,83.563278,0.510565,-0.325583,-0.648652
8630879468,87.136078,71.251030,135.719666,0.651355,0.939028,-0.455885
8630899429,-60.752228,114.601562,189.195175,0.731893,0.853824,-0.232733
8630919390,-146.503281,145.328903,266.095703,1.163957,0.210744,-0.054007
8630939351,-169.701324,182.025085,343.528015,1.395078,0.095601,-0.068735
8630959313,-228.760376,174.316650,349.484192,1.117728,0.373271,0.236613
8630979274,-301.601288,56.348431,264.107208,1.565269,0.160870,0.170351
8630999236,-33.837349,-55.935539,191.937241,2.320734,0.325489,-0.134656
8631019197,257.636658,45.758209,88.561050,2.370270,3.031548,0.568088
8631039157,15.592087,84.887444,11.732699,0.260626,3.049275,1.008546
8631059119,-237.425232,-5.650152,-53.789276,0.284424,1.428938,0.500900
8631079080,-227.159714,16.592907,-105.958214,1.490593,0.098626,-0.055286
8631099041,-99.151108,37.917747,-83.929657,1.637239,-0.583316,-0.573955
8631119002,65.735733,19.380049,-70.136299,0.837698,-0.279547,-0.569646
8631138963,162.408188,-20.504745,-73.893448,0.649786,0.411444,-0.350746
8631158924,137.425919,-41.534515,-80.585312,0.783126,0.817070,-0.005449
8631178883,28.536787,-55.123207,-90.244644,0.802458,0.925854,0.211945
8631198851,-91.911705,-74.506035,-106.483177,0.859750,0.818787,0.222490
8631218805,-156.840836,-84.249405,-123.288803,1.066037,0.513342,0.099874
8631238766,-142.467377,-82.288269,-134.893997,1.200368,0.157134,0.047981
8631258727,-76.488503,-80.585770,-140.233963,1.101347,-0.014866,0.101251
8631278689,-5.111678,-79.966873,-138.875763,0.942859,0.017611,0.208544
8631298650,43.446060,-75.050194,-135.451614,0.833445,0.142985,0.275603
8631318611,66.271324,-73.920357,-127.348274,0.791466,0.204034,0.249519
8631338572,71.794540,-83.758972,-117.547745,0.763445,0.219526,0.207410
8631358533,66.225990,-93.233757,-114.592110,0.732430,0.328449,0.162167
8631378494,49.385384,-86.824234,-111.818909,0.782385,0.440516,0.090765
8631398455,32.067822,-82.507744,-103.094048,0.806621,0.434318,0.075649
8631418416,13.174860,-62.428921,-101.941833,0.995220,0.626189,0.357346
8631438377,-23.630840,-23.646866,-93.886902,1.068470,0.800148,0.550712
8631458338,-43.873302,8.556212,-71.294411,1.070359,0.359312,0.355173
8631478300,26.510265,37.492672,-20.377436,0.897151,-0.387133,0.222349
8631498261,108.390594,35.480194,31.420666,0.756338,-0.471101,0.286069
8631518223,117.339798,51.407063,80.507156,0.778573,-0.100634,0.360907
8631538184,86.762726,72.739052,88.714996,1.319279,0.856041,0.733971
8631558145,61.358917,112.546471,20.069527,0.837275,1.591751,-0.083894
8631578106,33.627731,104.105515,81.859390,0.967892,-0.119234,-0.025425
8631598067,52.112160,81.074219,109.291939,1.144863,0.099240,-0.270806
8631618028,97.643349,100.525139,138.647736,0.895956,0.349607,-0.495379
8631637990,59.271515,138.574173,199.209702,1.118909,0.356911,-0.770879
8631657951,-48.988087,207.601196,248.709885,0.624558,0.377299,-0.260498
8631677912,-197.275696,200.769638,261.526703,0.689093,0.424621,-0.117669
8631697872,-308.648132,105.522942,234.692551,0.723195,0.701109,-0.369716
8631717833,-320.770111,-16.933468,165.627640,1.349442,0.627562,-0.349559
8631737793,-153.363831,-52.412418,135.724457,1.881677,0.628848,0.265288
8631757754,71.516472,28.092215,106.824486,1.292914,1.157377,0.970411
8631777715,63.237694,10.016933,45.615543,0.754797,1.371210,0.653439
8631797676,-64.602051,-5.592505,3.307683,1.093285,0.808295,0.192432
8631817637,-64.481590,42.944633,-6.532030,1.253028,0.094911,0.131921
8631837599,-2.166620,45.768696,-8.333926,0.936826,-0.113943,0.240183
8631857560,33.522381,24.384527,-7.941167,0.755051,-0.044045,0.017611
8631877521,75.325272,11.281767,-9.346861,0.787798,0.042765,-0.089935
8631897481,87.504982,4.919500,-11.164097,0.740897,0.193159,0.054080
8631917443,49.905136,-15.534126,-8.601489,0.695531,0.285421,0.177402
8631937404,-2.500246,-27.264278,-10.312968,0.812902,0.278251,0.174208
8631957365,-29.273693,-29.096365,-10.892019,0.869079,0.153917,0.165528
8631977326,-31.652077,-28.690645,-9.572339,0.900775,-0.015494,0.196203
8631997287,-18.882477,-27.677511,7.681130,0.758859,-0.209237,0.155614
8632017248,3.798530,-54.111801,36.210342,0.832749,-0.070985,0.263432
8632037209,-31.835957,-34.991150,48.556183,1.498332,0.432260,0.605691
8632057172,-128.450912,48.372269,41.752384,1.132008,0.352701,0.755445
8632077133,-194.017044,22.652718,43.623295,0.695041,-0.088775,0.472644
8632097094,-156.909607,-6.332427,63.263668,0.941707,-0.354616,0.189942
8632117055,-58.123142,29.965096,60.985832,0.758219,-0.413216,0.385687
8632137016,32.398743,13.562370,65.369827,0.919000,-0.263936,0.395206
8632156977,69.479828,29.876268,49.386024,1.025137,0.051108,0.344640
8632176938,72.456451,24.221508,40.668896,0.841848,0.192203,0.203376
8632196899,55.516670,6.201693,53.428001,0.918249,0.116937,0.276219
8632216860,23.684189,10.783365,50.006977,1.263675,0.117203,0.128473
8632236821,-10.637488,35.943077,38.456661,0.888349,0.110791,0.263660
8632256782,-68.300797,15.840707,62.696098,1.020573,0.093724,0.396310
8632276759,-91.910202,11.646624,53.615723,1.124932,0.092680,0.243163
8632296703,-47.904610,22.179392,29.072227,0.763743,0.064102,0.190110
8632316664,-29.234976,-1.331887,33.791016,0.462284,-0.092856,0.202450
8632336625,-25.415138,-4.813211,40.684845,0.808444,-0.233389,0.292237
8632356586,-19.262184,7.576644,32.307953,1.043715,-0.255757,0.446169
8632376547,-40.416283,3.756676,39.127350,1.031225,-0.296890,0.440421
8632396508,-31.373646,3.285301,49.722397,0.772029,-0.377358,0.473137
8632416469,6.073338,-2.055444,47.668381,0.738415,-0.101454,0.382130
8632436430,34.142525,0.222767,26.446667,1.007849,0.526095,0.303214
8632456391,3.891102,-0.902857,4.923471,0.957249,0.627770,0.227043
8632476352,-56.538380,-7.626215,-8.107462,0.989796,0.475035,0.205099
8632496313,-114.668549,-7.777548,-20.586592,1.033795,0.577850,0.217972
8632516274,-171.168442,-4.651320,-30.568317,0.961304,0.456397,0.215809
8632536235,-221.390518,-2.026158,-37.728050,1.042758,0.420653,0.253494
8632556196,-242.674240,5.121118,-49.458817,1.017440,0.244877,0.280951
8632576158,-239.004242,9.757426,-67.569534,1.070676,0.155469,0.271554
8632596119,-212.397537,15.953617,-86.623779,0.994876,0.094643,0.179552
8632616081,-247.181381,23.283695,-104.501312,0.632163,0.941620,0.237157
8632636042,-301.306091,-14.800895,-103.082611,1.230800,0.038160,0.226237
8632656003,-175.152435,14.659164,-92.524765,1.636407,-0.872279,-0.019679
8632675964,-119.163498,34.474087,-88.544289,1.258076,-0.245929,0.206713
8632695925,-99.068344,55.260551,-78.263237,1.278739,0.518194,0.551811
8632715887,-177.887360,57.533756,-90.283096,1.153188,0.433113,0.562558
8632735848,-215.100693,63.673889,-98.718063,1.280323,0.152978,0.455014
8632755809,-203.422119,85.756676,-103.774620,1.188444,0.049898,0.402474
8632775770,-183.946289,84.320244,-102.653183,1.142328,0.069393,0.366432
8632795731,-158.481781,86.320839,-103.551056,1.212959,0.060430,0.412768
8632815692,-126.479439,82.384293,-111.787773,1.217125,0.040132,0.501052
8632835651,-91.786301,71.250893,-120.824486,1.177907,0.081926,0.484258
8632855612,-66.277245,51.860294,-132.224335,1.044488,0.163467,0.421012
8632875573,-57.214752,26.253674,-148.427826,0.988385,0.274686,0.390661
8632895534,-69.242981,12.753911,-164.187836,0.978499,0.393093,0.399741
8632935456,-72.692848,-33.951458,-175.164474,0.912901,0.225044,0.236833
8632955418,-28.253666,-67.302834,-182.063858,0.790432,0.212194,0.185077
8632975379,4.392386,-99.750038,-181.672195,0.802501,0.395192,0.169734
8632995340,7.348029,-119.286835,-173.117920,0.759357,0.503112,0.103159
8633015301,-8.629563,-142.362427,-165.630295,0.682976,0.560009,0.073417
8633035262,-41.293705,-162.185684,-151.918655,0.727762,0.579835,0.074733
8633055223,-80.433105,-172.624054,-133.180298,0.789691,0.487986,0.072365
8633075184,-105.460365,-181.330414,-115.657738,0.824129,0.299485,0.042664
8633095145,-104.001587,-190.042328,-92.894432,0.805498,0.112664,0.034364
8633135067,-67.042458,-189.659607,-44.542164,0.698861,0.126597,0.178425
8633155029,-64.687424,-174.567841,-20.217690,0.699780,0.209384,0.202310
8633174991,-75.959442,-160.690735,6.196185,0.726056,0.197255,0.143528
8633194952,-88.707199,-161.172836,29.719902,0.774951,0.318100,0.074968
8633214913,-134.256210,-157.461044,48.340031,0.973297,0.578436,0.121876
8633234874,-205.019638,-141.848587,60.446003,1.108735,0.653248,0.342411
8633254835,-235.421600,-128.468475,36.479610,1.053135,0.730114,0.481005
8633274796,-209.584579,-129.208984,-21.917904,1.065803,1.055251,0.519986
8633294757,-185.492371,-128.672318,-41.913078,1.024071,0.828972,0.482404
8633314718,-122.350327,-121.832336,-34.610950,1.066613,0.266480,0.413265
8633334679,-30.517344,-132.550812,-34.018238,0.852074,0.142164,0.375762
8633354640,5.926494,-142.343338,-20.275356,0.954566,0.236747,0.333293
8633374602,-4.390586,-125.865364,-7.409311,0.969553,0.327493,0.364409
8633394561,-26.615799,-108.401978,-18.726006,0.860360,0.744771,0.395638
8633414522,-73.817741,-85.083672,-32.327332,0.944352,1.113055,0.364829
8633434483,-108.640160,-64.644096,-28.367083,1.075321,0.817521,0.269901
8633454444,-91.056198,-56.849476,-34.650188,1.028762,0.535748,0.381479
8633474405,-47.218342,-59.333874,-35.662788,0.945209,0.414038,0.447232
8633494366,-7.857013,-47.156380,-36.423691,0.913893,0.653497,0.520138
8633514327,-5.911212,-18.991152,-42.553654,0.782527,0.927367,0.594014
8633534289,-17.288918,17.963823,-44.164364,0.749168,0.904036,0.522665
8633554250,-14.483262,50.980186,-34.277489,0.569704,0.739232,0.401690
8633574211,4.184458,69.427544,-28.429876,0.766540,0.754713,0.287850
8633594172,4.626219,74.975700,-21.902227,0.720158,0.520030,0.125930
8633614133,11.550121,58.924801,-9.431492,0.509082,0.316002,0.103819
8633634094,45.790482,28.655508,13.737991,0.517236,0.106124,-0.076265
8633654055,67.568008,9.458393,58.312592,0.744277,0.478486,-0.573031
8633674016,-5.876327,39.001469,106.795288,0.679315,1.573613,-0.560289
8633693977,-137.014343,54.188469,162.918289,0.674300,1.185055,-0.542087
8633713940,-199.370483,87.815170,251.397354,0.916542,0.537767,-0.057800
8633733901,-242.534332,142.108185,349.479187,1.178691,0.015320,0.405594
8633753862,-333.925049,168.891663,396.419220,1.003362,-0.039990,0.496258
8633773823,-523.068237,-20.541912,337.001312,1.918210,-0.437444,0.656959
8633793784,-0.759823,-84.897179,194.260422,2.383808,1.214484,0.232577
8633813745,208.933731,42.403305,59.937241,1.163918,3.375462,0.792206
8633833706,93.309235,52.420181,-31.919819,-0.275585,2.703458,0.881625
8633853667,-127.544601,-6.931968,-153.126343,0.469737,1.282962,0.365362
8633873628,-232.330780,10.002001,-169.314270,1.852162,0.401236,-0.745135
8633893589,-179.367859,9.027272,-112.581490,1.329162,-0.320889,-0.487652
8633913550,-51.167976,-23.584948,-110.538101,0.649190,-0.318425,-0.340350
8633933510,76.496033,-58.240009,-122.966415,0.624377,0.080778,-0.229601
8633953471,123.215767,-89.194496,-110.546814,0.861729,0.375590,-0.028830
8633973432,85.309402,-98.169922,-107.288971,0.776216,0.657159,0.237538
8633993393,-7.152215,-103.248428,-120.951881,0.684557,0.731187,0.287005
8634013354,-85.309227,-110.827454,-130.078445,0.826577,0.531176,0.118047
8634033315,-98.065735,-107.873795,-129.958054,0.940426,0.288288,0.030684
8634053276,-63.757641,-88.878822,-129.463226,0.891805,0.129888,0.154592
8634073237,-24.584482,-74.119774,-125.029869,0.823594,0.073005,0.275749
8634093198,22.273361,-72.082077,-115.148438,0.780893,0.096353,0.244533
8634113159,65.160698,-76.216995,-102.736053,0.686567,0.294373,0.261141
8634133120,73.184212,-79.444992,-88.026787,0.765512,0.505262,0.292099
8634153081,33.591316,-54.579147,-65.168518,1.112854,0.470318,0.386370
8634173042,-12.311945,-24.435137,-37.056759,1.104890,0.177776,0.416604
8634193004,0.587447,-3.674139,-20.644440,0.899436,0.020796,0.476783
8634212965,36.443264,24.688807,4.241446,0.765484,0.053688,0.374621
8634232926,60.537411,21.542059,50.689484,0.815314,-0.094515,0.258216
8634252887,44.637409,40.573971,65.369904,1.319022,0.367827,0.678857
8634272849,6.246487,73.398598,31.914408,0.721996,1.141776,0.275411
8634292810,59.385052,48.630901,18.822790,0.878499,0.924411,-0.094426
8634312771,30.308428,54.853046,-0.142283,1.353890,1.257169,-0.095620
8634332733,-33.676201,86.925018,35.200268,0.706946,0.006031,0.325155
8634352694,6.467553,53.082817,72.154205,0.501826,-1.250127,-0.149856
8634372655,102.476723,55.602783,119.901527,0.588844,-0.247739,-0.422840
8634392616,46.791058,102.738525,167.574188,0.838357,0.736558,-0.151275
8634412577,-79.577988,145.973267,224.096039,0.986110,0.354178,-0.012539
8634432538,-133.808044,165.764053,290.286987,1.291073,-0.036593,0.048902
8634452499,-155.350922,188.348480,349.235260,1.397993,-0.085377,-0.109791
8634472480,-220.972748,109.792061,359.586456,1.309983,-0.429034,0.017340
8634492420,-74.881531,-55.630478,289.302307,2.820428,-0.089138,-0.317579
8634512381,320.950897,52.790169,123.382660,2.806921,3.746359,0.564023
8634532341,45.540085,123.552521,44.848534,0.740167,3.938085,1.216322
8634552302,-248.821762,17.132271,-23.829691,0.248002,1.482071,0.590332
8634572264,-223.850952,16.412666,-95.837906,1.636292,-0.220204,-0.085455
8634592225,-76.471863,59.868011,-76.965958,1.798886,-0.734991,-0.767932
8634612186,75.687912,18.985241,-65.374619,0.689055,-0.242716,-0.580533
8634632147,142.663818,-34.125210,-71.259277,0.561827,0.651217,-0.364938
8634652108,142.230133,-29.378222,-78.720612,0.676662,0.926858,0.023491
8634672069,39.366096,-32.800262,-105.754974,0.644138,0.898129,0.242915
8634692030,-77.120552,-54.658028,-128.670563,0.705904,0.756580,0.217136
8634711991,-139.304260,-72.253372,-150.494781,0.927943,0.464892,0.107788
8634731952,-126.601089,-67.685478,-165.600494,1.141496,0.079370,-0.009194
8634751913,-52.019272,-61.468502,-166.274063,1.133549,-0.186164,-0.003169
8634771874,32.719467,-69.597351,-156.115646,1.070794,-0.196861,0.122431
8634791835,83.189987,-73.495308,-146.167862,0.977201,0.053219,0.336988
8634811798,77.912582,-69.308212,-144.817871,0.842967,0.346484,0.429799
8634831759,40.926880,-71.924126,-139.213776,0.760711,0.338607,0.317597
8634851720,19.604183,-80.873802,-123.348274,0.845865,0.151483,0.125530
8634871681,35.406830,-71.591766,-111.424911,0.924261,0.077058,0.051969
8634891642,65.002708,-66.478928,-101.119400,0.874202,0.274337,0.198617
8634911603,57.172623,-59.618088,-86.561089,0.924562,0.514168,0.305160
8634931564,29.770576,-31.177103,-74.126083,1.010219,0.554126,0.400599
8634951525,6.744729,-4.399615,-50.031979,1.040128,0.306060,0.434441
8634971486,17.747410,8.191791,-18.746061,1.086092,-0.058338,0.456279
8634991448,52.068527,44.200985,9.113554,0.877120,-0.105155,0.401308
8635011409,74.745659,54.518375,51.256355,0.826404,-0.073818,0.363713
8635031369,85.187263,56.998199,68.067345,1.314378,0.395255,0.705004
8635051330,32.134315,110.020950,7.408659,1.318782,1.605145,0.259643
8635071291,42.977173,119.482430,47.601105,0.754334,-0.067724,0.107409
8635111213,168.308304,84.212730,122.474571,0.911031,-0.171951,-0.581992
8635131174,107.847031,147.876373,182.598923,0.950112,0.565281,-0.602458
8635151135,-28.183735,207.120178,227.969208,0.553055,0.429600,-0.203112
8635171096,-157.969284,209.280060,256.187103,0.607044,0.246188,-0.293731
8635191057,-233.631012,152.546799,256.735260,0.890933,0.490669,-0.524918
8635211018,-278.470123,18.574867,225.443024,1.353421,0.343497,-0.359129
8635230979,-176.552811,-53.750965,170.530746,2.066198,0.719659,0.134689
8635250940,32.626476,-6.025005,104.796486,1.773866,1.626242,0.744717
8635270901,99.383286,35.691841,57.938347,1.072064,1.656277,0.791272
8635290862,-2.030025,-23.137493,0.391077,1.066334,1.104917,0.423112
8635310823,-61.269249,21.646364,-22.495651,1.320099,0.484465,-0.079029
8635330784,-4.872670,43.826603,-14.016847,1.003609,0.084268,0.010598
8635350745,44.258831,6.607939,-15.476121,0.773441,-0.161598,-0.020375
8635370707,78.845703,-17.085926,-15.736240,0.776972,0.011820,-0.206094
8635390669,71.949776,-17.570831,-10.688579,0.744064,0.355562,-0.039584
8635410629,10.219424,-18.327303,-8.432474,0.661030,0.456896,0.174051
8635430591,-70.037827,-25.471235,-8.785682,0.778945,0.280613,0.218531
8635450552,-102.249695,-27.841324,-1.944278,0.892053,-0.002671,0.153034
8635490474,-45.974186,-26.176422,11.459959,0.909774,-0.252218,0.114192
8635510435,4.398779,-32.875805,23.620113,0.998127,-0.177398,0.171228
8635530396,23.355492,-24.015337,42.658226,1.115204,-0.007183,0.301078
8635550357,-1.015299,-17.469582,63.317348,1.025946,0.071351,0.361989
8635570318,-16.030140,-24.059875,86.311447,1.012351,-0.024245,0.304753
8635590278,-24.429558,-8.360126,93.432220,0.988814,-0.037768,0.239707
8635610239,-82.453293,3.864374,78.658127,0.927756,0.374740,0.090502
8635630200,-105.212379,22.217173,70.078110,0.655980,0.040114,-0.028748
8635650161,-68.376610,40.236599,96.105927,0.349838,-0.838139,0.254484
8635670122,-23.664541,18.227962,178.070068,1.207695,-1.586625,0.507492
8635690083,34.202648,59.299469,177.903931,1.134105,-0.474180,0.343041
8635710044,211.983734,1.244524,147.074539,0.596067,-0.067209,-0.629370
8635730005,216.625610,23.846989,86.993515,0.556504,0.896178,0.134342
8635749966,-15.377675,26.242556,66.490784,0.744565,1.049477,-0.009781
8635769927,-73.317780,16.976120,86.000084,1.827780,-0.452254,0.113999
8635789888,41.488785,23.492962,71.502083,1.921607,-0.264756,-0.039516
8635809849,94.427505,20.114174,41.195419,1.013893,0.596179,0.220312
8635829811,-6.630143,11.581318,20.625660,1.449396,0.537711,0.104503
8635849772,-28.606075,9.619615,12.412532,1.576449,0.068294,-0.098290
8635869732,-10.826908,6.285578,5.122130,1.180319,0.129735,0.006264
8635889693,-56.289093,0.696754,1.390455,0.913959,0.311280,0.210671
8635909656,-101.986343,1.471617,-3.520277,1.007569,-0.113488,0.246846
8635929617,-32.840984,5.788535,-8.443849,1.207971,-0.605117,0.100127
8635949579,33.117950,13.429841,-14.126681,1.080556,-0.181401,0.042678
8635969539,-5.358070,11.996599,-12.711038,0.520925,-0.022953,0.181801
8635989500,-61.535332,0.105653,1.654809,0.760338,-0.351459,0.271343
8636009461,-32.734734,2.614678,5.487815,1.419676,-0.445135,0.125429
8636029422,38.970642,6.177842,-10.871002,1.428283,-0.052124,0.134630
8636049383,22.742554,3.167925,-35.714737,1.542698,0.622546,0.203444
8636069344,-37.553875,4.387945,-54.160767,1.293033,0.210429,0.271180
8636089305,-49.335945,-6.706333,-53.325512,1.204811,-0.397122,0.285524
8636109266,1.374840,-20.884573,-53.516212,1.357960,-0.355513,0.168360
8636129241,30.504311,-15.334042,-75.733528,0.967574,0.171108,0.292081
8636149187,3.310534,-29.137943,-96.620522,0.699002,0.213814,0.305943
8636169148,-25.776949,-36.942848,-117.370941,1.055470,0.318019,0.100239
8636189109,-20.764595,-48.429134,-137.206284,0.993770,0.424177,-0.006806
8636209070,-35.756573,-34.253372,-175.861588,1.096500,0.978596,0.160289
8636229031,-88.487251,-43.781464,-206.090866,1.120773,0.837517,0.127713
8636248992,-135.047729,-50.891838,-230.656830,1.293528,0.465249,-0.069185
8636268954,-94.828468,-27.509117,-251.065445,1.161656,-0.256943,-0.155298
8636288915,96.010056,-1.363692,-276.953308,0.696874,-0.775698,-0.047781
8636308876,155.957581,-67.255524,-266.373077,0.695673,0.163859,0.057373
8636328837,136.734131,-110.491379,-252.528885,1.112306,-0.165134,0.195613
8636348798,77.196396,-78.738968,-206.485291,1.315866,-0.388924,0.396519
8636368759,61.512897,-25.553993,-150.379074,1.037564,-0.326140,0.328009
8636388720,70.966064,-38.836998,-107.713432,0.563448,-0.255854,0.161262
8636408681,60.421127,-64.814919,-67.690491,0.865744,-0.079019,0.240857
8636428642,25.532717,-25.356619,-60.662407,1.162609,0.678762,0.528019
8636468565,112.892609,-37.815144,-100.267799,0.597581,0.558005,-0.267504
8636488527,109.876549,-40.122890,-76.640900,0.936036,0.417146,-0.087247
8636508488,69.287270,-28.756838,-70.932991,0.578931,0.545551,-0.150082
8636528449,59.980286,-48.216850,-66.343071,0.523531,0.132658,-0.165825
8636548410,38.090527,-60.718246,-77.826370,0.720103,0.566559,-0.161314
8636568371,-26.969276,-63.637669,-89.922035,0.929416,1.221733,-0.065580
8636588333,-120.652283,-48.984955,-88.447235,1.043746,1.029252,0.037379
8636608293,-146.132858,-37.347664,-90.218513,1.052418,0.679937,0.163097
8636648215,31.547436,-22.634693,-74.049500,0.864927,0.497213,0.147536
8636668176,89.541069,-8.171844,-62.252487,0.873453,0.854288,0.092396
8636688136,82.066177,7.297213,-51.166641,0.895662,0.966103,0.046352
8636708097,44.033562,19.618410,-42.939617,0.845796,0.892973,0.014126
8636728058,10.157560,26.308716,-33.514084,0.886908,0.759631,-0.024551
8636748019,-12.012345,31.305950,-23.000002,0.902683,0.599617,-0.027742
8636767980,-15.184875,39.821712,-13.824845,0.862084,0.591159,-0.000756
8636787941,-12.827816,53.145084,-6.558723,0.862347,0.638767,0.097362
8636807903,0.042328,65.436218,7.042895,0.865764,0.429177,0.201299
8636827863,29.310877,76.668816,19.501160,0.786643,0.328776,0.204315
8636847825,62.325176,79.767807,35.930450,0.784397,0.339687,0.072147
8636867786,73.796173,79.037621,42.716434,0.821535,0.694076,-0.034602
8636887747,43.929939,77.620789,43.280136,0.920469,0.926790,-0.076029
8636907708,-0.377049,81.496307,58.321922,0.874156,0.698674,0.012547
8636927669,-14.446927,85.832596,85.742615,0.821895,0.304453,0.026515
8636947630,-18.118891,94.024445,125.759972,0.758702,0.088524,0.091088
8636967591,-22.597561,101.257271,171.635117,0.806185,-0.275545,0.049387
8636987552,-37.587032,114.944901,233.889374,0.812839,-0.120272,-0.131698
8637007514,-89.025574,102.049820,304.525085,1.131114,0.186192,-0.364272
8637027475,-136.663849,90.999207,379.420685,1.383912,-0.014330,-0.290423
8637047436,-135.279068,119.320061,438.124939,1.484852,-0.338865,-0.020906
8637067414,-176.372055,169.944885,459.163849,1.185260,-0.692213,0.020911
8637087359,-156.685623,-56.980194,376.456421,2.165537,-0.432376,-0.239918
8637107320,342.216217,-31.367786,122.182251,3.424103,4.090084,-0.173079
8637127281,188.181259,69.502052,24.567759,1.105080,4.015906,1.357422
8637147242,-176.184738,4.260115,-80.650375,0.061021,1.665035,1.184732
8637167203,-223.588043,-6.709035,-220.967072,1.566229,0.189639,0.161611
8637187164,-197.027206,31.195381,-193.295319,2.510791,-0.368873,-0.975050
8637207125,-75.191895,-8.801186,-178.716599,0.823885,-0.639876,-0.641491
8637227085,74.657089,-94.221420,-202.395035,0.399399,-0.246612,-0.529779
8637247046,210.769653,-103.003632,-227.356644,0.632569,0.139145,-0.142259
8637267007,189.218491,-99.959824,-219.114410,0.710747,0.387871,0.381438
8637286968,59.273117,-125.727707,-222.503143,0.662637,0.492497,0.446865
8637306929,-65.423744,-119.000114,-251.628418,1.033027,0.367450,0.244808
8637326890,-111.883324,-97.035492,-249.006699,1.659922,-0.191708,0.058845
8637346850,-69.794884,-32.603195,-207.131088,1.665214,-0.902508,0.327288
8637366812,4.729624,-53.874290,-149.606079,0.900124,-1.148056,0.623610
8637386773,108.435257,-54.863144,-117.500214,0.689191,-0.692349,0.431793
8637406734,199.704727,-19.885448,-65.991974,0.625974,0.176392,0.486521
8637426695,150.476807,19.541594,27.090635,1.017952,0.144172,0.761595
8637446656,66.727028,68.675224,66.949142,1.102306,0.187935,0.768071
8637466617,168.097214,52.970497,-62.865974,0.693736,2.010876,-0.056330
8637486578,67.605110,23.366482,-62.698456,1.477137,0.805373,-0.202427
8637506539,72.092911,28.921974,-27.332861,0.765765,-0.673086,-0.342419
8637526501,113.253586,51.506775,-4.561023,0.356317,0.349247,-0.224072
8637546461,37.558651,69.503067,16.541307,0.606760,0.640480,-0.122168
8637566424,-25.672157,79.788071,42.341072,0.685974,0.043926,-0.175962
8637586385,-40.227695,82.908852,88.431923,0.719831,-0.032721,-0.364860
8637606346,-68.715897,101.795105,150.375748,0.849024,0.416686,-0.379596
8637626307,-119.705971,129.018723,241.899765,1.187734,0.264843,-0.204344
8637646268,-148.231369,153.324905,340.234222,1.821115,0.041613,0.177817
8637666229,-172.178726,197.808807,435.434387,1.967818,0.139962,-0.110771
8637686190,-236.938141,174.400101,449.356476,1.235780,-0.376225,0.225831
8637706151,-52.992348,-87.910614,317.731384,2.420616,-0.398815,-0.674161
8637726113,490.439178,55.408657,46.261227,3.943695,5.585366,0.117743
8637746073,19.484077,121.785858,-1.257118,-0.410584,4.325234,1.701645
8637766033,-293.156708,-23.342133,-120.756592,0.091920,0.890239,0.232370
8637785994,-286.493042,27.322947,-188.705185,2.265880,-0.087167,-0.974139
8637805955,-110.090561,17.686104,-117.541473,1.521435,-0.461150,-1.397182
8637825916,86.567566,-54.818825,-137.661697,0.250234,-0.154492,-0.707679
8637845877,196.060333,-66.988449,-164.907135,0.597509,0.582348,-0.113190
8637865838,127.752686,-86.133446,-176.723663,0.876602,0.954096,0.237702
8637885799,-39.540184,-122.699211,-185.911728,0.945970,0.937094,0.311556
8637905760,-163.318298,-128.893311,-202.757767,1.200057,0.579355,0.127659
8637925721,-166.229568,-107.825584,-206.320358,1.360293,-0.062012,0.006878
8637945682,-90.341133,-90.488594,-196.601135,1.200442,-0.448888,0.049167
8637965644,2.149113,-78.957169,-188.472855,1.049646,-0.433766,0.237019
8637985604,60.310394,-68.940887,-179.028946,0.854294,-0.252632,0.426252
8638005566,90.745338,-64.859352,-158.405121,0.729484,-0.107367,0.450177
8638025527,97.602837,-54.810246,-134.786804,0.819086,0.014202,0.447553
8638045488,90.859070,-34.537331,-101.180351,0.926982,0.006376,0.367886
8638065449,104.041328,-5.741031,-59.513962,0.766441,-0.106595,0.386097
8638085410,92.921303,23.991781,-10.552369,0.686739,-0.152806,0.426917
8638105373,95.753677,37.611588,46.311684,0.725264,-0.242372,0.414885
8638125334,56.089489,59.803123,44.014816,1.251799,0.763188,0.807650
8638145295,-7.215338,101.227646,27.001465,0.778106,1.018844,0.331543
8638165256,59.399307,82.218590,47.346771,1.105407,0.066190,-0.184115
8638185217,88.865822,69.020073,-2.125337,1.393771,1.567015,-0.156968
8638205178,57.586018,62.848648,25.557762,0.812489,0.302007,-0.016963
8638225139,73.402000,49.524216,72.836075,0.655448,-0.764657,-0.609663
8638245100,97.158379,81.705978,128.087036,0.563737,0.449183,-0.510297
8638265061,-18.884914,139.339050,175.688751,0.703055,0.717839,-0.364987
8638285022,-127.780609,184.420334,251.580627,0.905616,0.240814,-0.207304
8638304984,-166.314255,210.111526,323.271454,1.066859,0.105657,-0.204136
8638324943,-187.159454,175.845108,343.676849,1.109722,-0.033863,-0.291125
8638344904,-249.456757,74.242943,305.197632,1.761175,-0.307774,-0.092475
8638364865,9.197981,-71.847595,224.821198,2.132644,0.317644,-0.562417
8638384826,392.448547,30.363470,101.028419,2.701944,4.252217,0.277439
8638404787,-61.926235,111.796333,3.429485,0.599476,4.292156,1.615353
8638424748,-498.071716,-32.287899,-84.573807,0.964311,1.254488,0.502841
8638444709,-350.257507,-15.636150,-108.320450,2.234343,-1.057728,-0.499139
8638464670,77.314087,37.892265,-69.738640,1.234558,-1.607058,-1.009773
8638484631,376.623657,21.381363,-86.150146,0.629900,0.225818,-0.937969
8638504592,328.918182,-17.846716,-83.471443,0.611502,1.703306,-0.211521
8638524553,69.295334,-54.599579,-94.102760,0.368342,1.657223,0.189089
8638544514,-165.495361,-79.038818,-121.314003,0.700017,1.056707,0.098922
8638564475,-260.276855,-80.195137,-143.369171,1.115725,0.460152,-0.102322
8638584436,-215.030136,-75.080238,-156.227936,1.164240,-0.122613,-0.229663
8638604397,-77.019730,-77.018265,-155.731018,1.083011,-0.368960,-0.138150
8638644321,56.011124,-75.327705,-136.252106,0.979459,0.137999,0.423606
8638664282,35.913208,-83.036766,-129.241241,0.896868,0.262325,0.394376
8638684243,14.106952,-79.051559,-125.964752,0.871670,0.285255,0.290911
8638704204,7.178549,-69.804718,-118.465179,0.815433,0.207858,0.223397
8638724165,11.598314,-58.324345,-112.988174,0.752263,0.119844,0.183340
8638744126,39.670307,-53.991280,-99.582474,0.655929,0.134368,0.250633
8638764087,68.956184,-45.781765,-85.275391,0.730617,0.311842,0.299727
8638784048,80.929253,-27.538780,-63.193085,0.925311,0.437365,0.293774
8638804010,76.453934,0.765024,-41.005615,0.979896,0.409350,0.325103
8638823971,79.168266,28.558630,-19.074429,0.858049,0.248213,0.327966
8638843931,69.704056,49.087540,8.959617,0.909491,0.125442,0.385557
8638863891,46.967094,71.027176,40.484352,0.884629,0.035579,0.395498
8638903813,33.625450,102.831818,31.110882,0.592468,0.698460,0.128133
8638923775,24.831230,109.406837,83.347855,0.875728,-0.020332,0.002772
8638943735,49.696495,89.663902,96.035194,0.906962,0.453794,-0.169061
8638983658,64.145729,56.488297,139.991714,1.270891,-0.358459,-0.842154
8639003619,31.971817,133.127029,234.092072,1.017331,0.089345,-0.235829
8639023580,-84.688927,200.035294,301.911224,0.831510,0.298967,0.031152
8639043541,-159.559265,214.479126,312.540649,0.689027,0.003597,-0.190362
8639063502,-216.551117,146.956039,290.694366,0.939128,-0.040777,-0.244329
8639083463,-203.666489,-19.223471,278.773926,2.532616,0.328395,-0.376776
8639103428,65.155502,30.419035,190.708511,2.231425,1.942799,0.187802
8639123385,109.462624,61.424526,91.516342,1.401031,3.229981,1.138143
8639143346,-201.045059,16.797533,2.709486,0.762152,2.209048,0.833084
8639163307,-354.392090,-14.178380,-89.689102,1.584788,0.354286,0.101795
8639183270,-157.835342,40.743038,-80.697380,1.670148,-1.095618,-0.163469
8639203231,78.382385,23.659182,-66.404861,0.806255,-0.931682,-0.380968
8639223192,222.113739,-4.219654,-72.134293,0.701775,0.436329,-0.439896
8639243153,222.276596,-16.158278,-90.148361,0.651327,1.131360,-0.095881
8639263114,79.974472,-34.178322,-110.081299,0.540730,1.008457,0.192679
8639283075,-73.670120,-59.730286,-130.632416,0.705122,0.790222,0.129970
8639303036,-155.909592,-72.107750,-149.844055,0.936353,0.488247,0.026150
8639322997,-160.358109,-74.394707,-170.870422,1.165625,0.196026,-0.058470
8639342958,-117.054245,-70.580345,-179.324234,1.242092,-0.002542,-0.025677
8639362919,-56.634087,-72.545708,-172.002762,1.186422,-0.038429,0.141535
8639382878,-33.091602,-72.618561,-167.075195,1.129521,0.085433,0.378866
8639402839,-29.865519,-64.018867,-162.705902,1.034709,0.132656,0.345847
8639422801,6.121840,-58.427837,-150.277710,0.884777,0.051505,0.253638
8639442762,43.917549,-60.560844,-137.490494,0.885116,-0.026812,0.200563
8639462723,88.551186,-64.305206,-117.217873,0.899231,0.015609,0.158785
8639482684,123.401550,-67.107422,-101.547806,0.846405,0.226394,0.238596
8639502645,135.368866,-65.247101,-87.819740,0.770792,0.501128,0.224422
8639522606,107.973114,-55.795528,-75.341156,0.855173,0.719261,0.332035
8639542567,38.877048,-25.955475,-57.429859,0.998758,0.637862,0.424696
8639562528,-10.564850,5.848248,-37.764114,1.080976,0.225444,0.451901
8639582489,8.952618,34.686646,-10.405654,0.898472,-0.126483,0.381377
8639602451,53.836926,52.134266,23.868946,0.762743,-0.200458,0.342491
8639622411,83.685783,68.432999,60.448296,0.775424,-0.052105,0.451207
8639642372,67.310158,102.154533,38.979588,1.279444,1.166344,0.560239
8639662334,106.537094,122.966637,47.031822,0.493454,0.256810,-0.095014
8639682295,175.622345,52.824265,72.356888,1.022222,-0.274943,-0.235600
8639702257,159.728058,42.068817,87.590324,1.148410,0.121415,-0.492748
8639722218,82.126175,104.776199,162.997650,1.222678,0.405775,-0.631635
8639742179,-62.137917,180.462189,218.106491,0.632459,0.687051,-0.064545
8639762140,-178.607361,213.666931,260.612854,0.579657,-0.179634,-0.216321
8639782101,-169.169403,204.278839,300.077515,0.713216,-0.341313,-0.380780
8639802062,-179.086136,168.274246,316.840759,0.998938,-0.314720,-0.286826
8639822023,-196.982285,18.217873,343.174164,2.143629,-0.464193,0.061890
8639841985,-42.100304,-11.180127,231.786118,2.895478,0.996489,0.407622
8639861945,20.067755,67.543076,102.815979,1.579067,3.248929,1.279603
8639881906,-207.107758,50.078251,95.518921,0.739540,1.856108,0.632286
8639901868,-242.457489,-3.370429,69.101189,1.406909,-0.048736,0.276785
8639921827,-73.658264,56.906860,27.682972,1.617724,-1.051350,0.154108
8639941788,117.758614,71.654480,30.023880,1.291987,-0.759663,0.065316
8639961750,215.633636,39.120228,37.772850,0.983106,-0.039056,0.078990
8639981711,190.501678,30.397415,13.113141,0.850270,0.559218,-0.080038
8640001671,101.592766,46.460728,-9.912193,0.681733,0.788099,-0.019492
8640021632,-16.380737,41.049320,-14.126619,0.604298,0.573028,0.075038
8640041594,-89.803032,18.807812,-23.390181,0.715705,0.258656,0.039523
8640061555,-92.895042,17.075138,-42.712864,0.874143,0.019813,0.049164
8640081515,-58.619663,14.336028,-64.460587,0.890770,-0.067137,0.101160
8640101477,-20.591551,1.745142,-81.961487,0.938625,-0.038187,0.169222
8640121438,6.202880,-8.831968,-95.396645,1.018411,-0.021913,0.232159
8640141399,14.029527,-10.814465,-108.186340,1.029115,0.014558,0.309615
8640161360,-1.693650,-5.230825,-120.943718,1.041090,-0.019368,0.304290
8640181321,-14.202473,-6.835774,-125.817116,1.021439,-0.178657,0.263375
8640201282,-6.371457,-32.159695,-116.972435,0.926374,-0.270845,0.195027
8640221243,20.255856,-52.531555,-104.134140,0.886809,-0.265068,0.151681
8640241205,46.077728,-63.872345,-86.819084,0.902094,-0.200238,0.145072
8640261167,64.154022,-72.732826,-62.376507,0.863031,-0.119839,0.151416
8640281128,79.019058,-75.744446,-42.681484,0.796310,-0.034203,0.104625
8640301088,82.992989,-81.089485,-24.506491,0.733330,-0.077594,0.045354
8640321050,78.976707,-88.125366,-12.700127,0.896220,-0.036080,0.059318
8640341011,46.371731,-81.374939,-1.615993,1.050976,0.097226,0.109874
8640360972,-13.932389,-67.664520,7.810375,1.071435,0.161868,0.131410
8640380933,-78.870346,-57.674171,20.581509,1.060675,0.055604,0.154808
8640400894,-134.699173,-43.559566,30.113132,1.144589,0.059426,0.258182
8640420855,-171.184555,-20.138124,39.330482,0.986551,-0.019629,0.390895
8640440816,-139.174454,-9.215844,49.331711,0.983427,-0.242837,0.317091
8640460776,-41.038006,-6.133134,66.560616,0.826959,-0.390862,0.284502
8640480737,50.460953,-12.035947,86.315887,0.928849,-0.281458,0.204535
8640500698,82.441406,6.888247,93.269287,1.095185,0.036851,0.221039
8640520659,49.453297,31.100628,85.451195,1.089008,0.295702,0.282706
8640540620,-13.101527,32.571819,78.593948,1.143045,0.250773,0.244639
8640560581,-46.593319,31.428959,73.521500,1.141773,0.081236,0.193484
8640580542,-39.475922,31.510719,61.257656,1.096403,0.006335,0.180128
8640600504,-15.395805,24.084482,48.499451,1.103949,0.026544,0.181211
8640620465,10.765189,11.707138,38.882366,1.066019,0.047945,0.206845
8640640426,35.039845,8.328963,23.781221,1.000151,0.110004,0.270368
8640660386,37.447773,17.468954,4.452880,0.897109,0.258672,0.312393
8640680347,11.853898,9.634603,-6.533563,0.881419,0.307568,0.275790
8640700309,-13.534853,5.090999,-14.511250,1.044376,0.222423,0.231456
8640720269,-31.560684,16.612282,-24.272125,1.028888,0.163639,0.253625
8640740231,-45.741230,15.991103,-30.435123,0.974210,0.138318,0.236281
8640760192,-50.195538,12.585917,-32.812653,0.960132,0.081382,0.224116
8640780154,-44.924168,7.357782,-33.766453,1.028199,0.061505,0.243356
8640800115,-43.340038,9.936508,-38.462917,1.022501,0.092759,0.269330
8640820076,-55.998562,6.563406,-45.459198,0.910190,0.136065,0.273208
8640840037,-74.672546,-8.028625,-51.502327,0.949229,0.122946,0.311292
8640859998,-43.687511,-17.463646,-50.118401,1.008417,-0.155611,0.232526
8640879959,-19.080122,-20.902103,-53.128422,0.916999,-0.109017,0.208687
8640899928,-40.926323,-25.408205,-52.002338,0.826366,0.201883,0.126988
8640919881,-69.321114,-27.524342,-52.700165,0.719651,0.227970,0.200640
8640939842,-75.486618,-40.689880,-55.622791,0.809365,0.070753,0.204861
8640959804,-68.500748,-38.937431,-54.228642,0.862524,0.045465,0.241309
8640979765,-70.454475,-39.659988,-53.596508,0.887772,0.162822,0.278187
8640999724,-83.420723,-38.583019,-49.201160,0.873290,0.198651,0.331061
8641019685,-87.430069,-32.588951,-47.326012,0.942989,0.175899,0.360030
8641039646,-80.257904,-22.922087,-43.013565,0.898586,0.114354,0.377981
8641059607,-63.879120,-26.407290,-37.004131,0.910051,0.122170,0.361126
8641079568,-51.459419,-23.650902,-38.264996,0.924736,0.248606,0.364788
8641099529,-46.865746,-31.323093,-37.949951,0.884953,0.225488,0.247422
8641119490,-40.221813,-47.436417,-34.230640,0.871072,0.152990,0.209290
8641139452,-37.257950,-58.123970,-34.614700,0.909027,0.240547,0.237509
8641159413,-47.050495,-64.941132,-29.073837,0.927877,0.187195,0.207768
8641179374,-57.952629,-75.160866,-26.863304,0.892527,0.135833,0.207414
8641199335,-67.661278,-80.034775,-22.971968,0.819312,0.189016,0.193271
8641219296,-84.472450,-80.537605,-16.127993,0.777539,0.354381,0.202090
8641239257,-105.400398,-73.802094,-12.784395,0.839640,0.422177,0.251201
8641259218,-113.245964,-72.512001,-11.491693,0.876981,0.293227,0.255455
8641279179,-114.223686,-69.371689,-9.533959,0.916973,0.279587,0.165168
8641299140,-133.043839,-66.719795,-6.511226,0.958489,0.453520,0.153701
8641319103,-168.863663,-61.956001,-1.377256,1.028094,0.469207,0.187958
8641339064,-200.887741,-64.237564,4.409709,1.007378,0.308257,0.231739
8641359025,-211.811050,-65.248665,6.128277,0.996586,0.210405,0.239882
8641378986,-204.874054,-64.991272,5.224908,1.006026,0.208456,0.262488
8641398947,-180.675262,-61.033386,-0.036395,1.024802,0.190559,0.295180
8641418908,-140.932373,-59.810719,-5.803858,1.096510,0.128831,0.302059
8641438869,-116.195045,-55.960464,-10.790001,1.129329,0.259719,0.318456
8641458830,-124.493401,-48.998886,-18.622154,1.086677,0.488749,0.322755
8641478791,-148.084549,-55.537548,-28.791847,1.073956,0.462184,0.218873
8641498752,-131.978760,-59.999146,-32.207909,1.118693,0.119325,0.102559
8641518713,-91.412758,-58.698475,-28.182426,1.023556,0.139301,0.182989
8641538673,-81.205566,-57.471359,-29.516624,1.033475,0.453589,0.255152
8641558634,-100.291290,-49.301319,-28.415546,1.017040,0.400013,0.266018
8641578595,-116.018105,-52.651112,-24.963793,1.083820,0.270743,0.175840
8641598556,-108.810539,-47.199680,-25.502148,1.002873,0.283721,0.160574
8641638478,-117.936043,-51.068558,-20.107685,0.946105,0.297012,0.159042
8641658439,-102.566689,-48.496513,-17.609358,1.054004,0.257867,0.181787
8641678400,-92.613113,-52.118885,-14.368319,1.117102,0.280143,0.233119
8641698361,-94.658195,-55.809879,-11.364155,1.211362,0.434909,0.297240
8641718322,-112.810432,-60.791569,-21.472666,1.307419,0.684816,0.279609
8641738283,-134.528915,-80.293411,-38.386555,1.425192,0.819521,0.156903
8641758244,-110.124809,-81.391541,-46.462879,1.382363,0.463910,0.151106
8641778205,-59.991497,-102.140671,-47.685421,1.199695,0.500607,0.050811
8641798166,-61.957413,-97.632187,-51.402283,1.194237,0.981923,0.220853
8641818127,-83.388733,-87.696358,-53.294239,0.766380,0.595594,0.197752
8641838088,-111.425575,-75.479698,-39.600010,0.524688,0.520665,0.205110
8641858051,-136.215805,-68.545296,-26.737171,0.495579,0.206885,0.017120
8641878012,-137.683258,-58.994087,-6.758198,0.631640,0.146941,-0.038593
8641897973,-133.008698,-71.624214,1.442332,0.785484,0.419049,0.160472
8641917934,-126.663109,-43.114109,3.583676,0.866751,0.081885,0.204820
8641937895,-95.978439,-74.217506,14.812101,0.674284,0.054978,0.012323
8641957856,-92.417305,-88.693489,33.606529,1.269668,0.765297,0.354728
8641977819,-120.614929,-44.286037,27.815636,1.133181,0.749123,0.557197
8641997778,-147.758362,-51.983765,33.065205,1.122451,0.409048,0.399206
8642017740,-111.550705,-81.132744,37.949039,1.122913,0.267873,0.200007
8642037700,-55.958210,-64.064827,32.969212,1.018088,0.412423,0.182877
8642057662,-55.735191,-82.856812,40.731644,0.837454,0.645211,0.272003
8642077621,-102.524445,-78.746559,51.347843,1.025109,0.568300,0.591232
8642097582,-122.204117,-55.331104,42.770443,0.880823,0.283015,0.461492
8642117544,-119.876099,-53.885765,39.125469,0.839039,0.428439,0.181607
8642137504,-103.893608,-52.534100,44.579922,0.780733,0.413374,0.185520
8642157465,-97.114990,-40.096245,45.889114,0.764833,0.398849,0.393451
8642177427,-102.227783,-55.872772,43.391293,0.902896,0.392218,0.149314
8642197387,-108.899956,-108.655212,34.477440,1.556167,1.277693,-0.003370
8642217349,-123.962326,-101.951424,-13.767521,1.995845,1.522430,0.329146
8642237310,-106.587280,-76.607857,-52.066917,1.128091,0.420576,0.389650
8642257271,-66.040115,-72.214035,-37.800415,0.718507,0.589748,0.323728
8642277232,-76.704979,-26.709564,-41.273365,0.552766,0.710189,0.112642
