Timestamp (us),Gyroscope X (deg/s),Gyroscope Y (deg/s),Gyroscope Z (deg/s),Accelerometer X (g),Accelerometer Y (g),Accelerometer Z (g)
7809649263,0.027067,-0.256507,0.134186,0.971172,-0.003517,0.231551
7809669263,-0.003143,-0.173333,-0.033238,0.973295,-0.001167,0.233725
7809689263,-0.559015,0.034112,-0.031639,0.968716,0.001647,0.232997
7809709263,-1.756403,0.075591,-0.033957,0.966289,0.001156,0.239548
7809729264,-2.009777,-0.289325,0.044848,0.964196,-0.010345,0.233227
7809749264,-0.592929,-0.705150,0.025062,0.968433,-0.014797,0.226953
7809769264,0.834491,-0.488073,0.017558,0.969633,-0.013629,0.227768
7809789264,0.858142,-0.342414,0.199173,0.966686,-0.003274,0.235515
7809809265,-0.630442,-0.633677,0.610058,0.968296,-0.004483,0.236006
7809829266,-1.355738,-0.703274,-0.032257,0.971121,-0.007666,0.227418
7809849266,0.352925,-0.576175,-1.172939,0.965947,-0.012500,0.224977
7809869266,1.742581,-0.246009,-1.477157,0.968627,-0.009900,0.226424
7809889267,2.307651,-0.139793,-1.252240,0.968605,-0.007766,0.223016
7809909267,2.998710,-0.812342,-1.168755,0.970316,-0.005693,0.230663
7809929267,2.844410,-1.192932,-1.120729,0.968856,-0.004144,0.235095
7809949267,2.777529,-0.818806,-1.053726,0.973400,-0.000631,0.233262
7809969266,2.718677,-0.360723,-0.964341,0.975281,0.002515,0.233506
7809989266,1.895452,-0.250932,-0.809092,0.974204,0.004209,0.235932
7810009267,1.345501,-0.453427,-0.418096,0.970973,0.002291,0.236932
7810029267,0.924801,-0.740446,-0.088101,0.970027,-0.000734,0.233777
7810049267,1.374789,-0.764096,0.016341,0.969668,-0.003000,0.227332
7810069267,2.244740,-0.668115,-0.132455,0.972116,-0.004075,0.225731
7810089268,3.006533,-0.854479,-0.393468,0.970421,-0.001649,0.227592
7810109268,2.373912,-0.716795,-0.679977,0.972789,0.005768,0.234799
7810129268,1.054757,-0.592094,-0.894897,0.972853,0.004780,0.235727
7810149268,0.423120,-0.255598,-1.060723,0.973874,-0.000771,0.230532
7810169270,1.232642,-0.029894,-1.225030,0.971103,-0.000237,0.225571
7810189271,1.936195,0.327690,-0.971487,0.972397,0.000451,0.224752
7810209271,1.837548,0.391034,-0.530562,0.970640,0.007557,0.223257
7810249271,-0.383605,0.040670,-0.154060,0.970029,0.006468,0.228832
7810269282,-0.185207,0.040785,-0.010579,0.972798,-0.004457,0.219085
7810289272,1.385646,-0.055554,-0.100911,0.972078,-0.003608,0.220159
7810309270,1.630530,0.097032,0.064465,0.967506,0.003629,0.229945
7810329270,0.073434,-0.163573,0.467924,0.972946,0.004206,0.233913
7810349270,-0.887562,-0.101456,0.130062,0.972589,0.001937,0.227285
7810369271,0.165452,0.074388,-0.764668,0.969354,-0.000350,0.227835
7810389271,1.166111,0.413139,-1.097545,0.970024,0.002120,0.229902
7810409271,0.823587,0.530227,-0.724144,0.973608,0.008031,0.229026
7810429272,0.029119,0.229586,-0.270791,0.970614,0.009872,0.232525
7810449272,-0.551543,-0.018464,0.143350,0.972422,0.004270,0.231261
7810469272,-0.123213,0.232013,0.155456,0.971216,-0.000772,0.232877
7810489272,0.502783,0.351809,0.060862,0.969409,0.001319,0.236567
7810509274,0.372283,0.147449,0.305563,0.965377,0.004120,0.235753
7810529274,0.316783,-0.360905,0.809677,0.972435,0.005944,0.233881
7810549274,0.064223,-0.565062,1.024538,0.975452,0.005380,0.230727
7810569275,-0.070737,-0.076015,1.167325,0.975517,0.003823,0.230022
7810589275,-0.061591,0.281043,0.892088,0.969724,0.001894,0.232730
7810609275,-0.169006,0.209981,0.307752,0.966075,0.000766,0.231069
7810629285,-0.322632,0.010817,0.020582,0.965806,0.003234,0.225281
7810649274,-0.368911,-0.081333,-0.145974,0.965800,0.002302,0.223654
7810669274,-0.035070,-0.456322,-0.236992,0.972329,0.000219,0.221198
7810689275,0.689139,-0.535298,-0.384329,0.972180,-0.001838,0.223326
7810709275,0.918038,-0.506124,-0.529894,0.970734,0.001383,0.230285
7810729275,0.589959,-0.498639,-0.756410,0.971683,-0.001370,0.229881
7810749275,0.453576,-0.314652,-0.627432,0.971821,0.004406,0.227148
7810769276,0.378241,-0.159840,-0.179429,0.976328,0.005613,0.235567
7810789276,0.522830,-0.272912,0.185191,0.972491,0.002519,0.229647
7810809276,0.286105,-0.318453,0.087688,0.970169,0.003996,0.227777
7810829277,-0.041354,-0.217726,0.233114,0.969240,0.004902,0.232588
7810849278,-1.208291,-0.220728,0.519634,0.969526,0.001079,0.232649
7810869278,-1.194241,-0.487351,0.581573,0.978761,-0.004791,0.223620
7810889278,0.591582,-0.191799,-0.362643,0.976588,-0.006840,0.216970
7810909279,2.386656,0.447129,-1.247662,0.969587,0.000020,0.222268
7810929279,1.807801,0.646443,-1.367511,0.965232,0.010882,0.225249
7810949279,0.721548,-0.065288,-0.948959,0.965294,0.010180,0.227085
7810969278,0.063034,-0.685309,-0.228802,0.969881,0.003464,0.228329
7810989278,0.117557,-0.499974,0.302062,0.977048,0.001177,0.225244
7811009278,0.982584,0.168346,0.249485,0.978538,0.004573,0.229676
7811029278,1.044950,0.457912,0.247888,0.976473,0.007018,0.232354
7811049279,0.365375,0.300072,0.327701,0.975398,0.007481,0.231333
7811069279,-0.199506,0.180922,0.596798,0.974210,0.006196,0.228696
7811089279,-0.344198,0.227294,0.642844,0.976179,0.004046,0.227471
7811109279,-0.266711,0.500998,0.519660,0.969692,0.002161,0.225884
7811129279,-0.053092,0.537305,0.260143,0.970117,0.002114,0.229629
7811149280,-0.190544,0.492480,0.374964,0.968081,0.003938,0.227027
7811169281,-0.457438,0.508557,0.391309,0.965335,0.003276,0.227465
7811189282,-0.656760,0.317468,0.172705,0.966008,0.000156,0.226425
7811209282,-0.169099,0.223770,-0.003883,0.968389,0.000547,0.225531
7811229282,-0.138420,0.276344,-0.156248,0.970038,0.001056,0.225449
7811249282,-0.222691,0.207532,-0.246743,0.970752,0.000688,0.226191
7811269283,-0.322010,0.177172,-0.276549,0.969929,0.004694,0.225392
7811289283,-0.078655,0.001824,-0.124879,0.967732,0.002392,0.232794
7811309282,0.752149,-0.152277,0.031610,0.970584,-0.004746,0.233753
7811329282,0.202635,-0.219308,0.042024,0.966160,0.000398,0.230893
7811349282,-0.498457,-0.109079,0.363899,0.970010,0.001580,0.230275
7811369282,-0.498712,-0.177131,0.485798,0.973668,-0.002326,0.229551
7811389283,0.521010,-0.654610,0.088139,0.974876,-0.006850,0.226440
7811409283,1.477884,0.140506,-0.512585,0.969849,0.000224,0.224183
7811429283,1.646402,0.343689,-0.985435,0.961642,0.013509,0.225629
7811449283,0.569829,0.110726,-0.903467,0.964342,0.012751,0.227492
7811469283,-0.889974,-0.524982,-0.757129,0.963780,0.001627,0.224282
7811489284,-0.167180,-0.960112,-0.431687,0.968349,-0.006282,0.224724
7811509285,1.300249,-0.441399,0.493977,0.970660,-0.002910,0.228709
7811529286,1.621147,-0.342544,0.628851,0.980195,0.005821,0.230404
7811549286,0.164941,-0.083665,-0.323187,0.995414,-0.006214,0.231471
7811569286,0.741999,2.578075,0.156068,1.029299,-0.016417,0.235709
7811589286,3.367464,7.422367,3.876187,1.038845,-0.009611,0.242633
7811609287,3.757744,13.807999,8.116284,1.036576,-0.033639,0.250003
7811629288,6.578718,17.998034,12.271639,1.053572,-0.123969,0.264606
7811649286,17.278072,19.953491,19.425669,1.064933,-0.186423,0.268690
7811669286,33.475636,24.480068,30.198212,1.012951,-0.186117,0.295618
7811689287,42.821625,23.725601,40.767612,1.011974,-0.149789,0.304446
7811709287,41.745289,20.919615,49.881657,1.058318,-0.137111,0.287113
7811729287,34.332844,19.772152,64.161873,1.069557,-0.200181,0.305161
7811749287,31.256298,20.712866,80.814201,1.009257,-0.228297,0.321952
7811769287,27.134136,20.581697,91.024330,0.990922,-0.206779,0.324721
7811789288,17.901583,21.175892,95.129456,0.949850,-0.187217,0.309503
7811809288,16.717987,19.593964,92.033905,0.919991,-0.164451,0.299823
7811829289,15.998695,14.656980,87.575974,0.935457,-0.107807,0.259794
7811849290,19.245121,11.151847,83.518982,0.928302,-0.072348,0.230535
7811869290,23.912128,9.970825,76.739609,0.842121,-0.034482,0.258731
7811889290,24.794342,6.334757,59.600365,0.738241,0.072085,0.271737
7811909290,16.585684,-0.456454,29.218103,0.656479,0.270921,0.253811
7811929290,-6.058865,-15.499928,-8.629740,0.601670,0.369698,0.220728
7811949290,-40.951206,-32.967293,-34.122524,0.770628,0.156014,0.302152
7811969289,-63.508167,-28.832542,-29.326639,1.033053,-0.212542,0.391001
7811989289,-58.816757,-13.682655,-16.953838,1.037514,-0.353483,0.458614
7812009290,-41.936302,-19.239536,-11.344249,1.022483,-0.409541,0.247975
7812029290,-20.431644,-7.148211,-13.488317,1.048339,-0.290839,0.272043
7812049290,-16.769388,7.442470,-25.053785,0.992077,-0.044354,0.350058
7812069291,-16.345242,12.654682,-33.628601,0.899297,0.043910,0.409066
7812089291,-28.723072,10.181750,-36.691772,0.936311,0.047665,0.421421
7812109291,-47.339096,11.200193,-38.799961,0.963850,0.075331,0.369006
7812129291,-60.865883,11.257855,-44.369545,0.941465,0.091982,0.330579
7812149292,-71.747253,9.546233,-51.668240,0.934584,0.091501,0.324861
7812169293,-84.023872,8.063459,-59.782322,0.959468,0.052130,0.323072
7812189293,-93.341522,9.758226,-68.190308,0.975879,0.020126,0.283502
7812209294,-95.510910,15.174286,-78.752831,0.975193,0.015283,0.242613
7812229294,-93.984161,19.972742,-90.347748,0.954602,0.038361,0.223990
7812249294,-89.139793,21.303133,-101.303749,0.927575,0.062570,0.204921
7812269294,-87.962502,19.812824,-112.716576,0.917853,0.062035,0.178561
7812289295,-96.674644,21.061825,-126.391632,1.025546,0.029999,0.125863
7812309293,-101.377846,18.869331,-130.091476,1.129998,0.091461,0.122413
7812329294,-103.146507,19.243532,-116.391106,1.169409,-0.050065,0.245481
7812349294,-99.307587,10.729730,-79.232094,1.155753,-0.448236,0.466642
7812369294,-87.350853,0.910916,-11.425727,1.240048,-0.690476,0.421864
7812389294,-69.955788,9.158088,40.642071,1.188395,-0.741683,0.356181
7812409295,-53.923317,14.708021,77.681625,1.229387,-0.748284,0.368553
7812429295,-28.250305,32.744072,103.472321,1.214139,-0.646973,0.367847
7812449296,-6.712426,42.973663,123.853378,1.107844,-0.515058,0.382537
7812469296,-9.451751,39.718037,136.898315,1.005376,-0.336313,0.365715
7812489296,-21.827187,30.393984,141.138748,0.985361,-0.187646,0.293996
7812509297,-23.048857,21.962196,140.711395,0.968099,-0.125994,0.193449
7812529298,-14.400551,18.410515,139.722870,0.876141,-0.131464,0.151377
7812549298,5.046832,14.672831,136.436447,0.779204,-0.150443,0.187088
7812569298,35.007088,14.666012,117.164520,0.719802,-0.062709,0.258572
7812589299,55.545433,21.051962,81.507248,0.730161,0.150559,0.331109
7812609299,40.718708,29.767559,35.263111,0.720132,0.451130,0.407573
7812629297,-17.303238,27.838024,-15.880210,0.596708,0.667901,0.456817
7812649297,-95.598412,10.204258,-70.363029,0.549321,0.636862,0.409293
7812669297,-159.191147,-2.102931,-121.608643,0.661965,0.482392,0.339736
7812689298,-216.208176,-2.349957,-146.683258,1.039550,0.126091,0.407299
7812709298,-247.066971,-6.722095,-99.148216,1.419467,-0.650228,0.342964
7812729298,-176.992004,3.054980,-72.998550,1.196188,-0.685386,0.064596
7812749299,-113.838074,4.935015,-69.997444,1.041401,-0.456205,-0.043650
7812769299,-107.387856,15.145004,-79.108803,0.964433,-0.198822,0.218977
7812789299,-93.074799,31.659212,-88.733017,0.989693,-0.067025,0.305960
7812809299,-78.354797,43.160416,-92.332893,0.968353,-0.018657,0.262039
7812829301,-90.771034,44.095917,-97.029999,0.995325,0.076642,0.176927
7812849301,-117.148346,41.939846,-107.584404,0.942255,0.072184,0.167978
7812869301,-130.693390,34.598896,-126.685165,0.894569,0.022702,0.146093
7812889302,-127.103783,30.951031,-144.718246,0.966157,0.022625,0.126108
7812909302,-119.151428,29.916304,-157.357178,1.017222,0.071399,0.109819
7812929302,-112.064873,25.229240,-159.123749,1.048812,0.049380,0.098070
7812949302,-114.746239,24.704029,-162.164062,1.166186,-0.034178,0.105735
7812969301,-122.856972,27.290216,-160.238892,1.260928,-0.005213,0.154771
7812989301,-124.138626,25.464848,-143.757004,1.276619,0.003470,0.206697
7813009302,-120.905388,22.260521,-116.186874,1.170297,-0.234035,0.356500
7813029302,-112.421478,4.066146,-51.176426,1.283727,-0.606574,0.416363
7813049302,-105.763451,11.068346,18.401730,1.240599,-0.860991,0.367297
7813069302,-85.960503,18.275505,59.884964,1.169482,-0.820541,0.337956
7813089303,-66.279732,20.407356,87.279793,1.107778,-0.623764,0.332943
7813109303,-56.544960,20.251362,107.009499,1.055218,-0.485113,0.300820
7813129303,-55.063545,9.225676,120.913918,1.011129,-0.356619,0.276601
7813149304,-61.226688,-5.699650,137.667465,1.006582,-0.305430,0.245029
7813169305,-49.315479,-14.967648,155.414719,1.042617,-0.362003,0.239237
7813189305,-1.212627,-10.619617,163.496552,1.042977,-0.391690,0.267974
7813209306,53.062145,2.244668,155.583374,0.972686,-0.231397,0.324368
7813229306,78.573532,16.046719,141.786285,0.859579,0.025094,0.401201
7813249306,72.387383,25.926060,111.493988,0.709400,0.299716,0.413257
7813269306,30.819300,28.509733,65.171822,0.627939,0.535503,0.405166
7813289317,-20.273808,25.450521,14.678312,0.628657,0.658309,0.431016
7813309305,-82.882263,22.254761,-44.197239,0.681387,0.802326,0.377158
7813329305,-155.641968,23.197029,-108.030334,0.650316,0.809570,0.354568
7813349306,-217.352020,23.657675,-173.636765,0.753473,0.662133,0.444802
7813389306,-294.739929,22.684566,-79.548668,1.525616,-0.980096,0.026011
7813409306,-154.794800,54.571850,-93.296936,1.046968,-0.354015,-0.212546
7813429306,-145.227310,23.640186,-91.832550,0.962992,-0.194937,-0.235904
7813449307,-151.229095,24.550800,-112.631439,0.918372,-0.016326,0.039570
7813469307,-117.569397,45.357708,-126.953468,1.028259,-0.144837,0.109239
7813489309,-112.128052,45.313370,-136.401306,1.039963,-0.128606,0.085573
7813509309,-117.842117,45.341507,-153.344666,1.028019,-0.025154,0.086965
7813529309,-110.973976,41.518169,-172.683807,0.998010,-0.020962,0.106757
7813549309,-102.340240,34.406178,-184.948730,1.007610,0.031200,0.106965
7813569310,-108.330673,26.735594,-195.016510,1.017958,0.198218,0.085803
7813589310,-126.210403,25.356514,-197.383179,1.136484,0.271747,0.082492
7813609310,-152.055954,26.073265,-193.362289,1.385119,0.249258,0.067188
7813629309,-171.201553,32.952263,-180.174377,1.454780,0.077286,0.095799
7813649309,-172.702438,25.342268,-151.855896,1.374671,-0.398221,0.226718
7813669309,-127.077850,-2.505355,-72.714996,1.353289,-1.031565,0.296893
7813689310,-62.201622,-5.254449,30.367283,1.255825,-1.142407,0.245895
7813709310,-30.724430,3.322248,81.472534,1.093679,-0.886791,0.354173
7813729310,-26.658506,-4.638396,109.896355,1.111241,-0.572136,0.394759
7813749310,-31.490396,-3.289599,136.099625,1.149066,-0.396604,0.361247
7813769310,-38.118813,-1.459834,149.967606,1.122139,-0.256925,0.381725
7813789311,-44.717819,-9.645337,163.067719,1.055578,-0.178598,0.344277
7813809311,-35.386734,-23.381428,172.791702,1.002942,-0.180625,0.251649
7813829313,-2.046996,-25.901476,177.332047,0.976076,-0.154630,0.205189
7813849313,48.898033,-7.229201,168.571823,0.919074,-0.047396,0.264356
7813869313,78.609291,16.868315,144.654938,0.781851,0.233251,0.379981
7813889314,64.902267,36.319714,102.301056,0.719988,0.634347,0.454560
7813909314,5.400572,47.472248,36.750061,0.712913,0.957555,0.491027
7813929314,-88.879311,42.701637,-38.737816,0.558112,1.059245,0.475227
7813949332,-179.789856,28.043085,-118.360695,0.602467,0.954276,0.352319
7813969313,-254.923340,24.973667,-193.578964,0.785384,0.928963,0.436280
7813989313,-344.316711,-12.126538,-204.272247,1.496302,0.409652,0.316963
7814009313,-354.182556,-12.475969,-100.935440,1.912610,-0.879928,-0.398799
7814029313,-189.941330,75.703766,-100.694733,1.247430,-0.571718,-0.282711
7814049314,-162.943649,56.108753,-111.907852,0.982440,-0.191283,-0.142358
7814069314,-132.707138,51.816380,-148.974472,0.907209,0.095162,-0.037965
7814089314,-99.646614,62.060745,-180.336792,0.965474,0.016419,-0.022760
7814109314,-107.239754,52.381828,-188.746704,0.988882,0.046613,-0.006204
7814129315,-126.216194,48.655457,-196.394470,0.996573,0.170951,0.016317
7814149316,-135.582550,45.266754,-209.201981,0.962894,0.191671,0.035819
7814189317,-162.462006,22.864164,-212.397354,1.388030,0.097628,-0.042649
7814209317,-160.837967,29.954838,-203.408905,1.535791,-0.001846,-0.028596
7814229321,-128.012863,5.678374,-172.033127,1.343583,-0.336182,0.323236
7814249318,-77.365814,-29.279194,-66.224480,1.564181,-1.139642,0.476725
7814269318,-26.202454,-8.225140,63.987755,1.335535,-1.374748,0.416008
7814289317,11.638487,6.499584,108.014275,1.150146,-0.803143,0.584873
7814309317,-5.341369,9.277064,127.533554,1.211716,-0.276708,0.523222
7814329317,-43.396160,12.602047,143.856110,1.075486,-0.084352,0.391100
7814349317,-85.049042,-3.161999,158.852921,0.964981,-0.039073,0.291417
7814369317,-103.578911,-28.317604,175.215408,0.917236,-0.052522,0.195639
7814389318,-69.313988,-49.345299,188.050278,1.015618,-0.089395,0.134256
7814409318,7.951173,-34.660637,193.497467,1.120600,-0.029301,0.175711
7814429318,68.488251,1.993811,178.008087,0.938469,0.199939,0.374133
7814449319,66.486282,27.390190,134.008331,0.792659,0.563191,0.462314
7814469319,11.302864,43.552750,69.509201,0.716383,0.880695,0.454935
7814489320,-77.635727,43.066265,3.491875,0.654572,0.954161,0.472339
7814509321,-175.535370,46.319904,-78.452477,0.741605,0.943027,0.496556
7814529321,-250.846466,25.656996,-162.481400,0.712605,0.967575,0.104476
7814549321,-291.474243,16.872662,-221.074875,0.952227,0.776112,0.109100
7814569321,-357.086151,7.301799,-202.189392,1.604122,-0.029087,-0.166595
7814589322,-285.467285,47.653755,-163.996033,1.922578,-0.459097,-0.382360
7814609322,-198.630859,69.758881,-139.506287,1.186834,-0.542000,-0.334950
7814629321,-148.987625,59.983738,-153.641129,1.012512,-0.049761,-0.156362
7814649321,-124.304077,62.295128,-190.666718,1.021529,0.255153,-0.072202
7814669321,-113.845612,62.509060,-221.713165,1.061526,0.273411,-0.020269
7814689321,-128.167557,43.640236,-223.158066,1.129818,0.232762,-0.002629
7814709322,-155.992859,43.382664,-218.341003,1.199525,0.232303,0.030462
7814729322,-183.725189,48.034813,-210.377701,1.384201,0.211722,-0.016163
7814749322,-183.610672,43.954311,-187.782089,1.356088,0.004372,0.031709
7814769322,-152.262329,6.662935,-121.315247,1.324843,-0.459598,0.215392
7814789322,-139.747787,-26.675312,-16.624044,1.394596,-1.174776,0.139789
7814809323,-86.426926,-13.535124,63.017838,1.324443,-1.290081,0.249402
7814849325,20.158373,9.093717,113.473114,1.193538,-0.451517,0.490241
7814869325,3.806036,9.704903,126.691895,1.144660,-0.087378,0.485432
7814889325,-42.568855,1.497659,147.086792,1.033066,0.136630,0.390927
7814909325,-85.634537,-9.387851,159.301804,0.880274,0.178793,0.303088
7814929326,-100.551933,-18.517067,158.035858,0.821647,0.163675,0.163534
7814949324,-86.244568,-18.351896,151.426712,0.822654,0.101841,0.132021
7814969325,-56.250629,-15.256087,140.150253,0.864403,-0.031184,0.210924
7814989325,-19.276009,0.784625,117.931351,0.885910,-0.173774,0.328356
7815009326,11.690583,30.674482,79.566528,0.778326,-0.153221,0.499904
7815029325,10.926084,47.006020,31.696173,0.767925,0.124868,0.554726
7815049326,-39.558968,52.805542,-13.870306,0.841240,0.419707,0.455704
7815069326,-108.576042,44.629246,-44.363682,0.897668,0.388025,0.269217
7815089326,-148.442444,36.187744,-63.529213,0.889129,0.123945,0.136181
7815109326,-143.018753,35.668831,-73.377579,0.866569,-0.147330,0.159278
7815129327,-120.292191,42.666180,-86.279999,0.949285,-0.179297,0.239595
7815149328,-116.573502,50.211700,-102.624168,0.998330,-0.014501,0.279243
7815169328,-142.935791,45.154564,-117.185532,0.935182,0.150624,0.226448
7815189329,-192.604721,30.681871,-127.554901,0.980393,0.079773,0.151279
7815209329,-217.252777,28.839497,-130.336899,1.105762,-0.149935,0.064763
7815229329,-202.984833,36.079918,-128.991013,1.189533,-0.350174,0.032014
7815249329,-166.199936,41.739342,-129.344299,1.190409,-0.412897,0.084341
7815269330,-136.749557,41.125427,-125.532005,1.156536,-0.271928,0.146598
7815289329,-124.787598,35.844074,-119.399635,1.079269,-0.122617,0.066813
7815309329,-130.302979,21.773855,-111.779716,1.008164,-0.110142,0.045564
7815329329,-146.541718,13.222151,-91.490540,1.037568,-0.327351,-0.002158
7815349330,-139.663574,18.267845,-66.657005,1.055737,-0.485379,0.060656
7815369330,-128.989136,15.330598,-63.857899,0.953122,-0.465292,0.073544
7815389330,-106.380043,1.127816,-69.277115,0.951355,-0.346729,0.034306
7815409330,-80.948532,-0.703267,-67.272377,1.011165,-0.220209,0.076839
7815429331,-62.748253,4.437750,-68.989883,1.040434,-0.111190,0.128091
7815449330,-55.451920,2.110865,-69.764999,0.985127,-0.063267,0.225129
7815469331,-63.057732,-3.788511,-62.438541,1.017575,-0.102360,0.292006
7815489332,-64.157097,-0.607534,-48.168789,1.094984,-0.062557,0.246931
7815509333,-65.607117,5.687211,-31.890125,0.962563,0.112631,0.223021
7815529333,-90.146919,6.162188,-37.996437,0.811344,0.330261,0.291128
7815549333,-115.758469,7.285610,-57.688408,1.220723,0.091449,0.376726
7815569333,-105.759880,28.519411,-29.294828,1.337503,-0.649839,0.178855
7815589334,-87.561684,21.533836,0.899064,0.918187,-0.558262,0.112658
7815609336,-71.091270,5.782396,-1.863327,0.980734,-0.381343,0.028475
7815629333,-33.966007,6.123652,-4.397852,1.026994,-0.356115,0.100249
7815649333,-3.865354,7.573974,-0.651063,1.002703,-0.287778,0.100688
7815669333,-3.979647,2.571345,15.406734,0.966571,-0.416996,0.095194
7815689333,-10.438608,-7.641635,67.788765,1.177748,-0.867928,0.126141
7815709334,3.695467,-2.843262,128.793518,0.993732,-0.862876,0.257387
7815729334,24.671835,-16.036495,158.828079,0.866022,-0.660698,0.258833
7815749334,46.624561,-21.521767,163.236267,0.899575,-0.388593,0.240121
7815769334,67.706566,-13.374470,145.791748,0.945420,-0.085414,0.276699
7815789335,80.746689,2.274742,100.528778,0.891202,0.362185,0.493121
7815809335,39.863319,9.381783,24.089611,0.581235,1.087221,0.476124
7815829336,-39.038750,-31.624714,-50.741890,0.335484,0.781624,0.234888
7815849337,-163.166122,-62.283665,-53.379620,1.198999,-0.526543,0.286759
7815869337,-112.717575,8.327887,-27.089300,1.285579,-0.553705,0.200389
7815889337,-42.950771,28.330111,-25.507637,0.836771,-0.496228,0.140622
7815909338,13.253853,26.876781,-52.963406,0.809712,-0.276488,0.070112
7815929338,43.426838,34.677174,-85.281784,0.741850,-0.082453,0.112147
7815949337,36.695229,24.324724,-103.472908,0.623638,0.073838,0.211721
7815969337,-2.271462,6.824676,-115.610100,0.795654,0.070175,0.394848
7815989337,-31.361307,10.198749,-125.728828,1.115335,-0.058794,0.457423
7816009337,-28.494461,21.488708,-126.195847,1.256169,-0.124635,0.454745
7816029338,-13.541882,30.169807,-111.522804,1.103842,0.046139,0.543902
7816049338,-0.110181,33.515568,-98.931229,0.964762,0.353797,0.339926
7816069338,-2.946003,29.073387,-99.954445,0.885531,0.418360,0.223933
7816089338,-30.787613,0.449615,-108.436760,0.885943,0.262653,0.409857
7816109339,-66.757927,-14.471510,-116.792061,0.973938,0.324244,0.613393
7816129339,-70.352074,17.422562,-125.705048,1.021687,0.422898,0.533090
7816149339,-39.076721,54.893692,-135.798096,0.963783,0.307067,0.414428
7816169341,-4.288655,61.435871,-140.971832,0.994113,0.110698,0.198192
7816189341,28.210962,38.702824,-118.872780,1.060938,-0.135931,0.373503
7816209342,14.076197,8.884892,-56.700466,1.381632,-0.761834,0.587390
7816229342,39.031368,5.702976,56.984814,1.332680,-1.652801,0.496508
7816249342,120.385262,11.102818,148.343109,1.321740,-1.425820,0.523833
7816269342,176.218124,20.101799,195.155563,1.658394,-0.786934,0.494876
7816289341,164.795197,30.447966,243.408997,1.837750,-0.106826,0.508945
7816309341,97.557076,31.231585,300.304871,1.719566,0.319856,0.509317
7816329341,14.569702,25.435143,331.555908,1.658334,0.477437,0.332421
7816349341,-16.177801,12.964130,341.502838,1.413252,0.465117,0.258264
7816369342,-5.340774,-11.414858,334.572449,1.029251,0.464086,0.150974
7816389342,20.850904,-29.371979,298.163788,0.744561,0.614614,-0.093922
7816409342,41.990841,-28.709280,237.505127,0.530841,0.908463,-0.121933
7816429343,40.856033,-0.159624,144.494202,0.091694,1.351812,0.154713
7816449343,-4.064610,9.461574,-4.747151,-0.297148,1.580478,0.648430
7816469343,-141.518967,-35.674774,-133.589722,0.056295,1.073684,0.925033
7816489344,-331.724762,-71.402466,-100.634117,1.346622,-0.969773,0.145551
7816509345,-175.262726,-3.330941,-33.742134,1.792711,-1.686310,-0.115426
7816529345,-70.116837,30.014894,-32.108994,0.923781,-1.008134,-0.036080
7816549346,-10.885564,24.750830,-88.279205,0.707036,-0.355717,-0.047374
7816569346,53.435463,30.121771,-117.391243,0.680221,-0.357277,0.153330
7816589346,63.382698,27.558245,-123.139763,0.643392,-0.057662,0.383695
7816609346,15.609196,12.840899,-139.018600,0.788339,0.356916,0.391828
7816629345,-17.409384,13.834907,-158.227783,0.941695,0.296916,0.466446
7816649345,-48.022530,16.025141,-168.053009,1.107284,0.088969,0.435552
7816669345,-56.457813,33.316200,-173.617569,1.282370,-0.030860,0.382692
7816689346,-61.833221,36.167145,-180.262955,1.276964,-0.005631,0.428862
7816709346,-70.351891,22.971811,-176.493744,1.170820,0.057409,0.433301
7816729346,-64.591446,37.924309,-160.044098,1.100231,-0.002252,0.358710
7816749347,-50.156212,58.344204,-144.836746,0.990591,-0.067287,0.295301
7816769347,-48.878456,46.209328,-146.451813,1.151254,-0.075364,0.140423
7816789347,-34.885647,34.643475,-139.426331,1.440602,-0.180893,0.023731
7816809347,-16.977859,13.971883,-75.078461,1.255597,-0.894361,0.249287
7816829349,32.063553,-33.834511,50.751633,1.196687,-2.328077,0.338041
7816849350,156.459366,-33.409615,183.443451,1.663452,-1.862845,0.665431
7816869350,283.020020,16.283268,253.025101,1.972771,-0.629972,0.608829
7816889350,241.279037,44.676075,307.141113,1.915795,0.468098,0.582171
7816909350,45.903992,40.601215,325.948486,1.598459,0.901771,0.502897
7816929350,-103.027504,2.538598,334.499451,1.131038,0.589508,0.140859
7816949350,-125.360626,-20.418259,321.520691,0.779055,0.433086,0.066107
7816969349,-58.922058,-21.316555,283.596985,0.427374,0.596434,0.122358
7816989349,-2.582251,-10.502910,184.316864,0.257400,1.221224,0.098459
7817009350,-2.114457,-15.228500,20.730047,-0.138613,1.735657,0.140112
7817029350,-68.211014,-35.571598,-157.080231,-0.258838,1.226803,0.670030
7817049350,-274.804016,-61.388729,-175.017838,1.281926,-0.815811,0.561857
7817069350,-130.433578,52.768795,-126.616737,1.840024,-0.997182,0.269795
7817089351,-15.780498,56.775810,-136.733765,0.900256,-0.468788,-0.109276
7817109351,-54.096027,24.404108,-142.605484,1.061658,-0.318872,0.022583
7817129351,-39.264294,33.634865,-145.754807,0.972500,-0.398720,0.116957
7817149352,-17.523380,36.022896,-164.946869,0.816522,-0.147309,0.251723
7817169353,-5.786154,40.146046,-207.119492,0.837916,0.120640,0.229579
7817189353,-5.820987,48.273777,-230.014999,0.966602,0.052144,0.283738
7817209353,-30.606878,54.529625,-232.772278,1.564301,-0.209537,0.142903
7817229354,-51.770309,62.632057,-208.675629,1.869254,-0.419758,0.076960
7817249354,-24.114433,31.180126,-136.564499,1.282276,-1.040287,0.325410
7817269354,17.944256,-14.650623,-4.996760,0.861188,-2.232337,0.420121
7817289355,91.214111,-13.914959,132.425980,0.995430,-1.885240,0.575587
7817309353,180.079590,-7.701808,182.200699,1.829119,-0.974516,0.522554
7817329354,232.311447,13.686640,234.748932,2.463048,0.143471,0.319383
7817349354,142.580353,42.408562,279.872284,1.594884,0.606604,0.561670
7817369354,-22.123877,-8.617271,290.187927,1.176682,0.414542,0.369403
7817389354,-95.982681,-33.606861,297.401978,0.971571,0.162620,0.165789
7817409355,-70.924881,-31.324293,291.858887,0.812076,0.033232,0.156229
7817429355,-10.600013,-19.990772,270.079010,0.670811,0.039132,0.187736
7817449355,31.517502,-3.911870,205.416977,0.488684,0.192091,0.213928
7817469355,57.632233,-2.552891,110.846962,0.347040,0.510273,0.258785
7817489356,57.961964,-5.899280,8.786348,0.294127,1.021353,0.263171
7817509357,-9.524157,-16.788744,-92.071571,0.204097,1.326452,0.353263
7817529357,-110.721642,-31.776691,-192.825287,0.398330,0.859013,0.749250
7817549358,-269.191162,-52.581581,-182.971527,1.586831,-0.614732,0.454111
7817569358,-165.255264,29.318956,-138.388718,1.705429,-1.082836,0.075373
7817589358,-92.526855,63.407104,-126.344162,1.005509,-1.014158,-0.018381
7817609359,-68.407928,63.788918,-145.917938,0.821826,-0.633382,0.082102
7817649358,46.127190,44.426022,-190.125534,0.983190,-0.156254,0.083237
7817669358,50.112507,39.659950,-184.582230,0.905706,-0.032068,0.140479
7817689358,31.821936,43.838814,-190.589478,0.955379,0.005330,0.191120
7817709358,-3.049362,36.209206,-204.355606,1.373277,-0.060203,0.226527
7817729358,-29.159250,17.351274,-181.269241,1.836936,-0.520570,0.353293
7817769359,59.050018,-30.786526,126.683899,1.207304,-2.451722,0.511717
7817789359,157.633270,-0.305061,194.876984,1.205274,-1.532552,0.515908
7817809360,195.575134,12.135323,233.130325,1.731696,-0.508894,0.308179
7817829360,125.829391,30.264656,270.398285,1.785505,0.305261,0.279519
7817849362,1.157033,19.338667,306.369415,1.358125,0.262781,0.248048
7817869362,-75.677162,-26.194202,304.950958,1.067618,0.021943,0.031819
7817889362,-54.620441,-52.988445,286.654236,0.913732,-0.030174,-0.007514
7817909362,56.133682,-47.696857,247.314529,0.664292,0.104548,0.131023
7817929363,142.083618,-8.493868,156.365311,0.529948,0.654845,0.373065
7817949363,116.464630,32.466244,12.251259,0.192715,1.730532,0.634911
7817969361,-3.903002,-1.753231,-140.945526,-0.142567,1.746450,0.520006
7817989362,-147.903503,-32.740211,-251.492767,-0.003556,1.254711,0.539998
7818009362,-318.329559,-87.849106,-235.638138,1.006713,-0.253966,-0.033515
7818029362,-275.382385,51.939522,-247.289444,2.483066,-0.488279,-0.219103
7818049363,-147.654205,145.100281,-244.138367,1.078320,-0.689592,-0.162561
7818069363,-42.043865,98.019096,-245.228088,0.754737,-0.570412,0.037861
7818089363,70.054527,76.412552,-260.400116,1.252045,-0.309198,0.021432
7818109364,81.495140,78.419685,-266.176147,1.720604,-0.111655,0.188490
7818129364,19.912100,30.772028,-211.852783,1.949170,-0.336928,0.552095
7818149364,-58.066761,-3.301040,-77.449432,1.686551,-1.799090,0.714397
7818169366,-62.760971,-17.775858,80.194641,1.205826,-2.713185,0.413192
7818189366,7.861228,-15.151238,122.887589,1.011590,-1.873933,0.424065
7818209366,94.008888,-30.674314,171.580170,1.631648,-0.997165,0.222727
7818229367,160.609253,-23.671629,260.939148,2.153821,-0.427753,-0.015647
7818249367,184.047791,6.962496,323.144562,1.622305,-0.082905,0.114359
7818269367,157.142822,-7.818959,335.379395,1.433219,0.319530,0.043242
7818289367,125.761200,-18.455183,326.451782,0.948304,0.553684,0.085661
7818309366,70.666183,-35.511433,274.071747,0.413980,0.674491,0.208318
7818329367,26.349236,-45.342899,185.079773,0.189935,0.909353,0.254721
7818349367,0.545069,-38.741585,50.469490,-0.025891,1.620159,0.380093
7818369367,-48.267948,-60.026962,-121.168816,-0.115256,1.761531,0.464498
7818389367,-140.223373,-84.537430,-276.332825,0.156021,1.192334,0.673733
7818409367,-283.841309,-67.135620,-300.293976,2.475345,-0.146855,0.466722
7818449368,-21.971365,145.608643,-192.081772,0.760588,-0.757578,0.053657
7818469368,3.875730,88.588379,-204.389084,0.999075,-0.507813,-0.104489
7818489368,-2.933285,57.082779,-257.098938,1.347994,-0.291460,-0.077027
7818509370,20.640045,54.024021,-252.967529,1.667745,-0.225461,0.104510
7818529370,26.647202,6.612777,-156.481262,1.528388,-0.960869,0.636804
7818549370,32.441620,-21.552420,6.694080,1.634829,-2.566288,0.539947
7818569371,122.804695,-3.778649,151.948410,1.101875,-2.041620,0.560362
7818589371,164.911942,-25.811668,190.878525,1.353516,-0.899447,0.489978
7818609371,135.872833,-28.776516,233.915283,2.101147,-0.013111,0.244169
7818629372,69.252747,-7.412189,283.244812,1.626200,0.161720,0.348533
7818649370,20.284634,-39.192348,309.336334,1.359183,-0.066618,0.278295
7818669371,46.686932,-31.611568,304.355804,1.216214,0.147211,0.143860
7818689371,118.108795,-13.208385,274.871033,0.762436,0.542352,0.225441
7818709371,130.653091,8.727741,171.598923,0.420215,1.291471,0.217327
7818729371,65.075615,28.529844,18.438923,-0.177369,2.400192,-0.094699
7818749371,-77.494888,-35.816162,-156.261581,-0.766917,2.201215,0.227428
7818769371,-259.427216,-126.269821,-291.079010,0.241732,1.060815,0.662569
7818789372,-361.415955,-62.719955,-278.324280,2.864014,-0.348984,0.143810
7818809372,-134.147400,135.803711,-223.396545,1.534668,-0.908648,-0.132435
7818829372,-53.110836,129.248627,-182.427017,0.788817,-0.674222,0.044269
7818849374,-30.632294,71.440735,-211.874634,1.304137,-0.279323,-0.011705
7818869374,-19.757326,73.000687,-261.327087,1.833322,-0.172507,-0.148857
7818889375,23.953777,79.621117,-224.943161,1.517618,-0.273748,0.071541
7818909375,-13.965387,2.436311,-136.488159,1.154292,-1.148026,0.541413
7818929375,-7.610338,-25.779243,19.533888,1.429600,-2.606546,0.579912
7818949376,80.345337,3.709377,168.842148,1.422964,-1.882240,0.764285
7818969376,132.896713,-11.696991,225.537766,2.116984,-0.663657,0.374365
7818989375,114.181740,0.816954,284.544983,2.316532,0.108166,0.138115
7819009375,32.158520,-25.399208,313.110443,1.536570,0.091886,0.297075
7819029375,-14.520009,-74.973129,308.669586,1.237725,-0.083800,0.034791
7819049375,25.911827,-54.513859,279.552673,0.874207,0.139460,0.372409
7819069376,85.669807,-39.716217,205.894257,0.436067,0.964963,0.109394
7819089376,111.388275,-1.351655,74.020363,0.086678,1.971192,-0.447579
7819109376,14.285076,-2.359001,-83.597694,-0.715788,2.188114,0.334229
7819129376,-115.837929,-35.186600,-248.269241,-0.391611,1.589396,0.845829
7819149376,-246.237091,-29.538633,-346.429718,1.392715,0.698729,0.620429
7819169377,-213.995773,78.132500,-327.329651,2.578022,-0.120139,-0.036171
7819189378,-103.505386,167.135635,-268.256256,1.305215,-0.546060,0.014113
7819209378,-63.146477,131.565674,-243.946304,1.320116,-0.316041,-0.286090
7819229379,-15.850424,68.929367,-236.127090,1.844940,-0.230724,-0.108805
7819249379,-23.180874,-10.271683,-157.674194,2.267840,-2.003009,0.354776
7819269379,20.270866,2.204159,67.102295,1.655665,-2.865889,0.572764
7819289380,158.445770,-1.236017,120.396416,1.113245,-1.625591,0.548246
7819309380,169.377365,-42.422211,122.904175,1.462348,-0.595702,0.525903
7819329379,95.912338,-36.947540,161.789154,1.672515,0.328531,0.347075
7819349379,27.995220,-48.124825,207.464920,1.113429,0.362150,0.121097
7819369379,-6.124384,-66.826126,228.254135,1.047801,-0.009361,0.076432
7819389379,15.470112,-24.429800,246.399307,1.038687,-0.144730,0.252917
7819409380,91.470695,10.520047,265.302399,0.820037,-0.252467,0.461713
7819429380,123.255203,-3.796230,259.066650,0.796405,-0.007894,0.435461
7819449380,97.608597,2.424481,228.781067,0.891657,0.334670,0.260855
7819469381,55.900528,25.429001,185.877853,0.550553,0.479543,0.324976
7819489380,-10.290407,7.617764,115.435143,0.422842,0.416276,0.307604
7819509380,-64.919113,-11.433115,37.976639,0.553789,0.151473,0.197237
7819529382,-69.814339,-8.172073,-33.791504,0.604897,-0.086490,0.217918
7819549382,-68.331482,4.926748,-103.026817,0.660811,-0.006885,0.381266
7819569383,-87.814583,4.269969,-160.469391,0.663311,0.220737,0.390746
7819589383,-93.551735,3.648572,-202.122726,0.816086,0.263319,0.257633
7819609383,-105.791092,13.700533,-212.234711,1.116175,0.036411,0.269887
7819629383,-112.051849,36.476921,-191.464371,1.434167,-0.266551,0.241257
7819649384,-82.474762,58.962639,-164.039825,1.244029,-0.397050,0.191270
7819669383,-52.874870,58.403992,-151.603210,1.019883,-0.272893,0.245210
7819689383,-16.250971,62.066162,-150.320435,1.048277,-0.327377,0.348587
7819709383,5.857745,62.343410,-131.599121,1.071721,-0.370899,0.334076
7819729383,-5.199414,50.655251,-123.394753,1.148802,-0.188562,0.313351
7819749384,-13.857986,44.243790,-126.715439,1.251628,-0.096584,0.305494
7819769384,-29.833025,27.508287,-113.244972,1.400135,-0.191314,0.340917
7819789384,-72.767685,6.146211,-47.248146,1.359337,-0.654000,0.435001
7819809385,-92.894363,16.617605,14.366135,1.151895,-0.982191,0.494874
7819829385,-69.496658,16.032700,25.615314,0.950844,-0.725698,0.403439
7819849385,-35.237808,13.302568,39.567970,0.890295,-0.277667,0.234128
7819869387,-37.096107,16.473761,46.416687,0.862499,0.074808,0.156918
7819929387,-52.774597,-22.886108,69.593918,1.073284,-0.565994,0.087977
7819949388,14.820192,-2.390573,85.644806,1.183035,-0.661677,0.247171
7819969388,41.509449,14.493784,110.349365,1.002154,-0.443609,0.524315
7819989388,-1.401825,15.166973,125.748611,0.883914,-0.260375,0.569110
7820009387,-67.817902,7.632828,134.574615,0.851028,-0.138430,0.434185
7820029387,-122.686050,4.020082,136.148697,0.837120,-0.234275,0.233655
7820049387,-130.532410,4.363018,123.271721,1.070508,-0.499894,0.135461
7820069388,-99.918213,13.415640,122.490486,1.182476,-0.687649,0.159267
7820089388,-33.602768,24.276760,125.520042,0.903704,-0.671914,0.286841
7820109388,15.966571,37.116261,104.618408,0.642927,-0.365141,0.374367
7820129388,25.617924,43.582302,33.977577,0.475693,0.191740,0.036751
7820149388,-11.015749,35.182846,-49.098122,0.286431,0.545936,-0.019671
7820169389,-94.730461,6.380128,-129.252106,0.118296,0.685762,0.322837
7820189389,-131.106720,15.968361,-215.343872,0.067331,0.988425,0.217974
7820209391,-159.564819,3.762030,-311.837280,0.422716,0.900754,0.011368
7820229391,-212.484375,-9.651656,-379.639984,2.420892,0.205236,0.075465
7820249391,-165.806686,73.747314,-264.455383,1.790739,-0.807702,0.275144
7820269391,-47.052883,99.925674,-212.377136,1.021476,-0.335014,0.150039
7820289392,18.713604,81.001450,-252.435059,1.289347,0.460817,-0.092368
7820309392,-60.032776,40.828335,-268.140625,1.521737,0.645560,-0.057931
7820329391,-151.012939,4.156482,-222.570755,1.780930,0.401025,0.053152
7820349391,-185.350632,-9.568831,-150.530365,1.760076,-0.332829,0.285236
7820369391,-166.315002,-33.057617,-47.235870,1.638540,-2.136463,0.298954
7820389392,-74.435493,-33.575294,112.122810,1.647074,-2.498205,0.290824
7820409392,27.295307,-0.695245,137.589996,1.316418,-1.220590,0.348136
7820429392,6.760752,-21.047810,142.844803,1.568545,-0.602699,0.137129
7820449392,-53.806492,-8.831967,178.228226,1.541338,-0.535650,-0.096595
7820469392,-28.906984,-18.798773,228.733261,1.070125,-0.606335,-0.099432
7820489393,-11.335623,-40.808674,243.244705,0.853526,-0.474006,-0.104832
7820509393,26.298157,-44.158058,239.356705,0.954414,-0.196460,0.064227
7820529394,75.534698,-28.736843,230.596222,1.153646,0.028777,0.160374
7820569396,47.451221,2.751069,172.408829,0.613743,0.494275,0.380845
7820589396,4.341326,8.519412,109.976295,0.271221,0.535654,0.395460
7820609395,-46.597595,3.652458,18.780632,0.266272,0.658842,0.217287
7820629396,-95.584114,-10.570354,-77.754265,0.459138,0.915795,0.023726
7820649396,-164.518448,6.996153,-181.196747,0.789377,0.839989,0.418440
7820669395,-182.658203,24.911814,-241.511032,0.876439,0.286646,0.395346
7820689395,-185.932922,38.395985,-249.293320,1.970082,-0.355214,-0.059477
7820709395,-108.307915,84.501175,-227.788422,1.589744,-0.602718,-0.036060
7820729396,-80.817657,91.656464,-204.145294,1.107213,-0.364118,0.142683
7820749396,-89.272324,89.845177,-208.475708,1.136469,-0.139679,0.236128
7820769396,-79.066376,119.250267,-237.457092,1.321225,-0.151140,0.248928
7820789396,-67.623131,138.378067,-244.298691,1.202165,-0.116039,0.181331
7820809397,-57.463242,117.797150,-222.183334,1.387443,-0.100356,-0.207908
7820829397,-65.084641,66.657280,-192.423676,1.602553,-0.083176,-0.429304
7820849397,-75.392113,-39.012337,-56.067062,1.596553,-1.691703,0.144565
7820869399,-114.147163,-44.293140,163.739502,1.469077,-3.045206,0.756621
7820889399,-1.171247,-20.905493,158.687012,1.221573,-1.535746,0.494777
7820909399,71.486526,-53.252625,203.451813,1.758816,-0.582539,0.061748
7820929400,62.944225,-51.440948,264.360901,1.524477,-0.233779,0.111405
7820949400,61.657436,-66.494720,316.817261,1.285520,-0.408935,0.184481
7820969400,107.216461,-36.992977,328.026398,1.156702,-0.163421,0.252386
7820989400,180.570801,-27.919231,298.825897,1.095501,0.202909,0.350584
7821009399,199.691742,-8.690323,238.457062,0.960798,0.772422,0.340386
7821029400,108.760727,41.287655,158.746460,0.401101,1.643100,0.341533
7821049400,-38.051384,65.132874,33.722366,-0.231601,1.996087,0.445767
7821069400,-171.821472,5.849708,-116.214264,-0.159189,1.640499,0.060275
7821089400,-303.399750,-24.396864,-225.651276,0.613278,0.893830,0.292607
7821109400,-397.026398,-29.199659,-200.268417,2.276738,-0.960847,-0.311248
7821129401,-189.597397,93.746552,-129.313599,1.941202,-1.766370,-0.179289
7821149401,-39.086945,121.965462,-153.155014,0.863444,-0.836542,-0.071067
7821169401,5.050726,93.046066,-199.429489,0.856975,-0.191014,0.052673
7821189401,27.549217,73.615944,-239.971451,0.936842,0.051553,0.236471
7821209403,7.827461,70.810547,-251.670410,1.004349,0.281215,0.408575
7821229403,-56.342194,48.139107,-232.109009,1.061966,0.534552,0.302005
7821249404,-114.509987,51.227032,-210.100388,1.000521,0.460549,0.312284
7821269404,-162.355713,56.817200,-193.021454,1.057291,0.169280,0.078434
7821289404,-185.310028,57.940384,-177.016281,1.398331,-0.166349,-0.210524
7821309404,-175.485580,13.570024,-132.229126,1.918833,-0.812173,-0.114361
7821329405,-95.616051,-34.007542,-0.909785,1.684061,-2.889811,-0.148472
7821349403,65.297684,-43.024250,119.119095,1.351813,-2.814829,0.253949
7821369404,222.930603,-42.067719,160.692612,1.508378,-1.615814,0.292198
7821389404,268.127319,-30.273592,221.584564,1.699959,-0.562918,0.526241
7821409404,137.037064,1.537450,251.881744,1.526713,0.326286,0.819056
7821429404,-2.388901,14.965505,257.838104,1.180884,0.500897,0.425950
7821449405,-55.417412,3.254533,245.769287,0.783744,0.336748,0.068273
7821469405,-68.315041,-31.040619,215.685120,0.498286,0.175015,-0.044039
7821489405,-13.392001,-62.027538,172.380081,0.418560,0.253801,-0.107076
7821509405,46.743294,-52.196014,121.236450,0.313057,0.401292,0.031711
7821529406,57.770454,0.444766,39.588974,0.470595,0.960882,0.637675
7821549407,-22.861866,74.111176,-89.747734,0.375779,1.817847,0.883886
7821569407,-140.536835,25.216297,-244.014984,0.130238,1.825365,0.340293
7821589408,-362.399994,-60.822121,-326.249817,2.019753,0.617919,-0.000225
7821609408,-309.940247,57.451637,-274.673767,2.917724,-0.753890,-0.361610
7821629408,-128.398407,131.809921,-206.572189,0.974946,-0.909182,0.271592
7821649408,-49.010651,100.353897,-226.299728,1.128426,-0.033512,-0.043430
7821669428,-38.376518,100.364769,-255.013031,1.376136,0.304707,0.136209
7821689407,-88.776543,98.419540,-272.404419,1.387936,0.308908,-0.022818
7821709408,-121.400558,64.987038,-236.029831,1.210701,0.488897,-0.260427
7821729408,-151.372513,0.495643,-175.801392,1.104447,0.153132,-0.046266
7821749408,-203.210480,-54.906990,-71.802917,1.356821,-1.454184,0.086600
7821769409,-117.746758,-51.206650,77.504425,1.783913,-2.901700,-0.043661
7821789409,83.899399,15.530370,119.414627,1.338827,-1.579351,0.492705
7821809409,131.113739,-14.222223,131.469971,1.428852,-0.741865,0.477369
7821849409,-36.950722,-16.497538,184.554214,1.399343,0.051699,0.194969
7821869409,-99.882088,-44.893887,216.553253,1.097462,-0.085289,0.116774
7821889411,-106.536392,-42.571846,219.932053,0.954764,-0.296856,0.144858
7821909411,-63.961311,-23.396935,217.408829,0.757623,-0.296063,0.244933
7821929412,-4.338871,-13.163777,204.459991,0.729736,-0.120804,0.177560
7821949412,56.529507,4.339426,175.103546,0.881045,0.186136,0.131313
7821969413,57.748997,31.664391,118.283043,0.845799,0.554214,0.231297
7821989413,3.040318,46.022167,28.544931,0.549682,0.986035,0.295475
7822009412,-79.802872,15.400189,-76.447014,0.406169,1.184520,0.167930
7822029412,-178.703354,-0.211280,-154.311615,0.549420,0.933790,0.195299
7822049412,-221.902954,26.992395,-198.579742,0.900849,0.652981,0.322189
7822069413,-241.243835,46.962238,-239.443542,1.538139,0.470911,0.117591
7822089412,-240.319626,58.372360,-251.225235,2.236620,-0.212129,-0.261949
7822109413,-196.476501,88.831802,-202.661880,1.606696,-0.819224,-0.072151
7822129413,-135.385788,114.066719,-179.839355,1.161937,-0.453165,-0.008368
7822149413,-81.797363,106.840775,-199.216888,1.178281,-0.107166,-0.218666
7822169413,-66.659988,86.999802,-221.211380,1.111989,0.126012,-0.253200
7822189414,-100.642593,60.950546,-224.198181,0.971388,0.247291,-0.219445
7822209415,-133.393890,42.800354,-233.039917,1.122720,0.214541,-0.257371
7822229416,-149.531586,42.239105,-237.196487,1.278719,0.298498,-0.162499
7822249416,-146.053528,26.598984,-199.608353,1.634225,-0.278788,0.273287
7822289422,-47.359375,-12.854304,82.032211,1.291986,-2.922531,0.192244
7822309417,103.504341,-3.883394,88.757362,1.272888,-1.634431,0.440164
7822329417,204.011429,-14.875711,133.374161,1.602270,-0.840011,0.368153
7822349416,212.128372,6.301690,197.402267,1.715526,-0.047617,0.488652
7822369416,145.632568,26.158295,265.128510,1.595917,0.505408,0.403150
7822389416,53.009041,29.577583,298.122040,1.258085,0.655725,0.261800
7822409417,-46.750721,3.252932,309.176575,1.112336,0.646786,0.247062
7822429417,-72.788383,-17.473230,311.137299,1.100680,0.429758,0.271897
7822449417,-57.961475,-24.566414,282.201477,0.780717,0.519793,0.492962
7822469417,-47.932770,-11.788537,175.653809,0.340737,1.172239,0.172020
7822489417,-57.832367,-11.053631,35.343575,-0.268928,1.638659,-0.072062
7822509417,-131.976959,-29.341648,-117.171463,-0.390435,1.113088,0.196217
7822529418,-231.467010,-12.202252,-198.297577,0.604649,0.168144,0.668901
7822549420,-204.244019,35.976372,-174.603622,2.459442,-0.716965,0.059647
7822569420,-64.727089,80.974274,-129.354935,1.409040,-1.044035,-0.136181
7822589420,-45.235806,59.708370,-111.131973,0.963905,-0.750215,-0.000872
7822609420,-41.590790,50.338715,-133.037811,0.923581,-0.258546,0.088679
7822629421,-21.167345,59.751259,-167.249207,0.996818,-0.063806,0.160309
7822649421,-24.489906,62.125408,-197.923309,0.974620,0.031062,0.251760
7822669421,-54.759895,51.195156,-223.360443,1.042513,0.093838,0.260601
7822689420,-68.716805,46.888626,-224.888214,1.526155,-0.161006,0.199787
7822709420,-69.910217,41.951523,-171.102692,1.687390,-0.965674,0.180845
7822749421,32.829582,-22.426668,148.986237,1.009296,-2.278463,0.306659
7822769421,98.080719,-30.189499,194.486557,1.623593,-1.224413,0.307412
7822789422,166.968628,-22.671295,247.173584,2.156943,-0.289516,0.183666
7822809422,144.438599,-12.308179,308.647339,1.742087,0.175174,0.469351
7822849422,32.144508,-19.604639,322.773376,1.037533,0.356636,0.315804
7822869422,37.986649,-12.311726,299.360840,0.753751,0.435516,0.350867
7822889424,51.479088,9.890410,243.639862,0.563825,0.536438,0.356435
7822909424,21.936220,28.582949,147.026520,0.190012,0.915447,0.445635
7822929424,-38.625923,27.025581,1.342175,-0.127028,1.242651,0.403666
7822949424,-96.406387,-10.273503,-153.175262,-0.140508,1.375120,0.257920
7822969425,-223.235046,-67.865494,-227.720261,0.641286,0.314103,0.028146
7822989425,-268.879608,-32.657856,-156.830338,2.083320,-1.160475,0.075810
7823009425,-135.800674,73.553650,-115.371040,1.153192,-1.284427,0.193864
7823029424,-49.896393,81.793411,-132.777695,0.819192,-1.200900,0.123542
7823049425,10.648381,66.618805,-155.221115,1.066247,-0.889393,0.017348
7823069425,63.499329,71.911659,-163.952194,0.990306,-0.380171,0.029283
7823089425,46.380333,46.927734,-180.061340,0.842022,0.034632,0.158698
7823109425,-7.575825,29.927711,-213.258469,0.894984,0.260854,0.227634
7823129426,-57.313103,32.318951,-242.094360,1.222387,0.116106,0.228228
7823149426,-73.716522,35.036369,-228.535339,1.553541,-0.142747,0.258526
7823169426,-68.259872,32.821129,-172.444321,1.649776,-1.184477,0.551431
7823189426,-47.105770,-8.703086,-13.085853,1.380363,-3.245606,0.266511
7823209427,78.550079,-0.078357,122.625557,0.839786,-2.505117,0.454107
7823229428,189.163742,8.580547,167.152695,0.945942,-1.325389,0.384874
7823249429,206.026901,14.148445,187.378632,1.786761,-0.534907,0.344342
7823269429,140.530441,20.920765,239.474594,2.226007,0.434948,0.230788
7823289429,45.999714,30.012060,295.515137,1.357576,0.437925,0.244895
7823309429,-23.096191,-9.353241,305.021973,1.070479,0.110231,0.113498
7823329430,0.442051,-38.926708,302.054382,0.896089,-0.020794,0.177151
7823349428,47.946007,-44.746357,274.855774,0.734168,0.032972,0.365703
7823369429,71.931702,-35.895836,215.606064,0.499031,0.264737,0.287257
7823389429,79.646408,-13.309017,134.383499,0.234811,0.747744,0.291041
7823409429,20.124615,-5.307910,27.666069,-0.013763,1.373760,0.522195
7823429429,-87.487122,-36.724838,-116.991646,-0.194446,1.834971,0.435299
7823449429,-216.576431,-92.542305,-243.757004,0.151680,0.996644,0.390002
7823469430,-389.858368,-97.015533,-200.715668,2.043452,-1.426342,0.057328
7823489431,-143.065659,84.692871,-163.826492,1.963024,-1.402885,0.173462
7823529431,25.909204,78.754997,-166.174896,0.604881,-0.333653,0.155219
7823549431,61.805367,68.247375,-191.908615,0.920601,-0.282795,0.104893
7823569432,52.161716,54.432899,-220.041061,1.192428,-0.141416,0.000741
7823589433,-35.187988,17.212248,-230.803940,1.151782,0.146030,-0.008737
7823609433,-88.840324,-4.441465,-223.682098,1.396700,0.056806,0.115961
7823629439,-68.965317,-8.829381,-189.753571,1.604843,-0.364960,0.433579
7823649433,-41.941532,-7.323750,-101.237587,1.741663,-1.619697,0.633293
7823669434,-9.840044,-1.915088,37.286732,1.409006,-2.620504,0.374408
7823689433,73.414406,0.988928,93.477921,0.926909,-1.851575,0.222010
7823709433,107.871033,-28.352062,109.237358,1.177249,-1.032151,0.128568
7823729433,108.686447,-32.987923,150.412643,1.745399,-0.499011,0.002680
7823749433,127.961533,-0.800695,216.118149,1.554642,-0.171826,0.102091
7823769434,107.420067,-6.503042,254.462463,1.226415,-0.034418,0.152774
7823789434,71.266266,-30.076069,264.408386,1.089848,0.043560,0.095197
7823809434,61.271591,-45.637817,252.084518,0.949008,0.064561,0.134413
7823829435,59.820259,-48.765320,231.427536,0.885447,0.074737,0.224104
7823849435,69.817307,-36.351498,201.718582,0.760109,0.201094,0.216066
7823869435,75.814590,-14.279484,138.144272,0.568086,0.547454,0.294007
7823889436,28.919720,8.789711,34.363388,0.339636,1.234828,0.275217
7823909437,-53.621525,-20.477612,-74.253357,-0.045731,1.556426,0.159581
7823929437,-153.953506,-71.861641,-196.078598,-0.042438,1.099804,0.101137
7823949437,-279.411285,-91.086945,-280.021790,1.591965,0.189073,0.259014
7823989438,-80.609810,108.918503,-192.825516,0.902424,-1.007689,0.331849
7824029437,52.009251,89.773247,-212.297256,1.368530,-0.356210,0.085081
7824049437,20.651030,97.435013,-252.526001,1.509887,0.085706,0.098870
7824069437,-47.086975,92.093506,-253.339890,1.393199,0.394261,0.035214
7824089438,-87.359436,44.580303,-234.002991,1.448420,0.082819,0.085525
7824109438,-101.526321,14.226462,-139.781723,1.650612,-1.881736,0.190262
7824129438,-36.892990,-28.236553,43.821877,1.030339,-3.374433,0.071131
7824149439,124.829910,-17.100025,115.636719,1.033673,-1.811409,0.576114
7824169439,224.611664,-17.781837,169.906830,1.756617,-0.751177,0.477345
7824189439,240.302368,16.585386,217.038437,2.086105,0.232671,0.181680
7824209440,145.951859,40.133854,255.344131,1.450468,0.531010,0.299677
7824229441,38.153446,1.998871,271.496857,1.157757,0.318220,0.134442
7824249442,-19.989489,-6.179837,264.899353,0.939777,0.229537,0.144738
7824269442,-27.401148,-7.931536,256.011902,0.794660,0.024129,0.218494
7824289442,-8.755358,-17.264061,257.526917,0.759669,-0.173687,0.274452
7824309442,20.417067,-16.520557,227.053741,0.610476,-0.100776,0.212539
7824329442,66.741966,-10.070448,153.859253,0.380485,0.100067,0.210604
7824349442,66.027321,-0.861914,58.578312,0.446570,0.473151,0.270574
7824369441,13.064397,7.172235,-35.531532,0.392575,1.071959,0.324408
7824389441,-70.759575,-34.659042,-121.720619,0.256052,1.092849,0.254209
7824409442,-153.756058,-48.553364,-215.745850,0.375974,0.780237,0.382176
7824429442,-223.350327,-71.468735,-241.708969,1.070412,-0.163300,0.279063
7824449442,-201.858093,4.300243,-219.139816,2.481894,-0.622871,0.175914
7824469443,-78.206100,97.004944,-187.219757,1.113328,-0.505763,0.125492
7824489443,-28.506744,88.040489,-173.149796,0.613549,-0.281709,0.284948
7824509443,-5.029531,74.258644,-200.483780,0.910386,-0.168374,0.284553
7824529443,-8.334602,85.907951,-251.611832,1.505639,-0.038515,0.159479
7824549444,-43.824467,94.347565,-263.396118,1.528759,0.345439,-0.132790
7824569445,-70.019516,41.189381,-229.644028,1.254628,0.361321,0.018271
7824629446,54.289505,-8.242563,84.138359,1.115707,-2.446769,0.334671
7824649446,181.460052,4.125917,118.268356,0.994470,-1.122516,0.518159
7824669447,187.675262,-7.405876,145.786621,1.509954,-0.469493,0.395281
7824689469,138.254547,-4.202282,192.832565,2.120180,0.177733,0.128411
7824709446,91.651123,37.408504,254.624222,1.500715,0.299614,0.110998
7824729446,46.866737,24.125767,253.787109,1.069992,0.146697,0.164470
7824749446,2.425839,-11.232256,244.810822,0.804661,0.052434,0.153031
7824769447,-3.130744,-30.952118,237.865799,0.823807,-0.034353,0.158024
7824789447,11.809550,-21.406202,235.322479,1.036070,-0.045997,0.166998
7824809447,26.733921,-5.015617,228.971359,1.063635,-0.044781,0.159413
7824829447,44.819183,4.106316,204.559906,0.826111,-0.107718,0.186630
7824849447,52.114853,-6.480000,172.543381,0.673435,-0.222597,0.133861
7824869448,49.784084,-14.736000,134.131210,0.572313,-0.220562,0.177052
7824889448,27.894430,-23.181877,95.535667,0.520043,-0.244033,0.295377
7824909450,14.708814,-38.172375,73.033028,0.557364,-0.319182,0.390952
7824929450,11.392708,-44.727757,61.732094,0.693496,-0.393189,0.433139
7824949451,13.662516,-32.182854,45.592262,0.721240,-0.423407,0.484416
7824969450,9.103064,-14.202418,20.248590,0.618215,-0.435475,0.536652
7824989451,-8.865589,-6.668014,1.541354,0.583486,-0.448229,0.476934
7825009451,-17.894957,-2.059818,-6.546781,0.599807,-0.523172,0.396976
7825029460,-24.033314,-2.363097,-14.739848,0.595730,-0.668050,0.348353
7825049450,-20.587236,-0.412031,-21.003490,0.635145,-0.770381,0.281819
7825069450,-9.927553,5.225575,-20.530586,0.647370,-0.781534,0.295522
7825089450,-4.544909,5.862177,-16.507612,0.651205,-0.768355,0.339142
7825109451,-4.968887,4.939245,-16.828262,0.654120,-0.773444,0.337243
7825129451,-2.211375,4.240214,-17.901598,0.684818,-0.751399,0.296987
7825149451,-2.351481,1.538112,-13.716673,0.732077,-0.709141,0.238982
7825169451,-5.786274,-4.443801,-8.483520,0.672930,-0.691578,0.260647
7825189452,-7.469443,-13.390915,-11.763783,0.613830,-0.679157,0.297807
7825209452,-1.668710,-13.662345,-17.389761,0.656773,-0.636341,0.304149
7825229452,1.606041,-4.940501,-17.292269,0.695520,-0.547974,0.323888
7825249454,-6.726176,-2.590053,-13.738771,0.696859,-0.542652,0.329293
7825269454,-17.432068,-6.665013,-14.340137,0.658082,-0.611460,0.316915
7825289454,-18.909781,-5.531320,-20.623178,0.634965,-0.652185,0.282737
7825309455,-13.576229,-4.441858,-27.377892,0.638402,-0.651415,0.252659
7825329455,-5.913204,-4.825562,-29.812550,0.711296,-0.597379,0.274363
7825349455,-7.452276,-2.837220,-29.487759,0.772628,-0.538977,0.342587
7825369454,-17.163940,0.083154,-28.803093,0.787884,-0.540153,0.378333
7825389454,-27.521664,5.147893,-28.132793,0.783939,-0.601824,0.363552
7825409454,-28.573719,12.043131,-29.907093,0.755979,-0.641744,0.334056
7825449455,-12.903331,21.487185,-35.850170,0.759652,-0.588073,0.316575
7825469455,-16.582680,21.202520,-38.598228,0.779690,-0.548106,0.312241
7825489455,-24.259939,20.898716,-42.946602,0.808371,-0.560710,0.312541
7825509456,-28.235796,24.363165,-48.005302,0.750676,-0.615308,0.312251
7825529456,-23.686455,27.224298,-53.031818,0.700371,-0.648584,0.294560
7825549456,-11.782004,27.073185,-56.983974,0.772160,-0.606226,0.241818
7825569458,-3.431711,26.197369,-53.378059,0.837478,-0.530521,0.229180
7825589458,-5.980946,24.904270,-44.476925,0.868115,-0.478225,0.250851
7825609458,-14.035207,24.224062,-36.632538,0.830176,-0.483415,0.283022
7825629459,-21.803419,21.723356,-34.723881,0.746663,-0.482184,0.283439
7825649459,-24.479548,15.571016,-36.112442,0.742755,-0.462363,0.252446
7825669459,-27.682037,10.898526,-36.061436,0.824783,-0.444893,0.222629
7825689460,-33.649902,8.525942,-35.020306,0.881527,-0.487551,0.222487
7825709459,-31.659243,8.525933,-35.454964,0.851372,-0.514149,0.263092
7825729459,-26.573486,9.790003,-36.015877,0.862860,-0.468356,0.284761
7825749459,-27.687191,12.874470,-34.208530,0.844918,-0.432696,0.285310
7825769459,-34.281590,11.592937,-30.144957,0.847854,-0.443862,0.265352
7825789459,-40.095322,10.968598,-26.931446,0.845267,-0.452508,0.248128
7825809459,-41.135300,11.988529,-26.315773,0.815258,-0.430775,0.254880
7825829460,-41.441452,13.436971,-26.564123,0.834584,-0.410440,0.256131
7825849460,-44.829464,16.502262,-26.957706,0.859114,-0.416549,0.234032
7825869460,-47.355484,19.806793,-29.476528,0.854072,-0.436974,0.209575
7825889460,-45.859875,20.311922,-33.057335,0.848590,-0.439247,0.195052
7825909462,-43.029236,18.970598,-34.470058,0.874762,-0.419290,0.192728
7825929462,-43.535412,18.413998,-34.769196,0.932024,-0.402336,0.198152
7825949463,-45.350231,18.380510,-33.240887,0.937306,-0.394990,0.204751
7825969463,-46.274559,17.815435,-30.718729,0.903244,-0.391070,0.218578
7825989463,-49.484890,18.015827,-30.560585,0.890643,-0.374792,0.219387
7826009463,-52.938309,20.333221,-32.759117,0.911427,-0.356647,0.203172
7826029464,-54.474819,23.221531,-35.637741,0.924566,-0.342120,0.189581
7826049462,-56.272362,22.268213,-36.757507,0.942512,-0.340083,0.180700
7826069463,-58.092842,20.934431,-34.470943,0.949442,-0.324549,0.183815
7826089463,-62.887367,21.409096,-32.057407,0.940215,-0.314336,0.191410
7826109463,-67.669235,21.560778,-31.846268,0.926438,-0.324926,0.180579
7826129463,-69.323532,21.917345,-33.223404,0.932497,-0.330348,0.160017
7826169464,-70.635010,22.473717,-37.315979,0.959641,-0.289688,0.144797
7826189464,-73.577087,21.198803,-36.156860,0.966796,-0.279429,0.129022
7826209464,-78.297745,21.198599,-34.151871,0.945446,-0.282251,0.128942
7826229465,-83.321175,21.929094,-34.231022,0.939734,-0.298367,0.131413
7826249466,-85.101196,23.234846,-36.523815,0.934690,-0.303765,0.134181
7826269466,-84.244316,22.558693,-40.362328,0.936599,-0.287302,0.118623
7826289467,-81.066551,20.744362,-44.875023,0.936871,-0.242050,0.130336
7826309467,-86.961823,19.561720,-46.947746,0.939040,-0.207339,0.151534
7826329467,-92.907722,20.372219,-46.779873,0.973677,-0.176801,0.164275
7826349467,-100.120979,22.442865,-45.312443,1.013360,-0.151152,0.147770
7826369468,-108.975136,22.709694,-44.125702,0.992837,-0.156312,0.106140
7826389466,-112.646683,22.317011,-45.513031,0.939636,-0.174974,0.089016
7826409467,-112.901123,25.506617,-50.040337,0.997648,-0.164417,0.086883
7826429467,-112.647156,31.321812,-53.707935,1.069244,-0.180745,0.093784
7826449468,-110.290314,39.811275,-56.561340,1.029393,-0.216580,0.128778
7826469468,-110.733612,41.509872,-58.831615,1.047860,-0.253894,0.115034
7826489468,-107.613586,41.437649,-57.728439,1.057603,-0.265144,0.073893
7826509468,-103.558006,40.425316,-53.289162,1.034353,-0.211736,0.042645
7826529468,-109.229042,36.136101,-51.032410,0.990112,-0.142017,0.014767
7826549469,-122.526665,27.786514,-54.178738,0.965133,-0.143235,-0.005716
7826569469,-129.620255,20.173639,-59.104584,0.989430,-0.194704,-0.021647
7826589471,-121.063438,16.483971,-58.678593,0.995770,-0.243850,-0.016176
7826609471,-103.986015,17.224087,-53.212433,0.993101,-0.245484,0.018120
7826629471,-89.703117,20.722399,-48.232372,0.986522,-0.184558,0.073216
7826649471,-88.682190,22.231428,-49.398983,0.971099,-0.107690,0.136552
7826669472,-100.077538,21.118738,-52.860378,1.010329,-0.070257,0.161457
7826689472,-114.442970,22.332329,-53.081436,1.028541,-0.053536,0.156275
7826709487,-126.836548,24.115862,-50.905094,1.032925,-0.073418,0.126523
7826729471,-129.772797,25.577599,-48.268932,1.056786,-0.141760,0.099719
7826749471,-125.193848,25.987164,-47.615368,1.081333,-0.169973,0.076683
7826769472,-115.497887,26.129904,-47.135948,1.066674,-0.149417,0.049402
7826789472,-108.266304,24.364336,-45.321938,1.023095,-0.112579,0.049856
7826809472,-109.046684,22.113842,-44.403854,0.995765,-0.084470,0.067849
7826829472,-111.635834,19.728338,-44.092434,0.978888,-0.068415,0.091149
7826849472,-112.105743,18.687101,-43.652405,0.991685,-0.069705,0.115287
7826869473,-113.717682,19.929060,-44.813374,1.015349,-0.074421,0.125723
7826889473,-115.157608,20.547934,-47.036209,1.015482,-0.085970,0.125628
7826909474,-114.343491,18.507668,-47.486637,1.015243,-0.118702,0.118558
7826929475,-111.548721,17.208487,-44.810947,1.020956,-0.149634,0.099935
7826949475,-108.068695,17.243700,-41.718880,1.011241,-0.152292,0.090391
7826969475,-104.070633,15.741580,-40.947598,0.985090,-0.142275,0.097271
7826989476,-97.937317,12.727982,-42.519817,0.984302,-0.124732,0.115055
7827009476,-92.397194,10.141376,-44.448433,0.990870,-0.096232,0.128001
7827029476,-88.640770,7.775135,-45.982330,0.974844,-0.080051,0.135983
7827049475,-85.899101,5.321659,-47.214825,0.973570,-0.059764,0.141496
7827069475,-83.946396,5.118737,-45.414181,0.992482,-0.022385,0.157987
7827089475,-80.874229,9.149899,-40.841290,1.002261,-0.004940,0.197223
7827109476,-77.582909,10.959803,-35.020641,1.006232,-0.046591,0.233751
7827129476,-82.656784,8.751862,-32.479671,1.006426,-0.056621,0.206542
7827149477,-89.734879,9.185611,-35.283863,0.994795,-0.029334,0.158573
7827169477,-89.394470,8.823111,-37.586369,1.011977,-0.010314,0.128261
7827189477,-87.249718,8.923996,-35.924774,0.996757,-0.012406,0.137444
7827209477,-79.316452,5.757398,-36.524204,0.946671,-0.045636,0.161441
7827229477,-67.681152,1.848048,-40.450493,0.950389,-0.058027,0.177723
7827249479,-52.949860,5.783517,-42.792625,0.982597,-0.045122,0.199741
