Timestamp (us),Gyroscope X (deg/s),Gyroscope Y (deg/s),Gyroscope Z (deg/s),Accelerometer X (g),Accelerometer Y (g),Accelerometer Z (g)
10051738353,2.160218,0.222967,-0.280914,0.958495,0.060709,0.288806
10051758315,2.274582,0.466297,-0.113933,0.955016,0.065905,0.287382
10051778276,2.168457,0.573119,-0.106854,0.950213,0.069337,0.282411
10051798237,1.469800,0.330946,-0.624881,0.942965,0.068830,0.279919
10051818198,1.535552,-0.186120,-0.487281,0.954386,0.069033,0.283221
10051838159,1.793485,0.278137,0.097262,0.964314,0.071138,0.278816
10051858120,1.072439,0.652953,0.033603,0.955921,0.073621,0.281080
10051878081,0.203401,0.229803,0.008596,0.945240,0.072554,0.287549
10051898042,-0.081000,-0.118471,0.326932,0.953275,0.072543,0.286239
10051918003,-1.137912,0.052190,0.315595,0.957432,0.067671,0.285485
10051937964,-0.856064,-0.345022,-0.107887,0.948210,0.059356,0.282265
10051957927,0.963674,-0.168520,-0.208389,0.957417,0.062460,0.283475
10051977888,1.614352,0.513341,-0.457709,0.963981,0.068067,0.286145
10051997849,1.399430,0.316774,-0.222853,0.954272,0.069616,0.279476
10052017809,1.147759,0.226409,-0.178014,0.948128,0.076418,0.280345
10052037770,-0.112037,0.617523,-0.554642,0.944858,0.078358,0.286354
10052057732,-2.422663,-0.028028,-0.014876,0.946782,0.077687,0.285308
10052077693,-5.147634,-1.303066,0.721787,0.958259,0.075457,0.283915
10052097654,-5.111526,-1.218515,1.222681,0.960002,0.058999,0.284854
10052117615,-3.120308,-0.031093,1.128824,0.955909,0.053620,0.287053
10052137576,-1.465946,-0.113995,0.352706,0.953361,0.058043,0.289392
10052177497,-0.541549,-0.602812,0.773909,0.958934,0.060078,0.289461
10052197458,1.278938,-0.106661,0.794362,0.962012,0.057312,0.289017
10052217419,2.143394,0.338015,0.174223,0.954169,0.062089,0.286882
10052237380,1.747602,0.179343,0.059311,0.944441,0.069336,0.284491
10052257341,1.502048,-0.413209,-0.016509,0.943053,0.074228,0.288574
10052277302,0.952575,-0.601197,0.171691,0.947121,0.080007,0.282635
10052297263,-1.337980,-0.479484,0.330907,0.959837,0.076995,0.272081
10052337186,-4.153315,-0.104785,0.662567,0.954907,0.058499,0.284314
10052357147,-3.704126,-1.535262,1.000123,0.957467,0.053961,0.286621
10052377108,-2.805815,-1.134545,1.260533,0.965160,0.051448,0.288078
10052397069,-1.843629,0.003644,1.520051,0.962871,0.051483,0.288855
10052417030,-1.232716,-0.067852,0.975739,0.952252,0.050279,0.286039
10052436991,-0.163087,-1.022165,0.836501,0.955914,0.055723,0.287929
10052456952,0.381458,-0.439183,0.412423,0.957892,0.058852,0.285729
10052476913,-0.582713,-0.238980,0.112950,0.947010,0.058834,0.282980
10052496874,-1.466714,-0.319356,0.337831,0.954523,0.057706,0.279585
10052516837,-1.763034,0.328987,0.821606,0.961528,0.054043,0.288879
10052536798,-1.549456,0.076654,0.481165,0.958953,0.051904,0.283768
10052556759,0.035580,0.108629,-0.006957,0.956981,0.049502,0.285956
10052576720,0.391673,0.115789,0.335733,0.959905,0.052304,0.286966
10052596681,0.335175,-0.271145,0.700416,0.963958,0.058190,0.282026
10052616642,0.560929,0.266795,0.062848,0.956496,0.061104,0.283299
10052636604,0.097636,0.229803,-0.158721,0.945455,0.062705,0.285529
10052656564,-1.207140,-0.343427,0.126222,0.952747,0.060973,0.284143
10052676526,-1.279215,-0.699677,0.597059,0.955124,0.056736,0.275787
10052696486,-0.720213,-0.337344,0.143001,0.953661,0.063538,0.279929
10052716451,-1.792377,-0.463746,-0.125983,0.957000,0.067563,0.284022
10052736407,-3.764615,-0.464390,0.201434,0.960650,0.062111,0.280535
10052756368,-3.861739,-0.457257,-0.185957,0.953638,0.047956,0.283553
10052776329,-2.597105,-0.865774,-0.886983,0.946737,0.048171,0.293348
10052796291,-1.821861,-2.327266,-0.328210,0.961398,0.057755,0.287814
10052816252,-1.578649,-1.520343,0.453098,0.963268,0.058254,0.279736
10052836213,-0.689761,-0.223168,0.241593,0.947330,0.064230,0.266779
10052856174,-0.594374,0.498487,-0.009621,0.945839,0.075548,0.275126
10052876135,-2.912749,0.157769,0.833241,0.938990,0.082876,0.280344
10052896096,-5.744451,-0.522581,2.145458,0.946358,0.091353,0.274695
10052916057,-7.888049,0.515223,4.269447,0.959160,0.092467,0.266716
10052936018,-10.110368,2.510163,9.495815,0.972615,0.093389,0.252196
10052955979,-13.820688,3.723643,13.284035,0.970049,0.097978,0.228488
10052975940,-22.553843,5.694301,11.256215,0.928980,0.096995,0.244142
10052995901,-29.385391,1.448243,10.503813,0.901666,0.071249,0.273112
10053015863,-30.032557,-5.046559,13.144906,0.943082,0.051358,0.284943
10053035824,-25.708040,-3.797699,17.035519,0.992607,0.035813,0.282645
10053055786,-20.871161,2.226996,17.945637,0.946294,0.015562,0.307169
10053075747,-19.415554,3.692584,15.413397,0.925101,0.033609,0.326610
10053095708,-21.700949,1.057411,13.649038,0.953809,0.065710,0.310492
10053115669,-28.647011,-0.810235,11.761880,0.975399,0.063621,0.276137
10053135630,-35.233795,2.033664,8.707687,0.974793,0.035178,0.263843
10053155592,-40.718140,8.326533,5.583681,0.951760,0.007347,0.302487
10053195514,-34.847542,9.541038,2.444070,0.932700,-0.096529,0.327970
10053215475,-25.897007,11.081674,-0.025570,0.936977,-0.101268,0.336413
10053235436,-20.096272,15.981922,-4.582549,0.941148,-0.095911,0.351427
10053255400,-19.948809,19.395037,-8.852412,0.956784,-0.105490,0.347682
10053275356,-20.432999,19.364872,-9.491478,0.965226,-0.150095,0.324436
10053295318,-17.274702,20.230673,-8.837234,0.936596,-0.200755,0.314633
10053315279,-6.674961,22.585480,-8.479382,0.891977,-0.221933,0.308060
10053335240,2.974423,21.628014,-7.907214,0.834759,-0.214151,0.308613
10053355201,5.108324,16.288296,-5.061332,0.801600,-0.183849,0.337104
10053375162,3.322178,9.989930,-1.096149,0.805094,-0.138607,0.343985
10053395123,2.475712,5.885296,2.330013,0.862886,-0.120049,0.323706
10053415084,4.979640,6.180930,5.813796,0.909420,-0.140914,0.284834
10053435045,7.761629,4.869679,8.625441,0.909776,-0.146628,0.254883
10053455006,10.973049,-0.388364,12.195756,0.963183,-0.110621,0.256093
10053474967,14.303751,-6.217949,19.137018,1.110797,-0.055978,0.243244
10053494929,22.755445,-6.770669,22.414043,1.226622,-0.016028,0.222586
10053514890,21.361687,-4.892253,12.684592,1.205850,0.070756,0.206031
10053534851,15.104227,-3.094933,-3.466269,1.045987,0.156137,0.299774
10053554811,5.900978,-15.844480,-12.319293,0.900959,0.145669,0.438796
10053574773,-6.258709,-20.213203,-14.455215,0.929597,0.177455,0.432153
10053594735,-16.187742,-9.658689,-11.885452,1.054250,0.247837,0.428825
10053614696,-24.907974,-2.347185,-20.334265,1.118225,0.263326,0.401970
10053634657,-33.095478,5.550104,-46.655251,1.095148,0.283462,0.339022
10053654618,-35.269676,14.254244,-74.399559,1.010198,0.308838,0.292246
10053674580,-35.913559,13.742043,-80.502815,0.977202,0.287454,0.298456
10053694541,-47.015388,13.767488,-70.407669,1.038628,0.314564,0.299867
10053714502,-65.717682,18.903599,-76.009842,1.007845,0.397209,0.291575
10053734463,-68.590981,16.540457,-102.146133,0.977164,0.483235,0.328122
10053754424,-67.243172,13.065007,-118.833206,1.098545,0.453889,0.334289
10053774385,-85.804016,24.950520,-126.076706,1.153149,0.388188,0.299760
10053794346,-100.447006,32.132423,-128.989441,1.076302,0.354622,0.274769
10053814306,-86.837204,22.148607,-140.632431,0.944310,0.384872,0.086451
10053834267,-79.168671,-0.606026,-158.969818,0.816341,0.523831,-0.031180
10053874189,-135.381683,-39.782032,-162.785477,0.760300,0.819172,0.010216
10053894150,-187.435959,-61.348667,-161.824783,0.732080,0.811229,-0.093072
10053914111,-239.536514,-76.168121,-156.373840,0.855341,0.793965,-0.111017
10053934072,-264.263550,-83.788330,-150.334702,1.033411,0.597543,-0.151795
10053954033,-285.969849,-85.910675,-151.063538,1.079173,0.361136,-0.204635
10053993955,-255.557037,-109.338707,-146.799377,0.970199,0.296223,-0.270133
10054013917,-245.205215,-118.313545,-127.186249,1.052077,0.204503,-0.305466
10054033877,-226.896851,-120.735275,-111.199539,1.057545,0.194388,-0.191281
10054053838,-223.219238,-116.902397,-101.622871,1.126287,0.130701,-0.040547
10054073800,-213.274475,-116.561646,-97.924828,1.085437,0.030097,-0.099020
10054093761,-190.064926,-105.857239,-85.455429,1.066243,-0.098333,-0.024601
10054113722,-158.884598,-93.145966,-72.097511,1.012964,-0.153527,0.048539
10054133684,-130.747177,-82.456085,-59.027435,0.902586,-0.218264,0.056408
10054153646,-95.681580,-74.753769,-49.489429,0.810657,-0.193943,0.050682
10054173607,-56.801323,-72.087212,-38.322334,0.835011,-0.084152,0.060530
10054193568,-30.875797,-70.079132,-23.493441,0.972464,0.068739,0.045613
10054213529,-31.431122,-62.057526,-6.340014,1.122712,0.239297,0.141554
10054233490,-62.323139,-56.063004,2.193279,1.180052,0.332909,0.299338
10054253451,-105.581848,-49.912025,4.621532,1.286037,0.405997,0.412090
10054273412,-139.394257,-28.160952,-3.172840,1.315628,0.524341,0.407507
10054293373,-175.806168,-21.355715,-19.908970,1.222360,0.492230,0.352323
10054313334,-210.978012,-24.325764,-28.627153,1.128650,0.436273,0.244888
10054333295,-224.266968,-32.701134,-31.982712,0.991724,0.202454,0.133927
10054353255,-218.574127,-41.003975,-29.651901,0.961530,0.013138,0.058616
10054373216,-200.366318,-40.969704,-17.782658,0.969491,-0.186711,0.048468
10054393177,-157.757507,-28.900135,-6.602118,0.980287,-0.327396,0.114258
10054413138,-107.804779,-13.569233,0.552662,0.962403,-0.350085,0.278304
10054433099,-66.126175,-7.918363,6.427134,0.917577,-0.290300,0.400256
10054453060,-26.949018,-17.716951,6.434634,0.871674,-0.161957,0.423082
10054473021,6.438474,-27.442335,-0.354451,0.897950,-0.006190,0.370656
10054492983,19.184662,-25.985233,-4.291358,0.957859,0.101416,0.262357
10054512944,7.811017,-26.276421,-8.305360,0.942502,0.227318,0.183248
10054532905,-19.239952,-39.513691,-23.288162,0.910278,0.483622,0.145403
10054552866,-53.436062,-32.758530,-53.776497,0.989988,0.814450,0.235695
10054572827,-119.680756,-17.888014,-70.501831,0.974677,0.923090,0.449815
10054592788,-208.764999,-47.570862,-72.497429,0.977431,0.851211,0.353789
10054612749,-252.880432,-76.236732,-68.418610,1.234671,0.638806,0.040265
10054632710,-228.061996,-68.257095,-80.840691,1.348778,0.313741,-0.146644
10054652671,-188.097748,-54.251209,-120.452530,1.242441,0.172408,-0.139905
10054672634,-153.432281,-49.624325,-154.444122,1.159571,0.283136,-0.023583
10054692595,-114.480972,-54.071468,-193.621902,1.245534,0.600191,0.142630
10054712556,-100.408531,-68.401100,-273.956207,1.565589,1.329803,0.285071
10054732517,-189.510574,-38.473305,-285.641541,1.366406,0.843773,0.064183
10054752478,-312.787384,-49.966217,-266.929199,1.124627,0.602510,-0.512630
10054772439,-343.057404,-62.305122,-222.544434,1.055016,0.283670,-0.235498
10054792400,-342.282104,-102.865059,-155.011383,0.993298,-0.164332,-0.306968
10054812361,-264.150360,-102.855324,-132.068466,0.929299,-0.434754,-0.469991
10054832322,-157.801300,-81.629372,-144.286453,0.690201,-0.405539,-0.145302
10054852284,-69.405205,-101.007103,-155.288773,0.513639,-0.122980,0.049627
10054872245,-30.293427,-130.904129,-147.176331,0.632317,0.225364,0.128326
10054892204,-33.434135,-143.755310,-113.948639,0.717832,0.414383,0.091740
10054912165,-54.873318,-144.408569,-68.444092,0.715590,0.438190,0.021100
10054932126,-52.087410,-133.916122,-27.558825,0.669982,0.316186,-0.080729
10054952088,-38.490353,-120.703911,2.679809,0.698231,0.283260,-0.105624
10054972049,-20.034544,-117.013824,25.169582,0.864963,0.302209,-0.034398
10054992010,-9.060534,-113.366562,44.743130,1.058881,0.441510,0.112120
10055011971,-23.168930,-120.600983,55.256603,1.331931,0.779996,0.222679
10055031932,-56.365002,-90.789619,47.975891,1.555246,1.184916,0.321949
10055051893,-130.046265,-34.628006,25.236935,1.368880,1.264607,0.418122
10055071854,-215.302979,-10.860291,0.762577,1.057065,1.043027,0.218247
10055111776,-300.683350,-45.192234,-26.714251,0.906312,0.545000,-0.204715
10055131737,-309.187378,-58.036781,-28.787479,0.929642,0.232580,-0.243699
10055151698,-317.243713,-67.309921,-24.064451,0.971122,-0.108817,-0.218588
10055171659,-302.297821,-62.612091,-20.250141,0.954754,-0.464688,-0.080291
10055191620,-256.557709,-49.618027,-20.809044,0.908745,-0.664766,0.098439
10055211582,-179.683319,-30.162212,-18.512169,0.843224,-0.695932,0.258290
10055231544,-77.891991,-14.211654,-10.397709,0.787382,-0.585343,0.359264
10055251505,9.516269,-24.314959,1.616704,0.817435,-0.403510,0.351556
10055271467,61.681957,-33.928207,8.497320,0.878880,-0.129706,0.314869
10055291428,75.588585,-36.189392,10.413651,0.888781,0.166403,0.312477
10055311389,66.409370,-34.762894,5.599856,0.865104,0.453321,0.341582
10055331350,26.724735,-36.762501,-0.440450,0.856848,0.674273,0.408475
10055351311,-37.528774,-46.283901,3.345886,0.977989,0.771807,0.407005
10055371272,-104.031387,-47.799919,13.579003,1.098912,0.754894,0.305598
10055391233,-149.252655,-49.984497,5.099656,1.049715,0.644085,0.239581
10055411194,-161.192657,-63.219902,-11.419401,1.064780,0.603487,0.165487
10055431155,-146.492813,-71.054520,-26.583473,1.073168,0.658169,0.031704
10055451115,-131.087845,-80.307304,-57.491123,0.959340,0.770840,-0.014846
10055471076,-145.292603,-107.500824,-90.412697,0.928191,0.959099,-0.111475
10055491037,-154.757446,-117.412292,-147.881012,1.089843,1.304570,-0.230182
10055510998,-206.779907,-119.651726,-216.832428,1.515442,1.792861,-0.260425
10055530959,-313.544708,-52.439770,-261.569885,1.889496,1.393809,-0.212880
10055550920,-407.007080,-14.275702,-242.446167,1.638783,0.391686,-0.678956
10055570881,-477.109375,-61.752773,-221.326172,1.225855,-0.024667,-1.029478
10055590843,-423.738464,-121.872147,-183.348160,0.970156,-0.378224,-0.753005
10055610803,-307.536163,-151.662643,-162.496552,0.999331,-0.436360,-0.580140
10055630764,-188.446915,-116.779373,-181.470169,1.001493,-0.186158,-0.220862
10055650726,-147.847961,-107.258484,-189.030746,0.847803,0.107468,0.001168
10055670687,-146.406647,-128.971024,-175.712051,0.943072,0.270041,0.009267
10055690648,-152.274765,-138.293015,-135.250763,0.989438,0.341132,-0.044591
10055730570,-155.852386,-127.548088,-73.576729,0.799414,0.243017,-0.150371
10055750531,-140.211456,-120.537605,-53.233849,0.712443,0.215422,-0.252957
10055770494,-114.174126,-115.133453,-39.874413,0.674042,0.282231,-0.168338
10055790455,-90.186897,-122.365738,-32.065903,0.820912,0.333597,-0.138438
10055810416,-66.892471,-122.164909,-12.529973,0.984618,0.409212,-0.067012
10055830377,-65.914879,-121.679573,7.151875,1.186334,0.617824,-0.005354
10055850338,-110.152222,-110.270737,16.968710,1.331116,0.847953,0.107541
10055870299,-174.567703,-84.991020,2.184339,1.380917,0.882594,0.236740
10055890260,-231.828583,-69.854362,-30.464651,1.307512,0.728597,0.227535
10055910221,-274.108521,-80.127670,-55.436749,1.239327,0.548682,0.065684
10055930183,-289.260834,-91.245239,-71.453499,1.145673,0.282057,-0.069989
10055950144,-289.807495,-96.235916,-84.516823,1.028350,0.060915,-0.077078
10055970105,-272.663422,-94.978195,-93.614883,0.947559,-0.135178,-0.098295
10055990065,-231.297516,-86.019485,-99.669342,0.866210,-0.265439,-0.043927
10056010025,-172.328979,-77.161568,-101.438187,0.816960,-0.206260,0.064476
10056029987,-122.362358,-74.971489,-94.028458,0.839213,-0.056321,0.195287
10056049948,-93.310524,-79.582581,-83.216896,0.878246,0.049122,0.272589
10056069909,-76.809555,-85.859360,-69.772858,0.885611,0.131973,0.286757
10056089869,-62.779884,-82.416855,-56.366684,0.859236,0.254245,0.243839
10056109831,-56.191654,-77.354080,-43.230385,0.808651,0.404251,0.215503
10056129792,-58.470558,-79.150764,-28.967140,0.812842,0.527067,0.169312
10056149753,-68.054764,-77.807755,-11.765271,0.868241,0.642909,0.073908
10056169714,-90.691505,-81.288261,-4.890564,0.860564,0.709330,0.041719
10056209636,-144.840607,-112.242599,-35.183563,0.912009,0.776549,0.025079
10056229597,-173.990601,-120.082138,-50.591202,0.968317,0.755372,-0.015703
10056249558,-199.979004,-118.420326,-63.376644,1.012419,0.665315,-0.051119
10056269519,-206.146194,-117.139221,-71.405769,1.169857,0.522479,-0.140778
10056289481,-193.688263,-106.970039,-81.124603,1.262926,0.400878,-0.197636
10056309442,-186.035110,-97.688843,-97.551849,1.187343,0.374230,-0.108980
10056329404,-174.791183,-93.290596,-104.829865,1.081074,0.345940,-0.048726
10056349365,-163.589249,-95.586426,-105.518005,1.015424,0.335128,-0.038917
10056369326,-164.081161,-100.923347,-109.200111,1.016138,0.379651,-0.002297
10056389287,-172.261536,-100.969681,-107.428375,1.039303,0.381831,0.007744
10056409248,-171.777710,-97.113113,-94.940369,1.097030,0.320257,-0.009676
10056429210,-159.869415,-89.068733,-84.447250,1.144328,0.273623,-0.032267
10056449170,-148.883713,-78.140656,-85.998276,1.093614,0.268874,0.029896
10056469132,-140.789627,-68.004883,-96.566322,0.985133,0.268058,0.139834
10056489093,-121.115906,-64.223160,-105.834335,0.926468,0.289584,0.240213
10056509054,-100.545403,-63.880703,-114.593361,0.944568,0.377787,0.323515
10056529018,-94.258545,-56.321850,-119.926834,1.081922,0.508053,0.427437
10056548974,-100.675331,-41.266083,-115.993683,1.096224,0.533160,0.457521
10056568936,-83.289711,-27.852262,-115.478134,0.938350,0.477346,0.364205
10056588897,-46.775002,-32.988464,-123.159317,0.712131,0.475726,0.254724
10056608858,-3.560512,-50.517906,-167.798187,0.545614,0.915450,0.257398
10056628819,-14.187302,-65.002975,-209.796280,0.589888,1.204541,0.172247
10056648780,-48.384270,-52.426109,-163.071045,0.376191,0.577456,0.054755
10056668741,-48.446705,-75.878220,-98.473091,0.238127,0.227460,-0.020084
10056688702,-25.765392,-125.868805,-49.280651,0.244229,0.143491,-0.088805
10056708663,-3.709803,-141.889923,-24.495472,0.360724,0.320743,0.074339
10056728624,5.650446,-138.388702,-23.285824,0.524851,0.722671,0.275291
10056748585,5.720011,-136.290848,-35.014366,0.863761,1.043163,0.271066
10056768546,-15.083426,-112.839050,-27.376965,1.199677,1.054474,0.350074
10056788507,-54.860069,-87.534431,-17.239811,1.100035,0.844741,0.408504
10056808468,-81.594521,-73.026695,-11.794391,1.039674,0.609929,0.402046
10056828430,-89.657516,-48.780609,2.600555,1.076636,0.426203,0.458367
10056848391,-78.223015,-24.046328,3.383086,0.986658,0.309358,0.491686
10056868353,-29.684288,-13.805756,-19.346300,0.868813,0.223448,0.525809
10056888314,25.806099,-16.616570,-43.042599,0.861315,0.226841,0.534995
10056908275,60.542751,-21.898838,-58.075962,0.883390,0.378515,0.448319
10056928237,76.372169,-13.470181,-69.496262,0.804248,0.563300,0.322547
10056948198,75.320686,-1.782492,-75.452118,0.691573,0.731499,0.232400
10056968159,55.918133,-2.545157,-69.565010,0.628615,0.858884,0.196194
10056988120,27.642820,-6.681321,-64.886108,0.590249,0.895543,0.201902
10057008081,-4.094375,-5.802721,-64.134705,0.606184,0.841572,0.264636
10057028042,-18.433460,-0.252831,-65.063164,0.633190,0.764057,0.316576
10057048003,-17.312206,6.433265,-66.374832,0.633648,0.648623,0.361183
10057067964,-2.869917,14.240081,-67.826294,0.623111,0.560775,0.375997
10057087924,16.624714,21.753103,-71.195923,0.594048,0.611678,0.361518
10057107885,30.628613,25.379894,-72.012665,0.537059,0.696169,0.336596
10057127846,32.034016,26.680874,-61.999538,0.482360,0.733634,0.317404
10057147807,25.754429,27.837908,-48.808853,0.438695,0.781154,0.297431
10057167768,12.037169,32.022968,-35.457542,0.375620,0.863153,0.302944
10057187729,1.667148,36.112980,-18.687376,0.283964,0.912741,0.234977
10057207690,-18.785532,35.773514,14.320194,0.211892,0.852256,0.050701
10057227651,-59.265999,26.130014,59.236401,0.149135,0.826848,0.015454
10057247612,-88.754005,21.702608,106.040550,0.163409,0.949988,0.172875
10057267573,-107.817841,4.111569,154.507751,0.193474,0.974573,0.371356
10057287535,-114.295502,-29.441481,211.935181,0.333338,0.806764,0.333143
10057307495,-96.883621,-38.706844,268.289673,0.503229,0.603976,0.342403
10057327457,-77.679230,-41.349918,307.875153,0.720616,0.458919,0.610023
10057347418,-54.462303,-21.953419,346.530182,1.223172,0.524693,0.758307
10057367379,-22.052633,1.864220,382.226440,1.816208,0.560376,0.690376
10057387340,16.740820,70.749008,367.998749,2.457508,0.254776,0.448437
10057407301,-35.828781,126.518089,252.124573,1.842326,0.269449,0.158083
10057427264,4.105411,69.795486,196.058258,1.117829,1.005299,0.130374
10057447225,104.364044,-47.791901,132.449966,0.272797,2.581544,-0.069027
10057467186,116.274254,-76.508820,-67.357651,0.304293,2.728870,-0.073321
10057487147,27.141665,49.005798,-139.013290,0.272076,1.923454,0.387214
10057507108,-57.472435,-3.545614,-145.513580,0.432473,1.554994,0.305403
10057527069,-146.162003,-61.018085,-113.632751,1.012448,1.277640,0.043300
10057547030,-233.844818,-62.477970,-109.101044,1.018737,0.802894,-0.074656
10057566991,-247.949646,-53.167759,-153.089096,0.869062,0.526460,-0.012954
10057586952,-238.938660,-62.035854,-188.147079,0.709151,0.361481,0.085799
10057607448,-221.001678,-66.947433,-193.066727,0.735522,0.120507,0.073657
10057627423,-184.456055,-58.395798,-163.572525,0.839926,0.014089,0.006378
10057647369,-136.733337,-33.327698,-120.875687,0.840367,-0.004494,0.078720
10057667330,-103.229637,-16.173206,-99.115242,0.823807,-0.049133,0.265733
10057687291,-83.597038,-23.392189,-114.188034,0.903726,-0.088674,0.409630
10057707252,-84.658875,-42.135612,-133.341980,0.969556,0.020098,0.416432
10057727213,-88.567276,-54.889858,-113.572998,0.897528,0.043105,0.478022
10057747174,-69.375748,-64.327255,-75.556007,0.797710,-0.019197,0.454719
10057767135,-50.163490,-67.828796,-46.814491,0.766811,-0.112021,0.431815
10057787096,-8.092683,-58.620594,-33.665794,0.770110,-0.160609,0.518087
10057807057,42.422886,-40.043312,-18.552719,0.860500,-0.122119,0.634672
10057827018,78.646172,-12.700058,6.601534,1.078025,-0.245900,0.442083
10057846980,131.831924,23.305532,32.390869,1.111265,-0.259732,0.396114
10057866941,161.873367,49.741447,39.083786,1.010110,0.057490,0.484677
10057886902,183.077881,71.456245,43.857201,1.232002,0.391377,0.449494
10057906863,182.403687,87.120300,15.416806,1.159470,0.812566,0.463392
10057926824,173.047058,92.170807,-29.065252,0.871916,0.861828,0.352408
10057946785,156.163940,74.256058,-62.062675,0.678463,0.783482,0.228485
10057966748,113.962173,58.190445,-59.263786,0.671592,0.521866,0.074015
10057986709,72.579620,66.903435,-20.419176,0.678859,0.322020,0.181869
10058006670,21.665222,69.749870,24.375578,0.594901,0.245670,0.297138
10058026631,-21.534155,61.604420,46.117680,0.502676,0.232107,0.298947
10058046592,-34.057590,62.008049,37.894302,0.531292,0.189256,0.366557
10058066553,2.894621,53.750168,36.617126,0.395023,0.148745,0.384118
10058086514,52.590382,16.986288,35.303234,0.393568,0.270036,0.173391
10058106475,92.419090,-0.505495,49.106758,0.496134,0.410156,0.037294
10058126436,99.684502,-6.543636,75.725502,0.499194,0.496153,-0.016236
10058146397,81.272400,-5.407972,108.084915,0.427905,0.491432,0.045639
10058166358,58.147587,-11.970394,150.868118,0.350864,0.498036,0.212947
10058186318,37.084446,-14.224591,217.626648,0.532661,0.634326,0.592866
10058206279,18.191895,-12.909314,315.526367,1.273560,0.735474,0.967041
10058226240,36.911316,25.176685,439.474030,2.518103,0.673016,0.423210
10058246201,4.577446,147.045044,406.945190,2.855114,0.160119,0.105872
10058266162,-90.598198,194.107529,220.475540,1.826315,0.033015,0.134252
10058286123,-18.627241,33.449486,208.013550,1.799150,0.970074,0.473273
10058306084,158.821655,-128.116333,172.738586,1.115256,2.167505,-0.354674
10058326045,195.417145,12.368485,-123.580322,0.639538,3.014612,-0.281113
10058346006,61.832348,137.164413,-150.740860,0.480493,1.937271,1.450133
10058365967,-123.382874,-21.085140,-89.156479,0.874552,0.693596,1.159106
10058385929,-164.910904,-10.322677,-59.976719,2.083972,0.181432,-0.052042
10058405890,-200.163193,88.062424,-44.074806,1.633877,0.030037,-0.461313
10058425850,-144.152969,44.841888,-54.260559,0.688540,0.325977,-0.063156
10058445811,-73.910973,-62.395256,-78.791794,0.261390,0.602007,0.104608
10058465773,-46.561676,-106.762619,-137.293671,0.274358,0.815512,0.025130
10058485734,-4.203964,-98.128998,-170.939499,0.650928,0.711767,-0.076995
10058505696,39.744991,-36.108437,-160.474258,1.041728,0.574329,0.057178
10058565579,-136.956619,-98.899673,-178.845001,0.864464,0.546468,0.426462
10058585540,-171.452957,-109.180855,-180.347687,1.081413,0.429753,0.206884
10058605502,-200.209671,-81.199333,-156.577881,1.199025,0.321403,-0.014471
10058625463,-222.160690,-49.377529,-118.379044,1.101385,0.114078,-0.020060
10058645424,-209.101273,-37.481083,-96.572052,1.034077,-0.149905,0.149673
10058665385,-172.983612,-31.199249,-92.082993,0.994691,-0.415833,0.293177
10058685346,-109.214233,-24.465149,-102.325348,0.835760,-0.520154,0.438035
10058705307,-38.946293,-38.310646,-102.634071,0.692735,-0.344570,0.402576
10058725267,34.245644,-35.578903,-95.292587,0.759186,-0.012438,0.311299
10058745228,70.338257,-14.376102,-87.023621,0.812459,0.241144,0.365583
10058765189,65.134911,0.923038,-73.638008,0.829177,0.377720,0.454987
10058785150,33.877911,7.589027,-49.525867,0.837500,0.424227,0.489710
10058805111,17.601873,20.580217,-17.822206,0.851162,0.280584,0.354901
10058825072,34.523117,38.125710,13.157108,0.852558,0.033116,0.204084
10058845033,64.828827,53.109055,46.825600,0.967233,-0.091224,0.329792
10058864994,111.985672,84.089066,33.608135,1.144561,0.358752,0.525099
10058884955,155.584702,106.111938,-18.382011,1.141317,0.594483,0.561791
10058904916,150.121643,104.735954,-23.004780,1.013747,0.502515,0.460517
10058924878,150.099792,90.641846,-9.072399,0.791430,0.319505,0.201550
10058944839,150.788712,93.985710,24.750885,0.606172,0.059122,0.079757
10058964800,119.309357,90.789436,75.508278,0.458526,-0.056588,0.044068
10058984761,53.738358,61.430222,120.295128,0.268773,0.009218,-0.084699
10059004722,38.731846,29.082514,143.525070,0.228732,0.313991,-0.101899
10059024683,60.415493,28.643251,163.648621,0.378557,0.467345,0.135280
10059044644,67.551147,-9.213340,205.379456,0.631602,0.514072,0.234042
10059064606,85.484085,-20.188536,244.373611,0.918303,0.439901,0.431381
10059084568,69.501274,-5.248907,288.613037,1.327449,0.488277,0.535802
10059104529,72.572792,50.447498,348.913727,1.621715,0.319421,0.379780
10059124490,97.903908,112.489693,370.762207,1.985444,0.170753,0.192648
10059144451,58.055588,162.879395,303.768402,2.650082,0.299234,-0.043225
10059164412,-52.336132,108.692284,218.566666,2.123167,1.121868,-0.113261
10059184373,54.508305,-43.360489,221.871567,1.010462,2.051123,-0.262808
10059204334,147.067154,-74.800514,-53.939034,0.678567,2.974774,-0.230116
10059224295,-4.851090,110.747726,-123.038246,0.732304,2.029099,1.025985
10059244256,-182.624557,-32.036957,-32.635391,0.471459,0.701129,1.121540
10059264241,-210.684616,-88.243423,-19.802837,1.162737,0.015684,0.363133
10059284177,-175.417908,0.792156,-21.898855,1.714433,-0.256459,-0.166021
10059304138,-109.136086,73.061951,-37.429600,1.611956,-0.278187,-0.176560
10059324099,-46.759941,72.282959,-60.886086,0.987360,-0.157782,0.068902
10059344060,-3.445929,19.787298,-63.373917,0.678992,0.092578,0.187724
10059364021,29.792110,-24.773138,-65.110008,0.619905,0.310991,0.194082
10059383982,56.405823,-31.700359,-64.009903,0.762570,0.331712,0.164214
10059403943,66.951889,0.116215,-52.296967,0.859208,0.304445,0.208048
10059423904,33.575710,18.748705,-48.389954,0.744906,0.452494,0.367802
10059443865,-23.458664,-26.425829,-52.639557,0.641032,0.633501,0.488689
10059463826,-84.256126,-74.099747,-61.534992,0.839657,0.661363,0.383694
10059483787,-138.698944,-77.853348,-63.204407,1.012852,0.591825,0.220182
10059503748,-194.273468,-63.591995,-55.911037,1.020790,0.378579,0.089414
10059523709,-224.624908,-49.878269,-38.894943,1.000531,0.109638,0.083704
10059563632,-169.685715,-24.443516,-6.572302,0.899848,-0.317272,0.252488
10059583592,-107.411957,-23.207685,-4.083944,0.774244,-0.410599,0.283676
10059603555,-48.682602,-37.575207,-2.471941,0.747241,-0.412649,0.236226
10059623517,-2.940161,-49.183784,7.904328,0.836325,-0.299761,0.205232
10059643477,12.324680,-48.936882,26.260065,0.938652,-0.138702,0.176970
10059663438,14.107808,-36.200287,47.079857,0.985141,-0.097436,0.153653
10059683399,20.883633,-20.091555,62.302528,0.933318,-0.137694,0.186144
10059703361,27.623812,-16.662941,72.360466,0.863920,-0.152888,0.254327
10059723322,36.922310,-26.047705,75.623138,0.859745,-0.146486,0.278915
10059743283,46.756073,-33.856583,73.033775,0.940066,-0.151152,0.265348
10059763244,48.671104,-24.998549,71.455856,1.041573,-0.068075,0.193637
10059783205,47.898781,-14.633818,69.851631,1.006893,-0.069675,0.202679
10059803166,48.360661,-19.467899,64.365646,0.980230,-0.066322,0.170628
10059823126,52.472183,-28.457867,59.102852,1.009786,-0.036707,0.140452
10059843087,50.274254,-32.374931,55.367455,1.026623,-0.007879,0.140835
10059863048,38.942753,-34.444080,52.206257,0.973136,-0.025107,0.149425
10059883009,30.206821,-35.261467,51.639767,0.941446,-0.091485,0.150477
10059902970,28.754839,-26.617853,59.059669,0.971951,-0.115652,0.148063
10059922931,28.033323,-17.288366,72.104721,1.026806,-0.117352,0.188800
10059942892,32.530708,-10.095696,78.430809,1.049019,-0.133776,0.212789
10059962853,39.203094,-5.317775,71.167473,1.014381,-0.151749,0.221099
10059982815,39.100201,-3.978992,59.872093,0.989325,-0.095377,0.204235
10060002776,36.540672,-4.363976,53.481514,1.030495,-0.028867,0.175398
10060022737,31.887789,1.344616,41.026154,1.008532,0.010556,0.176535
10060042698,23.259567,7.456856,26.340939,0.961348,0.034772,0.201590
10060062659,6.533860,9.771904,20.278982,0.983474,0.064514,0.262065
10060082620,-14.473138,10.149935,23.609053,1.071787,0.101428,0.300324
10060102581,-31.391285,13.131933,23.639759,1.099563,0.110313,0.256159
10060122542,-44.609688,19.575468,11.344729,0.982538,0.069082,0.244307
10060142503,-64.073547,14.247080,8.237428,0.945256,0.025536,0.298518
10060162465,-85.407639,2.238131,15.523833,1.042231,0.052476,0.319707
10060182427,-95.080040,10.641752,11.616302,1.031519,0.038454,0.260732
10060202387,-87.520164,24.325180,-5.462930,0.855361,-0.010780,0.306297
10060222348,-80.603333,14.859194,-12.286755,0.850377,-0.055495,0.378058
10060242310,-91.090988,2.718294,-4.228133,1.063268,0.045555,0.364918
10060262270,-103.599129,13.029485,-1.954929,1.089944,0.173618,0.245748
10060282231,-108.330269,27.532946,-12.761614,0.842452,0.184955,0.305040
10060302193,-125.128250,16.410543,-14.955894,0.875849,0.209055,0.472720
10060322154,-165.832870,6.075270,-11.652139,1.123419,0.328511,0.443615
10060342115,-185.451813,22.691359,-27.937607,1.076123,0.353808,0.312297
10060362091,-181.489777,34.012951,-49.070354,0.930426,0.240431,0.319404
10060382035,-195.417068,25.085629,-48.086048,1.115091,0.225274,0.246547
10060401997,-214.888901,37.889881,-49.960640,1.189186,0.356293,0.157976
10060421957,-212.258957,53.110825,-74.177322,1.034362,0.369064,0.138445
10060441919,-215.261566,42.464020,-97.698517,1.042845,0.352522,0.057463
10060461880,-245.650848,31.500130,-114.441307,1.190127,0.422957,-0.106722
10060481841,-263.278015,34.806740,-135.534775,1.123839,0.441702,-0.276892
10060501802,-274.714172,26.152905,-153.334030,1.075239,0.363264,-0.316930
10060521763,-310.027710,11.191073,-161.693237,1.173316,0.260720,-0.341316
10060541724,-331.559967,3.325818,-174.024734,1.268437,0.239474,-0.465162
10060581646,-329.888824,-5.586067,-219.770020,1.241183,0.152898,-0.555579
10060601607,-335.721832,-13.067267,-220.453583,1.284514,-0.009812,-0.574429
10060621568,-325.427734,-17.351862,-220.731903,1.301441,-0.095542,-0.550678
10060641529,-315.788971,-20.014542,-221.022415,1.434758,-0.001913,-0.487207
10060661490,-316.469788,-17.289190,-224.481918,1.484375,-0.030894,-0.338848
10060681451,-307.033020,-21.646618,-232.048828,1.417156,-0.077424,-0.298614
10060701414,-283.094177,-36.026360,-235.029510,1.314640,-0.099583,-0.170641
10060721375,-268.998901,-54.311245,-225.355011,1.242675,-0.142032,-0.034764
10060741336,-253.086334,-67.663681,-199.311493,1.292660,-0.089386,0.082578
10060761297,-247.520355,-74.760986,-176.408005,1.315154,-0.158264,0.131380
10060781258,-237.935226,-73.764687,-164.993713,1.294326,-0.216905,0.184410
10060801219,-224.164230,-66.446793,-164.837708,1.244129,-0.221869,0.362871
10060821183,-211.864059,-56.609863,-173.630661,1.250959,-0.186240,0.535522
10060841141,-185.384384,-30.899469,-189.132278,1.339981,-0.146106,0.664075
10060861103,-143.063187,-8.695045,-205.987946,1.274344,-0.200928,0.828591
10060881063,-115.418633,-3.192621,-212.962967,1.119380,-0.182347,0.951656
10060901025,-82.142052,-11.303106,-207.323364,0.934388,-0.208375,0.824663
10060920984,-35.497478,-14.971912,-184.114716,0.826872,-0.269191,0.766865
10060940945,-3.177993,-14.677540,-167.994690,0.732697,-0.260669,0.854148
10060960907,25.955015,-19.391047,-155.050095,0.666493,-0.273784,0.830383
10060980868,80.862022,-35.387466,-137.616776,0.681380,-0.254159,0.827876
10061000829,140.436813,-52.261227,-136.757156,0.608034,-0.113989,0.831884
10061020790,189.789322,-55.396400,-161.315674,0.555303,0.194359,0.807745
10061040751,218.043686,-40.395065,-163.384949,0.575422,0.403499,0.783015
10061060712,225.489578,-13.018942,-159.925308,0.396837,0.697004,0.674127
10061080673,204.389008,-12.433901,-155.912811,0.339211,0.955408,0.413409
10061100634,169.674744,11.648036,-155.744751,0.259112,1.329666,0.314292
10061120595,101.337769,11.793122,-150.574738,0.174196,1.559141,0.188410
10061140556,42.236221,20.964682,-123.560539,0.193742,1.378319,0.182260
10061160517,10.617634,8.321050,-89.091537,0.287070,1.163366,0.237850
10061180479,1.985759,-0.323360,-82.739616,0.257918,1.058230,0.294403
10061220401,-6.355599,35.345039,-23.767290,0.245419,0.501674,0.356197
10061240363,6.045433,60.812508,17.719351,0.011353,0.512957,0.222138
10061260324,-17.479656,55.310741,54.109367,-0.216011,0.701399,0.079928
10061280285,-88.363068,33.294838,119.101059,-0.294717,0.781399,-0.037655
10061300246,-150.560242,10.399182,229.127991,-0.249183,0.722653,0.185969
10061320207,-192.896820,-26.053150,341.874329,-0.228235,0.514555,0.609921
10061340168,-128.156998,-90.104347,442.941010,0.409948,0.597091,0.738563
10061360129,-24.509975,-87.195160,559.882812,1.567080,1.019236,0.737208
10061380091,4.397599,-63.865837,630.646423,2.689078,0.903684,1.089596
10061400052,4.581620,56.890869,581.120239,3.452467,0.793675,1.013244
10061439974,5.269574,48.356075,566.130981,3.024961,0.364321,-0.599085
10061459942,256.434692,-49.036572,287.527893,2.109307,5.793875,-3.294432
10061479895,707.152161,223.885376,-386.567261,-0.919659,4.364199,1.500349
10061499855,-31.830242,48.688042,-389.468506,-2.167949,2.318691,1.807185
10061519817,-504.515137,23.929611,-427.574554,0.092480,2.683903,-1.217474
10061539778,-119.905014,30.025005,-476.281342,0.889649,0.703294,-0.307509
10061559739,-251.283386,-162.626007,-516.180908,4.762035,-0.018168,-0.772862
10061579700,-126.306778,84.445206,-610.883301,2.323546,-1.714335,-0.655668
10061599661,81.269730,81.825478,-566.812439,1.106945,-2.066542,0.519788
10061619622,105.118576,-64.295387,-468.869812,1.302186,-2.462842,0.828270
10061639583,244.893539,-158.344925,-251.437927,0.777624,-2.360034,1.290487
10061659544,451.512146,-126.129860,3.958088,0.601798,-1.806366,0.517645
10061679506,385.582458,34.861557,187.170944,0.930165,0.501321,0.873517
10061699466,344.355713,84.869576,23.203247,1.290119,4.237875,-0.460688
10061719427,65.293350,176.551331,-1.747435,0.970283,2.124980,0.172434
10061739388,-133.521713,46.812584,-29.426180,-0.207111,1.187308,-0.782393
10061759349,-276.933105,-68.026619,102.721924,-0.728181,0.665919,-0.222923
10061779310,-230.945465,-95.447632,270.648407,-1.364594,0.249683,-0.076432
10061819234,51.930496,-25.333229,603.424072,1.572404,0.842219,2.027364
10061839196,-23.807388,-9.225636,912.896301,6.143579,1.058345,0.659050
10061859156,-261.293335,315.374817,601.310547,2.680573,-0.545957,0.495604
10061879117,-49.997757,109.301041,470.815155,2.091056,-0.582306,1.236283
10061899078,288.954803,-264.130554,464.881165,5.850018,5.379043,-7.424997
10061919040,968.080872,332.456635,-356.283752,-0.951032,8.231005,3.044314
10061939000,56.023376,97.168144,-307.664490,-1.983902,2.536843,3.020113
10061958962,-636.796387,54.380260,-293.944702,-0.126443,2.194247,-1.812747
10061978923,-203.446243,68.105911,-358.439606,0.216150,0.823123,-1.262857
10061998884,-69.476006,-158.365219,-479.931427,1.082466,0.338650,-0.092564
10062018844,-209.390305,-135.695786,-513.342957,3.851644,0.468138,-1.058235
10062038805,-88.178352,157.339172,-614.182922,2.800035,-1.397664,0.277808
10062058766,-15.817057,105.766411,-573.195007,1.755028,-2.706939,0.126558
10062078727,154.623108,17.016119,-469.791687,1.541530,-3.555737,0.326318
10062098688,313.359924,-80.655426,-257.285431,0.697282,-2.569355,0.880296
10062118649,461.962921,-147.666458,-9.370504,0.013731,-1.391763,0.468196
10062138610,430.408081,-43.674286,205.423355,0.108450,0.712706,0.430636
10062158571,247.723267,-0.370161,116.953033,1.553463,4.108595,-0.362405
10062178532,-45.975014,182.918579,199.647415,1.115440,2.409619,0.053146
10062198493,-291.321289,-26.814762,189.503937,-0.269145,1.616205,-0.170971
10062218454,-353.853363,-119.526772,252.268585,-0.475026,1.016428,-0.037618
10062238415,-266.168854,-104.620148,376.296570,-0.032623,0.582669,1.111685
10062258376,-148.211227,-70.631310,601.600830,2.048194,0.012986,1.883122
10062278338,15.774663,-4.823333,918.545715,4.452190,-1.911149,-0.211912
10062298299,114.381737,147.355011,654.858948,3.431325,-2.438213,0.258259
10062318259,552.499634,-119.300102,355.785156,5.545752,7.340991,-6.978811
10062338221,772.420288,158.027954,-282.824677,-1.622436,9.866620,2.340002
10062358183,-14.047253,110.463806,-289.359802,-1.462015,3.354399,3.526421
10062378144,-689.367859,31.392126,-270.913574,1.004714,1.998862,-1.660858
10062398105,-412.173340,37.200848,-315.155640,1.000895,1.130228,-1.954944
10062418066,-46.631214,-85.466049,-452.134521,1.332313,-0.006912,-0.615853
10062438027,-117.596130,-68.913162,-531.930786,2.644011,0.043869,-0.242130
10062457988,-25.620564,169.279694,-582.642212,2.079332,-0.843904,0.712377
10062477949,-21.420040,147.086426,-580.811646,1.960284,-1.515910,0.748064
10062497911,97.170578,9.347002,-475.715271,2.935090,-3.054118,0.002634
10062517871,232.073608,16.166864,-304.737946,0.938519,-2.989836,1.065719
10062537833,340.082458,-32.319389,-83.745094,0.087983,-2.305349,0.294750
10062557794,448.263397,-23.296787,224.296417,0.068406,-1.069158,0.575192
10062577754,386.667389,-36.598888,269.391144,-0.105103,1.966321,-1.046889
10062597715,90.233200,130.979355,190.331696,2.001025,4.111889,0.497997
10062617675,-144.304001,112.541405,303.258392,0.627473,1.680079,-0.346621
10062637637,-380.895355,-46.593430,342.300720,-0.276630,1.651337,0.057064
10062657598,-401.707703,-52.601849,440.850128,0.445661,1.197421,1.001751
10062677559,-254.405731,-3.765908,698.620850,2.381283,0.446066,1.106381
10062697520,-37.429649,-22.942997,911.126282,3.690086,-3.229689,-0.884250
10062717481,94.114861,-43.730743,515.212280,4.866029,0.195087,-3.070846
10062737442,1057.186646,-34.512951,-103.426872,1.875070,11.878529,-2.364570
10062757403,508.799255,254.262573,-325.991272,-2.508043,5.752894,4.501410
10062777364,-457.328156,-27.677336,-258.886902,0.417401,2.098010,-0.796601
10062797325,-740.012207,-54.011898,-257.269623,0.771554,2.668859,-1.405291
10062817286,-248.295380,-115.967064,-382.143463,1.077089,0.297163,-1.294091
10062837247,-146.444504,-105.036423,-528.556946,2.865508,0.092606,-0.756462
10062857208,-154.923920,45.983215,-500.001221,2.622525,-1.031175,-0.111179
10062877170,-53.651463,189.211258,-503.227539,1.369230,-0.955844,0.866008
10062897131,17.312704,39.306618,-517.257141,1.819546,-1.428861,0.471600
10062917093,92.064980,-31.886858,-442.383301,1.875931,-2.663250,0.234784
10062937054,181.796219,-5.011059,-304.303223,0.911235,-2.677595,1.052272
10062957015,383.350189,7.360390,-65.606201,0.306528,-2.253483,0.471928
10062976976,514.912231,48.341286,197.801117,0.456928,-1.315455,-0.011560
10062996937,354.145508,121.453369,330.491364,0.506516,0.894000,-0.380219
10063016898,116.561501,87.228714,149.387421,2.116956,4.459439,-0.344978
10063036859,-229.611099,122.772240,241.016434,-0.000703,1.684051,-0.115345
10063056820,-412.210114,-98.126007,352.201202,-0.634762,1.686872,0.151265
10063076781,-298.174988,-84.071762,483.709656,-0.043346,1.129219,0.815054
10063096743,-177.317673,-12.178339,639.151855,1.205803,0.051495,1.507711
10063116704,-60.445606,-26.478580,867.568176,4.368460,-2.093672,-0.731514
10063136663,27.167072,72.396957,658.044800,5.232558,-2.725859,-0.291070
10063156625,822.465942,-156.731354,229.398117,4.416177,8.761695,-6.509028
10063176585,773.464905,276.650055,-341.103027,-1.735682,9.312938,3.703725
10063196546,-148.530014,70.897850,-241.066620,-0.315782,3.070942,2.202004
10063216507,-689.028809,-10.085306,-240.371429,1.154182,1.778440,-1.971038
10063236468,-440.175873,-75.127022,-248.111359,1.298231,1.294119,-1.694562
10063256429,-60.983932,-132.527390,-381.780518,0.918749,0.347476,-1.054684
10063276391,-51.603653,-124.649979,-457.898285,1.934240,0.292427,0.016425
10063296352,-122.624756,43.367805,-448.608948,2.196678,-0.312876,0.427181
10063316313,-145.711060,117.495605,-502.604919,2.001074,-0.741166,0.471496
10063336274,-59.320904,26.105253,-495.003265,2.203541,-1.802047,0.112585
10063356235,56.265522,18.806858,-469.201050,1.486915,-2.892506,0.263823
10063376196,169.324677,5.201810,-376.967621,0.621994,-3.034771,1.044713
10063396157,349.667114,32.118114,-165.934723,0.653816,-2.257045,0.636075
10063416119,493.395752,84.351097,92.547684,0.557406,-1.295948,-0.117125
10063436080,459.557892,167.370743,251.947464,0.734466,0.508122,0.260522
10063456042,283.237091,71.570000,145.574966,1.362565,3.771808,-1.400225
10063476003,-121.996849,115.492035,112.689285,0.543174,2.566077,0.009673
10063495964,-364.957489,-68.452629,283.385986,-0.890425,1.683899,-0.470137
10063515925,-469.472168,-175.635529,370.729523,-0.594654,1.992776,0.330571
10063535886,-311.779816,22.677128,540.554749,0.253598,0.542066,1.727532
10063555847,-184.211884,-52.616722,773.522156,3.219074,-0.879642,0.722665
10063575808,9.013371,20.854076,920.731506,4.401010,-4.214308,-0.951427
10063595769,358.822693,-17.473232,495.973846,5.840497,2.390855,-3.714900
10063615731,1111.233154,-36.340435,-173.424820,1.078249,10.908859,-3.834041
10063635692,473.353943,194.304459,-277.112640,-2.645708,7.433608,5.552167
10063655653,-581.670837,25.122419,-237.762085,0.666314,2.827677,-1.771521
10063675620,-768.888977,-42.812897,-285.606812,0.570639,2.228839,-2.211582
10063695573,-387.236542,-249.432861,-289.159668,1.210697,0.626497,-1.323898
10063715534,-284.829590,-135.068054,-408.517822,2.931201,0.115145,-0.822284
10063735496,-215.263184,56.433254,-455.704315,2.419576,-1.447454,-0.394927
10063755457,-66.858940,243.984497,-511.526855,1.194707,-1.622270,0.621938
10063775418,104.030197,125.472855,-548.291870,1.685189,-0.834373,0.892670
10063795379,203.965500,-4.122493,-518.229919,1.977968,-1.265388,0.281144
10063815340,207.861252,-50.821426,-488.070435,0.851591,-2.199626,0.543875
10063835301,206.178955,-34.120209,-336.031891,0.896044,-2.102775,0.864552
10063855262,340.096985,99.470482,-62.820675,0.913709,-1.433937,0.403073
10063875223,345.176239,183.646622,203.534531,0.765340,-1.091259,0.066279
10063915145,98.840103,61.370697,214.818588,0.998339,3.752076,-0.998989
10063935106,-114.978958,129.119125,266.324554,0.254732,1.961931,0.258415
10063955067,-347.116974,-43.342846,480.109772,-0.479958,1.869436,0.008147
10063975029,-348.590851,14.729259,609.956360,0.771241,1.788034,1.259395
10063994990,-250.785370,92.631401,808.398621,2.344942,0.389742,0.578751
10064014952,-84.263458,41.683876,893.677368,3.596063,-3.352067,-1.108255
10064034914,199.779922,-124.622894,498.522736,5.201810,1.250387,-5.140336
10064054874,1036.527710,-15.550480,-153.218948,1.478995,12.910968,-0.766571
10064094796,-713.242676,-45.104645,-217.782684,0.986133,1.653225,-1.875361
10064114757,-700.259033,-93.387260,-162.887238,1.660592,1.657840,-2.375927
10064134719,-149.289230,-120.387672,-286.919250,0.857049,-0.018305,-1.714302
10064154680,47.347580,-143.483948,-465.383026,1.080013,0.512573,-0.415996
10064174641,-30.606003,-40.072052,-486.901306,1.780150,0.692359,0.894719
10064194602,-138.823196,79.769722,-528.299438,1.826244,0.426161,1.018123
10064214563,-152.281647,7.966908,-529.352234,2.668186,-0.098802,0.275969
10064234522,-111.908783,-1.680308,-497.708344,2.431242,-1.276654,-0.038272
10064254484,-14.548826,-2.162237,-461.867432,1.699323,-2.426620,0.079420
10064274445,110.315811,-9.424941,-339.762909,0.620232,-3.107568,0.733167
10064294406,347.658081,41.031723,-161.264450,0.479679,-2.345980,0.516504
10064314367,426.175781,123.902214,83.113602,0.738556,-1.389190,-0.012016
10064334328,343.511047,161.696625,323.990601,1.159624,-0.719836,-0.089929
10064354289,166.554260,118.695984,419.400208,0.627894,1.446452,-0.764129
10064374250,-14.327713,134.741074,238.211243,1.388027,3.292948,0.299104
10064394211,-185.946381,98.016914,388.417114,0.228696,1.341705,-0.028218
10064434133,-182.010803,73.720398,673.706787,2.455944,1.235886,1.487927
10064454094,-64.576714,155.524353,869.551697,3.722249,-1.234318,-0.388368
10064474055,-111.783897,63.651073,649.030273,5.958631,-2.386288,-1.596519
10064494016,1083.746826,-145.961823,48.296928,1.789287,9.894273,-7.422451
10064513977,811.590820,233.219681,-329.102997,-2.205471,9.762352,5.082541
10064533938,-387.922272,21.516115,-225.815811,1.094293,4.067852,1.072443
10064553899,-905.769104,-83.434326,-176.331451,1.499925,2.616287,-2.739880
10064573861,-433.794525,-146.038284,-175.535797,1.428603,0.248403,-2.335968
10064593823,-160.339478,-220.814667,-332.721619,1.235354,0.372104,-1.191701
10064613784,-33.985096,-88.263649,-427.878296,1.570186,0.491825,-0.206967
10064633745,-34.421120,77.463837,-473.193359,1.313505,0.227320,0.614491
10064653706,-86.255203,55.262646,-466.015259,1.266652,0.109791,0.868071
10064673667,-105.600151,-19.013964,-454.880035,2.170367,-0.375060,0.146518
10064693628,-99.847206,1.795973,-433.072601,2.350575,-1.440655,-0.109004
10064713589,-87.109222,31.470215,-356.566010,2.078979,-2.337432,0.156588
10064733550,21.747730,54.887558,-217.476486,0.899188,-3.128722,0.758481
10064753512,240.989517,53.034966,-57.599232,0.423675,-2.598169,0.555759
10064773473,421.234406,37.128887,165.025635,0.592754,-1.891446,-0.030140
10064793432,368.024567,99.626144,359.409576,1.030973,-0.383979,0.526986
10064813393,311.169861,8.390009,269.582916,1.461961,2.177958,-1.970207
10064833354,141.874893,247.734940,217.922943,1.395547,1.925047,-0.014461
10064853315,-124.007919,36.510925,348.368408,0.077827,1.654484,-0.117336
10064873277,-250.381180,-65.565414,463.181580,0.613968,2.085537,0.885296
10064893237,-206.986557,156.948547,656.765259,2.097988,1.470713,1.186299
10064913199,-117.250916,157.348068,887.172119,3.743275,-1.251913,-0.632195
10064933160,-278.051056,68.006592,750.210449,5.477000,-2.448527,-0.759461
10064953121,1045.605347,-149.858398,-5.875088,1.756306,9.309257,-6.678514
10064973082,766.268311,261.920837,-317.850861,-0.996646,8.584338,4.954177
10064993042,-315.106293,12.453381,-229.986252,1.036846,3.541575,1.208862
10065013004,-822.606873,-85.052895,-138.327240,1.384271,2.188599,-2.280141
10065032965,-360.956665,-134.532898,-136.082611,1.513909,0.431477,-2.014133
10065052926,-112.872192,-170.215225,-319.738403,0.866330,0.599106,-0.960054
10065072887,-36.636734,-115.983856,-413.395416,1.369605,0.866898,-0.180092
10065092848,-54.527214,72.926132,-469.906097,1.780513,0.488772,0.797528
10065112809,-120.716568,62.586121,-467.832581,1.828874,0.004988,0.800147
10065132771,-89.634071,28.747959,-469.538635,2.383733,-0.620310,0.086243
10065152733,-50.685661,38.642071,-471.891296,2.279349,-1.551857,-0.012145
10065172694,-27.503750,36.852314,-432.772095,1.258595,-2.351525,0.228373
10065192655,79.475441,35.669201,-326.036011,0.479882,-3.045539,0.517767
10065212616,253.405457,51.388016,-160.513702,0.237243,-2.355302,0.577774
10065232577,414.072815,90.189735,64.044212,0.544704,-1.202363,0.014059
10065252539,456.213593,121.130959,283.364960,0.852560,-0.576184,-0.125141
10065272499,395.864868,117.268860,335.333344,0.918455,1.290639,-0.789030
10065292460,70.423920,75.470169,124.715973,2.417119,3.714919,-1.006416
10065312421,-169.012939,207.498703,276.623688,0.087304,1.168992,0.593606
10065332382,-502.356995,-130.306747,486.041107,-0.679121,2.112460,0.231082
10065352342,-435.753387,-8.981695,570.610718,0.504216,1.306269,1.357185
10065372303,-294.367889,48.652218,656.752197,1.110575,-0.317263,1.000146
10065392264,-23.497360,-42.122154,820.477173,4.027338,-3.593653,-1.945905
10065412225,266.651215,-24.008451,540.919495,5.067786,-2.294605,-4.664658
10065432186,1246.265625,-42.329330,-157.555542,1.797053,14.291876,-3.502190
10065452147,386.849579,303.183472,-282.433655,-1.084450,7.686995,6.767922
10065472108,-618.279907,28.209900,-197.845947,1.363484,1.500063,-1.096914
10065492069,-668.399231,11.488401,-219.768204,1.389588,0.610658,-2.169692
10065512030,-294.170563,-82.706703,-95.153870,1.472252,-0.104654,-1.470672
10065531991,-66.403137,-170.794754,-111.580971,0.847594,-0.057884,-0.553244
10065551953,-53.270893,-170.785645,-86.302803,1.158538,0.251987,0.239166
10065571914,-76.315704,-31.336843,-172.947266,1.422202,0.983661,0.433082
10065591875,-85.392921,-3.202399,-268.182922,0.724935,0.877877,0.388606
10065611836,-83.184586,-96.666969,-238.406891,0.939501,0.415455,0.353492
10065631797,-69.046326,-108.960136,-172.685822,1.036081,0.016790,0.149893
10065651758,-42.840332,-82.274757,-138.934509,0.818551,-0.041037,0.225073
10065671719,-51.650467,-70.326477,-103.463028,0.663303,-0.004115,0.271705
10065691681,-84.632347,-39.102737,-66.301559,0.618331,-0.001252,0.305163
10065711643,-109.527069,-25.412909,-26.142466,0.510634,-0.018557,0.326146
10065731604,-105.539566,-55.643318,13.608509,0.418596,-0.045266,0.336643
10065751565,-76.953880,-109.062424,46.432457,0.394867,-0.108805,0.326139
10065771526,-36.382710,-163.545593,79.707428,0.438103,-0.154296,0.241987
10065791487,-8.734403,-187.144089,119.428009,0.751582,-0.162313,0.170374
10065811454,15.844772,-142.800888,165.267822,1.152309,-0.244458,0.226240
10065831409,20.501177,-87.303467,189.827911,1.221244,-0.348684,0.451948
10065851370,59.168701,-61.710056,199.677429,1.003277,-0.344492,0.435133
10065871331,115.777435,-51.882523,207.348160,1.037289,-0.173670,0.298643
10065891292,140.092896,-37.730659,203.946579,1.258912,0.159857,0.082976
10065911252,159.587662,-9.880872,193.647797,1.303450,0.403157,0.180158
10065931213,144.549210,21.122467,180.217163,1.247383,0.654214,0.394840
10065951174,89.844894,34.809334,152.974869,1.246736,0.872763,0.451896
10065971135,40.735600,17.664804,107.711548,1.081151,0.836622,0.187739
10065991096,32.947674,11.145456,49.287468,1.102019,0.688623,0.164320
10066011057,12.713902,14.703556,39.386993,0.999285,0.565993,0.178377
10066031018,1.831110,14.619018,33.036766,0.994611,0.526077,0.217920
10066050979,-17.259113,14.575583,37.815792,0.994855,0.429848,0.220502
10066070940,-35.294800,22.787977,38.958221,0.865807,0.244587,0.303035
10066090902,-55.892662,5.771173,45.518375,0.824078,0.102575,0.246862
10066110863,-42.503826,-6.222312,43.842567,0.815443,0.003703,0.087053
10066130824,-31.564693,-12.125883,37.489662,0.874921,-0.023745,0.098337
10066150785,-28.486929,-9.849216,28.685125,0.996302,-0.026607,0.075568
10066170746,-25.466984,12.080799,13.369669,1.019353,-0.001986,0.115928
10066190707,-29.394287,22.096317,10.844805,0.969741,0.011978,0.215321
10066210668,-28.070801,13.805717,8.561978,0.933631,-0.049303,0.282138
10066230629,-22.114971,3.287344,6.305377,1.023912,-0.031671,0.289970
10066250591,-21.791986,2.137761,6.201911,1.183583,0.011253,0.186564
10066270553,-27.465630,14.223570,-1.978338,1.152138,-0.012488,0.125820
10066290513,-37.283203,15.349541,-2.224968,1.115494,-0.018432,0.140999
10066310474,-28.446556,19.702572,-5.579559,0.970206,-0.139873,0.162725
10066330436,-21.480017,15.890200,-3.236070,1.024594,-0.129540,0.205442
10066350397,-6.934156,25.408813,-4.181261,0.990165,-0.179860,0.046731
10066370358,12.070150,37.433468,-11.141457,0.931238,-0.140554,0.019965
10066390319,19.540482,29.867826,-2.476302,0.899274,-0.134894,0.017647
10066410280,19.055426,16.601828,10.314899,0.990617,-0.061192,0.031319
10066430241,16.066456,19.867327,14.595749,1.026528,-0.004039,0.061365
10066450219,14.967014,24.415796,9.454876,1.058663,0.063341,0.110570
10066470161,17.630447,25.141113,0.021367,1.003397,-0.012812,0.116450
10066490123,25.198444,19.167198,-1.310790,0.977921,-0.145190,0.090377
10066510084,28.960590,14.578229,10.578340,1.064690,-0.229044,0.055551
10066530045,37.713684,27.163008,16.212210,1.116186,-0.268673,0.079910
10066550006,61.674458,34.578949,9.495376,1.062504,-0.283573,0.123335
10066569967,90.318550,30.902370,0.404753,0.963722,-0.280262,0.074572
10066589928,105.631523,28.509468,-4.185787,0.918434,-0.246705,0.018555
10066609889,108.022491,26.925661,2.374143,1.010465,-0.180767,-0.056965
10066629850,117.341553,38.586334,3.207169,1.000545,-0.167577,-0.131852
10066649811,135.824814,39.810959,2.431584,0.984099,-0.126769,-0.100404
10066669772,143.886230,20.415241,6.077003,1.043257,-0.110288,-0.143663
10066689733,145.030197,12.901765,15.502881,1.153528,-0.081929,-0.121707
10066709694,145.499985,16.030701,25.411530,1.191000,-0.064795,-0.054734
10066729655,151.592865,24.070951,24.668295,1.170513,-0.005368,-0.027217
10066749616,156.883575,30.139439,17.861418,1.126754,0.053107,-0.062670
10066769577,155.598267,32.018326,16.063263,1.152674,0.092433,-0.115108
10066789540,145.663589,41.749165,17.465466,1.123618,0.085008,-0.146207
10066829462,132.667755,45.967266,29.490969,1.165764,0.118473,-0.071858
10066849423,124.864006,44.962337,27.910854,1.214730,0.137667,-0.048600
10066869384,114.046082,39.006020,28.802326,1.273686,0.112427,-0.004762
10066889345,104.153564,42.242085,30.184015,1.275877,0.067687,0.008123
10066909306,104.115326,50.201263,32.319798,1.211711,0.025675,-0.001108
10066949228,117.540924,57.985474,36.890999,1.068490,-0.007532,-0.004921
10066969189,115.909409,57.274242,43.633663,1.054091,-0.003294,-0.023740
10066989150,114.549500,56.718929,52.699341,1.069264,0.016489,-0.021509
10067029071,107.479439,54.177113,70.750160,1.072392,0.017861,-0.006267
10067068993,116.285614,41.637070,77.378021,1.037680,-0.140597,0.042680
10067088954,120.697166,32.104580,82.605591,1.107805,-0.178849,0.081108
10067108915,124.922256,31.210615,79.683800,1.196189,-0.174053,0.086293
10067128876,135.940109,36.401814,69.292175,1.248615,-0.173521,0.066484
10067148837,150.868378,37.582657,63.814651,1.261977,-0.185759,0.072029
10067168798,162.825989,36.193340,65.078140,1.270876,-0.217768,0.077543
10067188760,169.030930,42.206745,66.326736,1.261587,-0.213593,0.058090
10067208721,177.182419,50.398537,64.800774,1.244871,-0.189890,0.019787
10067228682,186.086761,52.064854,64.235748,1.257791,-0.152166,-0.002176
10067248643,189.702606,48.550537,65.770828,1.278248,-0.103193,0.010783
10067268604,186.640900,46.462250,66.211601,1.289245,-0.047796,0.021187
10067288565,179.431778,50.156475,65.233582,1.267501,-0.009291,0.003220
