Timestamp (us),Gyroscope X (deg/s),Gyroscope Y (deg/s),Gyroscope Z (deg/s),Accelerometer X (g),Accelerometer Y (g),Accelerometer Z (g)
5656684969,-0.730637,0.057634,-0.033848,0.997210,0.038662,-0.042835
5656705015,-0.944541,0.004258,-0.021878,0.998309,0.035935,-0.042850
5656725063,-1.204950,0.026991,-0.047466,0.996428,0.032023,-0.041086
5656745109,-1.204171,-0.056731,-0.001354,0.997851,0.028110,-0.043373
5656765155,-0.973744,-0.010811,0.055154,0.997976,0.024110,-0.041826
5656785201,-0.699138,-0.010822,0.019259,0.997145,0.025018,-0.042267
5656805247,-0.262623,0.027488,0.056510,0.995600,0.023287,-0.041965
5656825293,0.041507,-0.117439,-0.032965,0.995284,0.024102,-0.044140
5656845339,0.293417,0.050224,-0.061335,0.996009,0.026195,-0.044337
5656865384,0.523890,-0.063877,0.003346,0.999559,0.026927,-0.044944
5656885430,0.775165,-0.041084,-0.055096,0.995947,0.029464,-0.047428
5656905476,0.714361,0.073252,-0.039014,0.997365,0.030290,-0.044821
5656925523,0.868099,-0.086628,0.012025,0.995883,0.031014,-0.045887
5656945569,0.745802,-0.094276,0.014424,0.996828,0.034930,-0.043912
5656965615,0.561609,-0.208720,-0.019828,0.995080,0.035290,-0.044609
5656985661,0.439236,-0.109693,-0.025425,0.997779,0.033107,-0.046921
5657005707,0.372577,-0.002747,0.090134,0.997330,0.035200,-0.046372
5657025753,0.225709,0.012247,0.001237,0.998095,0.036023,-0.044480
5657045799,0.182728,-0.017870,0.162641,0.996468,0.036386,-0.043545
5657065845,-0.088328,0.057813,-0.031029,0.995981,0.033289,-0.045347
5657085892,0.035096,-0.132521,0.035983,0.997506,0.031014,-0.047004
5657105939,-0.112173,-0.094718,-0.075907,0.996447,0.031826,-0.049801
5657125985,-0.035064,-0.117474,-0.039120,0.995655,0.033011,-0.048155
5657146031,-0.155342,0.027547,0.069711,0.996573,0.030647,-0.048076
5657166077,-0.133671,-0.003093,0.000620,0.995945,0.031102,-0.047431
5657186123,-0.210694,-0.071770,-0.028223,0.995621,0.035199,-0.044981
5657206169,-0.133448,-0.094508,0.016203,0.996350,0.033472,-0.045172
5657226215,-0.041000,-0.025809,0.052387,0.997158,0.034654,-0.045824
5657246260,-0.257217,-0.026144,-0.065679,0.997155,0.031288,-0.046181
5657266306,-0.194541,-0.003070,0.017084,0.997896,0.030289,-0.045738
5657286352,-0.163817,0.019817,0.024053,0.998096,0.030837,-0.044744
5657306398,0.097362,-0.101880,0.095804,0.997721,0.032564,-0.045194
5657326444,-0.089144,-0.163283,-0.068484,0.996788,0.030377,-0.046355
5657346490,-0.078905,0.035185,0.068203,0.997758,0.028382,-0.043463
5657366536,0.110905,-0.018280,-0.004075,0.994966,0.031376,-0.046053
5657386582,0.003895,-0.025925,-0.001974,0.995587,0.032103,-0.046973
5657426674,0.294842,-0.109618,0.023225,0.996021,0.030108,-0.043436
5657446720,0.141073,-0.003085,-0.027636,0.996602,0.031559,-0.046444
5657466768,0.035037,0.004637,0.027886,0.995218,0.032648,-0.047149
5657486814,0.071012,-0.056608,-0.094871,0.995804,0.032925,-0.045071
5657506860,0.311168,0.020066,0.075967,0.995159,0.033561,-0.045334
5657526906,-0.027381,-0.048884,-0.039498,0.996704,0.032379,-0.045812
5657546952,-0.118496,0.042618,-0.007468,0.997967,0.034290,-0.046563
5657566999,-0.095334,-0.033550,0.007619,0.995206,0.033557,-0.047695
5657587045,-0.094938,-0.063980,0.030637,0.996475,0.031465,-0.048348
5657607090,-0.093649,0.020012,0.099105,0.995847,0.028099,-0.047969
5657627135,0.004810,0.126601,0.043350,0.997500,0.027374,-0.047542
5657647181,0.203015,-0.056310,0.017188,0.998995,0.027106,-0.045752
5657667228,0.148427,-0.025982,-0.042985,0.994898,0.028466,-0.044958
5657687274,0.370521,0.019847,-0.024523,0.996809,0.029651,-0.045265
5657707320,0.364275,0.050508,0.051911,0.997463,0.030745,-0.044461
5657727366,0.401344,-0.025836,-0.009686,0.997013,0.032201,-0.044001
5657747412,0.355351,-0.018243,-0.016460,0.997242,0.034662,-0.041377
5657767458,0.309100,0.019797,-0.038614,0.996021,0.032838,-0.043259
5657787504,0.226674,0.012373,0.054708,0.997147,0.035745,-0.046370
5657807551,0.134252,-0.010600,0.018370,0.997292,0.038380,-0.048192
5657827596,0.135644,0.012442,0.094681,0.996305,0.036379,-0.047355
5657847644,-0.233696,0.042521,-0.035798,0.997420,0.032470,-0.046641
5657867690,-0.263446,0.035001,0.010653,0.996682,0.034288,-0.046904
5657887736,-0.256403,-0.048899,-0.019771,0.995053,0.032922,-0.046148
5657907782,-0.330905,-0.048665,0.088655,0.996173,0.032835,-0.044896
5657927836,-0.256799,-0.018469,-0.042789,0.997295,0.031929,-0.043552
5657947874,-0.141483,-0.056459,-0.006692,0.997579,0.030748,-0.043101
5657967920,-0.309923,-0.079395,-0.018631,0.996855,0.028382,-0.042903
5657987966,0.089590,-0.086658,0.088263,0.998310,0.028929,-0.043201
5658008011,-0.049389,-0.124973,0.014673,0.994271,0.030013,-0.044223
5658028057,0.133390,-0.071675,-0.027258,0.995907,0.030197,-0.044615
5658048103,0.155617,-0.094622,-0.065821,0.996758,0.031748,-0.042998
5658068150,0.202744,-0.048725,0.001885,0.997935,0.032021,-0.043563
5658088195,0.140482,-0.071745,-0.057962,0.996558,0.033383,-0.043814
5658108242,-0.141896,-0.056512,-0.029609,0.995802,0.033289,-0.045163
5658128288,0.018439,-0.117462,-0.040158,0.996248,0.030832,-0.045892
5658148334,-0.017798,-0.033389,0.067245,0.996242,0.030468,-0.046255
5658168380,-0.017967,-0.086754,0.059785,0.995030,0.031009,-0.047506
5658188426,0.219992,0.004876,0.108352,0.996900,0.030015,-0.045267
5658208472,0.079922,-0.010720,-0.026424,0.996635,0.031199,-0.044720
5658228519,0.109607,-0.117513,-0.072493,0.994633,0.034108,-0.044146
5658248566,-0.166196,-0.041455,-0.105602,0.996715,0.032380,-0.045268
5658268612,0.133394,-0.064054,-0.027284,0.997340,0.032380,-0.046004
5658288658,-0.049359,-0.071626,0.014495,0.997444,0.031654,-0.045370
5658308704,-0.050587,-0.048925,-0.054330,0.998158,0.029742,-0.046377
5658328750,0.012028,-0.132544,0.028789,0.996723,0.032927,-0.044815
5658348796,0.019435,-0.063990,0.013134,0.995332,0.033287,-0.045881
5658368868,-0.042637,0.004459,-0.039379,0.997243,0.031924,-0.046365
5658388887,-0.196894,-0.018617,-0.112724,0.997270,0.030380,-0.045001
5658408933,-0.186235,-0.048704,0.055282,0.996654,0.032201,-0.043632
5658428979,-0.134275,-0.094615,-0.029630,0.998227,0.033661,-0.042481
5658449025,-0.103831,-0.079385,-0.037913,0.996571,0.034385,-0.043090
5658469071,-0.163447,-0.056338,0.047223,0.998418,0.033844,-0.042031
5658489117,-0.086855,-0.018199,0.053252,0.995251,0.028292,-0.040788
5658509163,-0.010720,-0.056322,0.036618,0.996545,0.023838,-0.040258
5658529209,0.378471,0.073231,-0.009572,1.001052,0.022565,-0.043510
5658549255,0.645473,0.141807,-0.045547,0.999627,0.029390,-0.041136
5658569302,0.590462,0.156839,-0.128586,0.996860,0.030847,-0.037642
5658589348,0.606283,0.126431,-0.098226,0.996897,0.042662,-0.044652
5658609395,0.247461,-0.117447,-0.059885,0.997065,0.044952,-0.035581
5658629441,-0.593074,-0.209049,-0.027988,0.990106,0.081407,-0.043965
5658649487,-3.335346,-0.445676,0.125351,0.997103,0.099428,-0.044750
5658669534,-5.596259,-0.491708,0.253431,1.001348,0.087446,-0.033455
5658689580,-6.979036,-0.316664,0.310246,1.002288,0.055615,-0.029152
5658709626,-7.176657,0.163516,0.358330,0.999008,0.016480,-0.036021
5658729672,-6.358739,0.079886,0.350379,0.998566,0.007126,-0.026103
5658749729,-5.433393,0.011576,0.363217,0.995194,0.017849,-0.029876
5658769762,-5.158871,-0.133231,0.327806,0.999154,0.019396,-0.032942
5658789809,-4.265811,-0.064605,0.241476,1.004491,-0.002320,-0.022467
5658829901,-1.340776,-0.041395,0.054736,0.997037,0.000138,-0.015535
5658849947,0.402167,-0.033349,0.036172,1.004678,-0.027388,0.000538
5658869993,2.908485,0.241455,-0.059225,1.000093,-0.026057,-0.014908
5658890039,2.701868,0.287098,-0.070651,0.975910,0.104680,-0.093145
5658910085,-1.284075,-0.475326,0.246117,0.999882,0.110627,-0.042002
5658930131,-3.546772,-0.986431,0.291724,0.984247,0.102099,-0.067683
5658950177,-6.800626,-1.764149,0.502639,0.987834,0.109854,-0.109606
5658970223,-9.979574,-1.840977,0.602787,0.987456,0.120182,-0.133945
5658990271,-14.471800,-1.704552,0.796481,0.983458,0.170887,-0.163736
5659010317,-19.111053,-1.355024,0.885338,0.992977,0.149115,-0.188372
5659030363,-22.879433,-0.837714,0.926173,1.004922,0.105641,-0.192135
5659050409,-25.674509,0.037315,0.656555,1.002472,0.077301,-0.217373
5659070455,-27.275545,0.737562,0.463688,0.986331,0.065095,-0.265280
5659090501,-28.462238,0.501801,0.808441,0.970082,0.101812,-0.272235
5659110547,-32.300755,-0.640329,1.681437,0.985914,0.210629,-0.225028
5659130593,-40.948982,-0.856108,1.651290,1.001596,0.317306,-0.205410
5659170684,-69.154404,-0.813932,3.367594,0.978444,0.507954,-0.098669
5659190730,-85.766434,-0.968479,4.362899,0.992871,0.399806,-0.100732
5659210776,-97.310165,-1.100912,4.457432,0.961936,0.262432,-0.078463
5659230822,-106.019043,-2.976880,4.938324,1.003449,0.219891,-0.093352
5659250868,-114.517509,-2.955804,5.149008,0.969910,0.230361,-0.113041
5659270914,-124.013306,-3.544069,5.617959,0.960326,0.245655,-0.150575
5659290960,-134.223740,-2.952827,5.424401,1.034791,0.261213,-0.211693
5659311007,-145.021255,-3.936953,6.225586,0.952448,0.286391,-0.207607
5659331053,-154.069153,-4.160728,6.080957,0.969553,0.274076,-0.241103
5659351099,-162.113861,-5.289861,6.477703,0.973271,0.163758,-0.278565
5659371146,-168.197495,-6.890443,7.097773,0.992280,0.160295,-0.297675
5659391192,-173.338715,-7.334211,6.939203,0.927476,0.125865,-0.268008
5659411239,-176.935547,-6.183934,7.142713,1.085741,0.071029,-0.336248
5659431284,-179.151749,-3.713412,7.964561,0.973932,0.024143,-0.315200
5659451331,-180.776276,-2.563643,7.724805,1.023957,-0.010170,-0.314090
5659471376,-181.551224,-1.253504,7.529161,0.961217,0.021436,-0.292012
5659491423,-184.235641,-2.412605,7.531619,1.043669,0.082176,-0.377397
5659511468,-188.349716,-2.802421,7.513408,0.940923,0.145931,-0.353239
5659531514,-195.489014,-5.061679,6.857110,0.919175,0.305464,-0.353586
5659551560,-205.203476,-6.770784,7.112432,0.973154,0.246374,-0.478955
5659571606,-212.846329,-8.479393,7.342839,0.960842,0.205623,-0.465878
5659591652,-219.367508,-9.896438,8.284088,0.987572,0.266236,-0.473606
5659611698,-227.390793,-9.912197,8.982368,0.968656,0.228450,-0.476398
5659631744,-236.722794,-9.318845,9.589394,0.951949,0.273543,-0.531471
5659651790,-244.274353,-8.886172,9.719202,0.972414,0.209437,-0.583820
5659671836,-248.814758,-7.559304,10.589958,1.012304,0.102959,-0.640424
5659691882,-250.221771,-7.239647,10.570347,0.991812,0.036386,-0.612186
5659711928,-250.931229,-7.971179,10.685888,0.946317,0.021290,-0.623186
5659731974,-249.850861,-9.283274,10.012127,0.994926,0.010601,-0.637614
5659752022,-249.437286,-9.526925,10.058404,0.943205,0.087173,-0.609717
5659772068,-250.465652,-9.681093,9.429349,0.935673,0.079706,-0.607579
5659792114,-251.661835,-9.541714,10.506615,1.017517,0.056069,-0.667305
5659812160,-252.012863,-9.456906,10.963989,0.978081,0.066038,-0.655665
5659832206,-253.015549,-9.289667,10.898833,0.968425,0.095687,-0.652463
5659852252,-253.782623,-8.643456,10.315534,0.955832,0.116397,-0.660271
5659872298,-254.323776,-8.507206,9.981715,0.974608,0.011683,-0.678573
5659892343,-253.013306,-8.842753,9.735802,1.068825,-0.035620,-0.703522
5659912389,-249.961487,-6.767075,10.571364,0.992664,-0.024974,-0.638696
5659932435,-245.720825,-7.177802,10.429314,0.913646,0.012298,-0.588119
5659952481,-241.571075,-7.346577,9.478228,0.960660,-0.035402,-0.592563
5659972527,-238.484726,-7.476626,8.914436,0.943388,-0.030390,-0.573214
5659992573,-235.408722,-7.392664,8.617584,0.992646,-0.010755,-0.570728
5660012619,-233.751373,-6.912375,8.499770,1.044907,0.026930,-0.601728
5660032666,-232.310333,-5.439805,9.070581,0.959853,0.040207,-0.533579
5660052712,-230.569336,-6.071129,9.390406,0.975803,0.069350,-0.528816
5660072758,-229.092270,-5.941996,9.040374,0.957387,0.026292,-0.529610
5660112850,-225.400497,-7.724321,9.035804,0.951312,0.055583,-0.525380
5660132897,-224.270905,-8.349145,8.947192,1.024996,0.065008,-0.555519
5660152943,-223.449615,-6.970222,8.651572,0.940613,0.091282,-0.494664
5660172989,-223.224457,-7.160229,8.846514,1.018954,0.075577,-0.541000
5660193036,-224.106125,-6.779756,8.701885,0.965946,0.115762,-0.510932
5660213082,-224.268768,-7.017293,8.170930,0.970941,0.126594,-0.511762
5660233128,-224.570618,-6.827339,7.962194,0.905646,0.124276,-0.481959
5660253174,-224.897934,-8.237995,7.667584,1.010785,0.092823,-0.556594
5660273219,-225.076370,-7.529685,7.500576,0.972892,0.092340,-0.541332
5660293265,-223.767670,-7.368155,7.986622,1.005830,0.098671,-0.538000
5660313311,-222.454330,-5.667702,8.253492,0.964052,0.039718,-0.504601
5660333357,-220.898849,-7.960567,8.521317,1.037326,0.065208,-0.555548
5660353403,-219.575409,-6.566596,8.086000,0.917930,0.092099,-0.476759
5660373449,-218.031647,-7.564536,8.082292,0.948159,0.063350,-0.503098
5660393495,-216.597595,-6.404318,8.700125,1.039990,0.034322,-0.532394
5660413541,-213.895676,-6.380352,8.861578,1.037084,0.058108,-0.505695
5660433587,-211.534897,-5.824663,8.317225,0.937359,0.043575,-0.461759
5660453633,-209.230179,-6.823865,7.687438,0.976665,0.061393,-0.449387
5660473679,-207.340027,-7.661386,7.806379,0.937408,0.037881,-0.440055
5660493727,-205.768265,-8.477761,7.228414,0.978724,0.063749,-0.456325
5660513773,-203.341797,-7.919480,7.783145,1.021783,0.087081,-0.467537
5660533819,-201.237579,-7.856755,8.292291,0.976157,0.039330,-0.424287
5660553865,-198.759033,-7.178711,7.913357,0.998425,0.062999,-0.433602
5660573911,-196.368622,-6.287838,7.306181,0.958099,0.015065,-0.395163
5660596448,-193.457870,-7.399931,7.215195,0.992500,0.026997,-0.415740
5660616494,-191.354538,-7.194521,6.822192,0.936547,0.035431,-0.383936
5660656585,-186.340698,-6.955205,7.557024,0.985262,0.014934,-0.388454
5660676631,-183.153748,-6.818356,7.051523,1.032338,0.022077,-0.400797
5660696677,-180.683487,-6.680450,7.079546,0.992245,0.001508,-0.372574
5660716723,-177.739822,-5.461398,6.613370,0.963269,0.020664,-0.319007
5660736769,-174.666245,-5.925426,6.624049,0.978305,0.008400,-0.321603
5660756816,-171.417603,-6.047585,6.156421,0.964612,0.028985,-0.295623
5660776862,-168.378281,-6.390171,5.961040,0.994681,0.030873,-0.333448
5660796908,-165.764542,-5.070312,6.272718,0.998104,0.017963,-0.331942
5660816954,-163.065338,-5.868706,6.734978,1.046563,-0.015096,-0.341156
5660837000,-159.424072,-4.214875,6.353158,0.941051,-0.003214,-0.273018
5660857046,-154.989380,-4.679513,5.947712,1.007419,-0.058853,-0.307645
5660877093,-149.280777,-4.907959,5.371572,0.970481,-0.132679,-0.304351
5660897139,-140.847794,-5.180091,5.354032,0.993036,-0.217161,-0.305049
5660917185,-129.781067,-5.064403,4.672777,1.000461,-0.260683,-0.228578
5660937232,-117.183395,-5.039518,4.092023,1.016380,-0.334194,-0.192871
5660957278,-101.739754,-3.962047,3.567163,1.022509,-0.395381,-0.176715
5660977324,-85.584419,-2.105044,3.897022,1.029006,-0.376404,-0.150623
5660997370,-70.490059,-1.532277,2.677607,0.986831,-0.323981,-0.102333
5661017416,-58.204891,-1.331091,2.568458,1.009627,-0.236702,-0.152521
5661037461,-51.098309,-1.786939,2.355664,1.002358,-0.083382,-0.024293
5661057507,-46.622799,-1.534917,2.069303,1.005808,-0.108368,-0.060984
5661077553,-39.844673,-1.404047,1.853288,0.993871,-0.141898,-0.080968
5661097599,-33.084560,-0.983964,1.476188,0.994308,-0.135059,-0.071909
5661117645,-26.310591,-1.600427,1.056422,0.982922,-0.145675,-0.046552
5661137691,-19.982759,-2.963158,0.938173,0.979097,-0.169252,-0.052258
5661157737,-13.808415,-3.731618,0.767433,0.998184,-0.160939,-0.100527
5661177783,-8.069061,-3.562786,0.609655,1.009949,-0.120536,-0.103881
5661197829,-3.867755,-2.845860,0.365274,1.014244,-0.069679,-0.105492
5661217876,-0.979235,-2.022302,0.245352,1.004597,-0.038955,-0.111460
5661237922,1.114749,-0.810236,0.147194,1.009306,-0.015206,-0.112125
5661257969,3.194674,-0.100957,0.135039,1.004848,-0.014673,-0.116044
5661278015,4.843616,0.257307,-0.020413,0.998457,-0.007577,-0.110591
5661298061,6.617386,0.227290,-0.024166,0.991886,-0.012482,-0.100848
5661318107,8.527147,0.075172,-0.114207,0.997193,-0.024020,-0.096199
5661338153,10.422287,0.121267,-0.174058,0.999414,-0.028290,-0.094959
5661358199,12.355392,0.449289,-0.258509,0.999320,-0.015908,-0.089440
5661378245,13.891033,0.754360,-0.335171,1.003725,-0.007240,-0.078092
5661398292,15.325541,0.853430,-0.500883,0.999793,-0.013945,-0.059314
5661418336,16.371250,1.028747,-0.605814,0.999899,-0.007756,-0.058146
5661438382,17.649216,1.311184,-0.555137,1.005456,-0.001480,-0.063425
5661458428,18.870247,1.623645,-0.694492,1.001658,-0.001283,-0.051650
5661478474,19.756908,1.700052,-0.711952,0.999632,0.007265,-0.051993
5661498521,20.460428,1.814558,-0.710701,1.000920,0.031997,-0.059681
5661518566,20.542404,1.997191,-0.835163,1.003700,0.036281,-0.057285
5661538613,20.275463,2.271538,-0.807972,0.995471,0.046740,-0.052260
5661558659,19.616186,1.989185,-0.893579,0.989891,0.053472,-0.047365
5661578705,18.930563,1.615930,-0.741486,0.990430,0.050288,-0.048095
5661598751,18.427254,1.212089,-0.653961,0.982052,0.063487,-0.036173
5661618797,17.570740,0.876542,-0.651506,0.990643,0.049225,-0.031938
5661638844,16.960829,0.449868,-0.538912,0.991581,0.047972,-0.020968
5661658890,16.046097,0.175652,-0.375062,0.992556,0.064182,-0.011843
5661678936,14.975912,-0.053214,-0.353534,0.995048,0.064543,-0.015336
5661698982,13.791591,-0.106770,-0.307451,0.992074,0.063278,-0.008384
5661719029,12.888091,-0.244345,-0.373517,0.996750,0.049912,-0.008260
5661759121,11.253736,-0.854167,-0.248076,0.992966,0.065205,0.000312
5661779167,10.228173,-1.075563,-0.296212,0.994238,0.062203,-0.000249
5661799211,9.503211,-1.479453,-0.204385,0.999560,0.050013,-0.004586
5661819258,9.013195,-1.273923,-0.249051,1.004063,0.044472,-0.003474
5661839303,9.294868,-1.075878,-0.323949,1.007347,-0.011949,-0.016871
5661859350,11.768942,-0.351699,-0.527197,1.014009,-0.055984,-0.024809
5661879396,14.653669,0.349441,-0.852957,1.017205,-0.051058,-0.019698
5661899442,17.297564,1.340587,-0.976333,1.003503,-0.034965,-0.013862
5661919488,19.120380,1.713881,-1.242189,1.009629,-0.009953,-0.021725
5661939534,19.991491,2.049341,-1.283134,0.998331,0.009586,-0.023834
5661959580,20.465927,2.057140,-1.261800,1.000382,0.020602,-0.020982
5661979626,20.356531,1.972981,-1.389302,0.999052,0.035408,-0.032513
5661999673,20.325634,1.889108,-1.403706,1.000274,0.032849,-0.040518
5662019720,20.379198,2.239664,-1.413554,1.011874,0.030259,-0.074753
5662039766,20.031784,3.161197,-1.631482,1.020953,0.039249,-0.091716
5662059812,18.778992,3.900181,-1.594350,1.006668,0.088537,-0.090556
5662079858,15.841357,4.235473,-1.271014,1.027551,0.137245,-0.138016
5662099904,11.846138,5.531317,-0.693468,1.052183,0.087992,-0.128096
5662119950,10.943420,6.994115,-0.772519,1.050024,0.043768,-0.080418
5662139996,10.715033,9.295522,-0.798673,1.059972,0.052829,-0.109470
5662160042,9.744461,12.145328,-0.873384,1.088355,0.071659,-0.133951
5662180087,8.265465,16.108067,-0.773822,1.089352,0.082043,-0.075343
5662200133,6.934753,10.702188,1.516583,0.621354,0.039309,0.381057
5662220179,6.897973,-0.024406,-0.143394,0.949898,0.100300,-0.131184
5662240226,4.754599,1.734991,-0.344546,1.053510,0.108018,-0.226373
5662260271,3.531975,2.833077,0.080519,0.916998,0.010812,-0.035521
5662280317,3.291073,0.364512,0.376146,0.978008,0.027382,-0.078619
5662300364,2.183746,0.706311,0.014422,0.998340,0.079564,-0.116271
5662320410,1.063790,0.393103,-0.176764,0.974871,0.054851,-0.078611
5662340455,0.134279,0.035125,0.018218,1.001695,0.050893,-0.075612
5662360502,-1.076569,0.202086,-0.142238,1.006158,0.053289,-0.061531
5662380547,-1.327916,0.293588,-0.091816,1.000906,0.043684,-0.035372
5662400595,-1.288301,0.568110,-0.024726,1.026145,0.015246,-0.035665
5662420641,-0.698873,1.170365,-0.007603,1.012885,0.007245,-0.022353
5662440687,0.416139,1.277181,-0.083084,0.995462,0.001498,-0.016600
5662460733,1.938887,1.186302,-0.012990,0.991469,-0.005610,-0.020514
5662480780,2.973663,1.019267,0.135599,0.986696,-0.000988,-0.026341
5662500826,3.827961,0.859203,0.027857,0.989693,0.020106,-0.035687
5662520872,3.971784,0.584722,-0.042793,0.989187,0.029554,-0.042593
5662540919,4.108202,0.485537,-0.106241,0.990731,0.031020,-0.038083
5662560962,4.147448,0.356134,-0.045441,0.994565,0.029205,-0.038327
5662581009,4.269499,0.417092,-0.063295,0.999660,0.032677,-0.034334
5662601055,4.527524,0.325466,-0.167335,1.004773,0.034057,-0.029522
5662621101,4.452287,0.485632,-0.105277,1.000055,0.030795,-0.018270
5662641147,4.521610,0.455235,-0.075955,1.004030,0.038903,-0.015265
5662661193,4.122590,0.599729,-0.160391,0.999631,0.036711,-0.016185
5662681239,3.962983,0.729356,-0.111877,0.995600,0.032891,-0.012206
5662701285,3.694867,0.401544,-0.128507,0.998323,0.042711,-0.017353
5662721331,3.612770,0.485606,-0.020214,0.993445,0.045157,-0.019180
5662741377,3.497287,0.234001,-0.055342,1.002540,0.044439,-0.021331
5662761423,2.893112,0.569114,-0.075300,0.998083,0.042342,-0.020434
5662781471,2.633882,0.485316,-0.031784,0.992481,0.034151,-0.017693
5662801517,2.916750,0.363462,-0.029226,0.998187,0.031880,-0.020419
5662821563,2.725953,0.378697,-0.010291,0.993159,0.035520,-0.015528
5662841609,2.320942,0.279553,0.005539,0.993900,0.045439,-0.014377
5662861655,2.122368,0.302390,0.016958,0.996506,0.042900,-0.011966
5662881702,1.954604,0.256681,0.043290,0.997639,0.039175,-0.010254
5662901748,1.941110,0.256910,0.142890,0.997302,0.025976,-0.014403
5662921792,1.947762,0.211061,0.089423,1.001861,0.032615,-0.019303
5662941838,1.939757,0.302456,0.066350,0.997714,0.037519,-0.020965
5662961884,1.656112,0.271802,0.026107,0.993744,0.042058,-0.022902
5662981931,1.251389,0.195557,0.057138,0.997612,0.037683,-0.031221
5663001976,1.159257,0.195482,0.036002,0.998294,0.042228,-0.033510
5663022022,0.732898,0.210844,0.135921,1.000257,0.044865,-0.035817
5663042068,0.204408,0.446813,0.076618,1.000245,0.043499,-0.036541
5663062114,-0.141178,0.233154,-0.000021,0.995568,0.041589,-0.032827
5663082160,-0.561170,0.187388,0.031205,0.997079,0.047947,-0.039490
5663102207,-1.163764,0.156931,0.111772,0.996712,0.046309,-0.039662
5663122252,-1.563126,0.187076,0.012441,0.990982,0.046766,-0.033483
5663142298,-1.943253,-0.109938,0.143069,0.986849,0.019438,-0.050978
5663162346,-1.493140,-0.369038,0.096990,1.001104,0.032643,-0.054693
5663182392,-1.806204,-0.071875,0.109717,0.996880,0.048301,-0.045206
5663202438,-2.570613,-0.216842,0.125033,0.990940,0.035489,-0.031558
5663222484,-2.595423,-0.369499,0.026684,0.991821,0.021294,-0.034182
5663242530,-2.035988,-0.437765,0.100111,0.996322,0.013280,-0.043050
5663262576,-1.632211,-0.567392,0.023935,0.993830,0.023199,-0.038939
5663282622,-1.195353,-0.650963,0.084509,0.996120,0.029697,-0.018746
5663302667,-1.073317,-0.856718,0.075185,1.000808,0.036820,-0.007037
5663322713,-1.410371,-0.483494,0.026992,1.003015,0.063647,-0.014290
5663342759,-2.747829,-0.529500,0.060739,0.999511,0.062772,0.008193
5663362805,-3.957271,-0.316635,-0.023481,1.003923,0.065783,0.009838
5663382851,-5.126203,-0.431137,0.030148,0.987244,0.073777,0.017189
5663402897,-6.518209,-0.614457,0.011920,0.991724,0.069218,0.007407
5663422943,-7.938921,-0.911846,0.101609,0.990938,0.056110,0.003630
5663442990,-8.488910,-1.064333,0.135714,0.985545,0.018327,-0.008652
5663463036,-8.448802,-1.132661,0.242143,1.000907,0.043107,-0.001330
5663483082,-8.872854,-1.285639,0.052203,0.983481,0.040561,0.014131
5663503128,-8.897207,-1.842114,-0.006603,0.983645,0.020990,0.007080
5663523175,-8.590746,-2.009598,0.033856,1.000536,0.019650,0.006613
5663543221,-8.155374,-2.040020,0.010227,0.997216,0.024472,0.010111
5663563267,-7.681068,-2.260849,0.032324,0.989439,0.013468,0.018432
5663583313,-6.887458,-2.344663,-0.051569,0.995797,0.001646,0.015802
5663603360,-5.761770,-2.717533,0.057734,0.974189,0.004581,0.047302
5663623406,-4.513616,-4.705863,0.231170,0.939298,0.008385,0.067044
5663643452,-3.392134,-7.357759,0.187672,0.912767,0.012701,0.060227
5663663498,-2.662902,-11.037815,0.476148,0.878053,0.020657,0.060534
5663683542,-2.074540,-15.648008,0.617626,0.849627,0.027372,0.074533
5663703588,-1.698794,-21.187748,0.873304,0.823781,0.024266,0.089140
5663723635,-1.228742,-27.984489,1.314733,0.821210,0.020068,0.083291
5663743681,-1.382803,-20.500198,4.800231,1.734062,0.181480,-0.559360
5663763727,-6.637994,-8.758314,1.286914,1.073104,0.197979,0.063631
5663783773,-13.079464,0.254349,0.770584,1.081306,0.088355,0.055866
5663803819,-13.926732,5.373189,-0.177557,1.057263,-0.066888,0.050089
5663823865,-9.618203,5.267170,-0.383071,0.975527,-0.112233,0.043206
5663843911,-3.530255,0.331058,-0.110338,0.924298,-0.096956,0.030347
5663863957,0.314567,-4.140195,0.410692,0.955086,-0.050910,-0.039427
5663884003,0.477399,-4.894270,0.562872,1.017166,0.073715,-0.043234
5663904050,-1.803347,-2.776723,0.363193,1.020912,0.105806,-0.007131
5663924097,-3.251423,-0.712389,0.124610,1.020753,0.000525,-0.022113
5663944143,-0.562170,0.126296,-0.022062,1.004919,-0.054711,-0.017485
5663964189,3.502643,-0.627393,-0.151917,0.985034,-0.043009,-0.020161
5663984235,6.146895,-1.891820,-0.176093,0.992007,-0.002352,-0.030605
5664004281,6.423652,-2.226846,-0.081009,0.999289,0.026571,-0.039855
5664024327,5.667325,-1.609721,-0.068388,1.005327,0.047126,-0.047799
5664044373,5.013739,-0.734035,-0.303147,1.007705,0.022283,-0.054062
5664064418,5.630510,0.004972,-0.470405,1.000768,0.004813,-0.050011
5664084464,6.770794,-0.131753,-0.408020,0.991194,0.010442,-0.048768
5664104510,7.206323,-0.847985,-0.398803,0.989845,0.023808,-0.051672
5664124556,7.184861,-1.411704,-0.297171,0.993266,0.034544,-0.053655
5664144602,6.543095,-1.427053,-0.269384,0.996576,0.039001,-0.057077
5664164648,6.389265,-0.947132,-0.336770,1.003612,0.031451,-0.062268
5664184694,6.488890,-0.489855,-0.340226,1.002648,0.019262,-0.060870
5664204740,6.969157,-0.040312,-0.435098,1.001806,0.013709,-0.062299
5664224787,7.435431,0.020760,-0.444348,0.997512,0.024885,-0.066511
5664244833,7.420968,0.013243,-0.398194,0.991978,0.032241,-0.068879
5664264879,6.929323,-0.215798,-0.517796,0.996555,0.042521,-0.072606
5664304972,5.905261,-0.223630,-0.490258,0.996416,0.037769,-0.085123
5664325018,5.553504,-0.033221,-0.499349,0.994866,0.047047,-0.084385
5664345064,5.187819,0.119259,-0.431629,0.996708,0.036042,-0.084308
5664365119,4.882542,0.187832,-0.403009,0.994779,0.029323,-0.075549
5664385157,4.800107,0.165166,-0.309637,0.996395,0.031497,-0.081753
5664405203,4.317399,0.263969,-0.369372,0.993959,0.037501,-0.079815
5664425263,4.309996,0.203036,-0.353743,0.996436,0.029508,-0.074851
5664445293,4.133102,0.210474,-0.411467,0.995878,0.028142,-0.075475
5664465339,4.261961,0.256085,-0.475251,0.998785,0.024241,-0.071706
5664485385,4.230998,0.537980,-0.506154,1.000531,0.012971,-0.066996
5664505431,4.833603,0.827530,-0.595226,1.000931,0.008798,-0.060551
5664525478,5.375561,1.025687,-0.652250,1.002755,0.007271,-0.051048
5664545524,6.239308,1.368803,-0.677795,1.001733,0.010097,-0.046950
5664565570,6.888440,1.620348,-0.729435,1.002554,0.014018,-0.041887
5664585616,7.783486,1.788297,-0.709155,1.000078,0.015470,-0.042301
5664605662,8.378364,1.933047,-0.797594,0.998611,0.021927,-0.042196
5664625708,8.954428,2.040226,-0.656300,0.997893,0.021563,-0.041548
5664645754,9.337828,2.032852,-0.594942,0.995672,0.022467,-0.043055
5664665802,9.507331,1.987343,-0.521665,0.995334,0.024743,-0.041419
5664685848,9.690713,1.888313,-0.524894,0.997789,0.028923,-0.046642
5664705894,9.866735,1.804558,-0.512748,0.996558,0.028280,-0.048980
5664725940,10.103584,1.644571,-0.516811,0.995584,0.026081,-0.057220
5664745986,9.927127,1.690168,-0.551746,0.995912,0.027889,-0.063947
5664766032,9.745440,1.858002,-0.457082,0.992510,0.032894,-0.059993
5664786078,9.692667,1.690438,-0.409651,0.996509,0.037257,-0.065606
5664806123,9.555675,1.751446,-0.376630,0.992978,0.052614,-0.072743
5664826169,9.052788,1.599131,-0.274668,0.986973,0.061506,-0.080644
5664846215,7.768652,1.240680,-0.240915,0.985134,0.080236,-0.085001
5664866261,5.517097,0.577624,0.003660,0.982909,0.108162,-0.085009
5664886307,2.857832,-0.078241,0.110934,0.981984,0.105629,-0.076093
5664906353,0.323230,-0.688049,0.345541,0.985986,0.086336,-0.083028
5664926399,-1.595207,-0.894223,0.391095,0.993819,0.075974,-0.084869
5664946445,-3.403973,-0.779973,0.570999,0.996594,0.066155,-0.083630
5664966491,-4.682159,-0.727144,0.496287,0.994483,0.067897,-0.074337
5664986537,-6.307830,-0.971053,0.666190,0.989642,0.065814,-0.064720
5665006583,-7.384335,-1.291192,0.764559,0.994273,0.062534,-0.071238
5665026629,-8.522753,-1.268530,0.809498,0.995197,0.054431,-0.076052
5665046677,-9.113071,-0.781192,0.704708,1.008353,0.030431,-0.077416
5665066723,-9.345072,0.033782,0.530743,1.005977,0.006061,-0.069256
5665086769,-8.779777,0.460607,0.487787,1.002948,0.009240,-0.069845
5665106815,-7.863041,0.628399,0.438875,0.993999,0.016696,-0.064349
5665126861,-7.435111,0.468456,0.431103,0.989675,0.005331,-0.056994
5665146907,-6.388060,-0.140947,0.428098,0.987691,-0.006125,-0.051495
5665166953,-5.120939,-0.628582,0.328719,0.987949,-0.007863,-0.057306
5665186998,-3.686393,-0.941005,0.179660,1.001822,-0.009044,-0.067708
5665207044,-2.318774,-0.651196,0.113951,1.000528,-0.007847,-0.058701
5665227090,-0.766531,-0.460255,0.113761,1.004237,0.000178,-0.050426
5665247136,0.073570,-0.162960,0.050621,0.999620,0.009183,-0.047639
5665267182,0.884055,0.119212,0.041596,0.998759,0.015191,-0.044457
5665287228,1.381309,0.408953,0.046265,1.001832,0.022380,-0.045792
5665307274,1.326506,0.545938,-0.029542,1.000014,0.033214,-0.039788
5665327320,1.340357,0.446690,-0.105895,0.994173,0.041311,-0.034164
5665347366,0.954116,0.172735,0.108831,0.991304,0.037664,-0.036379
5665367412,0.296593,0.058257,0.114330,0.995591,0.042029,-0.041270
5665387458,-0.080056,-0.048788,0.007373,1.000475,0.045762,-0.043629
5665407506,-0.551876,0.179984,0.122747,0.999450,0.047123,-0.044612
5665427552,-1.161621,0.286756,0.225920,1.001253,0.038025,-0.046444
5665447599,-1.926228,0.515159,0.217072,1.000985,0.041474,-0.050802
5665467645,-2.469873,0.499671,0.174183,0.994487,0.046286,-0.051153
5665487701,-2.729832,0.347194,0.179735,0.993355,0.037356,-0.058472
5665507737,-2.513107,0.271392,0.328611,1.004007,0.030081,-0.065631
5665527782,-2.611506,0.507725,0.375582,1.000468,0.034354,-0.064126
5665547847,-2.772690,0.530463,0.340427,0.994884,0.023080,-0.055751
5665567873,-2.393890,0.438666,0.149987,0.989300,0.013882,-0.057002
5665587919,-2.088959,0.248122,0.106497,0.991129,0.013694,-0.061754
5665607965,-1.303654,-0.026288,-0.007166,0.988996,0.005426,-0.054260
5665628012,-0.777206,-0.216800,-0.062596,0.990620,0.010066,-0.055021
5665648057,-0.046056,-0.666575,-0.205191,0.990438,0.015070,-0.054663
5665668103,0.474637,-0.689196,-0.161729,1.002464,0.025093,-0.055702
5665688149,0.635321,-0.384324,-0.165862,0.998298,0.026099,-0.048915
5665708195,0.642553,-0.140525,-0.197380,1.005984,0.034747,-0.052510
5665728241,0.408773,0.080822,-0.025468,0.999561,0.039929,-0.048869
5665748288,0.034455,0.431301,-0.019372,1.000225,0.039113,-0.047608
5665768334,-0.338771,0.522829,0.056339,0.996512,0.042833,-0.050546
5665788381,-0.750817,0.522827,0.102541,0.995233,0.041739,-0.050614
5665808427,-1.019660,0.370188,0.039493,0.992406,0.031727,-0.051003
5665828473,-1.264566,0.050037,0.037670,0.991242,0.030727,-0.049801
5665848520,-1.532724,-0.110133,0.012841,0.992618,0.025362,-0.049816
5665868566,-1.405660,-0.308606,-0.141793,0.993980,0.023179,-0.050380
5665888612,-1.214730,-0.331444,-0.153063,0.994665,0.019901,-0.053019
5665908658,-0.882603,-0.056588,0.022972,0.999060,0.019536,-0.057360
5665928705,-0.410634,-0.026250,-0.093268,1.000220,0.021545,-0.053842
5665948749,-0.204610,0.095677,-0.120596,0.997239,0.026283,-0.046900
5665968795,0.079090,-0.018448,-0.072231,0.998676,0.029740,-0.048020
5665988841,0.111940,0.103780,0.048988,0.998598,0.032917,-0.051927
5666008887,-0.133161,0.164621,0.022976,0.998154,0.038832,-0.050931
5666028933,-0.308783,0.225567,0.033822,0.995973,0.031650,-0.045889
5666048979,-0.539120,0.095835,-0.014767,0.993037,0.024821,-0.047008
5666069025,-0.532147,-0.109999,-0.044782,0.995992,0.020098,-0.045598
5666089071,-0.541016,-0.323530,-0.105031,0.996483,0.025378,-0.043436
5666109117,-0.487139,-0.392052,-0.082924,0.996304,0.028736,-0.047887
5666129163,-0.362642,-0.155508,0.028495,0.999713,0.035832,-0.050771
5666149209,-0.616610,-0.064346,-0.066220,0.998309,0.036836,-0.047662
5666169257,-0.921224,-0.041409,0.000746,0.995180,0.035109,-0.044157
5666209349,-0.790536,-0.170827,0.044490,0.996580,0.030011,-0.047712
5666229395,-0.859325,-0.170843,0.045825,0.997769,0.025827,-0.047907
5666249441,-0.775407,0.034905,0.028228,0.997729,0.025915,-0.049995
5666269487,-0.629692,0.172167,0.047868,0.999520,0.028825,-0.051755
5666289533,-0.817856,0.210605,0.211862,0.996392,0.038463,-0.052353
5666309578,-1.011584,0.164497,0.070587,0.997728,0.044648,-0.053747
5666329624,-1.484207,0.195036,0.148429,0.998657,0.044287,-0.052946
5666349670,-1.712073,0.286615,0.228961,1.000407,0.030189,-0.053043
5666369717,-1.872465,0.248493,0.239841,0.996688,0.031641,-0.051620
5666389762,-2.692736,0.316576,0.117985,0.994478,0.036103,-0.047414
5666409808,-2.730631,0.156582,0.142177,0.994464,0.030188,-0.048493
5666429854,-3.000947,0.079955,-0.005151,0.991114,0.030641,-0.046894
5666449900,-3.154055,-0.102999,-0.009213,0.991779,0.027104,-0.040908
5666469947,-2.818016,-0.323948,-0.022639,0.989951,0.021188,-0.041321
5666489993,-2.757442,-0.598341,-0.045825,0.994465,0.019270,-0.049111
5666510039,-2.154953,-0.750786,-0.125782,0.994757,0.017635,-0.048296
5666530085,-1.919796,-0.735724,-0.229734,1.006486,0.019276,-0.055943
5666550132,-1.445173,-0.644078,-0.201041,1.000449,0.014643,-0.046936
5666570178,-0.664486,-0.453256,-0.163335,0.998595,0.011090,-0.048623
5666590224,-0.146263,-0.217107,-0.265874,0.998488,0.008177,-0.049615
5666610270,0.709289,-0.354146,-0.304944,0.997865,0.004092,-0.044151
5666630317,1.932523,-0.529101,-0.305173,0.994621,0.010824,-0.041383
5666650363,2.368234,-0.689025,-0.305453,0.995469,0.014549,-0.044581
5666670409,2.800906,-0.620734,-0.482188,0.999554,0.031930,-0.044861
5666690453,2.396492,-0.399746,-0.444511,1.000473,0.049219,-0.043544
5666710499,2.015511,-0.262512,-0.376444,0.998776,0.041842,-0.046771
5666730546,1.443208,-0.064388,-0.320149,1.001418,0.027470,-0.048063
5666750592,1.166831,-0.026507,-0.383686,0.996230,0.024735,-0.047244
5666770638,0.897477,-0.110629,-0.477518,0.996589,0.026182,-0.052336
5666790684,1.042326,-0.278293,-0.495053,0.994208,0.038543,-0.056764
5666810730,0.816067,-0.270328,-0.322577,0.994829,0.046639,-0.057242
5666830776,0.304017,-0.186613,-0.312920,0.995999,0.041371,-0.053622
5666850822,-0.062827,-0.369578,-0.297551,0.995177,0.037640,-0.053874
5666870868,-0.101964,-0.293503,-0.350535,0.997460,0.037080,-0.063625
5666890914,-0.079080,-0.133477,-0.359154,1.001030,0.025440,-0.063939
5666931008,0.722685,0.194275,-0.429293,0.997388,0.027346,-0.063245
5666951054,0.640530,0.179266,-0.320668,0.994146,0.032077,-0.060474
5666971100,0.664058,0.019322,-0.282385,0.996792,0.026440,-0.060963
5666991146,1.067677,0.095424,-0.374526,0.997415,0.023536,-0.057157
5667011192,1.502115,0.118222,-0.451805,0.998887,0.038088,-0.060565
5667031238,1.244030,0.347007,-0.355861,1.000140,0.048650,-0.056428
5667051303,0.696220,0.385311,-0.207813,0.990827,0.032541,-0.052339
5667071329,0.335615,0.156442,-0.268827,0.992507,0.027444,-0.055627
5667091375,0.505397,-0.125260,-0.171845,0.993801,0.036909,-0.054212
5667111421,0.197351,-0.316138,-0.287495,0.996740,0.046013,-0.052825
5667131467,-0.359834,-0.171376,-0.238958,0.999677,0.043016,-0.052235
5667151513,-0.374068,-0.018835,-0.185699,1.000451,0.023369,-0.051126
5667171559,-0.075083,0.103273,-0.146059,0.996374,0.010257,-0.055029
5667191606,0.879715,0.004343,-0.194822,0.996842,0.021805,-0.058596
5667211651,1.229335,0.415663,-0.325239,1.000901,0.014718,-0.056929
5667231697,1.807784,0.491679,-0.474262,1.001777,0.013177,-0.054127
5667251743,1.985676,0.781564,-0.371699,1.000549,0.026463,-0.050588
5667271790,2.190234,0.750893,-0.474905,0.998102,0.033021,-0.044294
5667291837,2.341547,0.689762,-0.561694,0.997906,0.025650,-0.045458
5667311883,2.768600,0.682111,-0.623445,0.991848,0.025374,-0.042177
5667331929,3.206255,0.545301,-0.516860,0.991608,0.022647,-0.040535
5667351975,3.575173,0.499926,-0.409246,0.998980,0.036303,-0.041137
5667372044,3.228984,0.674826,-0.533015,0.994967,0.056404,-0.039559
5667392067,2.705291,0.621846,-0.316358,0.994547,0.054662,-0.047446
5667412114,2.025162,0.591229,-0.295417,0.994482,0.049478,-0.046347
5667432158,1.605964,0.248373,-0.209727,0.992353,0.040201,-0.043572
5667452204,1.489915,0.210064,-0.283762,0.996163,0.032925,-0.045441
5667472250,1.537412,0.179806,-0.192886,0.996799,0.026185,-0.050887
5667492296,1.651091,0.172085,-0.248556,1.002815,0.027366,-0.056347
5667512342,1.706255,0.423784,-0.166408,0.998712,0.034631,-0.060374
5667552435,1.311515,0.340224,-0.005642,0.991660,0.048002,-0.055647
5667572481,0.737763,-0.063848,-0.008446,0.987961,0.056909,-0.057505
5667592526,0.028074,-0.490598,0.083160,0.990459,0.051084,-0.061078
5667632619,-0.534248,-0.543640,0.277643,0.996158,0.041625,-0.064609
5667652666,-0.851071,-0.307928,0.084328,1.005195,0.031803,-0.070375
5667672712,-0.661272,-0.140404,0.003673,0.997435,0.019791,-0.066047
5667692758,-0.244266,-0.011203,-0.195885,1.002053,0.012168,-0.058942
5667712804,0.267788,-0.087298,-0.205568,0.999739,0.024726,-0.054929
5667732851,0.297352,0.316455,-0.276259,1.004260,0.024265,-0.062267
5667752897,0.500969,0.567614,-0.441516,1.000882,0.027362,-0.057131
5667772943,0.677480,0.613469,-0.406887,1.003822,0.029643,-0.056096
5667793008,0.385095,0.834141,-0.516570,0.993546,0.043561,-0.047955
5667813033,0.241453,0.704769,-0.421654,0.997160,0.053744,-0.054298
5667833079,-0.230916,0.697239,-0.328407,0.988917,0.052282,-0.050705
5667853126,-0.557955,0.400184,-0.221734,0.990957,0.048459,-0.054183
5667873172,-0.593304,0.110975,-0.051973,0.994019,0.042008,-0.052046
5667893218,-0.862245,0.026906,-0.122889,0.995382,0.032638,-0.052961
5667913264,-0.875498,-0.033795,-0.007808,0.997997,0.030728,-0.054909
5667933310,-0.684303,0.164391,-0.012178,0.998371,0.033004,-0.054284
5667953356,-0.454742,0.141615,-0.001273,0.996518,0.031824,-0.050891
5667973402,-0.579565,0.057435,-0.136117,0.992349,0.040746,-0.043755
5667993448,-0.981525,-0.010831,0.047663,0.994219,0.043937,-0.041250
5668013494,-1.155004,-0.300142,0.189539,0.992825,0.039392,-0.037951
5668033542,-1.255181,-0.277409,0.145558,0.996333,0.036035,-0.036189
5668053588,-1.338425,-0.269699,0.192997,0.999366,0.045031,-0.044335
5668073634,-1.445089,-0.155374,0.209969,0.992085,0.039026,-0.038482
5668093680,-1.244289,-0.383670,0.329095,0.991357,0.035386,-0.038554
5668113726,-1.045865,-0.665617,0.318542,0.993235,0.024377,-0.041382
5668153818,-0.511426,-0.490306,0.269381,1.001419,0.021366,-0.053227
5668173869,-0.284286,-0.406712,0.142432,1.006323,0.015556,-0.050215
5668193909,0.151167,-0.056107,0.109891,1.001613,0.023741,-0.047606
5668213955,0.633246,0.187923,0.122649,1.000631,0.027282,-0.051045
5668234001,1.021507,0.378318,0.022783,0.996694,0.019914,-0.047153
5668254047,1.485321,0.477171,-0.124092,0.997337,0.018559,-0.042169
5668274093,2.067699,0.431772,-0.051185,0.995104,0.021463,-0.044133
5668294139,2.426264,0.469867,-0.096477,0.997267,0.029834,-0.045182
5668314185,2.978006,0.553999,-0.031049,0.996672,0.034105,-0.047448
5668334232,2.831788,0.500495,-0.081523,0.998194,0.029555,-0.049373
5668354277,2.785826,0.561434,-0.088476,0.998335,0.024002,-0.051908
5668374324,3.014407,0.515670,-0.130966,0.996533,0.033827,-0.049987
5668394370,3.305306,0.348146,-0.105487,0.995165,0.024901,-0.055305
5668414417,3.550547,0.531174,-0.080290,0.992221,0.026615,-0.061158
5668434463,3.536699,0.394192,0.004491,0.992096,0.036074,-0.062352
5668454509,3.554353,0.196374,0.142353,0.990016,0.036255,-0.061227
5668474555,3.349524,-0.245451,0.247138,0.988420,0.040069,-0.063294
5668494601,3.435806,-0.725227,0.384607,0.991821,0.038439,-0.062260
5668514647,3.383325,-0.626042,0.438785,0.998060,0.042437,-0.070271
5668534693,2.830855,-0.298770,0.318511,1.000859,0.050817,-0.066611
5668554738,2.220594,-0.131103,0.390926,0.993124,0.055647,-0.055049
5668574784,1.191320,-0.466294,0.564843,0.989004,0.065128,-0.040379
5668594830,0.038309,-0.916006,0.665128,0.995707,0.073594,-0.042868
5668614876,-1.927151,-0.985175,0.642365,0.996366,0.112380,-0.024879
5668634922,-4.402375,-0.833166,0.751020,0.996336,0.069690,-0.038787
5668654968,-5.764476,-0.742233,0.685450,1.000436,0.049133,-0.040638
5668675014,-6.482647,-0.468023,0.706115,1.000803,0.039299,-0.045984
5668695060,-5.929395,-0.498992,0.435673,1.005679,0.020195,-0.050211
5668715106,-5.021419,-0.354207,0.325875,1.003488,0.002450,-0.051234
5668735152,-3.934345,-0.460425,0.404474,0.996284,0.003896,-0.050478
5668755198,-3.766397,-0.574719,0.393954,0.995706,0.019169,-0.056031
5668775246,-3.925984,-0.650838,0.450794,0.994999,0.043571,-0.043532
5668795292,-4.094683,-0.643326,0.423477,0.993267,0.039938,-0.038685
5668815338,-4.553175,-0.704378,0.440218,0.996434,0.042296,-0.045007
5668835384,-4.597323,-0.605101,0.532442,1.003204,0.039404,-0.039762
5668855431,-4.677624,-0.377011,0.311638,0.999216,0.023926,-0.043934
5668875477,-3.979749,-0.147942,0.419597,1.002400,0.016469,-0.045066
5668895523,-3.193510,0.004508,0.342702,0.997786,0.013993,-0.052608
5668915569,-1.972285,0.172208,0.219108,0.999740,-0.000831,-0.051618
5668935613,-0.374902,0.073492,0.188440,0.996172,-0.022491,-0.053246
5668955659,1.045695,-0.071114,0.107866,0.993785,-0.007045,-0.062672
5668975706,1.738710,-0.139869,-0.042898,0.994571,0.013233,-0.068166
5668995752,2.252246,-0.276734,0.031648,0.995721,0.026077,-0.059674
5669015797,2.083733,-0.185375,0.011690,0.997254,0.039915,-0.055002
5669035844,1.494423,-0.101784,-0.023002,0.998125,0.052840,-0.051589
5669055890,0.591055,-0.010731,-0.089832,0.995733,0.053927,-0.052458
5669075936,-0.239624,0.149427,0.055658,0.998205,0.046834,-0.052579
5669095982,-0.681503,-0.002893,0.148795,0.993934,0.037459,-0.051946
5669116028,-0.949711,-0.010663,0.115818,0.993549,0.030087,-0.053470
5669136074,-0.475650,-0.178181,0.122460,0.995955,0.028083,-0.056776
5669156121,-0.223111,-0.117122,0.132640,0.996603,0.030806,-0.061058
5669176167,-0.063012,-0.109519,0.106583,0.999242,0.028080,-0.061734
5669196214,0.258123,0.096317,0.099667,0.995997,0.019362,-0.050226
5669216260,0.272752,-0.086653,0.069426,0.994678,0.023095,-0.047305
5669236306,0.510562,-0.254135,0.118859,0.996218,0.027099,-0.047701
5669256352,0.363966,-0.246725,0.045265,0.996673,0.021177,-0.053055
5669276398,0.989631,-0.208625,-0.028134,0.998146,0.017095,-0.047808
5669296464,1.267288,-0.177757,0.103921,0.999793,0.023929,-0.042401
5669316489,1.504015,-0.071047,0.083690,0.997995,0.031481,-0.040386
5669336535,1.725616,-0.162449,0.079694,0.998615,0.030016,-0.046385
5669356581,1.618747,0.073776,0.080981,0.994913,0.041015,-0.048247
5669376627,0.999584,-0.269285,0.101779,0.994139,0.048925,-0.050062
5669396673,0.569916,-0.254354,0.018370,0.994449,0.044280,-0.053328
5669416719,0.319072,-0.246610,0.099626,0.995882,0.028722,-0.055777
5669436765,0.303732,-0.338064,0.100228,0.997707,0.022811,-0.056253
5669456811,0.670101,-0.261845,0.062299,0.995936,0.020266,-0.053404
5669476857,1.068903,-0.307303,0.131127,0.993817,0.027184,-0.049113
5669496903,0.907876,-0.490294,0.111936,0.994478,0.034648,-0.047503
5669516950,0.686462,-0.551275,0.131718,0.993345,0.037835,-0.044402
5669536997,0.427106,-0.375998,0.159092,1.001240,0.039298,-0.047081
5669557043,0.326555,-0.284731,0.091966,0.997101,0.027925,-0.044450
5669577089,0.324228,-0.254552,-0.037994,0.997533,0.024284,-0.045994
5669597135,0.211035,-0.361073,0.048613,0.994881,0.033733,-0.050413
5669617189,0.213362,-0.391252,0.178573,0.997364,0.033466,-0.049547
5669637227,0.149716,-0.422072,0.042364,0.997409,0.022552,-0.047805
5669657273,0.425852,-0.399022,0.090420,0.999446,0.025460,-0.051022
5669677339,0.555752,-0.459961,0.088102,0.996933,0.034460,-0.052991
5669697364,0.347782,-0.368771,0.000136,0.995265,0.031825,-0.049508
5669717410,0.487127,-0.414233,0.096923,0.996389,0.032640,-0.052888
5669737456,0.532146,-0.437193,0.050277,0.997309,0.027910,-0.052805
5669757502,0.563360,-0.520926,0.088157,0.997498,0.027721,-0.057347
5669777549,0.309147,-0.376454,-0.022013,0.997732,0.033549,-0.054274
5669797594,0.112629,-0.376211,0.104063,0.995049,0.035461,-0.051054
5669817640,0.060164,-0.490394,0.166593,0.997559,0.039281,-0.053373
5669837686,-0.505726,-0.513418,0.162367,0.998318,0.042469,-0.051666
5669857733,-0.637592,-0.513698,0.057947,1.001125,0.040106,-0.053162
5669877779,-0.551614,-0.322924,0.154982,0.997881,0.033000,-0.056091
5669897825,-0.868391,-0.247233,-0.030160,0.997073,0.029543,-0.055527
5669917872,-0.722285,-0.148021,0.012524,0.995308,0.023351,-0.057483
5669937918,-0.669080,-0.186149,-0.003665,0.996586,0.016802,-0.057948
5669957964,-0.345408,-0.124770,0.135038,0.996630,0.020346,-0.060224
5669978010,-0.102927,-0.185952,0.015915,0.996946,0.018886,-0.062951
5669998056,-0.096993,-0.041386,-0.084020,0.997330,0.026522,-0.066329
5670018103,-0.173485,0.095755,-0.090634,0.995564,0.029974,-0.067757
5670038149,-0.042727,0.088271,-0.047298,0.996196,0.032158,-0.068043
5670058195,-0.104398,0.133911,-0.076819,0.997717,0.037534,-0.064538
5670078239,-0.236108,0.164133,-0.173703,0.994932,0.027972,-0.067470
5670098285,0.002435,0.072950,-0.086330,0.995453,0.026242,-0.069019
5670118332,-0.097501,0.034752,-0.114830,0.995319,0.033161,-0.066033
5670138378,-0.103485,0.042586,-0.023042,0.996442,0.030254,-0.064776
5670158424,0.063412,0.019599,-0.094977,0.993643,0.026795,-0.063271
5670178469,0.133745,0.065537,-0.012439,0.998705,0.031901,-0.060914
5670198516,0.010437,0.217785,-0.071685,0.996956,0.020988,-0.057417
5670218562,0.256227,0.157033,-0.007479,0.997645,0.027445,-0.059255
5670238608,0.363312,0.294233,-0.010014,0.998012,0.030630,-0.058994
5670258654,0.467875,0.362523,-0.149816,0.999307,0.025083,-0.058462
5670278700,0.423510,0.324605,-0.064773,0.994775,0.033996,-0.056040
5670298747,0.202742,0.187505,-0.006543,0.998063,0.034174,-0.060907
5670318794,0.545616,0.240785,-0.074505,0.997043,0.024718,-0.057425
5670338840,0.589773,0.156750,-0.166779,0.995965,0.022535,-0.056586
5670358886,0.477553,0.065596,-0.026752,0.995759,0.031639,-0.052421
5670378932,0.256409,0.233260,-0.000095,0.994818,0.044108,-0.048250
5670398978,0.224886,0.019761,-0.044621,0.996258,0.033654,-0.045171
5670419024,0.302978,0.027614,0.045535,0.997458,0.021465,-0.045262
5670439070,0.126136,0.126503,-0.012495,0.998898,0.032474,-0.045759
5670459115,-0.241764,0.263454,-0.066943,0.999763,0.037466,-0.052862
5670499207,-0.647093,0.331916,-0.074589,0.996468,0.038817,-0.057983
5670519253,-0.821837,0.240569,-0.009763,0.993676,0.033258,-0.061103
5670539299,-0.845967,0.072761,-0.069867,0.994773,0.033979,-0.065844
5670559345,-0.989667,0.080546,0.016951,0.998871,0.033802,-0.066549
5670579392,-1.220061,0.331824,-0.048188,0.995959,0.035163,-0.065866
5670599437,-1.396270,0.331731,-0.067693,0.997452,0.030801,-0.064432
5670619484,-1.296590,0.164147,-0.046145,0.994669,0.024880,-0.067098
5670639543,-1.122314,0.400219,-0.142010,0.995738,0.022249,-0.063843
5670659575,-0.539923,0.377683,-0.069179,0.995050,0.017884,-0.061827
5670679622,-0.096463,0.400663,-0.070219,0.997420,0.015522,-0.062227
5670699669,0.398271,0.385263,-0.194390,0.997323,0.019524,-0.062323
5670719715,0.620348,0.400608,-0.175826,0.996626,0.028352,-0.059965
5670739761,0.828296,0.271313,-0.087733,0.992326,0.036641,-0.050102
5670759807,0.620821,0.263503,-0.144813,0.993547,0.038102,-0.048219
5670779853,0.385440,0.339856,-0.056444,1.000432,0.036725,-0.061043
5670799899,-0.433447,0.415740,-0.101938,0.996188,0.066739,-0.061474
5670819946,-1.625132,0.369838,-0.040454,0.995686,0.048108,-0.050450
5670839990,-1.705719,0.202626,0.160344,0.992012,0.018904,-0.048433
5670860036,-1.026321,-0.079286,0.109892,0.997059,-0.006371,-0.043938
5670880082,0.606659,0.301748,-0.083534,0.999207,-0.002807,-0.036355
5670900128,1.510258,0.370752,-0.009600,0.990998,0.020085,-0.048872
5670920174,1.626754,0.226231,0.095601,0.996329,0.046381,-0.050368
5670940220,0.238353,-0.026195,-0.144068,0.998682,0.061792,-0.031098
5670960266,-0.005747,-0.384342,-0.099932,0.995759,0.031053,-0.023281
5670980313,0.782797,-0.300175,-0.046740,1.000751,0.021214,-0.035332
5671000359,1.286545,0.149445,-0.111502,1.002556,0.029684,-0.031111
5671020405,1.294725,0.362886,-0.089447,0.994346,0.048697,-0.024466
5671040451,0.089748,0.187695,0.087347,0.993641,0.057780,-0.032276
5671060498,-1.607083,-0.102260,0.128879,0.990257,0.054855,-0.037569
5671080544,-2.180400,-0.468174,0.148863,0.993805,0.032386,-0.039681
5671100590,-1.699587,-0.506260,0.101453,0.999016,0.019366,-0.050006
5671120636,-1.067017,-0.315847,-0.018435,1.001346,0.020648,-0.047415
5671140682,-1.095414,0.111168,0.087674,0.994309,0.029471,-0.042226
5671160728,-1.304153,0.065091,-0.038027,1.000834,0.027119,-0.040245
5671180774,-1.532369,0.027079,0.027660,0.996423,0.030104,-0.046348
5671200821,-1.394169,0.149116,0.055138,0.999531,0.029901,-0.060834
5671220865,-0.668081,0.111173,0.041175,0.993247,0.022706,-0.060261
5671240911,-0.171620,-0.018307,0.016690,0.991389,0.016787,-0.062308
5671260958,0.408650,-0.132563,-0.024755,0.995909,0.016962,-0.069647
5671281004,0.681885,-0.117511,-0.137088,0.996124,0.014236,-0.068103
5671301050,1.379378,-0.071379,-0.043795,0.996462,0.013779,-0.069561
5671321096,1.729891,-0.025719,-0.111880,0.993145,0.019876,-0.065883
5671341142,1.975495,-0.170318,-0.055033,0.994852,0.026336,-0.067012
5671361188,1.853683,-0.055978,-0.030126,0.997339,0.037896,-0.065168
5671381234,1.393281,-0.079176,-0.120454,0.997101,0.042456,-0.058090
5671401280,0.689608,0.019667,-0.137694,0.996023,0.048188,-0.056811
5671421326,0.118616,-0.140195,0.003822,0.994482,0.044548,-0.056415
5671441374,-0.147975,0.027513,0.054286,0.995256,0.042543,-0.059058
5671461420,-0.460547,-0.018175,0.106352,0.995945,0.038645,-0.051801
5671481466,-0.638152,-0.048931,0.010561,0.994459,0.030279,-0.048766
5671501512,-0.645710,-0.140365,0.018654,0.996357,0.025548,-0.050152
5671521558,-0.262545,-0.315417,0.072933,0.996775,0.024280,-0.047434
5671541604,-0.071665,-0.185855,0.053515,0.996455,0.020190,-0.045243
5671561650,0.201962,-0.208854,-0.035774,1.001489,0.025111,-0.044429
5671581696,0.224006,-0.071798,-0.090148,0.995488,0.028389,-0.037887
5671601741,0.395294,-0.132315,0.082483,1.000591,0.033945,-0.038165
5671621787,0.393142,-0.277381,-0.031614,0.995863,0.036215,-0.036908
5671641833,0.386130,-0.140135,-0.001369,0.998110,0.033212,-0.039029
5671661879,0.342183,-0.170378,0.106565,0.997263,0.033027,-0.040376
5671681925,0.171074,-0.277485,-0.050229,0.998099,0.030291,-0.044652
5671701971,0.035417,-0.292506,0.059434,0.996717,0.033290,-0.045088
5671722017,-0.111299,-0.254631,-0.021901,0.995382,0.036195,-0.047884
5671742063,-0.584616,-0.231802,0.017773,0.996070,0.035009,-0.050254
5671762109,-0.430968,-0.307870,0.060893,0.996455,0.033183,-0.054161
5671782155,-0.616702,-0.224385,-0.065685,0.996421,0.029268,-0.056241
5671802201,-0.493311,-0.231836,-0.006923,0.997714,0.022174,-0.055889
5671822249,-0.279217,-0.086991,-0.011560,0.999474,0.021261,-0.059548
