Timestamp (us),Gyroscope X (deg/s),Gyroscope Y (deg/s),Gyroscope Z (deg/s),Accelerometer X (g),Accelerometer Y (g),Accelerometer Z (g)
3658681724,0.603590,0.957281,-0.684112,0.960677,0.255602,-0.062395
3658701774,0.558474,0.775654,-0.547049,0.956807,0.261917,-0.058587
3658721840,-0.186254,0.452853,-0.401676,0.955155,0.259595,-0.055482
3658741873,-0.382822,0.140843,-0.317163,0.960827,0.252793,-0.055545
3658761923,0.059513,0.104142,-0.574876,0.962475,0.251697,-0.056157
3658781973,0.493068,0.032742,-0.309518,0.960005,0.257307,-0.057421
3658802023,0.425369,-0.164648,-0.240604,0.960800,0.263685,-0.056307
3658822073,0.692512,-0.232188,-0.392044,0.965855,0.257191,-0.060104
3658842124,1.156282,-0.085350,-0.460923,0.966380,0.260492,-0.058049
3658862174,1.002539,0.239795,-0.507463,0.967447,0.265523,-0.055827
3658882224,0.384394,0.502133,-0.402045,0.964989,0.265329,-0.056297
3658902274,0.019898,0.392651,-0.530383,0.963285,0.260115,-0.058521
3658922324,0.058765,0.203452,-0.476692,0.960079,0.261317,-0.056558
3658942374,-0.063563,0.346460,-0.545352,0.958344,0.265109,-0.057977
3658962424,-0.390833,0.306747,-0.484469,0.961374,0.261546,-0.059823
3658982475,-0.238759,0.300631,-0.408712,0.965108,0.260841,-0.058880
3659002525,-0.184726,0.216659,-0.537283,0.966132,0.257815,-0.061019
3659022575,0.126646,0.332905,-0.484740,0.962742,0.265065,-0.061763
3659042625,0.201134,0.554845,-0.280899,0.960540,0.266718,-0.060162
3659062675,-0.224126,0.399657,-0.371163,0.960450,0.261935,-0.057926
3659082727,-0.071610,0.339969,-0.363432,0.961372,0.259114,-0.058341
3659102777,0.314471,0.602625,-0.046156,0.964287,0.265893,-0.061307
3659122827,0.208114,0.451445,0.166613,0.961297,0.262504,-0.062743
3659142877,-0.142818,0.608574,0.166194,0.966925,0.261493,-0.058056
3659162927,-0.286684,0.545795,-0.007855,0.963205,0.256570,-0.058662
3659182977,0.009903,0.683373,-0.167591,0.958847,0.257057,-0.062061
3659203027,-0.308450,0.475550,-0.288027,0.962558,0.266602,-0.062236
3659223077,-0.491466,0.565165,-0.333745,0.963034,0.261234,-0.062898
3659243128,-0.257030,0.810396,-0.213409,0.965384,0.263001,-0.060357
3659263178,-0.240337,0.581941,-0.341470,0.963934,0.260360,-0.060609
3659283228,0.095951,0.273317,-0.272313,0.959936,0.259146,-0.062259
3659303291,-0.071174,0.158928,-0.180913,0.959736,0.264241,-0.061774
3659323327,-0.429566,0.285642,-0.181224,0.961648,0.262267,-0.060284
3659343377,-0.284606,0.300764,-0.340485,0.960191,0.258742,-0.058799
3659363434,-0.026231,0.363473,-0.295318,0.960001,0.259752,-0.057994
3659383477,0.164912,0.287653,-0.477019,0.963842,0.257567,-0.058942
3659403527,0.484296,0.335482,-0.446980,0.966836,0.258600,-0.057024
3659423577,0.559291,0.533690,-0.394636,0.962396,0.258705,-0.061692
3659443627,0.672592,0.596557,-0.175103,0.960347,0.266201,-0.058157
3659463678,0.869142,0.916111,-0.267220,0.965558,0.264193,-0.059642
3659483728,0.899578,0.961331,-0.350755,0.963639,0.264380,-0.058931
3659503778,0.481214,0.867930,-0.282076,0.961909,0.264010,-0.059121
3659523828,0.542494,0.739899,-0.183130,0.957611,0.265477,-0.057532
3659543878,0.588499,0.641894,-0.122177,0.959719,0.264012,-0.058682
3659563928,0.505299,0.527572,-0.106596,0.959453,0.259752,-0.057907
3659583978,0.840294,0.544560,-0.167403,0.960275,0.262368,-0.059386
3659604028,0.854034,0.803244,-0.092510,0.962914,0.263376,-0.059197
3659624079,0.814239,1.077194,0.050560,0.961710,0.266577,-0.057516
3659644128,-0.030607,0.929067,0.309051,0.964089,0.266562,-0.058953
3659664181,-0.204988,0.821260,0.248852,0.964922,0.263646,-0.059640
3659684230,0.168285,0.852961,0.074296,0.963097,0.258143,-0.056591
3659704280,0.351003,0.846564,0.074254,0.962188,0.263366,-0.059747
3659724330,0.382521,0.686674,-0.031311,0.956520,0.262672,-0.056599
3659744381,0.314165,0.550876,0.173812,0.959069,0.265302,-0.057338
3659764431,0.343906,0.665281,0.226460,0.958982,0.262766,-0.056764
3659784481,0.527050,0.620352,0.135604,0.958709,0.259245,-0.055089
3659804531,0.459335,0.438000,0.181729,0.959593,0.264096,-0.052776
3659824581,0.094756,0.208735,0.319068,0.957976,0.265116,-0.057435
3659844631,-0.299953,-0.014001,0.319974,0.963346,0.263526,-0.055106
3659864682,-0.421252,-0.038481,0.176101,0.966291,0.261299,-0.058786
3659884730,-0.035447,0.509816,0.045234,0.964181,0.259884,-0.055785
3659904780,-0.256458,0.621524,-0.068758,0.962447,0.263312,-0.057200
3659924831,-0.012926,0.615717,-0.038507,0.965558,0.261126,-0.058062
3659944880,0.047760,0.661615,-0.046266,0.965484,0.262799,-0.061808
3659964931,0.079394,0.493942,-0.182120,0.961452,0.264104,-0.058852
3659984981,0.431284,0.206993,-0.302518,0.957619,0.263745,-0.057967
3660005031,0.102418,0.358645,0.007812,0.960074,0.267013,-0.058532
3660025081,-0.489432,-0.084717,0.138389,0.961359,0.261131,-0.057092
3660045131,-0.444249,0.036755,0.092481,0.959175,0.255163,-0.054766
3660065181,-0.253347,0.036513,-0.142533,0.957901,0.256777,-0.056066
3660085231,0.240497,0.191957,-0.082610,0.964384,0.258030,-0.058398
3660105281,0.239322,0.419792,-0.068237,0.964475,0.259114,-0.058864
3660125332,0.421604,0.594436,-0.250797,0.964131,0.260507,-0.063063
3660145382,0.976450,0.802506,-0.335077,0.966470,0.265999,-0.060566
3660165432,0.875466,1.264259,-0.442738,0.965202,0.263361,-0.060544
3660185482,0.500984,1.490472,-0.299386,0.963539,0.268733,-0.059527
3660205532,-0.214397,1.373028,-0.124415,0.964999,0.264403,-0.057558
3660225582,-0.199911,1.524906,-0.132522,0.960717,0.262222,-0.056927
3660245634,-0.003169,1.724006,-0.065067,0.960554,0.258386,-0.058338
3660265684,0.422711,1.735198,0.063588,0.961083,0.264655,-0.058407
3660285734,0.157018,1.664224,-0.080075,0.963363,0.266282,-0.059318
3660305784,0.141670,1.634430,0.026139,0.962733,0.261658,-0.058542
3660325834,0.217935,1.687060,-0.133227,0.965075,0.262094,-0.053805
3660345884,0.004749,1.588322,0.079398,0.961507,0.262205,-0.051832
3660365935,-0.208081,1.496217,0.140422,0.964443,0.261897,-0.054807
3660385984,-0.354528,1.912171,0.040513,0.967200,0.259955,-0.057582
3660406035,-0.592452,2.335360,-0.021493,0.968671,0.258576,-0.059010
3660426085,0.137651,2.596611,-0.280334,0.969007,0.256571,-0.053077
3660446135,0.653696,3.023718,-0.501776,0.962991,0.258268,-0.054230
3660466184,0.759213,3.109453,-0.259582,0.960613,0.264417,-0.055863
3660486234,0.531043,3.025031,-0.168263,0.959669,0.270085,-0.053299
3660506284,0.394385,2.820800,0.090173,0.962221,0.267568,-0.051798
3660526334,0.149553,2.927260,0.370313,0.959753,0.268298,-0.051188
3660546384,-0.215168,2.870822,0.226635,0.962851,0.263438,-0.048383
3660566435,-0.161960,2.796360,0.401189,0.962579,0.263072,-0.048563
3660586484,-0.100298,2.607406,0.470029,0.964935,0.265457,-0.047301
3660606534,0.128587,2.720084,0.045139,0.969781,0.259931,-0.046930
3660626585,0.651016,3.405202,-0.199931,0.967642,0.257682,-0.038649
3660646635,1.334674,3.638042,-0.102446,0.960622,0.254421,-0.036843
3660666705,0.967584,3.654864,0.534257,0.958855,0.268664,-0.038111
3660686735,-0.304842,3.852145,0.632549,0.968821,0.270961,-0.044247
3660706785,-0.314914,4.053065,1.200282,0.972558,0.268536,-0.042829
3660726835,-0.269594,4.174201,1.101322,0.968302,0.261692,-0.044234
3660746885,0.607235,4.033818,0.805919,0.958543,0.267636,-0.046463
3660766935,0.078992,4.300252,1.464556,0.954130,0.273488,-0.043108
3660786986,-0.775279,4.336473,2.071047,0.967221,0.282536,-0.041393
3660807037,-2.178123,4.655375,2.328123,0.972898,0.289566,-0.033527
3660827087,-4.164916,4.687747,2.298391,0.981844,0.281708,-0.031646
3660847137,-6.143088,4.935186,1.456967,0.970320,0.268652,-0.034303
3660867187,-4.963091,4.646388,-1.005612,0.975214,0.223585,-0.022477
3660887237,-3.061676,6.818328,-1.657973,0.967932,0.239099,-0.016528
3660907288,-0.345016,6.504259,-3.704161,0.970706,0.213569,-0.010488
3660927337,1.989035,7.426081,-4.405418,0.987156,0.218689,-0.004432
3660947388,3.768393,8.311939,-5.417095,0.973027,0.227497,-0.008996
3660967438,4.865163,9.187327,-7.375867,0.983451,0.222663,-0.011866
3660987488,6.349487,11.232767,-8.391436,0.979871,0.219065,-0.021574
3661007538,7.868350,12.188565,-8.880314,0.984938,0.242756,-0.011179
3661027588,7.684830,13.632841,-8.400173,0.982606,0.261371,-0.011502
3661047637,7.635507,13.783921,-7.271413,0.962021,0.285989,0.004154
3661067687,6.132446,13.887782,-6.104085,0.943617,0.295073,0.013279
3661087737,5.276594,13.646799,-7.308010,0.956777,0.279235,0.015556
3661107787,6.253776,13.421160,-7.982100,0.961310,0.277502,0.020788
3661127838,7.773304,13.782899,-7.574615,0.963702,0.283139,0.014287
3661147888,8.426250,16.205616,-5.703611,0.960964,0.319858,-0.003516
3661167938,9.576408,16.867533,-10.253668,0.982612,0.303655,-0.002630
3661187988,12.740351,21.142460,-14.589513,0.956668,0.274869,-0.010297
3661208038,17.195982,21.509687,-16.343079,0.941086,0.283531,-0.031320
3661228088,18.127201,20.519554,-15.415360,0.960399,0.307512,-0.041004
3661248138,12.640224,19.637337,-11.204076,0.992849,0.376317,-0.012214
3661268188,3.435440,17.329403,-8.904057,0.986875,0.368080,-0.015524
3661288238,-1.342787,11.826968,-4.927207,0.949120,0.321568,0.009922
3661308289,-0.685543,8.304124,-2.058031,0.828228,0.407182,0.030522
3661328338,-8.072871,2.649416,-1.444800,0.731437,0.556048,0.029385
3661348389,-20.871132,-2.570559,-2.119596,0.769589,0.582496,0.024169
3661368439,-31.182825,-6.032082,-8.197538,0.875534,0.581166,0.022846
3661388490,-44.520618,-7.051062,-11.471045,0.935365,0.668717,0.036798
3661408540,-59.396408,-8.660038,-16.409353,0.970030,0.611556,0.030525
3661428591,-70.784523,-9.297888,-17.858330,0.972983,0.629350,-0.015647
3661448641,-81.537041,-8.130397,-15.410583,0.896226,0.782978,-0.061957
3661468691,-105.353722,-16.700012,-10.976917,0.786336,1.042480,-0.107638
3661488741,-140.330383,-24.735590,-10.186665,0.682759,1.148280,-0.126956
3661508791,-182.703156,-38.261711,-11.618274,0.683437,1.076926,-0.129306
3661528841,-220.338547,-47.906170,-12.784496,0.723023,0.990443,-0.198460
3661548891,-254.680084,-63.328274,-7.823323,0.726324,0.918783,-0.305760
3661568941,-284.988892,-76.913185,-5.825687,0.727399,0.905758,-0.436020
3661588991,-307.739166,-86.553604,-2.548286,0.711233,0.849573,-0.589352
3661609048,-329.588257,-93.702278,-2.334108,0.788660,0.739390,-0.663417
3661629091,-349.862061,-100.731613,6.693436,0.939077,0.686782,-0.776256
3661649140,-364.634460,-94.058647,19.499210,1.024543,0.655362,-0.845813
3661669191,-373.366394,-77.443436,17.239536,1.101481,0.379274,-0.862430
3661689241,-372.610229,-63.670174,13.159807,1.261594,0.105674,-0.761609
3661709291,-358.198578,-52.050072,7.430501,1.095375,-0.003522,-0.811692
3661729341,-340.491913,-54.903435,-14.234104,1.104849,-0.147303,-0.816413
3661749391,-318.287415,-56.001999,-21.210735,1.011428,-0.071417,-0.749427
3661769441,-304.434509,-64.776581,-36.456947,0.950812,0.156731,-0.662794
3661789491,-308.928009,-73.129745,-42.952072,0.847019,0.321418,-0.674797
3661809541,-321.027893,-81.527046,-48.565224,0.919502,0.303531,-0.697979
3661829592,-334.401917,-90.248055,-46.446274,1.041701,0.316078,-0.741791
3661849641,-339.453552,-94.917862,-41.380833,1.094625,0.258488,-0.876804
3661869692,-333.710419,-92.640526,-41.345219,1.075301,0.123925,-0.918917
3661889742,-322.634552,-87.374046,-39.942398,1.186291,0.135342,-0.931804
3661909792,-322.941376,-80.940605,-36.720665,1.209357,0.259041,-0.900354
3661929842,-326.252563,-73.137444,-37.079868,1.192614,0.457212,-0.864867
3661949894,-342.703857,-69.879555,-36.713959,1.142707,0.407774,-0.864376
3661969944,-345.879089,-68.829025,-35.382576,1.102841,0.317753,-0.908150
3661989994,-350.685913,-64.254288,-36.897289,1.033270,0.259451,-0.908241
3662030094,-340.334503,-60.484890,-40.968643,1.029585,0.101362,-0.869266
3662050144,-333.277557,-58.277668,-42.570305,0.986900,0.149827,-0.828050
3662070194,-328.850037,-60.342133,-43.466637,1.002202,0.186149,-0.812639
3662090244,-324.515076,-62.370358,-46.932327,1.062043,0.230062,-0.794273
3662110295,-318.590698,-64.917091,-48.805206,1.076839,0.240946,-0.804292
3662130345,-314.675812,-68.016838,-49.614426,1.045797,0.254959,-0.772410
3662150395,-315.120850,-71.137909,-48.095303,1.073155,0.227032,-0.759896
3662170445,-310.547180,-72.579147,-47.834255,1.092330,0.221498,-0.762241
3662190494,-305.625244,-74.887100,-48.131180,1.060748,0.226948,-0.789430
3662210544,-299.016113,-75.955200,-49.789604,1.013179,0.284191,-0.743533
3662230594,-296.395355,-79.370667,-49.968227,1.060012,0.268477,-0.731295
3662250644,-294.661621,-79.587570,-48.846401,1.052415,0.270416,-0.696017
3662270694,-296.996704,-80.994293,-46.794426,1.051359,0.261429,-0.682470
3662290744,-301.602478,-81.769028,-42.106339,1.105096,0.211249,-0.679963
3662310794,-297.106140,-78.862473,-40.928032,1.037915,0.236758,-0.709454
3662330845,-290.771118,-75.819366,-41.660740,1.029972,0.250196,-0.683218
3662350895,-290.072418,-79.698807,-42.390354,1.089609,0.261840,-0.691474
3662370945,-288.582306,-78.645866,-46.684193,1.048764,0.249696,-0.638273
3662390995,-293.267975,-80.348984,-44.653099,1.068602,0.255265,-0.588302
3662411045,-296.403687,-83.845924,-40.971741,1.116862,0.225311,-0.625693
3662431095,-290.120453,-78.261368,-38.340553,1.110118,0.156316,-0.576047
3662451145,-285.350616,-70.965431,-33.638088,1.151058,0.049069,-0.508260
3662471195,-275.916931,-61.223064,-29.855171,1.173852,0.049438,-0.415583
3662491246,-268.456299,-53.337959,-24.807053,1.127142,0.081212,-0.410192
3662511296,-265.074036,-44.155891,-22.929981,1.090482,0.155450,-0.320881
3662531348,-261.453308,-35.454292,-24.037445,1.143471,0.200814,-0.269681
3662551398,-255.190155,-23.390467,-23.224783,1.176249,0.078277,-0.279118
3662571448,-253.576065,-17.083057,-11.931700,1.215589,-0.056752,-0.235288
3662591498,-237.392929,-13.961067,-9.181805,1.316056,-0.201933,-0.256707
3662611548,-213.550430,-10.047427,-17.585966,1.075583,-0.159199,-0.172657
3662631598,-197.177170,-13.582113,-19.618259,1.018630,-0.027498,-0.102786
3662651651,-182.940277,-11.456473,-30.711004,1.071499,-0.088252,-0.102526
3662671698,-163.233078,-11.463389,-42.541054,1.010106,-0.117031,-0.065911
3662691749,-145.203339,-19.014200,-47.493141,1.074730,-0.135237,-0.008076
3662711799,-128.514572,-14.768157,-51.174255,1.080120,-0.220004,0.016755
3662731849,-117.167297,-8.905021,-46.946636,0.922844,-0.045223,0.103138
3662751898,-108.254242,-5.941182,-37.698483,1.097056,0.015293,0.089404
3662771948,-96.534286,10.741518,-33.644699,1.186373,-0.100667,0.073657
3662791998,-73.790794,32.489132,-25.201275,1.211544,-0.216549,0.098898
3662812048,-53.128803,59.664009,-11.152237,1.201332,-0.067065,0.102275
3662832098,-45.674088,74.263168,-2.042194,1.128861,0.039826,0.110158
3662852148,-41.616974,87.441002,7.915201,1.066213,0.017899,0.124055
3662872199,-37.214771,94.275116,14.392857,1.064684,0.107378,0.091381
3662892248,-31.278368,98.755478,0.089005,1.105892,0.168569,0.107324
3662912299,-19.553249,105.663666,-14.437452,1.066432,0.074832,0.198286
3662932348,-11.090795,109.206696,-23.524635,0.977801,0.007176,0.297323
3662952399,-0.150907,104.976807,-21.838942,0.871365,0.037679,0.305577
3662972449,-3.428415,94.476006,-17.489182,0.758128,0.161014,0.338883
3662992499,-12.197124,77.854851,-14.882308,0.705905,0.216103,0.355506
3663012549,-16.701464,58.760189,-14.057038,0.717262,0.266449,0.399265
3663032599,-16.899174,43.574268,-14.239589,0.827619,0.308230,0.432464
3663052649,-20.395351,28.980587,-14.597342,0.819736,0.406345,0.484076
3663072699,-32.536991,7.968379,-14.975424,0.802520,0.452350,0.520957
3663092751,-41.960289,-17.032675,-13.870393,0.834282,0.336106,0.526072
3663112801,-41.461773,-39.983734,-12.184744,0.745165,0.283585,0.513870
3663152901,-36.822094,-107.659172,-6.617584,0.535759,0.204857,0.459856
3663172951,-38.121918,-142.190948,-2.405501,0.396952,0.218885,0.368825
3663193001,-45.066822,-187.376389,-2.338315,0.395262,0.239847,0.226700
3663213051,-59.808044,-228.259140,1.892780,0.572377,0.291119,0.080038
3663233101,-46.569233,-207.785294,-11.923056,0.979066,0.144094,-0.079969
3663253151,-66.910362,-184.309692,-24.161053,1.044237,0.267103,-0.046031
3663273202,-110.573532,-152.028259,-0.481811,1.109880,0.750444,-0.319087
3663293252,-135.006699,-124.927528,-15.072765,1.931279,0.219852,-0.240959
3663313313,-62.506001,-95.385170,-83.365089,1.887104,-1.337891,0.001242
3663333351,14.763877,-66.909180,-88.909225,1.197945,-0.603767,-0.000507
3663373451,-45.727848,-43.778889,-68.716766,1.089114,0.551424,0.243190
3663393501,-60.913616,-40.536232,-72.057373,1.212743,-0.053577,0.295057
3663413551,-65.102730,-28.369606,-50.247692,1.121654,-0.048923,0.201928
3663433601,-75.556290,-12.824183,-35.071476,1.300044,0.030262,0.197005
3663453652,-64.570107,14.184275,-58.829891,1.623623,-0.215950,0.096541
3663473702,-47.994926,56.351696,-74.260178,1.173832,-0.422449,0.103285
3663493752,-65.573380,84.993835,-19.268854,0.704321,-0.012175,0.179913
3663513802,-79.886658,85.938751,-5.155082,1.073779,0.417208,0.282352
3663533852,-98.005577,103.982224,-15.533453,1.299533,0.396828,0.194395
3663553902,-127.453079,105.281044,-22.181942,0.940507,0.497783,0.084710
3663573952,-149.211456,101.257790,-24.828251,0.858230,0.507162,0.041393
3663594002,-177.698242,81.660980,-32.966339,0.949782,0.199304,-0.026466
3663614053,-164.584305,58.507835,-31.860413,0.894925,-0.295598,-0.063389
3663634103,-134.143921,36.407223,-33.485023,0.704206,-0.034429,0.039753
3663654153,-133.092880,-3.437298,-36.250832,0.548090,0.485807,0.191218
3663674204,-173.602325,-54.469414,-35.257431,0.564320,0.326669,0.223621
3663694254,-189.365936,-88.278236,-29.026775,0.864267,-0.065279,0.292631
3663714305,-179.057953,-89.827888,-20.650295,1.146733,-0.581868,0.544274
3663734355,-158.956726,-87.009872,-7.623658,1.148262,-0.448188,0.201194
3663754405,-166.688065,-68.257439,17.234043,1.358121,0.314947,-0.256847
3663774455,-133.938477,-48.674084,-51.760361,1.421013,-1.117960,0.102908
3663794505,-25.237928,-51.154133,-113.156708,1.130659,-1.901559,0.290779
3663814555,27.726234,-52.392712,-96.118324,0.871201,-0.356860,0.219621
3663834605,3.665018,-59.470581,-70.491371,0.805365,0.542674,0.208380
3663854655,-46.526421,-68.522141,-80.143677,0.692588,0.637272,0.239749
3663874706,-86.849365,-76.367821,-84.596848,1.091745,-0.069864,0.229042
3663894757,-95.299377,-70.142418,-51.919708,1.011802,-0.366912,0.142755
3663914804,-88.428398,-66.815918,-33.660706,0.965479,-0.364977,0.081512
3663934854,-77.915146,-59.312794,-30.939087,1.034925,-0.316016,0.185046
3663954905,-68.956741,-46.625343,-37.518997,1.120022,-0.299991,0.372413
3663974955,-66.886581,-33.354050,-39.505665,1.176635,-0.216823,0.564164
3663995005,-65.300179,-19.033287,-41.905048,1.333230,0.042916,0.532276
3664015055,-72.251534,5.475915,-47.421185,1.477666,0.142379,0.291032
3664035105,-71.622803,23.667358,-49.007458,1.203353,-0.029569,0.080862
3664055155,-79.993530,39.300949,-38.834381,0.783315,-0.099747,0.200572
3664075205,-80.462051,50.225639,-34.733749,0.896428,-0.031189,0.263472
3664095255,-82.676788,51.635021,-31.675932,1.233760,-0.034618,0.168294
3664115306,-73.163879,71.510788,-10.268990,1.375815,0.119373,0.088177
3664135356,-86.242470,71.227104,-9.194799,1.238469,0.274968,0.330063
3664155406,-99.009705,57.356461,-8.089058,1.140575,0.095995,0.416417
3664175456,-84.508347,56.972431,-10.571132,0.832484,0.108987,0.355371
3664195506,-73.595169,35.918514,-16.156307,0.542227,0.071986,0.200510
3664215556,-72.318901,6.888040,-15.025981,0.525283,0.044803,0.227516
3664235606,-74.104965,-24.976168,-7.465442,0.625212,-0.010902,0.268858
3664255658,-67.334824,-57.374676,-1.997850,0.705081,-0.273240,0.305088
3664275708,-47.443733,-75.492912,3.143099,0.903782,-0.587773,0.422107
3664295758,-14.164823,-64.558212,2.760293,0.916440,-0.492582,0.501346
3664315808,5.309517,-52.761158,-0.637076,1.015837,0.095586,0.343012
3664335858,-6.668017,-53.712982,-9.087719,1.120459,0.268950,0.340384
3664355909,41.220707,-37.266937,-44.918678,1.129799,-0.287718,0.269187
3664375959,115.813835,-22.026911,-49.461319,1.295908,-0.333541,0.119935
3664396009,136.486969,-7.264843,-0.763990,1.035969,0.468466,0.206239
3664416059,105.248398,-29.994183,13.535814,0.826494,0.735594,0.379886
3664436109,49.125546,-62.086639,37.532188,0.672453,0.535681,0.350480
3664456159,13.732533,-80.025871,59.661163,0.762549,0.348900,0.299568
3664476208,-3.656263,-79.306465,77.301003,0.708189,0.287678,0.334609
3664496258,-11.725055,-78.998535,82.698982,0.673095,0.256415,0.364986
3664516308,-10.524496,-71.704567,81.195541,0.739873,0.148515,0.395610
3664536359,-12.949464,-58.220181,86.318771,1.001013,0.081330,0.390604
3664556409,-7.413447,-37.014690,91.662720,1.148892,0.143609,0.358032
3664576459,27.655611,-6.470213,76.319061,1.284032,0.099183,0.452297
3664596509,68.332436,23.861565,50.386372,1.270027,-0.029892,0.386437
3664616559,92.971855,55.170410,37.036999,1.304770,0.165197,0.318625
3664636609,112.894150,91.354912,19.253944,1.374574,0.230079,0.353360
3664656660,130.581467,121.409912,9.291542,1.379571,0.159873,0.220244
3664676710,148.053543,152.213654,19.448765,1.333227,0.050091,0.078497
3664696760,156.762177,160.283783,27.246973,1.100863,-0.076567,-0.000935
3664716810,175.303604,137.093079,43.167995,1.097973,-0.109478,0.010786
3664736860,183.639038,120.048157,70.250359,0.567391,0.483305,0.057057
3664756910,168.963058,56.904270,65.690773,0.530651,0.681110,0.082681
3664776960,164.015472,42.546570,60.944500,0.451589,0.377760,0.160066
3664797010,171.414291,17.403593,59.436966,0.429829,0.368094,0.129032
3664817062,174.620331,1.179991,48.941837,0.607512,0.329606,0.116832
3664837112,181.674896,7.258963,37.762192,0.872178,0.405428,0.092110
3664857162,192.815262,26.581257,19.305159,1.254833,0.661736,0.020422
3664877212,185.633728,47.739601,50.672279,1.385044,1.422631,0.273286
3664897262,123.215637,19.869768,75.429359,0.579865,2.064880,0.358390
3664917313,56.248444,-25.759777,50.599487,0.759723,1.336302,0.164335
3664937363,45.926094,-34.706928,53.415405,0.824515,0.565175,0.056296
3664957413,60.678139,-38.897663,58.540485,0.762880,0.585681,0.140508
3664977463,73.812424,-35.653732,53.734802,0.908995,0.564830,0.217038
3664997513,83.762466,-24.824776,49.957573,0.864437,0.386799,0.239958
3665017563,93.021599,-19.459776,47.222580,0.744492,0.424991,0.216036
3665037613,97.139275,-16.226538,44.041992,0.699392,0.585982,0.177862
3665057662,88.361717,-12.029029,42.204071,0.685097,0.777322,0.250163
3665077712,68.326500,-8.051128,37.695484,0.801531,0.732304,0.363206
3665097762,49.161137,-3.147436,45.393093,1.145877,0.612710,0.435922
3665137863,33.286766,36.112938,62.308434,1.263164,0.669451,0.772461
3665157913,41.534359,47.563606,26.644995,1.459787,0.337142,0.304283
3665177963,60.092094,91.029198,4.380903,1.005014,-0.046672,0.160995
3665198013,65.153488,102.703491,20.421452,0.647515,0.082700,0.196589
3665218063,68.344620,107.653946,16.037796,0.875404,-0.045644,0.093628
3665238113,81.494705,117.648087,24.562975,1.075426,0.021217,0.074823
3665258163,85.713608,112.954369,21.091349,1.122492,0.184467,0.206867
3665278213,87.941818,115.509216,5.067431,1.080391,0.154955,0.482836
3665298264,103.371582,109.725578,1.330373,0.840623,0.294600,0.506966
3665318314,119.139908,84.350029,-13.154464,0.540695,0.480448,0.428891
3665338364,114.034744,40.141750,-8.142230,0.263294,0.664933,0.443057
3665358414,102.435738,-24.322460,6.969036,0.175724,0.709803,0.289594
3665378464,99.390030,-77.676804,28.124928,0.163909,0.636148,0.242376
3665398516,90.881622,-109.668350,39.295845,0.135715,0.831428,0.351068
3665418566,62.838848,-138.877106,22.194500,0.508904,0.580425,0.110412
3665438616,84.097565,-124.194618,-23.648022,2.121296,0.154940,0.097413
3665458666,42.778088,-49.795948,54.794819,1.374283,1.216685,0.532251
3665478716,-70.311302,-118.419014,69.425423,0.603407,1.672617,0.332924
3665498766,-76.771896,-146.137512,-7.865534,0.917397,0.073989,0.008745
3665518816,-8.792382,-127.669762,-16.168564,1.111169,-0.693640,-0.020168
3665538866,58.036507,-106.481987,-2.592533,0.646125,0.016102,0.062568
3665558917,70.103851,-111.452126,-14.645332,0.511456,0.719649,0.118725
3665578967,61.819054,-113.131012,-45.778580,0.585939,0.743138,0.200051
3665599017,54.821831,-94.181450,-55.231758,0.732519,0.483693,0.269620
3665619067,48.049583,-73.284134,-58.257187,0.914246,0.273523,0.508550
3665639116,48.844322,-63.781868,-69.059914,1.361271,0.100306,0.525721
3665659166,51.178780,-42.777328,-58.583202,1.403836,0.275254,0.331050
3665679216,21.001963,-18.798866,-26.884266,1.046138,0.301006,0.312402
3665699266,-9.352459,-7.292003,-5.517891,1.205604,0.410600,0.270094
3665719316,-42.374889,8.631183,14.682199,1.402700,0.672614,0.264188
3665739367,-71.271744,16.768745,20.409124,1.406604,0.756069,0.100930
3665759417,-97.643799,5.388497,11.650826,1.093586,0.822929,-0.017578
3665779467,-115.255417,-12.943466,-6.969547,0.774684,0.668362,-0.110298
3665799517,-144.523712,-24.629717,-10.716088,0.727924,0.623302,-0.058031
3665819567,-173.801468,-36.705757,-4.093269,0.701171,0.427173,-0.077399
3665839617,-195.139496,-37.622864,1.381791,0.670137,0.211037,-0.071846
3665859667,-206.087036,-33.071175,10.942163,0.748966,0.193736,-0.182602
3665879717,-218.723190,-29.826118,7.744665,1.021285,0.187734,-0.212230
3665899767,-197.933868,-33.381741,-33.260101,1.192105,-0.432088,-0.085422
3665919818,-149.214905,-45.336483,-49.614090,1.111515,-0.892264,0.004400
3665939868,-100.502777,-56.795734,-46.491871,0.904904,-0.411915,-0.028072
3665959918,-81.905518,-69.654083,-60.550934,0.867734,-0.107936,-0.075206
3665979969,-80.051712,-82.826889,-60.248508,1.036302,-0.206634,-0.026608
3666000019,-81.244080,-89.275482,-48.751324,1.117588,-0.165960,-0.041226
3666020070,-82.319786,-94.529503,-40.547569,1.145640,-0.065335,-0.086907
3666040120,-90.779671,-91.529121,-30.368830,1.196085,-0.076638,-0.039794
3666060170,-99.086494,-80.094154,-19.127836,1.182619,-0.107789,0.033451
3666080220,-102.179237,-66.588837,-20.787609,1.071971,-0.123482,0.052297
3666100270,-101.504898,-56.123329,-34.003712,1.058642,-0.070313,0.106754
3666120321,-91.982727,-55.111893,-44.742336,1.432672,0.088557,-0.062296
3666140371,-89.254410,-54.295540,-56.493488,1.336589,0.394191,-0.169214
3666160421,-117.848564,-57.769833,-60.101822,0.733691,0.218385,-0.248614
3666180471,-135.929489,-71.865440,-43.502056,0.821140,0.195405,-0.178565
3666200521,-146.797119,-64.030640,-35.870502,1.323876,0.158969,-0.013623
3666220570,-159.965866,-41.362919,-11.714077,1.536387,0.046086,0.104068
3666260670,-165.685211,-7.659881,24.626577,1.446819,0.365489,-0.032318
3666280720,-181.058075,-6.379617,20.891123,1.030621,0.323756,-0.053236
3666300771,-185.301773,-16.733734,15.850387,0.995370,0.345062,-0.146798
3666320821,-196.030334,-20.637283,9.933270,0.776453,0.304300,-0.276843
3666340871,-197.219650,-37.578709,2.109947,0.742553,-0.070940,-0.278285
3666360921,-184.657410,-47.750687,6.066499,0.868188,-0.200369,-0.230908
3666380971,-180.742798,-50.906887,20.294128,0.875722,-0.073981,-0.148522
3666401021,-180.773056,-56.768314,34.593094,1.058893,-0.030855,-0.204525
3666421071,-186.880753,-53.099899,31.566168,1.206887,-0.091501,0.037797
3666441121,-172.653046,-44.127304,4.799282,1.209636,-0.486520,0.185986
3666461171,-129.131134,-43.165947,-28.536364,1.256323,-0.677075,0.061648
3666481221,-82.942543,-40.455021,-42.529900,1.277239,-0.515598,-0.010054
3666501271,-57.106644,-43.859413,-54.123016,1.001435,-0.178175,0.044160
3666521322,-53.916103,-58.565086,-46.714291,0.917834,0.145862,0.053813
3666541372,-72.686302,-67.164825,-51.035988,0.832528,0.295181,0.006038
3666581473,-109.071098,-58.293888,-41.655910,1.263150,0.104953,0.139349
3666601523,-115.756554,-47.905582,-34.322617,1.235981,0.085952,0.149101
3666621574,-126.360672,-40.260536,-28.153240,1.255557,0.011342,0.112931
3666641624,-132.414749,-29.334738,-21.708759,1.241431,-0.139338,0.125027
3666661674,-128.119858,-16.238010,-21.194553,1.228478,-0.218258,0.212461
3666681724,-110.581093,-3.937923,-30.663721,1.231236,-0.235523,0.294931
3666701774,-91.708748,5.723831,-38.547844,1.189812,-0.242154,0.288625
3666721824,-88.883621,0.579594,-23.039717,1.112784,0.044186,0.144530
3666741874,-111.152016,2.757151,-11.057092,0.932581,0.290283,0.125317
3666761925,-124.831284,7.867363,-20.740662,0.877883,0.268548,0.151538
3666781975,-142.268387,8.024322,-24.698891,1.014708,0.235022,0.123994
3666802023,-159.073380,7.734534,-27.928226,1.210161,0.215547,0.072438
3666822073,-163.384064,9.485863,-27.447695,1.176405,0.095574,0.183194
3666842124,-149.674622,-0.354813,-20.317102,1.071601,0.093040,0.193750
3666862174,-140.696167,-9.961010,-18.021038,0.930101,0.146107,0.216035
3666882224,-141.954742,-34.981243,-12.795847,0.766353,0.200429,0.144810
3666902274,-155.363556,-67.866989,-3.499716,0.711332,0.183414,0.177153
3666922324,-150.139786,-78.943443,-0.522742,0.783813,0.110585,0.072720
3666942374,-155.021179,-82.598969,1.499987,0.610545,0.036361,0.119066
3666962424,-160.256302,-87.522545,1.458154,0.714854,-0.130972,0.059940
3666982474,-154.223801,-71.566429,-1.441049,0.994332,-0.146751,-0.019510
3667002524,-153.942261,-51.056118,-5.725723,1.638735,-0.099075,0.026314
3667022575,-126.327484,-44.229172,-42.259178,1.527154,-0.920556,0.295506
3667042625,-59.244579,-53.803280,-58.893066,1.198122,-0.544913,0.266377
3667062675,-40.051476,-60.826035,-64.377907,0.972025,0.177053,0.155990
3667082725,-53.657215,-65.040581,-75.666420,0.911978,0.252770,0.097340
3667102775,-69.713509,-64.222260,-82.105743,0.954422,0.088466,0.139350
3667122825,-84.353378,-65.200653,-70.455963,1.029300,0.014977,0.186265
3667142877,-90.857025,-64.677292,-55.449150,1.063329,0.064960,0.188200
3667162927,-92.061066,-63.512211,-51.253998,1.070709,-0.031546,0.128385
3667203027,-97.851219,-45.020435,-40.765785,1.087816,-0.136172,0.186066
3667223077,-118.457245,-33.537537,-33.226757,1.099504,0.038971,0.297364
3667243127,-138.790329,-30.507923,-32.532818,1.292211,-0.017647,0.375183
3667263178,-117.719841,-20.482878,-40.464432,1.651262,-0.182933,0.139525
3667283233,-96.243408,18.857452,-53.037006,1.293777,-0.109983,0.091976
3667303278,-97.646675,20.099779,-54.412582,0.749724,-0.180011,0.247796
3667323328,-116.991928,16.031399,-51.102524,0.976746,-0.053970,0.259125
3667343378,-117.473282,24.258293,-48.614491,1.118376,-0.127905,0.194094
3667363429,-103.168427,43.030888,-38.505646,1.339929,0.027545,0.159511
3667383477,-105.565254,60.258606,-24.937204,1.167513,0.412091,0.297799
3667403527,-125.010910,50.351570,-15.634774,1.117338,0.480938,0.284832
3667423578,-148.562119,46.405128,-13.900084,0.867163,0.554086,0.157972
3667443628,-158.776566,11.200553,-22.786577,0.920549,0.057930,0.163184
3667463678,-132.132828,-13.680573,-25.590178,0.865432,-0.160566,0.172593
3667483728,-103.926483,-28.745701,-21.644976,0.577734,0.184519,0.090216
3667503778,-124.220787,-66.126656,-13.770947,0.470051,0.388774,0.177792
3667523828,-169.185394,-118.603401,-6.139419,0.470163,0.205948,0.374220
3667543878,-169.219940,-129.102905,1.058887,0.852925,-0.091439,0.358745
3667563929,-148.835129,-99.207397,11.043906,0.875415,-0.224131,0.103146
3667583978,-150.065094,-82.494377,12.881486,1.182543,-0.116105,-0.136044
3667604029,-115.490669,-66.606766,-42.208595,1.703155,-1.027620,0.138036
3667624079,-33.466145,-64.609924,-69.278351,1.342562,-1.170284,0.230651
3667644129,21.025492,-63.349594,-67.983025,1.074933,-0.161948,0.126107
3667664179,11.861121,-65.254478,-64.418716,0.879924,0.220355,0.122936
3667684229,-15.520156,-70.365990,-62.883308,0.942447,0.122388,0.143508
3667704279,-41.449081,-70.036346,-47.618923,1.110417,0.067656,0.178869
3667724330,-63.137981,-65.675537,-34.340439,1.171871,0.090751,0.228115
3667744381,-72.362381,-58.829147,-21.453842,1.225471,0.006759,0.255278
3667764431,-79.048355,-44.863132,-9.017080,1.146980,0.060029,0.243835
3667784481,-99.580620,-33.197247,-9.807985,1.029138,0.139828,0.244802
3667804531,-117.095207,-21.287277,-18.316168,0.997860,0.149590,0.303543
3667824582,-121.044144,-6.483426,-47.764572,1.180374,-0.067093,0.224912
3667844632,-101.304070,15.107009,-66.990326,1.378326,-0.303055,0.212869
3667864682,-82.698822,40.941776,-58.627750,1.229591,-0.293129,0.231058
3667884732,-82.487701,59.967228,-50.379265,1.213625,-0.223038,0.198052
3667904782,-89.760605,77.882477,-27.519684,1.179741,-0.170560,0.213472
3667924832,-85.855370,84.470596,-7.846042,1.269662,-0.052217,0.273269
3667944883,-84.761467,88.452698,6.024504,1.094108,0.036967,0.316980
3667964932,-83.417465,68.422569,7.737687,0.897932,-0.115855,0.251285
3667984981,-64.721703,48.768085,4.107915,0.873994,-0.216760,0.155309
3668005032,-35.019947,25.280287,-3.605139,0.787291,-0.185140,0.264662
3668025082,1.634371,4.079432,-5.030395,0.749077,-0.002210,0.362611
3668045132,7.197475,-22.512535,2.698878,0.674539,0.143255,0.361671
3668065182,5.429122,-53.216751,9.997730,0.559852,-0.029275,0.494728
3668085232,26.734783,-64.536713,14.258335,0.642142,-0.152295,0.437297
3668105282,38.892086,-66.080002,4.975172,0.530993,-0.171367,0.263322
3668125332,47.329636,-74.814064,-9.071809,0.708031,-0.201464,0.170406
3668145383,75.039314,-65.248238,-25.629021,1.180111,-0.183236,-0.045399
3668165433,119.957855,-30.014034,-20.316891,1.874081,0.146248,0.144111
3668185483,108.422379,-4.926725,44.901001,1.015703,0.974266,0.580138
3668205533,52.737057,-59.073441,54.042667,0.666609,1.058137,0.309037
3668225583,28.648331,-74.438660,44.236244,0.832052,0.437064,0.016480
3668245633,29.600969,-70.473839,68.694702,0.684089,0.322753,0.089462
3668285734,33.667686,-74.186951,75.155762,0.976035,0.164602,0.193426
3668305784,51.271820,-52.034027,77.392426,1.092181,0.036963,0.163644
3668325835,76.446571,-26.135057,79.530159,1.073144,0.170980,0.109427
3668345886,93.809349,-6.983873,65.982697,1.083064,0.392513,0.141651
3668365936,98.207123,5.515732,57.229874,1.221367,0.499958,0.258175
3668385986,93.113937,20.237272,67.450417,1.262880,0.802507,0.334673
3668406036,75.623695,27.220043,76.845543,1.028607,0.877828,0.262341
3668426086,80.937927,44.795094,57.032360,0.941727,0.537415,0.245580
3668446136,84.941681,68.505898,37.630493,1.013857,0.362213,0.283291
3668466186,93.967812,89.717995,23.662004,1.076995,0.310814,0.268974
3668486236,111.960358,104.615379,10.280566,1.270022,0.094200,0.123254
3668506287,150.727448,116.185814,2.731533,1.297893,0.014320,-0.112288
3668526337,167.537262,139.692963,18.211824,1.117843,0.204836,-0.129856
3668546386,170.551712,105.455246,28.431498,0.986733,0.359785,-0.049329
3668566436,175.594193,102.235954,36.338100,0.897183,0.504095,0.100779
3668586486,167.705750,69.678391,35.429886,0.710322,0.649964,0.100856
3668606536,159.271896,44.065098,40.727844,0.654377,0.487169,0.021457
3668626586,163.991623,21.404554,43.168915,0.544142,0.380190,-0.015531
3668646636,175.767288,-1.610012,31.595234,0.675467,0.393009,0.047780
3668666686,180.793198,18.000341,13.389456,0.951782,0.573639,0.222874
3668686736,181.954971,44.680233,-7.757230,1.251756,0.725061,0.078287
3668706787,180.403336,75.619865,2.739663,1.406248,1.151947,0.166145
3668726837,128.283615,51.862492,40.461723,0.587681,1.648290,0.228395
3668746887,69.407654,0.511096,32.792328,0.579746,1.322724,0.080602
3668766937,56.563492,-16.376671,43.048714,0.728489,0.662069,-0.002672
3668786987,74.337013,-14.908078,49.199123,0.928285,0.577601,0.077064
3668807037,86.849747,0.595994,52.135006,0.974651,0.643691,0.174784
3668827088,91.395554,15.059872,50.097885,0.836400,0.672600,0.261172
3668847138,90.725533,18.824118,45.803040,0.819841,0.683231,0.219125
3668867188,86.438385,20.229206,40.744534,0.842119,0.745487,0.197841
3668887238,78.902969,25.683685,35.915741,0.760789,0.810548,0.198238
3668907289,71.868210,30.838161,32.345909,0.738291,0.820172,0.252316
3668927340,68.674767,41.407768,31.151028,0.720802,0.770635,0.336652
3668947390,67.366310,50.305748,25.391132,0.700261,0.670910,0.438088
3668967440,69.093414,54.799454,19.925772,0.847317,0.584759,0.433220
3668987490,73.772552,63.686954,18.309507,0.914037,0.577706,0.361340
3669007540,80.678223,75.395172,12.665895,0.711997,0.522985,0.422706
3669027590,74.472137,76.118332,12.188103,0.271894,0.749530,0.442411
3669047641,53.795319,73.678482,15.091331,0.679539,0.885873,0.677478
3669067690,6.138414,79.737022,23.575575,0.766050,0.673702,0.675367
3669087740,-4.771315,79.642120,6.693803,1.113037,0.508982,0.615569
3669107791,-5.131983,78.121964,-9.974538,1.153651,-0.095454,0.598586
3669127840,15.026003,65.402031,14.133002,1.130050,-0.159830,0.566809
3669147890,40.029415,55.819073,27.511391,0.892805,0.068600,0.598292
3669167940,38.222736,26.349043,29.546209,0.688344,0.439223,0.471585
3669187990,29.265217,-2.135066,22.038223,0.498962,0.513790,0.377677
3669208040,17.342123,-35.763859,20.377222,0.487061,0.443821,0.327689
3669228090,6.003578,-56.540291,18.042677,0.421517,0.320736,0.544045
3669248141,2.926836,-67.394981,13.071465,0.547164,0.425215,0.690324
3669268190,-20.885109,-77.614532,15.904075,0.528978,0.455795,0.511525
3669288241,-39.416405,-85.518906,12.049795,0.611424,0.249139,0.329279
3669308291,-49.647449,-88.204552,20.490431,0.895605,0.110740,0.270822
3669328341,-54.617596,-79.449646,21.083479,1.333858,0.076689,0.268415
3669348391,-57.453171,-46.833431,30.324514,1.487753,0.387350,0.220832
3669368441,-83.414986,-38.905251,34.724823,1.279348,0.317052,0.427203
3669388491,-81.652672,-57.853241,-10.024881,0.949914,-0.278452,0.469386
3669428592,0.630440,-64.466827,-23.218292,0.698483,0.070761,0.294698
3669448642,-12.124091,-72.399063,-38.617249,0.689982,0.161015,0.362302
3669468692,-19.691273,-76.082069,-42.944645,0.762322,-0.011767,0.378538
3669488743,-21.001980,-77.174347,-40.249897,0.845690,-0.011716,0.324507
3669508793,-17.405239,-70.562080,-42.782574,0.857568,-0.012052,0.273518
3669528843,-12.164280,-61.224937,-44.703747,0.866238,0.062411,0.250269
3669548894,-15.845192,-53.897041,-45.402233,0.969534,0.048059,0.240898
3669568944,-24.265692,-44.030701,-43.167175,1.048102,-0.009058,0.256566
3669588994,-29.411205,-38.961914,-38.256516,1.101132,-0.006387,0.244551
3669609044,-35.831970,-38.454189,-31.783588,1.131419,0.050687,0.228201
3669629095,-46.114307,-38.599220,-26.095272,1.248937,0.021195,0.257368
3669649145,-55.551567,-38.555607,-17.868950,1.379331,-0.102315,0.189922
3669669195,-45.367149,-31.440510,-19.731140,1.249778,-0.031822,0.202729
3669689245,-51.168434,-26.777437,-25.444553,1.200054,-0.114141,0.203784
3669709298,-48.577438,-17.998444,-28.848349,1.115160,-0.165485,0.248128
3669729344,-47.636356,-7.345215,-30.696756,1.072660,-0.092743,0.245894
3669749394,-57.765942,7.322261,-21.414055,1.014844,-0.007688,0.268584
3669769444,-76.075615,16.849792,-6.146139,0.935659,0.014540,0.297757
3669789495,-83.102379,20.360725,-0.736821,1.016486,0.109466,0.303139
3669809545,-83.700325,31.948473,-0.882647,0.968613,0.227701,0.261624
3669829595,-87.794411,30.659775,-4.742042,0.922125,0.346376,0.263556
3669849645,-104.073479,21.141254,-8.068600,0.916700,0.402973,0.180885
3669869695,-122.592712,8.648333,-13.627494,0.875118,0.364875,0.108596
3669889745,-134.647308,-19.438515,-16.353441,0.855384,0.082941,0.085545
3669909795,-125.243103,-46.002163,-10.512772,0.941348,-0.141308,0.058394
3669929845,-112.362602,-44.081917,6.058860,0.938579,-0.054751,0.114266
3669949896,-113.796791,-50.611359,17.025875,0.867655,0.085517,0.137042
3669969946,-121.448700,-55.305191,20.985788,0.797518,0.088248,0.109884
3669989996,-124.718063,-52.606094,20.204576,0.750262,-0.029433,0.096461
3670010046,-125.933121,-46.303337,15.726857,0.667247,-0.095422,-0.001247
3670030096,-121.087837,-40.432411,-3.234884,0.911582,-0.103610,-0.154741
3670050146,-106.921738,-41.727066,-36.431217,1.425721,-0.525165,-0.047607
3670070197,-68.647224,-43.868095,-50.776623,1.567150,-0.785538,0.123636
3670090247,-31.395897,-52.517921,-39.353531,1.128839,-0.206412,0.128095
3670110298,-28.456808,-64.993752,-33.218090,0.978129,0.084653,0.078397
3670130348,-42.541546,-70.439346,-33.429340,0.858173,0.031856,0.070705
3670150398,-56.402718,-74.319809,-28.886482,0.826703,0.002330,0.088455
3670170448,-69.392746,-80.643723,-23.873190,0.832129,0.039178,0.046533
3670190498,-81.056427,-88.069603,-20.410246,0.897610,-0.042629,0.021042
3670210548,-83.412308,-91.761230,-14.712482,0.983315,-0.125209,-0.017111
3670230599,-79.661476,-90.293007,-10.921798,1.032084,-0.080178,-0.007834
3670250649,-84.091583,-83.052055,-10.194881,1.022500,-0.013112,0.007408
3670270699,-93.421402,-75.631012,-10.732555,0.980582,-0.014950,-0.025950
3670290749,-104.426773,-72.893784,-10.692659,1.063030,-0.120870,-0.056585
3670310798,-104.153969,-67.291389,-12.220273,1.216339,-0.169800,-0.058113
3670330848,-100.178108,-63.117802,-9.431832,1.266991,-0.145333,-0.064126
3670350898,-98.780792,-58.639431,-5.006485,1.224275,-0.076663,-0.058680
3670370948,-100.810585,-52.244164,-3.633283,1.117897,0.064433,-0.100057
3670390998,-114.518135,-48.662086,-5.255145,1.097199,0.159072,-0.131109
3670411048,-130.570526,-45.206703,-6.481643,1.139930,0.224890,-0.128659
3670431099,-148.101654,-44.373142,-1.817318,1.124287,0.200923,-0.169573
3670451149,-157.728241,-44.951698,4.266370,1.099187,0.056450,-0.185710
3670471199,-161.199036,-42.736633,8.769432,1.053567,-0.027681,-0.152978
3670491249,-160.414154,-40.191784,9.412180,1.003408,0.014372,-0.139824
3670511299,-160.618195,-37.242397,9.023140,0.981047,0.036760,-0.146512
3670531349,-160.096237,-34.478836,4.920797,1.042306,0.040511,-0.147757
3670551400,-165.318222,-34.691994,5.423571,1.063481,0.060887,-0.162112
3670571450,-172.655289,-39.870495,9.248621,1.012855,0.042687,-0.194615
3670591500,-177.996490,-44.863792,15.080757,1.015797,-0.067045,-0.206321
3670611550,-177.046021,-45.200428,22.069384,1.043342,-0.134615,-0.221430
3670631600,-169.773712,-43.215107,25.955582,1.046848,-0.104318,-0.212667
3670651652,-166.005402,-41.950844,26.298536,1.034582,-0.085484,-0.151353
3670671702,-167.983078,-41.221085,27.289558,1.025974,-0.084288,-0.129797
3670691752,-168.728210,-40.504467,28.530300,1.040400,-0.073380,-0.169992
3670711802,-168.308929,-39.284767,28.889740,1.030417,-0.039591,-0.194720
3670731852,-169.975845,-39.550797,29.361135,1.011484,-0.048814,-0.195020
3670751920,-171.803650,-39.875240,30.363316,1.066404,-0.073533,-0.235879
3670771953,-174.603607,-38.985291,31.126705,1.046249,-0.083845,-0.229540
3670792003,-175.115753,-39.091904,29.209774,1.026123,-0.081956,-0.234158
3670832103,-174.928238,-42.274338,27.583620,1.043732,-0.104775,-0.225135
3670852153,-173.266541,-42.486755,27.091137,1.041326,-0.085298,-0.228740
3670872203,-173.266464,-43.202911,25.494444,1.031963,-0.081596,-0.235303
3670892252,-176.338989,-43.424271,24.882389,1.030621,-0.084417,-0.222646
3670912302,-179.926941,-43.170773,25.458773,1.052905,-0.057760,-0.242701
3670932352,-178.734146,-42.793636,22.645262,1.061517,-0.099369,-0.275785
3670952402,-176.966614,-43.524529,20.494736,1.014884,-0.093132,-0.270826
3670972453,-176.677307,-42.116898,20.694418,1.028860,-0.099226,-0.241482
3670992503,-177.653076,-38.775345,20.690823,1.063606,-0.076171,-0.254863
3671012553,-176.277451,-37.853928,19.717056,1.053922,-0.077228,-0.251011
3671032603,-178.748840,-36.799961,19.668819,1.044697,-0.129789,-0.252831
3671052653,-174.034119,-34.339741,19.673849,1.050979,-0.146161,-0.274228
3671072703,-172.216904,-32.347233,19.545082,1.038129,-0.155582,-0.270302
3671092754,-165.718613,-31.024864,17.855722,1.046901,-0.209471,-0.246895
3671112803,-156.966003,-28.854847,17.019072,1.045515,-0.178858,-0.227901
3671132854,-150.446045,-28.069365,16.839767,1.018914,-0.155660,-0.196094
3671152904,-141.684891,-27.052542,14.915721,1.010137,-0.150618,-0.178855
3671172954,-134.584106,-26.463961,14.213943,1.024416,-0.175766,-0.160559
3671193004,-123.594276,-25.008837,12.067815,1.038743,-0.162957,-0.169239
3671213054,-113.263672,-25.458702,9.488902,1.021626,-0.135995,-0.155404
3671233104,-106.279320,-23.935488,7.844153,1.021415,-0.136687,-0.165667
3671253156,-95.438660,-25.945593,5.315911,1.030671,-0.177973,-0.137768
3671273206,-86.262398,-28.389202,5.578803,1.050182,-0.195668,-0.113704
3671293256,-72.754807,-25.619987,4.541373,1.019848,-0.177168,-0.111497
3671313306,-61.600960,-24.155426,3.713893,1.025177,-0.160938,-0.095470
3671333357,-47.476894,-22.900450,2.689043,1.025829,-0.139461,-0.093078
3671353407,-36.748428,-24.305117,1.174335,1.005955,-0.097747,-0.082887
3671373457,-25.274527,-26.082188,-2.370511,0.997926,-0.113845,-0.089210
3671393507,-13.464584,-27.889833,-6.294317,0.979875,-0.124310,-0.068404
3671413557,-1.330365,-29.088034,-10.220337,0.978111,-0.113683,-0.068358
3671433607,10.785259,-30.926643,-14.553407,0.965168,-0.082964,-0.052901
3671453657,21.478752,-27.678822,-17.425610,0.974075,-0.031778,-0.058247
3671473722,30.239346,-23.263813,-19.808525,0.985397,0.001802,-0.062554
3671493756,37.850182,-19.815254,-20.171707,1.027565,0.030144,-0.069490
3671513806,45.081619,-14.422604,-18.851345,1.059794,0.083144,-0.104230
3671533857,52.581669,-9.389627,-20.652370,1.083504,0.127204,-0.127383
3671553907,56.951122,-3.674314,-22.962439,1.146919,0.097811,-0.153223
3671573957,60.731949,1.214492,-19.721657,1.121384,0.090700,-0.163773
3671594007,62.075684,4.823332,-13.489500,1.052050,0.122010,-0.155539
3671614057,63.752060,8.477402,-6.454249,0.998325,0.160614,-0.154367
3671634108,65.985840,11.538725,-4.873999,0.970448,0.198422,-0.130009
3671654158,69.864662,13.697550,-4.844901,0.937403,0.176983,-0.111909
3671674208,76.488472,14.884183,-7.716155,0.913663,0.239078,-0.105434
3671694258,81.931839,13.211687,-13.692096,0.926391,0.284530,-0.137680
3671714308,84.611328,10.109767,-19.556038,0.873332,0.246397,-0.133979
3671734358,86.065788,6.417367,-21.499195,0.873141,0.238258,-0.144066
3671754408,85.095108,2.990441,-22.176733,0.894660,0.211822,-0.147151
3671774459,87.226120,2.169004,-23.417597,0.917494,0.170450,-0.133787
3671794509,93.915390,2.437485,-26.285709,0.916696,0.185281,-0.144961
3671814559,100.929535,2.425467,-30.623285,0.910643,0.201825,-0.162645
3671834610,106.632454,3.294724,-35.903229,0.953749,0.194750,-0.187615
3671854660,114.941658,4.203450,-42.434753,1.010780,0.233100,-0.246911
3671874711,119.983826,4.824832,-47.812145,0.994825,0.251524,-0.271413
3671894761,118.778770,6.600151,-50.341637,0.971783,0.256470,-0.277813
3671914811,116.383400,8.554742,-52.105850,0.961690,0.267431,-0.272195
3671934861,115.607010,10.386961,-55.681576,0.954098,0.286188,-0.261742
3671954911,114.348999,14.050607,-56.080288,0.960808,0.307492,-0.266121
3671974961,114.826538,18.471354,-55.004311,0.952293,0.343545,-0.246786
3671995012,108.415070,23.916306,-46.934090,0.976005,0.306973,-0.292182
3672015062,102.382835,29.228474,-41.038692,0.978018,0.286453,-0.329829
3672035112,99.585022,34.420620,-34.658962,0.956248,0.299248,-0.308410
3672055162,99.887383,34.390217,-33.779804,0.917501,0.329339,-0.307579
3672075211,101.705788,34.584011,-33.826584,0.908641,0.369714,-0.278208
3672095261,97.775543,33.398781,-33.510384,0.902191,0.343535,-0.284495
3672115311,88.220734,33.930481,-36.782982,0.901676,0.368564,-0.255796
3672135361,77.301216,35.624626,-38.505421,0.915847,0.307343,-0.263258
3672155411,77.962852,38.475800,-34.923054,0.905511,0.290082,-0.248771
3672175461,82.982750,38.603951,-30.665878,0.947540,0.334504,-0.255713
3672195512,81.455666,37.060730,-25.832232,0.964471,0.356100,-0.324188
3672215562,79.231010,37.482231,-22.915005,0.940226,0.369487,-0.362959
3672235612,74.092049,39.468250,-20.487206,0.875441,0.381794,-0.343657
3672255662,65.275337,39.952515,-17.636097,0.830612,0.395906,-0.277156
3672275712,58.815765,37.976322,-14.936495,0.857360,0.431797,-0.223578
3672295762,48.943600,39.002029,-8.221617,0.872803,0.417658,-0.191587
3672315812,40.616135,38.670525,-1.631445,0.900312,0.367265,-0.193626
3672335863,34.622528,37.026901,2.749376,0.931867,0.291200,-0.250869
3672355913,35.505707,35.727268,5.201548,0.952161,0.242058,-0.297962
3672375963,42.443253,35.760605,6.896690,0.949185,0.232269,-0.283056
3672396013,48.744770,37.247513,7.412309,0.932302,0.259867,-0.262864
3672416063,52.305786,36.407841,6.610585,0.939666,0.251311,-0.239537
3672436115,54.932686,36.857822,5.425797,0.951407,0.265175,-0.211986
3672456165,53.846912,37.691555,2.740354,0.941965,0.295912,-0.234130
3672476215,53.851196,34.967094,-5.488586,0.915348,0.344964,-0.243520
3672496265,48.016239,33.890522,-13.607476,0.934262,0.381710,-0.269168
3672516315,42.692337,36.443623,-17.335678,0.923359,0.450085,-0.231956
3672536365,33.344395,34.041519,-21.356133,0.907385,0.414362,-0.179579
3672556416,24.396952,29.343334,-22.731339,0.906577,0.380138,-0.164647
3672576466,16.526953,25.905056,-19.283468,0.908333,0.356011,-0.187622
3672596516,8.288705,24.750834,-13.228598,0.898429,0.297010,-0.194916
3672616566,12.718694,25.874332,-9.429382,0.920023,0.237337,-0.209705
3672636616,23.223782,29.415956,-7.679368,0.925343,0.251641,-0.175751
3672656670,28.748665,29.878500,-5.083314,0.941065,0.329187,-0.174992
3672676715,23.028597,27.098297,-4.230467,0.932472,0.355788,-0.168635
3672696765,18.540176,24.243595,-5.621166,0.913642,0.350726,-0.157531
3672716815,13.868300,21.813116,-4.572838,0.898152,0.336548,-0.136301
3672736866,10.918951,19.466887,-1.592769,0.914544,0.314511,-0.091214
3672756916,10.758371,17.517843,2.483904,0.931658,0.286411,-0.057322
3672776966,11.425235,15.752131,7.082603,0.940684,0.263783,-0.046272
3672797016,13.901163,14.075785,9.543095,0.931470,0.263198,-0.060418
3672817066,17.458078,11.645181,10.467278,0.918363,0.276342,-0.086110
3672837117,19.653616,9.622921,10.147583,0.914827,0.286934,-0.094619
3672857166,21.505791,8.305393,8.779684,0.903026,0.290614,-0.089565
3672877217,21.008533,7.138703,6.085768,0.913165,0.277999,-0.070989
3672897267,22.169313,5.787479,1.315275,0.960179,0.250573,-0.083789
3672917317,24.243338,5.661060,-2.800390,0.992563,0.266151,-0.079468
3672937367,23.946320,6.026971,-3.453337,1.011123,0.260689,-0.070276
3672957417,23.215946,6.909838,-2.349596,0.998809,0.246824,-0.046663
3672977467,22.800692,7.637358,-2.124588,0.986086,0.245204,-0.037283
3672997517,24.899679,7.933022,-1.959605,0.968644,0.238342,-0.044325
3673017569,28.434769,8.724127,-1.766516,0.956391,0.253612,-0.061130
3673037619,28.194111,8.883999,-0.251191,0.958515,0.285797,-0.066304
3673057670,24.856792,8.863007,1.076367,0.946649,0.302264,-0.056582
