Timestamp (us),Gyroscope X (deg/s),Gyroscope Y (deg/s),Gyroscope Z (deg/s),Accelerometer X (g),Accelerometer Y (g),Accelerometer Z (g)
7819167744,4.173993,-3.634125,-4.172965,0.955114,-0.141636,0.167375
7819187799,4.532415,-0.986549,-3.651686,0.968558,-0.151815,0.165043
7819207849,6.145824,0.490563,-3.437551,0.968788,-0.170140,0.135083
7819227902,6.742281,-2.571576,-4.473104,0.987800,-0.190156,0.136541
7819268007,9.503515,-5.998415,-2.999524,0.993432,-0.153971,0.137434
7819288060,7.520373,-7.759739,-0.961600,0.992200,-0.105555,0.136865
7819308112,4.918804,-7.207179,0.265198,1.003847,-0.081259,0.144119
7819328164,1.737623,-5.898244,0.451275,0.997608,-0.076486,0.148473
7819348216,-1.368006,-4.362463,0.416755,0.986282,-0.084670,0.156121
7819368269,-4.509881,-3.506267,0.998485,0.959535,-0.092800,0.150755
7819388321,-5.802248,-2.292711,0.956861,0.963954,-0.102907,0.148540
7819408374,-4.428166,-0.962512,-0.200206,0.976798,-0.129959,0.148217
7819428426,-1.568229,-1.392350,-1.495728,0.982397,-0.146006,0.149715
7819448478,0.311837,-3.696937,-2.913289,0.986050,-0.124633,0.137951
7819468531,1.803164,-4.461822,-4.154124,0.990391,-0.110827,0.137004
7819488584,3.003870,-3.624334,-5.013853,0.985830,-0.117867,0.140961
7819508636,3.241814,-2.439166,-5.124125,0.977089,-0.125399,0.142986
7819528689,3.365087,-1.276033,-4.999334,0.975371,-0.134820,0.145173
7819548741,5.145885,-1.053608,-5.281146,0.987091,-0.136721,0.137462
7819568794,7.791340,-1.369052,-6.273829,1.010481,-0.142118,0.131328
7819588847,10.420653,-1.847337,-6.591418,1.000194,-0.134778,0.125172
7819608899,12.863955,-2.048735,-6.151999,0.979110,-0.124208,0.124173
7819628951,13.674866,-2.282276,-4.309792,0.971145,-0.112776,0.124257
7819649004,12.436995,-2.263694,-2.498051,0.977976,-0.100620,0.134708
7819669057,12.242690,-2.225176,-1.012640,0.987583,-0.091531,0.139851
7819689109,11.168107,-2.131442,-0.686692,0.990660,-0.089124,0.142481
7819709162,9.889077,-2.109147,-0.640847,0.988099,-0.087665,0.143263
7819729214,8.708729,-1.770582,-1.103917,0.978061,-0.086310,0.144267
7819749267,9.109116,-1.085637,-1.250418,0.982792,-0.087270,0.146311
7819769320,9.425621,-0.183392,-1.761428,0.978803,-0.102127,0.149999
7819789372,11.292306,1.020301,-1.826861,0.983533,-0.115264,0.158274
7819809425,13.904306,2.140410,-1.475424,0.987383,-0.121169,0.157733
7819829477,15.049624,2.607717,-0.795329,0.977922,-0.119255,0.153191
7819849531,15.841844,3.424909,0.353579,0.981196,-0.095012,0.158023
7819869584,16.730967,3.711704,0.367438,0.996141,-0.068671,0.161550
7819889636,16.458298,2.540672,-0.848644,0.985160,-0.072103,0.139154
7819909689,15.657915,1.147337,-0.661667,0.987395,-0.065354,0.127822
7819929742,13.454312,0.343795,-0.597495,0.999532,-0.066350,0.126193
7819949794,11.200200,0.744099,-0.992191,0.985955,-0.077491,0.130679
7819969846,9.280879,0.831927,-0.726558,0.967539,-0.089530,0.136686
7819989899,7.337659,0.637224,0.502584,0.970824,-0.087094,0.134955
7820009952,5.369614,0.912171,1.593696,0.987090,-0.073670,0.137278
7820030004,3.560247,2.038408,1.484343,0.989015,-0.080366,0.138914
7820050061,3.242113,2.317501,0.331491,0.980940,-0.097800,0.140876
7820070109,4.216378,1.450450,-0.923969,0.979589,-0.116245,0.147351
7820090162,4.700355,0.827836,-1.437362,0.987039,-0.124417,0.140228
7820110214,3.274916,1.063516,-1.111780,0.990184,-0.113925,0.142764
7820130267,2.212609,1.584477,-0.468992,0.990287,-0.103268,0.151003
7820150319,2.015963,1.182665,-0.179538,0.984099,-0.102858,0.148864
7820170372,2.965590,0.072382,-0.259413,0.976373,-0.104645,0.145831
7820210476,1.575222,0.630551,0.603151,0.995986,-0.094940,0.154401
7820230528,1.774879,0.732562,-0.276429,0.993821,-0.099060,0.152524
7820250581,2.262058,-0.325299,-1.190009,0.978059,-0.093434,0.148076
7820270633,2.626823,-0.246470,-1.107039,0.980414,-0.080671,0.144309
7820290686,2.349972,0.261077,-0.995007,0.979187,-0.077235,0.149714
7820310739,3.004455,0.640607,-1.678650,0.975994,-0.091399,0.157308
7820330791,4.606655,0.109481,-2.086645,0.976321,-0.096580,0.150736
7820350844,5.496317,0.035010,-1.578909,0.983126,-0.092789,0.154285
7820370896,5.806506,0.049147,-0.866645,0.983464,-0.085598,0.155203
7820390949,6.780560,0.041100,-0.745695,0.971004,-0.091470,0.153093
7820411001,8.514338,-1.004431,-1.000384,0.969396,-0.101116,0.152284
7820431054,9.315528,-1.416442,-0.953771,0.975471,-0.102504,0.143164
7820451106,10.158195,-1.030539,-0.826553,0.989201,-0.092736,0.144330
7820471159,10.864993,-0.468325,-1.488107,0.992241,-0.086540,0.151459
7820491211,9.750413,-1.146120,-1.871908,0.988804,-0.078274,0.158247
7820511264,9.501804,-1.648981,-1.900404,0.980769,-0.073158,0.142316
7820531317,9.308386,-1.237656,-1.484911,0.987556,-0.064092,0.146259
7820551369,8.816149,-0.508525,-0.926408,0.987258,-0.068363,0.152668
7820571422,6.710802,0.081198,-0.336545,0.986625,-0.065400,0.150266
7820591474,7.314571,-0.280790,-0.578035,0.981467,-0.070827,0.146384
7820611527,7.893524,-0.405630,-0.509597,0.993756,-0.069674,0.148912
7820631580,6.939164,-0.052324,-0.078480,0.998725,-0.061255,0.152394
7820651632,6.936938,0.328058,0.049052,0.993393,-0.060888,0.159805
7820671685,6.778573,0.150926,-0.185230,0.985392,-0.067543,0.159461
7820691737,6.929429,-1.055677,-0.264493,0.982501,-0.069417,0.155918
7820711791,6.070804,-1.469888,-0.050554,0.992934,-0.060250,0.160067
7820731843,5.551124,-1.273211,0.373371,0.993282,-0.059577,0.162606
7820751896,5.496157,-1.321953,1.123875,0.977657,-0.072014,0.159367
7820771949,5.909735,-1.962899,1.383624,0.970036,-0.081591,0.157879
7820792001,5.545531,-2.380556,1.741401,0.972244,-0.080101,0.153697
7820812054,5.781239,-2.558377,2.189090,0.983822,-0.078633,0.152944
7820832106,6.992463,-2.725307,2.151346,0.979208,-0.084142,0.149612
7820852159,9.089097,-2.824951,1.036849,0.978034,-0.102795,0.141459
7820872211,10.597906,-2.594265,-0.055844,0.978220,-0.104968,0.141939
7820892264,12.203439,-2.282512,-0.436428,0.994485,-0.086850,0.142118
7820912316,13.860464,-1.373620,-1.281405,0.994083,-0.095732,0.137310
7820932369,15.252730,-0.590472,-2.527540,0.983613,-0.101111,0.137662
7820952421,16.705616,-0.076234,-3.143716,0.982200,-0.095771,0.142770
7820972475,17.851650,1.004260,-3.936052,0.992507,-0.089086,0.138494
7820992527,18.725716,1.598030,-4.582616,0.990650,-0.085130,0.142252
7821012580,19.376650,2.548635,-4.995384,0.992623,-0.082251,0.146323
7821032632,19.610880,3.139328,-5.467396,0.991414,-0.079128,0.148914
7821052685,19.602551,3.575979,-6.037320,0.988455,-0.074074,0.153379
7821072736,18.795452,3.646331,-6.082753,0.984438,-0.069646,0.152299
7821092788,17.682487,3.890589,-5.924047,0.984869,-0.060024,0.151646
7821112841,17.353804,4.259274,-6.107097,0.978904,-0.058048,0.157306
7821132894,16.850359,4.596066,-6.350608,0.979054,-0.051925,0.159781
7821152946,16.729820,4.524742,-6.698952,0.981485,-0.052478,0.165258
7821172999,16.595196,4.240571,-7.076874,0.985196,-0.042031,0.164618
7821193051,16.438606,3.984122,-7.848989,0.984064,-0.034544,0.167341
7821213103,17.029280,3.624353,-8.924168,0.983889,-0.043402,0.170623
7821233156,18.306446,2.800604,-9.649357,0.980433,-0.041897,0.168400
7821253209,19.355604,1.922032,-10.404593,0.974969,-0.038945,0.165964
7821273261,20.376043,0.829074,-11.416763,0.981952,-0.026754,0.166054
7821293313,20.689363,0.535627,-11.324914,0.981062,-0.014770,0.171907
7821313366,20.450665,0.930704,-11.030612,0.979366,-0.018830,0.167762
7821333419,22.160021,0.593814,-12.045631,0.970617,-0.024719,0.170312
7821353471,23.418549,-0.787751,-13.322154,0.965860,-0.018557,0.169935
7821373524,23.930601,-0.976933,-13.753683,0.975087,-0.001582,0.173803
7821393576,24.253147,-1.356759,-14.123857,0.995815,0.014388,0.175582
7821413629,24.270857,-1.917650,-14.000666,0.994483,0.017909,0.167807
7821433681,23.685438,-2.350591,-13.430547,0.987919,0.028541,0.162548
7821453734,22.204460,-3.763169,-11.985159,0.972961,0.041515,0.157202
7821473786,20.463089,-4.686431,-4.940516,0.971227,0.044224,0.156250
7821493839,20.506924,-4.085316,-8.360712,0.971983,0.046688,0.150501
7821513891,19.970434,-4.398398,-9.291657,0.979704,0.049747,0.153610
7821533944,18.831993,-5.999832,-10.445322,0.990298,0.062987,0.143808
7821553997,16.249407,-5.853780,-9.891657,0.998667,0.086416,0.135325
7821574049,13.926090,-4.391249,-9.115251,0.989192,0.110596,0.137614
7821594103,9.971564,-3.068722,-7.185789,0.983765,0.119452,0.141472
7821614156,5.652651,-2.193402,-4.769606,0.994565,0.112647,0.153260
7821634208,2.966137,-1.713419,-2.928632,0.995657,0.109676,0.155029
7821654261,-0.327734,-1.143764,-1.883545,0.990395,0.102295,0.154259
7821674313,-3.348791,-0.201924,-1.089943,0.992500,0.103994,0.152073
7821694366,-6.129233,-0.304755,-0.073034,0.989148,0.095817,0.152599
7821714418,-8.511316,-0.831167,0.778457,0.993412,0.098402,0.154780
7821734471,-10.604488,-1.249890,1.553686,0.992650,0.105568,0.141332
7821754524,-12.504905,-0.342433,1.755857,0.991615,0.093876,0.137097
7821774576,-13.978877,0.349867,2.307251,0.990562,0.076635,0.138744
7821794629,-13.849397,-0.016948,2.990576,0.984916,0.058742,0.146454
7821814681,-13.365487,-1.164339,3.524887,0.982808,0.051007,0.152254
7821834734,-12.222242,-1.557970,3.722896,0.977777,0.047840,0.141168
7821854787,-12.425658,-0.960907,4.706174,0.985271,0.063098,0.146043
7821874839,-15.712773,-0.231640,5.773446,0.991783,0.068520,0.136574
7821894891,-15.086920,-0.696641,6.024934,0.989531,0.054197,0.139178
7821914944,-13.545195,-1.214180,5.427440,0.990690,0.027520,0.141403
7821935001,-12.365726,-2.161618,4.452606,0.988257,0.018243,0.141130
7821955048,-12.105171,-2.419183,4.271508,0.982361,0.022760,0.133856
7821975100,-13.129611,-1.680030,4.564898,0.990060,0.037963,0.134734
7821995152,-15.513227,0.380588,3.944738,0.999349,0.035662,0.137644
7822015205,-14.300531,0.082592,3.589128,1.002755,0.011593,0.144036
7822035258,-12.718079,0.357294,3.375417,1.004067,-0.001302,0.144286
7822055311,-12.263716,0.973402,3.092714,0.994677,0.001747,0.142911
7822075363,-12.179217,1.077064,2.592115,0.986518,0.013926,0.144530
7822095416,-11.302841,0.937783,2.471025,0.984582,0.007979,0.135497
7822115468,-10.733358,1.364855,2.188933,0.991456,0.006593,0.145559
7822135521,-9.120622,1.610158,2.096575,0.988126,-0.005516,0.144312
7822155573,-7.482970,1.535575,1.815838,0.992332,-0.008966,0.143837
7822175626,-5.624077,1.506210,1.254445,0.990312,-0.015521,0.149624
7822195678,-2.361396,0.570709,1.211052,0.979872,-0.016282,0.142470
7822215731,-0.806869,-0.218309,2.084807,0.983944,-0.010156,0.144518
7822235783,-0.763748,0.223149,2.219692,0.997731,0.010704,0.146192
7822255836,-0.691088,1.049471,1.959135,0.997178,0.011619,0.146723
7822275889,-0.439779,1.560755,0.918968,0.989065,0.004472,0.150111
7822295941,0.476832,1.273940,0.237529,0.982853,0.003316,0.152898
7822315994,0.690950,0.920458,0.541830,0.979531,0.017300,0.152803
7822336046,0.389367,1.882424,0.508305,0.988670,0.028943,0.158732
7822356099,-0.364086,3.500654,0.275624,0.988509,0.031054,0.153889
7822376152,-0.630778,3.552100,0.283119,0.987622,0.022061,0.154169
7822396204,-0.147108,2.390293,0.938744,0.984781,0.009061,0.147664
7822416257,-1.107968,2.493371,1.423778,0.986374,0.016398,0.152226
7822436309,-1.195989,3.373178,1.382883,0.987758,0.019468,0.163470
7822456363,-0.024249,3.651922,1.032880,0.985818,0.010104,0.156930
7822476416,1.358568,2.328641,1.635693,0.991918,0.007700,0.159455
7822496468,1.768158,2.417325,2.029350,0.996764,0.007265,0.172854
7822516521,1.843160,2.653010,2.005774,0.987099,0.023075,0.180782
7822536573,1.240654,2.921937,1.936848,0.975699,0.023330,0.181335
7822556626,-0.264264,2.359309,2.159104,0.967823,0.024082,0.171546
7822576678,0.142042,1.552503,2.608900,0.978424,0.016105,0.171168
7822596731,0.696344,1.799393,2.660908,0.988867,0.017217,0.177500
7822616784,1.228519,1.841935,2.834891,0.989602,0.014229,0.178085
7822636836,1.373833,1.473733,3.283267,0.983890,0.016035,0.171843
7822656894,1.082551,-0.274084,4.509604,0.982503,0.007017,0.164031
7822676941,2.185639,-2.316258,5.766782,0.977255,0.003032,0.159314
7822696994,3.684173,-2.491590,6.502021,0.987080,-0.001858,0.165348
7822717046,5.618580,-2.766465,6.653870,0.990890,-0.001714,0.168463
7822737099,6.292018,-4.083233,7.817752,0.990906,-0.001339,0.150100
7822757152,5.831346,-3.664093,8.544049,0.979602,0.003905,0.162865
7822777204,4.879616,-3.939621,9.174384,0.978892,0.016526,0.168803
7822797275,4.656028,-3.326694,9.088983,0.987473,0.018632,0.181382
7822817308,4.575319,-3.882030,8.992398,0.991912,0.009157,0.159711
7822837360,1.832625,-1.970496,9.176246,0.997058,-0.003430,0.174616
7822857413,-0.904691,-1.024450,9.143629,0.979043,0.005506,0.179656
7822877466,-2.377476,-0.312541,9.194743,0.977982,0.006687,0.173455
7822897518,0.314068,-0.988666,8.741393,0.978171,-0.008343,0.164269
7822917571,0.455243,-0.304405,8.754145,0.982507,-0.031733,0.167206
7822937623,-0.415323,0.364257,8.547513,0.982126,-0.030613,0.169372
7822957676,-1.650112,0.720293,8.501245,0.994012,-0.019754,0.158061
7822977728,-0.805734,1.184523,7.809664,0.983324,-0.019635,0.161710
7822997781,-1.166194,1.503753,8.240692,0.981391,-0.022171,0.181720
7823017833,-6.085984,3.296459,8.690974,0.988294,-0.016860,0.183525
7823037886,-10.023001,3.687541,8.577321,0.985908,-0.001711,0.163066
7823057938,-10.354309,2.724179,9.043073,0.977044,0.003821,0.163757
7823077991,-7.775533,2.827377,9.488974,0.975204,-0.046380,0.160598
7823098044,-4.428548,3.611916,8.840886,0.987777,-0.090487,0.168469
7823118096,-0.849533,2.878067,6.750369,0.984050,-0.095754,0.169230
7823138149,-3.657965,0.122178,6.040848,0.977506,-0.066188,0.166570
7823158201,-9.886871,0.357695,6.504534,1.003941,-0.028244,0.179224
7823178254,-14.788050,1.662305,6.585123,1.020343,0.006621,0.194205
7823198307,-20.189116,2.680117,6.250032,1.009703,0.006266,0.190044
7823218359,-24.315619,2.977997,6.000345,0.997022,-0.013897,0.186097
7823238411,-27.181297,3.680706,6.036823,0.999472,-0.043947,0.187371
7823258464,-30.969664,4.763930,5.973784,1.001199,-0.055169,0.209417
7823278517,-37.100788,6.412784,4.143721,0.967587,-0.062796,0.208540
7823298569,-39.643444,5.726036,2.623607,0.941995,-0.076795,0.180073
7823318623,-40.311493,5.147402,3.050256,0.949603,-0.073088,0.171178
7823338676,-43.939323,5.945022,3.276147,0.950270,-0.057109,0.189447
7823358728,-47.578880,6.126591,3.337428,0.970795,-0.059493,0.203889
7823378781,-52.469566,6.216862,4.657567,1.006673,-0.047396,0.173739
7823398834,-59.610577,5.217299,4.042037,1.013156,-0.033913,0.149726
7823418886,-65.934120,5.749126,2.246206,1.007724,-0.049043,0.166404
7823438938,-72.382088,7.044004,-0.006948,1.004174,-0.077933,0.179891
7823458991,-76.363960,7.755270,-1.061480,0.986346,-0.095841,0.181972
7823479044,-79.892990,6.952965,-0.633058,0.979848,-0.081722,0.179126
7823499096,-85.134445,7.342492,0.352699,0.973686,-0.062478,0.178860
7823519154,-89.804184,7.422619,-1.351207,0.964720,-0.041310,0.173735
7823539201,-100.021393,8.268986,-2.206968,0.954732,-0.025731,0.159124
7823559254,-108.572945,6.913543,-1.221618,0.953811,-0.015235,0.124278
7823579306,-116.170761,7.099703,-1.143809,0.969953,-0.015432,0.107944
7823599359,-123.718002,8.567674,-2.502859,0.996478,-0.028937,0.099746
7823619411,-131.683167,11.662122,-4.337261,1.010897,-0.037008,0.085763
7823639464,-140.504379,12.345119,-6.056950,1.010622,-0.046867,0.044250
7823659515,-142.397385,10.478768,-6.307541,0.998013,-0.071662,0.014820
7823679568,-139.804184,10.032965,-7.451334,1.001291,-0.103120,0.000029
7823699620,-144.322449,12.987782,-8.520988,1.003458,-0.139331,0.021731
7823719673,-148.482178,14.713193,-7.494739,1.034598,-0.150808,0.033990
7823739725,-151.943619,16.230513,-5.285700,1.048599,-0.139227,0.034864
7823759778,-154.677246,19.623049,-2.621061,1.007015,-0.091604,-0.002427
7823779831,-160.776520,28.283043,2.125977,0.985279,-0.045263,-0.049923
7823799883,-167.873627,35.907181,6.172091,1.010163,-0.038474,-0.068274
7823819936,-175.011780,44.809692,5.939282,1.049580,-0.110320,-0.053712
7823839988,-173.505203,47.423000,1.071638,1.035523,-0.202714,-0.051107
7823860041,-168.224213,48.185051,-2.722316,0.989537,-0.286431,-0.033923
7823880093,-161.350845,42.317616,-6.061983,0.976811,-0.332880,-0.001484
7823900146,-154.507462,38.383347,-7.407455,0.972623,-0.344371,0.034428
7823920198,-149.935730,39.237686,-7.889475,0.972043,-0.325258,0.030476
7823940251,-147.427460,40.147671,-8.242120,0.957787,-0.310902,0.013577
7823960304,-144.148575,37.706455,-8.704751,0.944223,-0.294609,0.017746
7823980356,-142.395294,36.901726,-8.119013,0.931582,-0.303423,0.032390
7824000409,-138.488037,36.988667,-9.212049,0.925115,-0.318518,0.038881
7824020461,-134.378860,35.826279,-12.385067,0.938854,-0.323022,0.045847
7824040514,-133.222351,33.518021,-13.635626,0.942713,-0.326245,0.042276
7824060566,-131.584915,30.534615,-14.103392,0.937143,-0.335476,0.032892
7824080619,-127.319611,27.623880,-15.398437,0.940307,-0.367561,0.037921
7824100672,-122.441963,24.768791,-18.126310,0.940168,-0.385710,0.039493
7824120724,-118.258896,22.423851,-21.098227,0.953703,-0.382857,0.046372
7824140776,-115.896912,21.380024,-22.929564,0.953547,-0.361049,0.046573
7824160829,-114.820488,20.794386,-23.011293,0.963349,-0.320105,0.049168
7824180883,-114.492088,20.816326,-23.481379,0.960284,-0.271851,0.050315
7824200936,-114.450996,21.199148,-25.407768,0.944822,-0.252769,0.065616
7824220988,-113.731339,20.788761,-26.217552,0.925770,-0.268732,0.057759
7824241041,-113.374725,18.356936,-26.974773,0.908209,-0.298479,0.051435
7824261093,-110.641701,15.524400,-27.526812,0.914986,-0.286503,0.055616
7824281146,-107.223488,14.221912,-28.137417,0.930879,-0.276617,0.045526
7824301199,-100.863037,11.102648,-29.758369,0.948941,-0.285085,0.047842
7824321251,-93.340149,6.935272,-31.451908,0.979128,-0.293926,0.034799
7824341303,-85.835747,3.450680,-33.200844,0.980380,-0.273114,0.028659
7824361356,-81.318077,1.292200,-33.452671,0.966095,-0.235154,0.036026
7824381409,-82.496918,-0.157704,-31.022001,0.988428,-0.179448,0.039720
7824401461,-85.576004,-1.225503,-27.432398,1.004428,-0.112688,0.029518
7824421514,-86.950661,-2.003292,-24.162704,0.984173,-0.087250,0.019719
7824441566,-84.673470,-3.521418,-21.687531,0.983439,-0.133550,-0.003108
7824461619,-79.808289,-4.820203,-19.615704,0.994357,-0.209190,-0.008153
7824481671,-77.376038,-4.855808,-18.161274,0.958809,-0.220832,-0.003545
7824501724,-76.210983,-4.223326,-16.595016,0.920054,-0.192294,-0.016056
7824521780,-75.576088,-3.747190,-12.799820,0.952645,-0.177317,-0.015725
7824541828,-76.506348,-2.662232,-8.354384,0.995902,-0.136203,-0.012714
7824561880,-79.264969,-2.822432,-6.829497,0.990902,-0.096683,-0.050469
7824581933,-75.987770,-3.595043,-3.947978,0.983712,-0.094613,-0.037911
7824601986,-77.250854,-3.139813,0.901428,1.013010,-0.100145,-0.009829
7824622038,-79.690666,-2.396200,6.947728,1.038417,-0.090189,-0.010036
7824642091,-85.280434,-1.290276,14.714305,1.045865,-0.040308,-0.030283
7824662144,-92.217293,-4.662392,19.252991,1.032657,-0.001609,-0.066996
7824682196,-95.620293,-6.299140,19.653927,0.997204,-0.030891,-0.069726
7824702248,-100.073303,-3.542001,17.273771,0.958472,-0.087018,-0.074986
7824722301,-100.211182,1.220848,14.271302,0.959271,-0.210807,-0.071730
7824742353,-96.958183,3.488583,11.768871,0.994988,-0.281799,-0.079562
7824762406,-97.151855,4.327963,11.447731,1.009306,-0.260451,-0.075618
7824782459,-99.100357,7.254367,11.627804,1.021669,-0.184528,-0.060686
7824802511,-104.553078,12.440671,11.445105,1.022248,-0.120745,-0.067055
7824822564,-113.893768,16.930241,11.948274,0.989828,-0.118232,-0.089762
7824842616,-121.746307,20.055227,13.615205,0.995720,-0.108293,-0.120100
7824862669,-127.913559,27.378939,14.819920,1.022926,-0.091455,-0.135007
7824882721,-133.833710,36.161598,14.784149,1.031967,-0.115511,-0.141299
7824902774,-138.047638,42.650459,12.815474,1.028028,-0.184155,-0.150439
7824922827,-138.126907,46.320839,9.869796,1.016053,-0.261135,-0.137545
7824942879,-135.526306,46.588062,7.427541,0.992075,-0.315042,-0.110371
7824962932,-133.542664,44.437851,3.910040,0.972362,-0.311297,-0.093104
7824982984,-131.852905,39.882603,0.939036,0.957180,-0.282536,-0.068097
7825003037,-132.667862,37.486649,-0.136214,0.973829,-0.255635,-0.044570
7825023089,-132.338562,37.303913,-0.560121,0.969562,-0.237966,-0.040896
7825043142,-131.524963,36.197880,-1.026490,0.963436,-0.228011,-0.042691
7825063196,-131.984283,36.958694,-1.491267,0.973099,-0.224163,-0.029125
7825083248,-132.777161,38.969940,-1.960236,0.953114,-0.225588,-0.055970
7825103301,-131.294739,33.577934,-2.586387,0.926477,-0.213557,-0.074748
7825123354,-132.428345,30.738441,-0.249465,0.945143,-0.190868,-0.066608
7825143406,-136.800217,33.063503,2.176899,0.989167,-0.160218,-0.064833
7825163459,-141.301392,34.641575,3.067354,1.024553,-0.137892,-0.078382
7825183511,-144.060852,35.818249,2.313949,1.004753,-0.150202,-0.084833
7825203564,-145.176514,36.005497,0.669061,0.977628,-0.204942,-0.064670
7825223616,-143.719666,34.849178,-1.207046,0.965310,-0.253700,-0.054104
7825243669,-140.347977,32.405010,-2.230543,0.962539,-0.294165,-0.043295
7825263721,-134.988495,30.188511,-4.119522,0.950621,-0.303272,-0.043001
7825283774,-128.481705,32.277252,-4.682261,0.943863,-0.282381,-0.035929
7825303826,-125.748940,30.993732,-5.186585,0.948156,-0.254113,-0.035772
7825323879,-125.287079,30.031759,-5.319854,0.946368,-0.246135,-0.030333
7825343932,-124.903526,29.292118,-5.029438,0.953242,-0.248423,-0.019806
7825363984,-126.466454,28.823151,-3.147694,0.970589,-0.226446,-0.004032
7825384037,-129.184357,26.553381,-1.517024,0.969421,-0.188820,-0.041375
7825404088,-128.334137,24.165142,-1.895619,0.957838,-0.190457,-0.039712
7825424140,-129.367859,21.635384,-3.493279,0.982536,-0.236574,-0.015282
7825444193,-132.529617,22.424276,-3.926891,1.020575,-0.239575,-0.002163
7825464245,-133.335175,21.965919,-3.546081,0.991260,-0.210598,-0.023609
7825484298,-132.450424,21.569880,-3.461658,0.954964,-0.220468,-0.047655
7825504351,-133.513855,22.491024,-3.161302,0.945073,-0.219930,-0.040188
7825524403,-136.977005,23.176521,-1.631502,0.974017,-0.192561,-0.030393
7825544456,-140.531509,27.033260,-0.339966,0.977675,-0.210160,-0.054612
7825564508,-138.714508,27.507885,-0.395290,0.965860,-0.250908,-0.055951
7825584561,-137.696045,26.862194,-1.507529,0.953068,-0.256951,-0.063606
7825604613,-136.263565,27.340403,-2.995154,0.958722,-0.261995,-0.061417
7825624666,-135.135605,25.900858,-3.703010,0.981449,-0.271663,-0.061144
7825644719,-134.066681,25.007427,-3.230411,1.001074,-0.288227,-0.072537
7825664771,-128.947067,23.083797,-4.180524,0.987621,-0.282127,-0.082337
7825684824,-123.038788,22.244957,-6.074441,0.978825,-0.275274,-0.078298
7825704876,-116.974991,22.092955,-13.548893,0.973798,-0.274764,-0.060799
7825724929,-112.043434,19.903791,-11.883286,0.963491,-0.269902,-0.062291
7825744981,-107.752113,19.324896,-13.019635,0.955515,-0.277209,-0.050994
7825765034,-103.191093,18.237251,-14.449907,0.965485,-0.278401,-0.040548
7825785086,-98.802437,17.392952,-14.440956,0.973804,-0.280061,-0.043560
7825825192,-94.799255,11.057920,-10.744734,0.952224,-0.231867,-0.056540
7825845244,-87.722733,9.981390,-10.622239,0.951661,-0.246574,-0.062009
7825865297,-82.169579,9.422369,-11.122468,0.960501,-0.267168,-0.035715
7825905403,-72.455002,8.213417,-9.461911,0.974081,-0.256626,-0.024834
7825925456,-67.931999,6.540497,-9.768468,0.983568,-0.242945,-0.048192
7825945508,-63.739475,4.933168,-8.968607,1.002188,-0.220868,-0.031956
7825965561,-62.951637,4.685063,-7.005079,0.989219,-0.199728,-0.038382
7825985613,-61.862293,6.699486,-5.322294,0.980824,-0.199368,-0.037355
7826005666,-60.022404,7.305249,-2.679969,0.996279,-0.197013,-0.046634
7826025719,-60.247665,8.885710,-1.033124,1.000313,-0.170858,-0.048090
7826045771,-61.655544,13.191116,-0.638203,0.987884,-0.177758,-0.039373
7826065824,-63.463364,15.112080,0.068233,0.993792,-0.147441,-0.035956
7826085876,-66.220360,13.909437,0.020290,0.978352,-0.137213,-0.004374
7826105937,-71.116867,15.191259,1.290852,1.011960,-0.101761,0.030081
7826125982,-78.449051,19.778811,2.005192,1.041177,-0.093194,0.033824
7826146034,-85.147766,23.245407,1.283170,1.008754,-0.149986,0.025527
7826166086,-89.710999,25.182272,-1.041067,0.967286,-0.205446,0.035690
7826186139,-92.047928,22.827925,-2.366033,0.952900,-0.188560,0.024214
7826206192,-94.008102,20.260454,-1.772920,0.961052,-0.149583,0.029274
7826226244,-97.430649,19.121597,-0.653691,0.977611,-0.148205,0.034192
7826246295,-96.804054,20.143204,-0.619535,0.989950,-0.170938,0.024545
7826266348,-95.507103,21.115425,-0.683971,0.989876,-0.208457,0.024888
7826286401,-93.415604,19.569847,0.048202,0.979771,-0.238595,0.021894
7826306454,-90.851379,17.792933,0.925007,0.968510,-0.230385,0.025990
7826326506,-88.077309,15.504378,1.113817,0.968367,-0.206716,0.022898
7826346558,-87.328735,15.067902,0.948322,0.960591,-0.196202,0.022267
7826366611,-87.734734,14.213070,0.648251,0.968513,-0.190026,0.020888
7826386664,-87.466469,13.955316,0.429256,0.980421,-0.189555,0.026602
7826406716,-87.660309,13.501677,-0.273956,0.991153,-0.203005,0.037558
7826426769,-87.386169,12.314712,-0.974805,0.987963,-0.209599,0.040702
7826446821,-86.941139,11.626547,-1.010485,0.973174,-0.204261,0.041444
7826466874,-85.683746,11.316209,-0.964382,0.959167,-0.196790,0.032261
7826486927,-85.859680,10.038713,-1.111497,0.949511,-0.182033,0.023660
7826506979,-87.865868,9.507641,-1.381807,0.959540,-0.192298,0.028667
7826527031,-90.237701,9.109821,-1.811607,0.974758,-0.222871,0.029492
7826547084,-89.735001,9.479757,-2.654322,0.989593,-0.244832,0.029034
7826567136,-89.264923,7.586481,-1.207960,0.985699,-0.220776,0.028182
7826587189,-86.056274,6.509943,-0.690005,0.958855,-0.229885,0.024280
7826607242,-80.305061,4.118471,-0.645884,0.967004,-0.244516,0.010057
7826627294,-74.114647,3.201340,0.385847,0.967277,-0.222373,0.014528
7826647347,-69.423851,3.058218,2.908491,0.975394,-0.219927,0.012831
7826667399,-64.503006,3.174901,4.262999,0.972789,-0.221649,0.007106
7826687452,-58.570824,2.071137,2.468513,0.977145,-0.238282,0.018781
7826707504,-52.041248,-0.158671,-1.527780,0.960857,-0.262478,0.025671
7826727557,-46.350220,-4.074291,-4.729758,0.950714,-0.249685,0.038811
7826747609,-42.167133,-7.034239,-6.517236,0.971020,-0.217970,0.042496
7826767663,-40.481846,-10.247627,-7.385912,0.981196,-0.207850,0.043360
7826787716,-39.715305,-11.628078,-6.782686,0.956230,-0.221728,0.016896
7826807768,-37.583595,-13.823577,-5.623866,0.914666,-0.234454,-0.009062
7826827821,-35.359829,-16.785120,-3.249804,0.913498,-0.260517,-0.014404
7826847873,-30.118484,-17.118279,-1.333016,0.946899,-0.290569,-0.005276
7826867926,-22.759268,-16.058624,0.153811,1.017941,-0.232528,0.008189
7826887979,-14.683394,-13.988636,2.197748,1.049047,-0.163362,-0.014022
7826908031,-9.749153,-11.666564,2.938335,1.009694,-0.122883,-0.023767
7826928084,-6.923870,-8.562077,2.335490,0.988417,-0.159601,-0.014950
7826948137,0.112914,-6.624010,0.211819,0.988990,-0.230149,-0.030852
7826968189,12.093538,-7.639911,-3.540460,1.009582,-0.296502,-0.042389
7826988242,22.832542,-7.683216,-5.878390,1.053393,-0.317925,-0.009476
7827008294,31.366264,-5.388065,-4.714549,1.086073,-0.259701,0.016348
7827028347,37.943428,-4.353269,-3.947363,1.069383,-0.199960,0.003178
7827048399,44.114712,-4.289684,-6.268904,1.035822,-0.181830,0.011818
7827068452,48.696507,-0.381938,-7.716397,1.020386,-0.195443,-0.023033
7827088525,51.732628,6.201299,-8.263092,0.985908,-0.179549,-0.043638
7827108556,50.134979,15.209404,-8.331468,1.027030,-0.120045,-0.012135
7827128609,46.508568,27.179583,-3.710387,1.194932,-0.061263,-0.006262
7827148661,44.813507,52.056736,6.261761,1.217215,0.013853,-0.081499
7827168713,47.055580,67.432999,-1.560440,0.905894,-0.028889,-0.170370
7827188766,43.141754,58.814606,-10.972754,0.926987,-0.134242,-0.030311
7827208819,34.250042,62.928501,-6.724442,0.948574,-0.209878,-0.004744
7827228871,31.890404,68.157631,3.838591,0.982357,-0.200327,-0.002797
7827248924,38.563889,74.091850,10.924868,1.065489,-0.197637,-0.126751
7827268977,35.125053,73.843987,13.693247,1.007440,-0.151371,-0.122790
7827289029,39.745747,70.618530,19.864431,0.919859,-0.166204,0.004090
7827309082,49.969414,68.091629,21.476299,1.055500,-0.339607,0.030779
7827329134,67.565453,70.128380,9.662685,1.094139,-0.354490,-0.005855
7827349187,79.744522,69.745987,7.439104,0.991459,-0.111112,0.001779
7827369239,77.289406,70.201111,11.106611,0.985636,-0.013396,0.044231
7827389292,71.379776,70.301155,9.031700,0.914213,-0.047427,0.083653
7827409344,67.006454,66.316483,6.515590,0.896219,-0.071639,0.070537
7827429397,59.223335,62.046532,4.426079,0.867357,-0.134554,0.142223
7827449449,50.586948,59.017357,6.137228,0.906882,-0.143211,0.153510
7827469502,42.738533,56.834614,7.625393,0.943358,-0.082052,0.167965
7827489554,33.803768,55.378120,9.831438,0.975905,-0.050433,0.214090
7827509607,26.997089,55.540623,10.151578,1.021476,-0.122143,0.205337
7827529659,26.160461,55.102528,7.773588,0.984235,-0.224627,0.217620
7827549712,27.257303,51.429989,5.739540,0.965795,-0.201048,0.287652
7827569765,28.687130,46.245926,4.438165,0.973266,-0.145962,0.307607
7827589817,31.987032,44.536705,3.260582,0.931251,-0.175841,0.289387
7827609871,32.886818,40.373367,1.849769,0.868753,-0.197971,0.340095
7827629924,33.853439,32.296722,-0.191794,0.936242,-0.152200,0.328229
7827649976,32.312202,28.190325,0.315527,0.933917,-0.061130,0.337247
7827670029,31.771297,22.680311,2.320390,0.921761,-0.125497,0.374623
7827690082,38.786186,17.597378,1.630606,0.963609,-0.196081,0.362558
7827710134,43.707222,9.746565,3.588570,1.018257,-0.063605,0.367411
7827730187,36.921883,5.481169,7.175332,1.006630,0.029294,0.391519
7827750239,31.088926,-1.970654,7.718421,0.957809,-0.020779,0.455735
7827770292,27.287613,-14.135284,8.822723,0.912381,-0.040167,0.485811
7827790344,20.457399,-28.731857,11.444679,0.828691,-0.017858,0.521313
7827810397,12.557568,-45.781166,11.483458,0.769127,0.024057,0.583753
7827830449,0.191761,-63.813549,15.536454,0.752820,0.096326,0.716764
7827850502,-14.652431,-82.721161,28.983665,0.709533,0.092906,0.808836
7827870554,-23.624313,-113.742859,37.938347,0.535339,-0.076063,0.454016
7827890607,-2.761942,-127.046913,17.104435,0.315578,-0.470920,-0.054834
7827910659,-3.599904,-146.252777,-4.580699,0.740284,-0.347875,-0.406060
7827930712,-58.858597,-126.857956,12.560894,1.997382,0.768232,-0.438330
7827950763,-113.259178,-84.265549,59.498505,1.728046,1.439400,-0.114643
7827970816,-118.278809,-55.378151,31.290367,1.338247,-0.123332,0.226137
7827990868,-81.773048,-34.795097,-2.459072,1.186725,-1.318812,0.326512
7828010921,-27.292280,-33.304829,-15.170460,0.658088,-1.384599,0.152117
7828030973,18.546011,-51.812885,-20.435583,0.425186,-0.632477,0.067781
7828051026,31.489370,-59.235065,-24.999807,0.439468,-0.096834,-0.007844
7828071079,23.445362,-55.474613,-27.079006,0.573513,0.130265,0.013290
7828091131,17.416935,-41.091213,-22.526030,0.901020,0.108493,0.048128
7828111184,10.339055,-23.245552,-13.232611,1.394343,-0.053018,0.108298
7828131237,11.802760,-4.514494,-11.994087,1.685644,-0.296973,0.209797
7828151289,31.268909,12.623344,-25.558081,1.510753,-0.428750,0.266249
7828171342,56.129597,31.874678,-33.439445,1.333889,-0.403447,0.098656
7828191394,39.726582,51.453411,-21.374838,1.045365,-0.014671,-0.035491
7828211447,14.330617,73.835007,-4.587466,0.887083,0.195082,0.018489
7828231499,4.027306,91.531342,1.244012,0.793811,0.108903,0.125433
7828251552,4.687487,103.725784,-3.891298,0.770517,-0.037676,0.190947
7828291657,0.202670,101.321083,-31.286951,1.076797,0.179211,0.150983
7828311709,-32.145512,99.568909,-28.821585,1.046377,0.307414,0.175185
7828331762,-65.172081,91.774200,-17.202515,1.050264,0.245281,0.258546
7828351814,-88.136108,83.070549,-3.658780,0.919729,0.095761,0.408492
7828371867,-104.901794,73.745087,13.181773,0.818008,-0.044391,0.490826
7828391920,-123.125427,51.467182,24.193775,0.702245,-0.059442,0.510901
7828411972,-145.513199,27.409332,26.982620,0.596575,0.118507,0.594796
7828432025,-169.438477,10.049086,19.653759,0.485777,0.277317,0.598716
7828452078,-182.230057,-33.787609,-3.382318,0.503030,0.016698,0.414087
7828472131,-184.581131,-79.363564,-33.707016,0.690209,-0.162874,0.158745
7828492183,-186.965988,-91.964088,-14.215156,1.102711,-0.227152,-0.272106
7828512236,-155.849823,-95.359161,-13.024456,1.296023,-0.952268,0.005130
7828532289,-72.701134,-80.252083,-61.709480,1.241293,-2.655509,0.316558
7828552341,41.738029,-81.506081,-98.503181,0.336202,-2.368144,0.142405
7828572394,83.368332,-108.725502,-78.460983,0.634965,-0.699843,0.115490
7828592446,53.769218,-113.789505,-55.180927,0.609663,0.273900,-0.082363
7828612499,9.590889,-111.446190,-48.337311,0.525986,0.967570,-0.166419
7828632551,-20.793602,-105.428505,-40.162136,0.883037,0.546507,-0.166558
7828652604,-31.166597,-78.473839,-19.265253,1.207395,-0.424530,-0.131298
7828672657,-20.869875,-50.118763,-8.346759,1.148523,-0.871900,-0.051558
7828692709,-1.578267,-27.402050,-0.352624,1.258547,-0.688924,0.045896
7828712762,24.188612,-6.345990,-11.893586,1.436725,-0.571470,0.042346
7828732815,33.899651,19.092648,-28.089930,1.307609,-0.435848,0.041224
7828752867,27.763210,36.669605,-26.223291,1.161315,-0.080943,0.046168
7828772920,12.956374,64.437759,-17.325150,1.226375,0.154637,-0.034895
7828792993,1.112809,76.593636,-20.439947,1.190464,0.112278,-0.139358
7828813023,-15.353888,94.612091,-16.115629,0.983664,-0.031516,-0.092445
7828833076,-17.679026,109.527000,-8.185568,0.972501,-0.090607,0.021856
7828853128,-10.622454,118.371223,-10.696834,0.972539,-0.163477,0.098316
7828873181,-7.100142,116.015106,-23.127020,1.161348,-0.034556,0.126336
7828893233,-25.553656,118.691116,-27.457363,1.143241,0.043084,0.081503
7828913286,-53.495663,117.100853,-15.975136,1.151152,0.056957,0.186915
7828933339,-76.164619,107.672516,-3.285429,1.059382,0.207599,0.245959
7828953391,-106.745758,101.275688,10.760813,0.939808,0.222621,0.387990
7828973444,-133.926620,93.983597,33.358013,0.702507,0.185166,0.499710
7828993496,-149.535156,69.369278,38.374622,0.372719,-0.216807,0.676614
7829013549,-135.161133,14.328514,19.861958,0.053615,-0.813247,0.683345
7829033601,-87.773972,-50.918060,-11.534059,-0.039173,-0.978410,0.653880
7829053654,-76.329483,-76.711182,-19.172144,0.290600,-0.185684,0.066745
7829073706,-119.680176,-71.936897,13.400943,1.091769,0.446365,-0.219268
7829093759,-114.590683,-55.950176,-13.621857,1.118818,-1.163088,0.106832
7829113811,-47.552284,-52.544636,-85.619270,1.032676,-2.341511,0.335984
7829133864,6.309370,-75.690208,-58.296860,1.126737,-0.926017,0.503582
7829153916,-1.883009,-88.412262,-26.842955,1.137028,0.046746,0.346345
7829173969,-12.732595,-87.433891,-21.794941,0.811981,0.362502,0.149528
7829194022,-23.487740,-88.133789,-32.482670,0.713405,0.112756,0.076559
7829214074,-27.493958,-86.582672,-37.549355,0.798509,-0.202984,0.024013
7829234127,-32.474121,-83.048248,-37.726528,0.852994,-0.202932,-0.063759
7829254179,-24.972383,-76.283150,-46.521320,0.944339,-0.229597,0.027627
7829274232,-9.734664,-63.085369,-50.930031,0.984905,-0.301907,0.079647
7829294285,-1.802900,-58.925968,-41.291553,1.037799,-0.138281,0.134931
7829314337,-4.773127,-41.459457,-30.179317,1.136959,0.010354,0.080928
7829334391,9.177643,-26.353466,-23.263613,1.306529,-0.130769,0.104213
7829354444,8.219483,0.961046,-5.607480,1.318246,-0.134855,0.051449
7829374497,-19.370417,25.900621,15.764692,1.335962,0.089870,0.089690
7829394549,-41.510712,54.570190,27.117878,1.340379,0.222504,0.094275
7829414602,-51.009064,68.553169,37.948830,1.124675,-0.056693,0.172593
7829454707,-83.536919,55.361153,40.741676,0.879707,0.110672,0.230175
7829474759,-96.619263,35.269264,28.439053,0.669096,0.140043,0.187717
7829494812,-105.638824,20.490810,21.399231,0.548615,-0.147669,0.138115
7829514864,-112.904793,6.574175,32.325531,0.598863,-0.400442,-0.049278
7829534917,-132.256561,3.034522,51.974010,0.777859,-0.175251,-0.137320
7829554970,-155.616928,13.393779,73.114517,0.988615,0.015613,-0.011887
7829575022,-152.003128,14.974636,58.897259,1.085282,-0.518127,0.078135
7829595075,-123.066795,2.666301,25.142548,0.850648,-1.166778,0.086797
7829615127,-81.934860,-22.288296,6.592637,0.568460,-1.390592,0.064029
7829635180,-50.189075,-46.392262,13.334063,0.566915,-1.073007,0.028896
7829655232,-44.216526,-57.414978,24.010809,0.728853,-0.656219,-0.013042
7829675283,-43.481541,-53.243896,20.168804,0.897218,-0.398628,-0.076449
7829695336,-38.674217,-43.422363,11.281058,0.968765,-0.424812,-0.075911
7829715389,-36.669907,-38.492836,15.590954,1.033063,-0.480217,-0.052729
7829735441,-36.402920,-30.203339,19.995983,1.081964,-0.418065,-0.027836
7829755493,-43.085289,-13.666063,20.092918,0.959465,-0.454922,-0.045092
7829775546,-46.740051,-3.403493,27.220951,0.947047,-0.578977,-0.026567
7829795599,-45.336601,10.177928,29.333664,0.972166,-0.672812,-0.003581
7829815651,-30.033911,18.814518,26.282118,0.956596,-0.734057,0.023828
7829835704,-18.677238,26.270689,26.714767,0.877324,-0.773845,0.036541
7829855757,-8.317256,40.152901,26.322252,0.770722,-0.974549,-0.106852
7829875810,6.883968,37.585690,10.463017,0.742931,-0.870211,-0.068177
7829895862,-0.173888,15.536307,12.481680,0.682542,-0.792899,-0.084859
7829915914,-26.655510,-0.813204,17.526665,0.679522,-0.531209,-0.089091
7829935967,-17.557487,-21.173828,29.757864,0.631401,-0.613484,-0.066031
7829956020,21.706909,-42.639496,5.436577,0.498862,-1.038809,-0.104946
7829976072,73.744377,-39.770462,-10.007129,0.201374,-1.237204,-0.267442
7829996125,98.178604,-61.756374,9.052943,0.871500,-1.451523,-0.248759
7830016177,120.057571,-67.109543,6.691515,1.398675,-0.550113,0.099722
7830036230,115.523689,-53.851311,9.451632,1.808009,0.262922,0.206457
7830056282,97.507439,-37.664345,-7.665649,1.352949,0.598028,0.157363
7830076335,78.037445,-41.924873,-5.794886,0.830549,0.223857,0.114820
7830096388,73.785835,-52.781757,8.052874,0.540038,-0.148533,0.155333
7830116440,76.689949,-66.430923,6.378466,0.359825,-0.417503,0.052923
7830136492,79.490837,-80.692490,1.621570,0.457417,-0.540780,-0.095281
7830156545,83.580078,-87.830811,-2.925376,0.733338,-0.379506,-0.060928
7830176597,78.274940,-89.286896,-3.198923,0.881087,-0.170954,-0.004491
7830196652,71.285988,-78.805450,3.573311,1.107221,-0.048557,-0.057563
7830216704,64.607109,-66.825081,14.144908,1.304106,-0.004516,-0.089668
7830236757,57.952618,-59.381084,24.042440,1.336418,-0.206282,-0.182351
7830256809,67.390656,-53.664318,19.131010,1.323179,-0.314807,-0.202455
7830276861,90.420647,-41.924030,-5.261120,1.266781,-0.394347,-0.183849
7830296914,106.372513,-33.526844,-38.347469,1.162710,-0.266409,-0.192429
7830316967,120.058769,-37.303219,-51.776745,1.160901,-0.221632,-0.154880
7830337019,138.062836,-40.021702,-62.058327,1.166263,-0.309333,-0.061670
7830357072,153.666061,-31.185734,-69.892990,1.133701,-0.422241,-0.080316
7830377124,174.653183,-28.446745,-78.617996,0.976095,-0.520362,-0.189904
7830397177,198.444321,-29.216875,-90.507469,0.881295,-0.454756,-0.302487
7830417229,212.720886,-27.613028,-89.350845,0.746406,-0.357751,-0.232586
7830437282,210.428055,-43.176090,-76.215134,0.613183,-0.067689,-0.278876
7830457335,204.490082,-72.715767,-62.946613,0.662779,0.019990,-0.260726
7830477387,192.400116,-97.551575,-64.160378,0.769762,-0.006762,-0.286469
7830497440,201.317566,-105.915215,-90.918716,0.689962,-0.160068,-0.500021
7830517492,222.437607,-100.978882,-111.224419,0.646862,-0.393068,-0.713753
7830537543,225.736847,-90.037338,-101.168114,1.195850,-0.144669,-0.696376
7830557596,202.134171,-73.040848,-51.924862,1.565410,0.701863,-0.617486
7830577649,168.183151,-60.697990,-9.952926,1.261785,1.206926,-0.519967
7830597701,140.901062,-55.611000,45.782330,1.071880,0.334949,-0.409704
7830617754,126.149536,-57.575085,61.331123,0.953178,0.125603,-0.475377
7830637806,130.523468,-65.227997,38.800987,0.865796,-0.007123,-0.448104
7830657859,137.942322,-62.794777,11.414811,0.895096,0.173856,-0.497796
7830677912,132.245178,-50.720165,1.120871,0.941598,0.374775,-0.412997
7830697964,113.917343,-47.299324,-3.204505,0.967581,0.407323,-0.351570
7830718017,98.425949,-40.520496,-4.086441,1.062657,0.370202,-0.331562
7830738070,85.387825,-29.794830,-1.648095,1.185306,0.143361,-0.208099
7830758122,65.100616,-30.916729,15.938477,1.050710,0.110030,-0.263017
7830778174,42.303318,-35.260815,27.216179,1.159970,-0.109931,-0.362850
7830798227,37.906452,-38.648228,32.708981,1.008429,-0.265236,-0.405570
7830818280,52.005951,-51.842010,27.853498,0.944328,-0.249958,-0.426650
7830858385,23.163256,-57.504330,-14.051262,1.020747,-0.013942,-0.408482
7830878437,11.662436,-45.470650,-14.043228,0.955818,-0.377428,-0.332482
7830898490,7.402994,-28.904530,-17.880722,0.987981,-0.316289,-0.344322
7830918542,11.099947,-23.903088,-20.733782,1.039384,-0.183500,-0.361672
7830938595,22.656290,-16.897297,0.648589,0.888158,-0.678974,-0.583585
7830958648,36.590939,-1.664978,-1.227728,0.883341,-0.712989,-0.444718
7830978700,53.485023,6.613516,-9.712708,0.878857,-0.550438,-0.398644
7830998753,59.476372,0.426674,-9.837486,1.032588,-0.273016,-0.323876
7831018805,69.949257,-9.528752,-1.901996,0.921266,-0.263197,-0.280700
7831038859,81.788643,-18.588047,-12.083780,0.810620,-0.352471,-0.209834
7831058912,89.751877,-31.630695,-28.677437,0.820386,-0.328778,-0.270296
7831078964,109.954544,-47.712379,-45.090591,0.525027,-0.355207,-0.166476
7831099017,121.917084,-66.168671,-73.103645,0.568154,-0.311309,-0.236023
7831119069,137.672089,-76.971550,-98.893448,0.554447,-0.148027,-0.405419
7831139122,156.438660,-79.523003,-115.943878,0.614170,-0.146734,-0.438729
7831159174,150.076309,-76.264122,-113.853508,0.771695,-0.297216,-0.471134
7831179227,124.848816,-68.460640,-98.751549,1.497467,0.139764,-0.534756
7831199280,101.282166,-57.337948,-43.212700,1.467348,0.373403,-0.552306
7831219332,83.016823,-54.118614,5.606245,1.035012,0.018498,-0.525361
7831239386,66.903900,-55.276539,13.209992,0.975067,-0.009519,-0.518464
7831259437,62.311401,-55.731064,12.114219,0.816518,-0.031897,-0.489519
7831279490,66.251236,-54.905987,-3.100972,0.800305,-0.007751,-0.488550
7831299542,81.063110,-44.894207,-22.232052,0.898683,-0.007006,-0.412972
7831319595,101.240204,-31.485962,-35.654598,0.972248,0.023341,-0.302923
7831339647,106.934624,-19.978544,-34.604874,1.090127,0.152709,-0.181344
7831359700,100.771248,-3.621910,-22.828327,1.233471,0.153934,-0.296220
7831379751,109.647545,11.406962,-10.870576,1.153605,0.159416,-0.313663
7831399804,121.210274,19.886288,-3.741728,1.017964,-0.043034,-0.339002
7831419856,120.170837,24.614672,-17.233044,0.893086,-0.121271,-0.256550
7831439909,125.511322,29.531490,-31.530613,0.894121,-0.274596,-0.138890
7831459962,124.597610,27.641047,-42.573898,1.006718,-0.372580,-0.293370
7831480014,150.902344,18.045460,-40.905407,1.122913,-0.604965,-0.341479
7831500067,169.493607,3.457633,-40.369015,0.744426,-0.713458,-0.494593
7831540172,171.118195,-20.545588,-45.342041,0.794622,-0.378583,-0.484662
7831560224,169.082458,-22.781708,-36.716347,0.835182,-0.268899,-0.444746
7831580277,160.703079,-44.066933,-37.337334,0.598005,-0.262989,-0.375878
7831600330,153.657990,-75.144424,-58.312439,0.487245,-0.341499,-0.353125
7831620382,149.606522,-99.727127,-116.478180,0.730328,-0.273232,-0.471250
7831640435,190.242157,-96.044823,-204.997009,0.876481,-0.144383,-0.678104
7831660487,189.056549,-109.612190,-238.630722,1.396603,0.026774,-0.829810
7831680540,129.197952,-106.671432,-200.429520,1.508330,1.231843,-0.926943
7831700592,88.524460,-58.211002,-44.425438,0.854946,0.732980,-0.568534
7831720645,57.710354,-42.886433,35.914967,1.127626,0.603747,-0.395969
7831740698,41.485046,-16.447393,98.848579,0.717565,0.305000,-0.231282
7831760750,55.634277,-8.251135,104.166115,0.745001,-0.067784,-0.293118
7831800855,109.845016,-18.442253,-0.066302,0.875748,0.034723,-0.471511
7831820907,115.573601,-18.755791,-27.874422,0.796874,0.308051,-0.418704
7831840960,111.084213,-11.646653,-27.518402,0.871823,0.385996,-0.335097
7831861013,105.398636,-6.440121,-17.090548,1.234905,0.347448,-0.233195
7831881065,96.224419,3.570996,-3.222022,1.174440,0.333208,-0.222189
7831901120,93.360733,11.260308,9.128922,1.200224,0.376112,-0.365282
7831921172,90.424194,19.124765,22.835920,1.261108,0.291474,-0.429399
7831941224,96.348824,31.919054,20.667652,1.217065,0.034879,-0.315226
7831961277,105.143745,45.017345,-17.919561,1.153051,-0.144328,-0.269708
7831981330,115.257011,54.197838,-37.591816,0.990065,-0.093142,-0.127132
7832001382,121.032669,56.443565,-29.408720,1.027744,-0.213811,-0.133829
7832021435,125.742111,51.410221,-18.706699,1.004386,-0.153757,-0.207034
7832041487,142.687164,47.010677,-16.446520,1.042302,-0.132248,-0.278449
7832061540,170.466965,27.932091,-16.443560,1.151077,-0.343687,-0.424191
7832081593,181.409653,16.426064,-22.455751,1.107761,-0.510665,-0.416385
7832101645,175.668228,18.122030,-16.062943,1.048701,-0.498830,-0.316150
7832121698,174.445999,3.217349,-3.164824,1.069602,-0.042163,-0.330466
7832141750,169.357773,-2.932855,-7.636171,0.875417,0.220199,-0.289892
7832161803,160.616882,-14.031622,-17.720354,0.596008,0.204472,-0.113194
7832181855,142.691422,-29.269726,-9.051873,0.492870,0.059550,0.010901
7832201908,129.062302,-52.653584,-3.585464,0.494848,0.128637,-0.018786
7832221987,121.413681,-57.436913,-18.527166,0.392838,0.020278,-0.307449
7832242011,120.827339,-59.021156,-39.083210,0.720945,-0.180987,-0.378592
7832262064,84.864021,-53.269444,-39.560333,1.269369,0.255568,-0.374394
7832282116,53.270596,-48.068531,-39.218563,1.710831,1.080141,-0.311008
7832302169,5.359626,-33.532894,-4.593301,1.574462,1.191563,-0.306902
7832322221,-9.446033,-26.178034,2.048442,1.613875,0.214323,-0.305946
7832342274,16.543716,-5.094726,-28.167240,1.442784,-0.340185,-0.235759
7832362327,42.409901,3.918453,-34.202312,1.218343,-0.592723,0.044588
7832382379,66.090149,6.366435,-26.950821,1.038547,-0.371229,0.045930
7832402432,85.595612,12.043035,-24.635315,0.922898,-0.096198,0.026113
7832422484,108.068199,22.815561,-28.674414,0.729613,-0.009565,-0.030154
7832442537,129.462189,23.782625,-32.315552,0.583165,-0.077137,-0.114388
7832462590,128.227753,18.948683,-28.334673,0.618939,0.011511,0.005898
7832482642,101.420609,23.965921,-9.220863,0.968189,0.288527,-0.022824
7832502695,80.202194,48.957638,3.031412,1.302652,0.661412,-0.111927
7832522747,64.550247,57.994736,-7.900367,1.250495,0.828585,-0.084876
7832542800,35.506264,61.407150,-21.657764,1.182095,0.567078,-0.012081
7832562853,3.757307,70.420746,-24.489500,1.126171,0.506451,-0.037223
7832582905,-27.719419,76.797195,-24.454977,1.065904,0.639473,0.068508
7832602957,-55.470215,79.705124,-16.148745,1.108159,0.616953,0.056526
7832623010,-81.214409,77.995094,-0.680342,0.967542,0.380710,0.025909
7832643063,-96.973587,71.412354,19.045568,0.848487,0.171880,0.066835
7832663115,-114.488220,46.684139,34.400932,0.822038,0.446492,-0.021781
7832683168,-146.064713,34.896690,43.410938,0.721238,0.816488,-0.195732
7832703221,-156.632217,31.636208,35.778702,0.958862,0.338765,-0.245321
7832723273,-128.164764,20.520817,1.474357,1.420869,-0.715079,0.066344
7832743327,-71.633377,11.782956,-34.022743,1.354203,-1.530506,0.166557
7832763380,-6.170156,-0.363188,-40.362556,0.908730,-1.378365,0.532628
7832783432,28.705627,1.928495,-32.189812,1.138439,-0.805355,0.655500
7832803485,48.061497,2.195028,-29.272032,0.780113,-0.371389,0.508974
7832823537,49.514996,-10.451598,-34.170437,0.464182,-0.134202,0.382567
7832843590,37.913666,-32.708099,-40.971378,0.258289,0.002189,0.274921
7832863642,25.464224,-50.305969,-43.733330,0.294781,0.018136,0.247094
7832883695,8.955374,-59.009354,-39.195660,0.683329,0.035656,0.269095
7832903747,-0.231637,-47.950775,-25.345901,1.052113,-0.201364,0.290448
7832923800,1.119820,-29.405464,-18.566481,1.229480,-0.463448,0.303919
7832943862,4.070935,-10.211299,-16.466072,1.346114,-0.572761,0.259387
7832963905,6.933592,7.786802,-16.127407,1.280116,-0.558165,0.126786
7832983958,-1.486631,22.090973,-4.843207,1.201067,-0.526627,0.050335
7833004010,-7.404045,35.068726,12.576063,1.107956,-0.368027,-0.007964
7833024063,-17.998882,49.979031,24.715359,1.162736,-0.153860,0.042386
7833044115,-20.000422,67.575119,22.942581,1.114733,-0.063224,0.130155
7833064168,-22.457314,84.236046,4.666218,1.131122,-0.019618,0.127312
7833084223,-37.970081,91.136444,-23.705009,1.145210,0.086261,0.050662
7833104272,-60.171505,93.139847,-40.446053,1.006838,0.226415,0.133308
7833124324,-80.923447,97.423508,-45.084293,1.000248,0.251146,0.218680
7833144377,-101.901482,103.948616,-31.237518,0.892031,0.278629,0.174606
7833164429,-129.076645,108.520340,-16.154051,0.756608,0.216149,0.197544
7833184482,-150.432831,109.034813,-6.386650,0.647727,0.067541,0.369991
7833204535,-175.208145,99.662918,-0.578094,0.605602,0.014421,0.506453
7833224587,-175.285233,51.537155,-10.348247,0.554717,-0.216631,0.577838
7833244639,-149.689255,-0.118803,-15.469324,0.584041,-0.528786,0.536853
7833264692,-143.057220,-29.685104,-6.191648,0.790906,-0.583634,0.251396
7833284745,-150.860474,-33.637459,22.662636,1.013609,-0.262939,0.202367
7833304797,-119.169792,-36.452419,15.377862,1.198483,-1.111174,0.518594
7833324850,-54.963867,-46.358856,-36.321709,0.660484,-2.055352,0.684664
7833344902,25.861481,-75.725128,-66.003799,0.393218,-1.449692,0.439369
7833364955,37.868217,-96.072899,-57.138721,0.558627,-0.369257,0.220366
7833385008,6.083596,-100.462173,-43.720451,0.625888,0.259112,0.127503
7833405060,-26.627901,-102.109566,-36.328995,0.681977,0.527604,0.145242
7833445165,-53.117489,-90.010384,-15.329808,1.104726,-0.339391,0.000043
7833465218,-27.867605,-72.949036,-13.404173,1.251851,-0.722405,-0.039377
7833485271,-4.757408,-50.328506,-10.147891,1.233682,-0.658969,-0.035242
7833505323,7.032620,-29.434649,-14.900233,1.268971,-0.371454,-0.024687
7833525376,16.043144,-11.997380,-24.338646,1.293512,-0.248386,0.019687
7833545429,22.215622,7.492010,-35.268608,1.305711,-0.128572,0.118269
7833565481,25.511633,32.782722,-37.054596,1.204647,-0.059277,0.061583
7833585533,16.080355,61.350632,-33.284466,1.068863,-0.062444,0.038754
7833605587,10.166508,81.008621,-24.323597,0.921386,-0.009811,0.069818
7833625640,-7.596804,98.863312,-9.774250,1.032210,-0.015546,0.109478
7833645692,-17.258728,116.168968,-3.956807,1.114907,-0.085953,0.065164
7833665745,-27.647680,128.257095,-1.296714,1.060742,-0.036820,0.136010
7833685798,-34.579315,139.808640,7.753078,1.028438,-0.073586,0.066498
7833705850,-30.612015,146.102493,15.680327,0.991611,-0.064616,0.076858
7833725903,-44.435272,169.504868,29.466442,0.878121,0.341821,0.058716
7833745955,-119.268105,215.150223,59.332874,0.901915,1.088114,-0.251580
7833766008,-147.903595,208.802689,86.323120,0.946892,1.126698,-0.152008
7833786060,-105.883835,177.361404,34.015839,0.977581,-0.486498,0.472535
7833806113,-42.308975,139.439133,-19.792454,0.587582,-1.992487,1.021238
7833826166,22.855385,107.061562,-24.539080,0.188607,-2.022431,1.213339
7833846218,70.942009,81.462021,3.657809,0.536247,-1.134944,1.294145
7833866271,96.169914,62.764450,18.484791,0.244000,-0.316710,1.331681
7833886323,93.301697,22.375702,4.573583,-0.113579,-0.094445,1.210241
7833906376,92.108101,-20.382751,-13.627316,-0.143354,0.049205,1.023599
7833926428,80.970253,-45.850689,-25.715048,0.154258,0.210755,0.856793
7833946490,67.115173,-58.732937,-20.860744,0.185104,0.198844,0.717278
7833966532,72.622116,-69.995163,-15.147225,0.286999,-0.030544,0.805451
7833986585,80.460518,-88.764175,-22.383831,0.217383,0.022752,0.928580
7834006637,66.456085,-109.171844,-12.903119,0.274182,0.323627,1.057555
7834026690,37.929428,-123.828072,2.679077,0.686351,0.562168,0.952200
7834046742,15.034514,-130.804672,21.522104,1.083086,0.331878,0.758914
7834066795,5.015275,-133.987167,13.654464,0.931305,0.025891,0.630233
7834086847,-7.048534,-139.357162,2.930232,0.875866,0.125136,0.551439
7834106900,-13.795603,-147.383484,10.789314,0.845266,-0.028007,0.373770
7834126953,-7.905562,-152.684265,12.821521,0.822808,-0.200838,0.247828
7834147005,0.531687,-148.314941,11.947087,0.788581,-0.275300,0.198460
7834167058,11.548033,-137.799530,11.497733,0.723360,-0.276176,0.127754
7834187110,22.825798,-128.121246,11.657488,0.732347,-0.221651,0.076019
7834207163,31.351328,-121.235558,10.046773,0.724086,-0.128860,-0.022996
7834227216,28.794502,-114.359322,11.191133,0.865684,0.043630,-0.003358
7834247268,16.480625,-98.116898,17.286009,0.919855,0.131857,0.026997
7834267321,4.805473,-84.020638,21.887423,1.002488,0.150096,0.089264
7834287373,1.270027,-75.936432,19.390064,1.128811,0.085596,0.095905
7834307426,5.483703,-80.887070,12.523958,1.184047,-0.048091,0.039950
7834327478,11.049417,-80.989540,12.173730,1.240234,-0.070115,0.092589
7834347531,4.784464,-74.205887,16.904552,1.248933,0.015721,-0.018949
7834367583,1.340710,-62.294113,15.720291,1.192290,0.054590,-0.017801
7834387636,-6.684289,-54.864929,13.924027,1.075309,-0.006153,-0.124717
7834407689,-5.270847,-50.864365,10.029319,1.028816,0.016968,-0.120860
7834427741,-9.403738,-43.329884,10.050278,1.006366,0.052007,-0.087707
7834447794,-15.356917,-34.571167,11.060498,0.987824,0.015321,-0.032338
7834467848,-16.653755,-29.267515,10.731940,1.029836,-0.025717,-0.055922
7834487900,-15.075406,-28.772507,5.757885,1.040678,-0.070488,-0.094498
7834507953,-12.865570,-29.221165,-0.228719,1.068778,-0.077695,-0.094488
7834528005,-9.172523,-26.141087,-0.786311,1.046104,-0.040343,-0.071088
7834548058,-4.084336,-21.321714,3.325833,1.031582,-0.104079,-0.065727
7834568111,-1.330495,-17.933056,3.313192,0.984396,-0.171924,-0.069457
7834588163,1.924547,-16.240250,1.131058,0.992961,-0.192489,-0.104967
7834608216,10.265349,-14.779522,-0.991425,1.016141,-0.193670,-0.108515
7834628268,13.192535,-17.466686,-0.369295,1.011802,-0.124675,-0.118160
7834648321,10.881142,-17.844400,2.308188,0.987702,-0.043727,-0.153077
7834668373,9.340393,-11.761938,6.524405,0.975709,-0.038501,-0.115960
7834688426,4.290024,-6.472917,6.561001,0.993603,-0.035829,-0.090598
7834708479,4.293775,-2.267846,2.847979,1.020556,-0.062526,-0.087281
7834728531,6.816103,0.298861,-3.232494,1.013197,-0.077349,-0.099885
7834748584,8.912976,-1.255875,-7.540298,1.007460,-0.030412,-0.139822
7834768636,4.176863,1.648726,-0.742744,1.005327,-0.062733,-0.195357
7834788689,4.020706,6.696064,2.824766,0.969045,-0.116301,-0.199902
7834808740,1.887531,11.853045,5.369430,1.005419,-0.102429,-0.175629
7834828793,0.950103,15.028815,11.505350,1.012398,-0.080417,-0.117487
7834848845,0.262390,14.145918,14.252214,1.013311,-0.109119,-0.072251
7834868898,1.129077,12.107186,12.705251,1.001791,-0.116873,-0.047159
7834888950,-3.240194,13.533895,9.943124,1.025918,-0.063816,-0.114947
7834909003,-3.071901,15.951273,7.880837,0.998230,-0.060290,-0.105551
7834929055,-2.182596,15.480211,9.299414,0.957363,-0.112415,-0.090968
7834949108,-2.077925,15.219461,7.579853,1.015533,-0.108012,-0.109784
7834969161,-2.528789,15.685801,7.358613,0.994355,-0.092486,-0.081666
7834989213,-0.403323,15.020344,7.974058,0.999129,-0.122971,-0.041109
7835009266,2.103996,12.637307,5.510652,1.021019,-0.148248,-0.045842
7835029318,4.068707,10.765988,2.894093,1.009657,-0.158678,-0.061888
7835049371,7.460080,6.931204,2.837909,0.964074,-0.137135,-0.041375
7835069423,8.407393,8.057391,2.272854,0.961539,-0.175112,-0.040954
7835089476,5.476156,8.883543,3.885351,0.919407,-0.183472,-0.034521
7835109529,3.054812,8.644778,4.644917,0.950861,-0.156304,-0.032886
7835129581,2.452640,7.596952,4.042422,0.951635,-0.129810,-0.022735
7835149634,0.684881,5.820448,2.268108,0.982102,-0.105259,-0.006898
7835169686,-1.611821,4.837024,0.400298,1.002223,-0.097445,0.009240
7835189739,-3.531675,4.375127,-1.022282,1.001609,-0.092540,0.002817
7835209791,-3.549150,3.514522,-1.436153,0.977020,-0.127828,-0.015035
7835229844,-2.333219,2.188756,-1.053062,0.976953,-0.144706,-0.026291
7835249897,-1.248772,-0.733682,0.282946,0.996727,-0.149514,-0.022460
7835269949,0.774561,-2.565494,1.440551,1.015150,-0.152920,-0.022017
7835290002,1.394600,-2.948845,3.798711,1.025952,-0.154716,-0.028645
7835310054,-0.034887,-1.822325,6.933017,1.010987,-0.168740,-0.034951
7835330109,-0.540170,-2.005995,8.419303,0.975026,-0.155004,-0.034638
7835350161,-0.050065,-2.182494,7.616370,0.978497,-0.156996,-0.034681
7835370213,2.535220,-2.237625,5.834600,0.970395,-0.159620,-0.019894
7835390266,7.289999,-2.380063,1.217841,0.944003,-0.179996,-0.017482
7835410318,11.383946,-7.066861,-1.033551,0.946880,-0.181558,-0.025533
7835430371,15.968054,-12.383833,-6.193263,0.940505,-0.150782,-0.026298
7835450423,18.672592,-15.089958,-10.724680,0.949943,-0.121479,-0.018027
7835470476,17.859339,-14.738234,-11.885187,0.982990,-0.098745,-0.021691
7835490529,14.562611,-11.072289,-9.820031,1.002445,-0.076508,-0.039078
7835510591,13.649958,-11.121489,-7.060802,1.010759,-0.108018,-0.026385
7835530634,7.162347,-10.749324,-3.937282,1.000229,-0.127803,-0.055223
7835550686,-5.151453,-7.126878,2.958977,1.006521,-0.092521,-0.073218
7835570739,-13.624624,-3.343878,10.861340,1.036534,-0.069845,-0.118892
7835590792,-18.746906,3.103611,18.867031,1.041125,-0.083202,-0.164420
7835610844,-18.633545,11.436926,20.763332,0.996928,-0.121092,-0.164204
7835630897,-16.777927,15.457255,19.528616,0.996578,-0.148488,-0.090818
7835650955,-9.062242,13.317305,12.916861,0.986694,-0.213654,-0.020607
7835671000,-1.958228,8.900957,-0.068322,1.004858,-0.297738,-0.013598
7835691053,6.191925,3.395911,-12.224010,0.989301,-0.241656,-0.015902
7835711105,10.244012,0.442932,-16.368525,0.991080,-0.120940,-0.037554
7835731158,7.926689,-0.756345,-12.748416,0.961474,-0.075333,-0.033202
7835751210,2.142576,-1.801211,-5.148675,0.959525,-0.100424,-0.014749
7835771263,-2.182373,-0.671223,-0.876523,0.981845,-0.142327,-0.006744
7835791316,-5.282682,1.376216,1.952037,0.936622,-0.147414,-0.018821
7835811368,-5.813107,1.572970,3.596179,0.948197,-0.148863,-0.033082
7835831421,-3.380410,-0.090698,2.115584,0.958694,-0.141346,-0.023642
7835851473,0.542449,-1.856487,-1.441815,1.027088,-0.140704,-0.027345
7835871526,3.375239,-4.420408,-2.836079,1.033547,-0.173663,-0.039642
7835891579,4.597856,-4.499005,-4.518765,1.024551,-0.152232,-0.070945
7835911631,4.436607,-3.113201,-3.704956,1.009060,-0.151998,-0.103231
7835931684,4.756348,-2.507720,-1.933678,0.969878,-0.151911,-0.091059
7835951736,5.805268,-1.541245,-0.254847,0.983704,-0.164217,-0.064098
7835971789,5.825064,-1.271229,0.403585,0.979407,-0.177238,-0.039894
7835991841,6.827039,-1.107945,1.175725,0.991262,-0.178393,-0.039887
7836011894,9.072837,-1.184125,1.213096,0.983670,-0.159946,-0.044880
7836051999,7.208132,-2.464050,3.620688,1.002308,-0.131015,-0.019454
7836072052,5.184604,-3.477533,5.110365,0.982064,-0.115439,-0.026321
7836092104,2.466664,-5.402268,6.080476,1.001789,-0.107268,-0.036182
7836112157,-0.232945,-6.138516,6.493222,0.977729,-0.116541,-0.032883
7836132209,-2.070022,-7.107495,6.428994,0.970054,-0.145102,-0.046694
7836152262,-3.217245,-6.419209,7.207656,0.973373,-0.169310,-0.056478
7836172316,-3.644549,-4.758534,7.346085,0.978136,-0.194976,-0.047513
7836192369,-2.691231,-2.338527,4.889408,0.970429,-0.224581,-0.070946
7836212421,0.735340,1.662374,2.562840,0.970426,-0.242877,-0.092456
7836232474,4.296546,1.864620,-0.341845,0.991385,-0.211644,-0.090851
7836252526,4.526703,1.295692,-2.901653,1.011756,-0.180137,-0.082619
7836272579,2.970142,-0.084766,-4.692564,1.037817,-0.161478,-0.058748
7836292631,2.079215,-1.150673,-5.454053,1.023569,-0.148004,-0.061004
7836312684,-0.019328,1.709403,-6.001280,0.962408,-0.154970,-0.074990
7836332736,-2.184834,1.963399,-8.009821,1.020089,-0.156583,-0.069563
7836352789,-4.678944,3.207978,-5.512180,0.966062,-0.142541,-0.051296
7836372841,-5.192553,4.311940,-3.287591,0.968794,-0.162607,-0.025233
7836392894,-2.820628,3.498568,-3.505408,0.967899,-0.193411,-0.012613
7836412947,1.220829,0.593964,-3.602920,0.972160,-0.186708,-0.027475
7836432999,3.425623,-0.997297,-5.402001,0.962838,-0.139902,-0.031355
7836453052,4.233019,-1.979360,-6.664585,0.975378,-0.142214,-0.023332
7836473104,7.084786,-4.046291,-7.522463,0.975749,-0.153273,-0.034380
7836493157,9.756204,-6.277575,-8.970868,0.989355,-0.143864,-0.058477
7836513211,11.155543,-8.188852,-7.729403,0.983167,-0.128749,-0.067966
7836533261,11.385206,-8.186641,-11.208232,0.994191,-0.077658,-0.061208
7836553313,10.819342,-4.892184,-10.681281,0.952363,-0.116220,-0.044700
7836573366,10.750292,-3.065422,-11.058920,0.987204,-0.150143,-0.046059
7836593418,9.545729,-1.291302,-13.777879,1.008621,-0.115939,-0.046394
7836613471,10.138371,0.364661,-10.646104,1.008560,-0.090172,-0.048965
7836633524,7.140774,2.430007,-12.281647,0.984979,-0.049942,-0.027513
7836653576,2.139839,5.963185,-16.225552,0.978293,-0.056649,-0.018940
7836673629,-0.299994,9.818987,-16.230404,0.964470,-0.135870,-0.016394
7836693681,-0.431748,13.674539,-19.851227,1.000247,-0.195430,0.006543
7836713734,-4.511682,16.426014,-16.327484,1.084986,-0.192160,0.012559
7836733786,-14.510721,18.266050,-15.148007,1.117424,-0.051749,0.023070
7836753839,-26.227465,21.974220,-9.714990,1.095136,0.015234,0.028044
7836773892,-36.439713,21.994686,-7.930429,1.092663,0.036498,0.035051
7836793944,-44.788712,21.930170,-8.298653,1.049115,-0.005244,0.019866
7836813997,-53.752083,22.965883,-5.729817,1.014333,-0.039578,0.045101
7836834049,-62.662754,23.725910,-2.394574,0.979401,-0.045209,0.050644
7836854102,-69.476242,24.414930,-0.446771,0.950688,-0.044339,0.065154
7836874154,-76.263428,24.743185,0.850476,0.946529,-0.062745,0.068428
7836894207,-82.030052,25.144173,1.790904,0.950032,-0.092062,0.076335
7836914260,-87.458595,24.219761,4.077256,0.951567,-0.121292,0.077957
7836934313,-91.329208,22.295570,6.321034,0.951481,-0.137633,0.085234
7836954365,-93.207947,20.259174,6.775868,0.943517,-0.138602,0.075828
7836974418,-95.620300,18.243706,7.488501,0.933547,-0.151395,0.072270
7836994470,-96.768906,15.523560,9.506700,0.951250,-0.175705,0.065860
7837014523,-97.204933,11.664247,11.922682,0.956477,-0.194841,0.054758
7837034577,-97.298775,7.912971,14.262380,0.965006,-0.208065,0.037159
7837054629,-97.065353,5.048873,14.901222,0.948247,-0.213862,0.021838
7837074682,-97.298805,2.930356,15.075340,0.958641,-0.242389,0.020334
7837094734,-95.621155,1.017913,14.649342,0.955853,-0.244922,0.015163
7837114787,-93.992676,-0.649908,12.145884,0.947717,-0.241457,0.017246
7837134839,-94.890366,-1.515454,10.663704,0.957316,-0.239335,0.011655
7837154892,-95.000114,-2.126910,10.127745,0.968667,-0.241949,0.005040
7837174945,-95.508759,-1.983499,9.324059,0.979034,-0.245382,0.011152
7837194997,-94.451797,-2.645037,8.067861,0.963274,-0.256852,-0.000733
7837215049,-93.700043,-3.554189,7.585677,0.963585,-0.252161,-0.009510
7837235102,-93.092125,-4.758669,7.369825,0.969236,-0.258499,-0.021666
7837255155,-92.912689,-5.780579,7.653705,0.958281,-0.253062,-0.052889
7837275207,-90.828049,-6.953066,7.369015,0.962029,-0.237059,-0.078132
7837295260,-93.766075,-6.233960,8.868199,0.982492,-0.215927,-0.064781
7837315312,-96.934166,-4.061224,11.173404,0.991812,-0.228987,-0.077378
7837335365,-97.842293,-3.487934,13.922908,0.977959,-0.225639,-0.095328
7837355418,-98.324615,-5.985101,16.895052,0.963982,-0.222713,-0.091917
7837375469,-96.028114,-9.856393,19.393486,0.939400,-0.251161,-0.114392
7837395521,-90.499672,-12.195466,17.156240,0.946857,-0.264941,-0.119815
7837415574,-89.067871,-10.950707,14.438184,0.989868,-0.267058,-0.115577
7837435626,-90.436440,-5.849607,15.762560,1.014408,-0.268707,-0.133107
7837455679,-90.490150,-2.928490,19.140306,0.993264,-0.255816,-0.156127
7837475731,-88.796944,-2.869706,20.678040,0.978606,-0.264105,-0.155317
7837495784,-84.760208,-1.901102,20.809708,0.977872,-0.283800,-0.160184
7837515836,-81.255798,-2.020565,19.906998,0.977668,-0.284821,-0.187166
7837535889,-79.782509,0.175629,19.929230,0.957872,-0.274019,-0.159257
7837555942,-81.128258,4.433441,19.937767,0.973926,-0.266156,-0.164687
7837575994,-79.235359,9.359385,20.208130,0.967811,-0.273910,-0.159552
7837596047,-74.515884,13.165297,15.729359,0.959822,-0.299397,-0.168038
7837616099,-71.764023,16.000601,8.670195,0.969053,-0.291005,-0.160708
7837636152,-67.626480,16.942860,8.134972,0.958343,-0.292548,-0.152587
7837676257,-61.703011,19.088888,0.448019,0.957403,-0.286540,-0.119672
7837696309,-57.910309,17.969017,-4.074088,0.970762,-0.276523,-0.132871
7837716362,-53.648819,16.342430,-6.381557,0.974665,-0.266010,-0.135328
7837736415,-49.617001,16.011011,-7.730882,0.979901,-0.258025,-0.130476
7837756467,-47.395668,15.953651,-7.094829,0.975311,-0.260574,-0.123753
7837776520,-44.990437,17.300447,-6.698627,0.947540,-0.249220,-0.119719
7837796572,-44.587070,18.566648,-6.172605,0.993860,-0.243057,-0.108738
7837836678,-43.643066,17.766108,-1.698591,0.971373,-0.199629,-0.073410
7837856730,-42.167820,15.990821,-0.639516,0.994929,-0.197718,-0.095986
7837876784,-43.737816,15.955433,0.187262,0.985224,-0.178654,-0.082824
7837896837,-45.115135,16.683971,1.564605,0.968127,-0.195121,-0.081755
7837916889,-44.751465,17.080437,1.457006,0.981404,-0.211251,-0.068023
7837936942,-43.042557,17.738091,1.643615,0.980775,-0.220658,-0.065011
7837956994,-40.108303,17.920578,-0.139096,0.967963,-0.218261,-0.073309
7837977047,-38.308029,16.599348,-2.037492,0.969126,-0.216272,-0.055056
7837997099,-35.964165,15.434993,-2.504196,0.986281,-0.217407,-0.041652
7838017152,-34.654713,15.960398,-3.605414,0.990152,-0.231032,-0.042012
7838037205,-32.335922,16.256197,-6.040090,0.983425,-0.232716,-0.044403
7838057257,-31.405678,16.115824,-6.388565,0.965009,-0.224237,-0.033090
