Timestamp (us),Gyroscope X (deg/s),Gyroscope Y (deg/s),Gyroscope Z (deg/s),Accelerometer X (g),Accelerometer Y (g),Accelerometer Z (g)
2215235901,-0.295931,-0.892819,0.245241,1.000383,-0.040725,0.030474
2215255953,0.123279,-1.003953,0.245477,1.001160,-0.045439,0.024717
2215276005,1.286722,-0.701095,0.115184,1.002888,-0.043802,0.024529
2215296056,1.909330,-0.370780,0.083512,1.003050,-0.039603,0.025936
2215316108,1.740586,-0.211258,0.272495,1.005592,-0.037046,0.026469
2215336160,1.382299,-0.152290,0.363365,1.003944,-0.039919,0.029127
2215356212,1.243493,0.121157,0.529208,1.004061,-0.042145,0.025881
2215376264,1.646123,0.313193,0.467774,1.001411,-0.042587,0.027140
2215396316,1.470046,0.486985,0.520289,1.004700,-0.040974,0.025054
2215416368,1.400171,0.722348,0.595292,1.000316,-0.039430,0.025733
2215436420,1.011176,0.856742,0.640439,1.001316,-0.039511,0.026286
2215456472,0.866247,0.894041,0.685835,1.000046,-0.041154,0.025932
2215476523,0.752290,0.900263,0.587327,1.001677,-0.044735,0.029439
2215496575,0.943044,0.847888,0.511651,1.000325,-0.042971,0.025864
2215516626,0.442308,0.548159,0.452228,1.000680,-0.040601,0.026385
2215536678,0.647304,0.708249,0.345499,0.998846,-0.041842,0.028840
2215556729,0.366211,0.645102,0.254868,0.999565,-0.041454,0.030477
2215576781,0.304821,0.720905,0.300102,1.001762,-0.045351,0.030810
2215596833,0.205518,0.736112,0.406189,0.999294,-0.045070,0.031789
2215616885,0.335395,0.668300,0.353325,1.000297,-0.043715,0.031053
2215636937,0.328140,0.584890,0.376352,1.000485,-0.044721,0.030612
2215656988,0.175804,0.659137,0.270044,1.001123,-0.043996,0.030335
2215677040,0.061191,0.636959,0.482371,0.998476,-0.037950,0.027884
2215697092,-0.079399,0.757269,1.641586,0.998155,-0.034718,0.018755
2215717144,0.441958,1.310009,2.071500,0.996558,-0.042677,0.015201
2215737196,0.259228,1.736391,1.259146,1.005214,-0.059788,0.024549
2215757247,0.228640,2.298974,0.218901,1.017738,-0.060345,0.034550
2215777299,0.339554,2.922592,0.277345,1.016011,-0.052421,0.029811
2215797351,-0.617772,3.703074,1.032887,1.005527,-0.050459,0.028805
2215817403,-1.178670,4.537125,1.447052,1.001335,-0.050473,0.028503
2215837455,-0.538343,4.546497,1.067847,1.000633,-0.042021,0.035126
2215857507,0.032767,3.998634,-0.916152,0.998048,-0.048625,0.043909
2215877559,0.545313,2.799772,-2.541676,0.992995,-0.063827,0.042686
2215897610,1.087364,2.454391,-2.495202,0.986769,-0.055026,0.042812
2215917662,1.742360,2.067756,-1.887782,0.992478,-0.040135,0.041226
2215937714,2.407929,1.516479,-2.113485,0.996484,-0.041288,0.042631
2215957766,3.238120,1.363156,-2.007142,0.995756,-0.045442,0.044492
2215977819,3.408041,0.990789,-2.240866,0.999221,-0.049045,0.046194
2215997871,2.416396,1.266974,-1.961049,1.000575,-0.045399,0.046798
2216017923,1.691123,1.469995,-1.521915,1.002400,-0.044407,0.045981
2216037975,1.705832,1.846305,-2.053744,1.004315,-0.049276,0.048323
2216058027,1.761273,1.518931,-2.257267,0.996225,-0.050162,0.044732
2216078078,1.624024,1.601109,-2.325712,1.003804,-0.055410,0.045119
2216098130,1.912040,1.860961,-2.349446,1.010707,-0.053346,0.048597
2216118182,3.316025,1.246811,-2.476663,1.005394,-0.051041,0.051805
2216138234,4.769504,1.189669,-2.211712,0.990287,-0.044734,0.043991
2216158286,4.416995,0.855695,-0.641593,0.992117,-0.030814,0.051477
2216178338,3.238020,0.493493,-0.276143,1.013930,-0.010667,0.052852
2216198389,1.645394,0.697426,0.004134,1.008835,0.002198,0.044670
2216218441,-0.176289,0.436636,1.460830,0.994708,0.010819,0.039744
2216238493,-1.889866,0.292777,2.090979,1.000928,0.001851,0.040709
2216258545,-3.498430,1.435746,0.821918,1.002839,-0.004362,0.044339
2216278597,-4.078954,2.164344,0.190557,0.996814,-0.001829,0.044449
2216298647,-3.564530,1.826900,-0.877093,1.007919,-0.016959,0.039432
2216318699,-1.241224,1.849233,-4.538620,1.011441,-0.050740,0.046482
2216338751,1.613116,2.021873,-7.791587,1.002371,-0.082177,0.054234
2216358803,4.056866,2.089352,-8.050360,0.993309,-0.081928,0.060347
2216378854,6.974650,1.884806,-8.596361,0.999381,-0.077678,0.064340
2216398906,10.305172,0.730306,-10.920290,0.999374,-0.086992,0.054723
2216418958,13.958273,0.849309,-13.877772,0.993983,-0.115161,0.055284
2216439010,17.096098,1.960257,-16.709650,0.984415,-0.118801,0.056349
2216459062,18.765078,-0.103216,-19.393656,0.984612,-0.090108,0.055109
2216479114,18.418438,-3.060866,-20.937027,1.027313,-0.046578,0.042820
2216499165,15.792851,-5.819875,-18.736282,1.024206,-0.009127,0.025369
2216519217,12.874243,-6.565716,-16.019424,1.002189,0.001001,0.012645
2216539269,11.326015,-5.004952,-14.917731,1.012936,-0.000575,0.015193
2216559321,14.304109,-3.018258,-13.568987,0.992480,0.012134,0.030351
2216579373,18.123964,-2.244361,-11.594883,0.987823,0.030584,0.037921
2216599425,18.212444,-3.039209,-8.931961,0.980680,0.058832,0.044814
2216619476,14.647992,-4.144536,-5.971111,0.981035,0.089118,0.046920
2216639528,8.006506,-3.529391,-2.681637,0.972503,0.112504,0.044408
2216659580,2.619875,-3.086998,-1.589906,0.968066,0.134295,0.044033
2216679632,-0.395346,-2.609316,-2.166497,0.968561,0.109210,0.049780
2216699684,-1.492080,-2.539896,-2.060246,0.991378,0.076411,0.046232
2216719736,-1.574727,-2.843041,-1.892436,1.008738,0.062643,0.046514
2216739787,-2.035127,-2.342074,-1.431685,1.024938,0.052962,0.040470
2216759841,-2.645431,-0.606824,-1.316187,1.019610,0.042273,0.037193
2216779893,-2.399469,-0.873517,-1.724618,0.982439,0.045111,0.031625
2216799944,1.240868,-0.704526,-2.772371,0.944526,0.070080,0.017162
2216819996,8.454528,-0.427034,-2.366589,0.960304,0.061890,0.020186
2216840048,18.059872,1.361638,0.428098,1.040549,0.018583,0.022802
2216860100,23.206812,3.806133,1.099979,1.055266,0.004679,0.007526
2216880152,23.841393,4.624406,1.384937,1.040077,0.007073,0.031293
2216900204,16.804354,4.205374,3.617059,1.024831,0.062783,0.053897
2216920256,6.737576,4.337201,4.855499,1.024910,0.146249,0.045298
2216940308,-6.368491,5.856962,4.225798,1.018666,0.205384,0.039025
2216960359,-19.796707,7.298129,4.703009,0.957733,0.231858,0.031743
2216980411,-31.189106,7.964136,5.348914,0.936665,0.223082,0.037602
2217000463,-41.203846,7.248351,5.756571,0.964685,0.193205,0.047054
2217020515,-52.752499,5.103785,7.503586,1.000827,0.173609,0.049900
2217040567,-65.603844,2.240994,11.064902,1.009414,0.149639,0.043331
2217060639,-78.040871,-1.062091,14.203171,1.022614,0.108317,0.036086
2217080669,-86.844261,-2.597532,15.795547,1.015191,0.087115,0.022192
2217100721,-92.101158,-3.298556,16.019590,0.982839,0.075611,0.010463
2217120773,-95.994003,-2.791051,16.261732,0.965172,0.078142,0.005855
2217140824,-100.948433,-1.614355,16.577726,0.967450,0.082119,0.004098
2217160876,-107.114952,-0.433615,17.583818,0.969349,0.088347,-0.011865
2217180928,-114.463638,-0.233285,18.442123,0.980394,0.097628,-0.018983
2217200980,-123.239403,1.942580,19.839806,0.997167,0.101922,-0.051905
2217221032,-129.062195,5.128489,19.444340,1.001820,0.077846,-0.071679
2217241084,-133.332596,8.359465,16.175753,1.016375,0.035203,-0.076172
2217261136,-137.798798,10.856577,13.508497,1.053985,-0.020086,-0.072630
2217281188,-143.482574,11.897671,13.544794,1.078637,-0.067343,-0.070817
2217301239,-146.365265,10.317701,12.785774,1.057091,-0.083092,-0.088874
2217321291,-144.539413,11.599296,10.681347,1.018493,-0.085798,-0.081482
2217361395,-149.122391,17.345263,5.676198,1.012436,-0.089130,-0.104026
2217381447,-156.714615,21.960560,3.851582,1.015943,-0.044349,-0.118152
2217401499,-165.784546,27.877188,2.849106,1.040372,-0.047833,-0.162472
2217421551,-167.142426,28.978390,-4.066223,1.051035,-0.152905,-0.109558
2217441602,-160.867355,26.905317,-13.012026,1.035956,-0.261377,-0.049061
2217461654,-152.802505,21.043266,-17.928553,1.018312,-0.262974,-0.024447
2217481706,-145.660583,16.806852,-19.341297,1.001178,-0.177780,-0.036643
2217501758,-141.950867,16.561693,-19.925333,0.941738,-0.103173,-0.058377
2217521810,-143.250000,18.980528,-22.638899,0.919088,-0.049275,-0.047074
2217541863,-149.610764,21.047377,-27.752012,0.973568,-0.021385,-0.023744
2217561915,-158.473572,21.555202,-30.714033,1.025108,-0.008138,-0.020169
2217581967,-166.760986,19.836031,-31.091732,0.995876,-0.008368,-0.025463
2217602019,-171.613342,16.068060,-31.266525,0.987859,-0.026250,-0.048579
2217622071,-176.831116,14.824736,-30.403992,0.997120,-0.047418,-0.062719
2217642122,-179.851929,14.787501,-30.766594,0.948034,-0.079717,-0.071055
2217662174,-175.922913,14.742262,-31.177078,0.976547,-0.127972,-0.120917
2217682226,-167.784576,15.747910,-30.630129,0.986922,-0.166468,-0.114218
2217702278,-161.582977,13.588297,-25.615168,1.072850,-0.161876,-0.047407
2217722329,-160.231339,11.006415,-16.345257,1.134015,-0.104785,0.002989
2217742381,-161.228119,9.109274,-12.798998,1.078721,-0.075341,0.011981
2217762433,-161.820328,6.124892,-13.516088,1.018043,-0.096042,0.015971
2217782485,-163.971680,2.328778,-16.124573,0.978189,-0.121123,0.015433
2217802537,-165.499756,-0.396219,-20.464970,0.953461,-0.143757,-0.000658
2217822588,-162.297806,-2.307070,-24.605196,0.949506,-0.152560,-0.005764
2217842639,-155.130798,-3.781957,-26.338205,0.955915,-0.127674,-0.007370
2217862691,-147.348755,-4.180678,-26.604818,0.949563,-0.080588,-0.004779
2217882743,-142.395615,-4.000795,-26.091805,0.945240,-0.041765,-0.002169
2217902794,-140.437408,-4.202916,-26.463161,0.972720,-0.044016,0.007777
2217922846,-139.220459,-5.673588,-26.185678,1.013942,-0.025790,0.011675
2217942898,-138.410522,-6.737204,-22.354923,1.026754,-0.011445,-0.003851
2217962950,-134.793625,-5.404826,-19.495934,1.008585,-0.086133,-0.039650
2217983002,-129.151154,-5.358387,-20.384811,0.997861,-0.134643,-0.005538
2218003054,-123.407234,-5.564883,-21.757902,1.004634,-0.084544,-0.003979
2218023105,-119.385117,-6.105119,-18.915339,0.985494,-0.035894,0.001957
2218043157,-116.454544,-5.516582,-14.128489,0.973248,-0.028452,0.003238
2218063209,-115.560478,-4.383662,-8.789540,1.023844,-0.015579,0.012627
2218083261,-113.070221,-3.369746,-2.313898,1.062844,0.003534,0.021680
2218103313,-108.784302,-2.676016,2.100743,1.041181,-0.007151,0.021195
2218123365,-103.727844,-1.377673,1.700393,1.022639,-0.034610,0.009839
2218143417,-96.021141,0.875600,1.902141,0.999481,-0.036950,-0.004203
2218163469,-88.125908,2.549501,3.924769,1.003604,-0.037854,0.008288
2218183520,-85.678406,1.955384,3.486380,1.035433,0.015132,0.010899
2218203572,-91.351326,3.292191,4.650919,1.075637,0.123365,0.019111
2218223624,-101.928001,6.330163,0.195306,1.083635,0.124265,-0.008290
2218243676,-109.599968,10.159200,-4.620260,1.076106,0.014569,-0.022160
2218263728,-114.628235,10.804918,-4.158409,0.995631,-0.112766,0.006190
2218303833,-119.275093,9.658835,-0.522512,0.951548,-0.034226,0.022236
2218323884,-120.303040,9.319473,-2.696143,0.926824,-0.023901,0.004583
2218343936,-123.479156,7.545671,-7.380293,0.946774,-0.040871,0.015736
2218363988,-130.074783,7.358559,-8.536920,0.994366,-0.029821,0.025125
2218384040,-134.110550,8.067080,-6.377945,0.999977,-0.015006,0.024629
2218404092,-133.926117,6.148147,-6.288029,0.998821,-0.024099,0.024272
2218424144,-134.164398,0.738506,-6.724042,0.990821,-0.046455,0.031563
2218444196,-136.833389,-4.549642,-3.453513,0.997528,-0.057080,0.043640
2218464258,-144.497528,-7.728839,2.327712,0.984777,-0.014969,0.035973
2218484299,-158.134918,-9.834759,11.123755,1.034886,0.061528,0.034352
2218504351,-172.815277,-7.605683,23.406704,1.083136,0.112741,-0.026337
2218524403,-183.536896,1.902249,36.140659,1.070124,0.169242,-0.120967
2218544455,-191.285294,15.268864,42.547009,1.090968,0.170679,-0.240349
2218564507,-193.748032,26.256102,34.627895,1.057468,0.001100,-0.257255
2218584577,-186.761780,28.934061,15.153456,0.907255,-0.287355,-0.226716
2218604609,-173.441452,20.624304,-4.057968,0.838685,-0.513902,-0.142512
2218624661,-161.378830,12.531364,-14.121898,0.892341,-0.563678,-0.079572
2218644712,-147.211792,6.703540,-15.145094,0.910668,-0.490957,-0.054291
2218664764,-133.175018,2.935350,-16.872604,0.917591,-0.403894,-0.034618
2218684816,-123.081459,-1.929756,-22.301067,0.934060,-0.340693,-0.014057
2218704868,-116.694908,-8.213627,-24.964600,0.974463,-0.287842,0.003340
2218724920,-115.633827,-10.984916,-23.712473,1.012758,-0.223280,0.001229
2218744971,-118.714615,-12.483519,-18.620752,1.032553,-0.124762,-0.018857
2218765024,-121.959755,-14.714303,-16.285189,0.994772,-0.078163,-0.020119
2218785075,-123.732018,-17.139441,-20.975164,0.958475,-0.082489,-0.031232
2218805127,-125.291237,-18.854479,-24.045765,1.014572,-0.144445,-0.052111
2218825179,-124.021011,-19.072487,-26.213041,1.012024,-0.244575,-0.064967
2218845235,-120.320450,-19.703548,-31.373432,0.970643,-0.279910,-0.064397
2218865283,-116.886536,-22.720520,-31.803814,0.967979,-0.254335,-0.073618
2218885334,-116.055344,-23.866167,-30.155527,0.962291,-0.195532,-0.096970
2218905387,-114.408661,-21.994696,-28.843815,1.018367,-0.131972,-0.114757
2218925438,-112.804047,-18.156425,-29.797394,1.050168,-0.133216,-0.111337
2218945490,-110.434181,-15.148033,-30.718063,1.025844,-0.126726,-0.117583
2218965542,-106.723564,-15.294617,-22.942846,0.991043,-0.103505,-0.102102
2218985594,-103.277069,-14.174019,-12.602639,0.961319,-0.073119,-0.101120
2219005646,-97.038391,-11.427158,-4.883750,1.000346,-0.077473,-0.100247
2219025698,-90.015778,-11.227974,-1.067101,1.042965,-0.039211,-0.080484
2219045751,-88.252831,-10.174660,3.991396,1.030532,0.013738,-0.054374
2219065803,-91.161133,-9.487494,8.802683,1.005979,0.021397,-0.099807
2219085855,-85.994362,-3.414126,15.441851,1.021514,0.034886,-0.143932
2219125958,-73.652359,0.080243,28.196032,0.973054,0.027754,-0.069395
2219146010,-68.886337,-0.554845,26.089602,0.997705,0.004624,-0.064135
2219166062,-70.886116,6.074502,21.247238,1.030588,0.012573,-0.078808
2219186114,-81.740372,13.198575,16.156168,1.046739,0.037110,-0.093701
2219226220,-110.256386,23.415565,11.803364,1.105768,0.030247,-0.144553
2219246270,-115.027328,25.648872,9.751020,1.052668,0.029782,-0.137108
2219266321,-118.244713,25.468554,6.183080,1.007347,0.014555,-0.127528
2219286373,-120.586731,24.630045,6.861317,0.978064,-0.001882,-0.116094
2219306425,-121.663651,23.563499,7.388317,0.973757,-0.046314,-0.090072
2219326477,-124.068169,24.055840,6.099040,0.986104,-0.087984,-0.044969
2219346549,-127.488472,22.769056,6.635198,0.991573,-0.101915,-0.022320
2219366579,-130.396225,20.268103,11.510525,0.963436,-0.058132,-0.018664
2219386631,-137.424622,21.664953,12.766279,0.978334,-0.030034,-0.070415
2219406683,-143.986237,25.773581,7.797781,1.000804,-0.052037,-0.113353
2219426735,-144.674240,25.266684,3.995131,1.002849,-0.088085,-0.086565
2219446787,-143.503235,21.486912,2.931534,1.041510,-0.113910,-0.074904
2219466839,-142.523499,18.544277,3.585542,1.041590,-0.126242,-0.066854
2219486891,-140.381683,14.719344,3.976921,1.009223,-0.117193,-0.070823
2219526994,-128.489212,9.012377,-0.782322,0.938720,-0.176812,-0.035552
2219547046,-122.088097,4.271085,-3.231386,0.918156,-0.191384,-0.034893
2219567098,-115.543236,-0.744531,-4.792818,0.917923,-0.204744,-0.035103
2219587149,-109.649620,-5.124116,-5.946950,0.927035,-0.209765,-0.031800
2219607201,-105.311966,-5.689353,-7.371365,0.954645,-0.180907,-0.012943
2219627253,-103.004837,-4.750214,-6.511408,1.003876,-0.140940,-0.002060
2219647305,-102.048477,-3.833880,-4.263950,1.019594,-0.118493,-0.004116
2219667356,-100.459145,-4.179763,-2.982471,1.012101,-0.108815,-0.006008
2219687408,-99.611191,-5.910098,-3.765017,1.007348,-0.132922,-0.007399
2219707460,-99.672241,-7.807053,-5.941199,1.000451,-0.178469,-0.021099
2219727512,-100.146469,-6.522184,-7.552199,1.003056,-0.179403,-0.029613
2219747564,-98.491104,-5.504281,-7.965549,1.006044,-0.170324,-0.030605
2219767616,-95.911453,-4.428306,-9.751217,1.013605,-0.149867,-0.024336
2219787668,-91.656898,-2.824775,-12.676130,1.005895,-0.136175,-0.037818
2219807719,-86.614044,-1.890436,-12.999433,0.986891,-0.114013,-0.041754
2219827773,-83.730949,-1.728783,-9.635941,1.035203,-0.106457,-0.029047
2219847825,-81.679222,-1.028519,-6.675699,1.064875,-0.091896,-0.012737
2219867876,-79.341530,-2.515305,-4.109707,1.035533,-0.069217,-0.010663
2219887928,-77.964890,-2.035142,-1.641104,1.010970,-0.056495,-0.025890
2219907980,-75.667091,-1.646831,0.956336,1.000148,-0.049725,-0.033770
2219928032,-74.068901,-0.271237,4.331252,1.003460,-0.030717,-0.032876
2219948084,-71.294899,1.268192,5.992346,1.032636,0.010866,-0.007521
2219968136,-67.393936,5.352249,5.514591,1.034439,0.005635,0.014092
2219988189,-65.916664,4.468025,7.017755,1.010220,-0.017819,0.036095
2220008240,-66.832771,2.496363,11.898138,0.996747,-0.063454,0.055523
2220028292,-66.100822,6.520617,18.424654,1.004643,-0.101954,-0.059036
2220048343,-60.675751,12.071954,26.278164,1.018874,-0.042944,-0.090064
2220068395,-55.168148,19.565794,21.922829,0.985540,-0.063858,-0.054159
2220088447,-47.485477,28.732159,12.104118,1.013218,-0.182590,-0.050862
2220108503,-42.347836,29.846186,10.090056,1.033860,-0.272943,-0.012316
2220128549,-39.110332,28.908747,10.963734,1.061995,-0.231530,-0.011505
2220148601,-32.727009,27.637936,8.699769,1.053214,-0.125230,0.002562
2220168653,-27.852512,25.064432,3.689661,1.044129,-0.139607,-0.042324
2220188705,-23.654055,21.508205,0.039808,0.963411,-0.174854,-0.080569
2220208757,-21.489325,14.638913,0.396195,0.840609,-0.183402,-0.106879
2220228808,-17.866617,8.833570,3.014513,0.840534,-0.163916,-0.103834
2220248861,-12.498708,3.529380,3.849438,0.937778,-0.159367,-0.054574
2220268912,-6.265215,0.999364,3.098078,0.940398,-0.172667,-0.012685
2220288964,3.065194,1.273970,3.260602,0.950783,-0.205917,0.005132
2220309016,11.868364,2.000047,3.330807,0.995492,-0.202365,0.043489
2220349120,19.211016,3.464247,1.587609,1.016990,-0.175895,0.048788
2220369172,24.921455,5.848273,-0.673555,1.029647,-0.177405,0.036444
2220389224,30.997602,7.438924,-1.522428,1.007681,-0.175517,0.019271
2220409275,36.879730,2.791258,-0.644472,0.978839,-0.148692,-0.019415
2220429327,43.177551,-1.359036,0.421099,1.005900,-0.130412,-0.041520
2220449379,49.476353,0.614430,1.048726,1.014911,-0.129897,-0.070545
2220469431,54.247383,3.333611,2.326108,1.025190,-0.124535,-0.084803
2220489483,58.057682,8.228895,2.967275,1.037721,-0.124440,-0.060904
2220509535,61.930931,14.259474,0.603241,1.037745,-0.143763,-0.039686
2220529587,64.140579,20.319548,-0.183890,1.052291,-0.119172,0.032568
2220549638,56.084713,19.385067,-0.367323,1.029894,-0.031561,0.108102
2220569691,47.437874,7.848599,-1.756965,0.998564,0.034477,0.054402
2220589743,48.562382,0.456281,-1.398412,0.952211,0.130786,-0.002208
2220609795,55.406891,-9.936869,-2.479103,0.995907,0.139784,0.004087
2220629847,43.841232,-12.054367,-6.022287,1.041896,0.057013,-0.086150
2220649899,38.495522,-0.772292,-6.377608,1.033580,0.035639,-0.009800
2220669951,30.236248,11.385805,2.723612,1.036094,0.169896,0.256137
2220690003,8.085651,27.723467,12.429189,1.065988,0.244334,0.298112
2220710054,-8.154699,30.099522,12.388793,0.965991,0.093747,0.246978
2220730106,-9.450304,19.578918,6.786755,0.826930,-0.064510,0.160848
2220750158,-3.710797,6.553773,2.426254,0.772398,-0.107719,0.076166
2220770210,2.355842,-1.021498,2.359285,0.886570,-0.159463,0.080755
2220790261,6.282520,-2.384466,2.461133,1.065487,-0.174825,0.142094
2220810313,6.257011,-1.522865,-4.105204,1.148772,-0.090993,0.184703
2220830365,2.585594,-0.516727,-8.063602,1.168728,0.011855,0.181564
2220850417,-2.497291,3.809736,-5.348305,1.098660,0.049630,0.171723
2220870468,-5.574250,7.340576,0.324824,1.033678,0.021231,0.120605
2220890520,-3.423247,10.500104,4.307294,1.010900,-0.004923,0.131380
2220910572,-0.492064,13.831878,3.521733,1.014040,-0.037864,0.172045
2220930623,2.308031,19.109207,-0.393016,1.048366,-0.085410,0.203103
2220950675,6.302527,25.640743,-6.487667,1.044821,-0.111644,0.198928
2220970727,11.416365,29.741325,-8.004221,0.874105,-0.048542,0.145547
2220990779,11.257310,32.733776,-5.240578,0.747423,-0.004032,0.132500
2221010831,11.766922,39.464096,-6.325002,0.892463,-0.013810,0.138095
2221030882,11.567097,44.341618,-9.138374,1.024014,-0.012954,0.184369
2221050935,9.570755,45.147491,-12.884458,1.081879,-0.017343,0.237362
2221070986,3.728611,42.884636,-12.927668,1.068942,-0.070708,0.262608
2221091038,1.068357,40.300682,-9.423932,1.031221,-0.112626,0.202206
2221111090,2.842993,38.910789,-4.167547,1.054693,-0.060893,0.169146
2221131142,6.158971,36.576832,1.470500,1.037081,0.019517,0.178451
2221151194,7.143714,34.851532,3.734630,0.942706,0.045869,0.199653
2221171245,5.580193,33.191967,2.232683,0.856481,0.001614,0.218821
2221191297,2.169589,32.597569,0.606450,0.840081,-0.014245,0.256151
2221211349,-1.650010,30.870646,0.386369,0.863103,0.000151,0.287412
2221231401,-3.783148,27.303413,-0.866278,0.892953,0.024739,0.299609
2221251453,-4.907393,22.855232,-2.010137,0.903620,0.024942,0.299409
2221271505,-4.367757,19.823858,-1.727038,0.927842,0.014056,0.309614
2221311610,-3.921353,13.455779,2.819387,0.970452,0.006446,0.400434
2221331662,-3.669035,7.257093,5.546346,0.988439,0.012712,0.454929
2221351713,-2.638128,-1.540170,9.517357,0.981734,-0.009273,0.443321
2221371765,0.398402,-10.427064,9.258915,0.804059,-0.040145,0.395431
2221391817,1.463723,-23.638721,5.446379,0.747133,0.081812,0.418973
2221411869,-3.055603,-28.956154,11.991767,0.697519,-0.097861,0.263379
2221431921,-5.329572,-36.589947,5.311490,0.655875,-0.275779,0.146902
2221451973,0.985608,-35.207703,3.675040,0.896770,-0.249527,0.096593
2221472024,10.476582,-31.743074,0.317458,1.280276,-0.213289,0.144971
2221492076,14.267195,-24.617254,-1.641058,1.353390,-0.134172,0.292079
2221532180,13.210003,-27.944410,1.531202,1.056117,-0.029744,0.314847
2221552232,7.371456,-34.164165,4.821209,0.933385,0.017846,0.217543
2221572284,-0.002407,-37.276188,4.137251,0.825715,0.013132,0.158214
2221592336,-6.446963,-36.375988,4.287985,0.817744,0.020339,0.161527
2221612386,-9.683299,-31.388584,3.976353,0.865914,0.035981,0.225398
2221632438,-9.814763,-27.500160,3.144473,0.920690,0.024833,0.295533
2221652490,-7.942874,-25.450647,2.371280,0.975030,-0.038741,0.295291
2221672541,-5.884009,-27.174652,1.338183,1.014282,-0.079671,0.260507
2221692593,-3.316583,-26.826008,-0.202446,1.053848,-0.112582,0.214635
2221712645,1.669219,-24.079117,-5.549243,1.117940,-0.147993,0.231859
2221732697,5.594460,-16.788782,-12.828802,1.108333,-0.113598,0.205036
2221752749,9.775861,-11.680100,-14.833556,1.056201,-0.048251,0.169828
2221772801,12.018449,-7.969213,-14.983551,0.972502,0.019032,0.122378
2221792852,12.052114,0.304822,-11.578805,0.874720,0.086518,0.097728
2221812904,13.832238,10.051512,-6.406270,0.886138,0.064143,0.151781
2221832956,16.167713,17.767035,-6.054726,1.040238,0.037844,0.252787
2221853008,20.552961,23.983173,-3.629678,1.147208,0.044390,0.274918
2221873060,8.858594,37.444118,3.762990,1.083403,-0.015912,0.210000
2221893111,-11.593361,43.622639,3.119808,0.898598,-0.160129,0.159827
2221913164,-1.033973,39.263241,-6.842775,0.959116,-0.249159,0.144745
2221933215,14.322822,34.232422,-10.309560,1.116813,-0.093996,0.163789
2221953268,13.034064,26.970953,-1.196916,1.021997,0.064011,0.179011
2221973319,5.962538,22.913382,6.724395,0.879601,0.084068,0.199400
2221993371,2.315974,17.229738,6.101045,0.852382,0.082214,0.271300
2222013423,-1.256507,7.581232,5.089647,0.800411,0.075609,0.306816
2222033474,-7.182750,-4.793072,10.037947,0.789781,0.072933,0.286414
2222053526,-11.883344,-16.327372,13.300395,0.830509,0.075114,0.273772
2222073579,-14.517567,-26.735683,10.025178,0.893369,0.069544,0.268465
2222093631,-19.342583,-36.483139,7.870137,0.940404,0.073038,0.283300
2222113683,-25.285583,-47.477535,7.766103,0.916447,0.022508,0.305163
2222133735,-24.345997,-60.084362,7.278688,0.945294,-0.103881,0.159598
2222153787,-22.905329,-61.673725,12.551036,0.913057,0.005007,0.052592
2222173839,-34.928291,-44.204292,27.471067,0.923264,-0.002402,-0.067490
2222193890,-39.564262,-24.613346,16.165588,1.004835,-0.159212,-0.047647
2222213942,-18.448748,-13.948339,-4.622159,1.301199,-0.374047,0.030830
2222233994,4.938100,-13.886938,-11.868464,1.285156,-0.400646,0.136995
2222274098,8.014029,-24.985853,0.552721,1.012532,-0.116539,0.064156
2222294150,3.052038,-23.220806,2.670484,0.911843,-0.037535,0.032081
2222314202,-0.562821,-16.100050,0.365947,0.912126,-0.021150,0.053343
2222354305,-3.243992,-1.944830,0.204425,0.993564,-0.075064,0.153245
2222374359,-2.444180,0.953315,0.277526,0.986432,-0.078767,0.143149
2222394408,0.673880,1.145324,1.003353,0.990302,-0.075518,0.134595
2222414460,0.699173,1.862991,1.614767,1.022847,-0.064528,0.129337
2222434512,-1.241584,5.156578,1.028096,1.028277,-0.065773,0.136751
2222454563,-2.302561,10.627008,0.418459,1.039159,-0.061511,0.160045
2222474615,0.812706,14.530077,0.942025,1.060094,-0.066891,0.168254
2222514719,6.012345,17.501280,0.816282,1.051382,-0.074274,0.180729
2222534771,4.678069,18.795374,-0.847502,1.013726,-0.044534,0.182208
2222554823,2.208017,24.052769,-3.668968,1.024537,-0.040489,0.171150
2222574874,1.044904,28.855713,-7.671642,1.000079,-0.054336,0.197857
2222594926,3.814351,30.136602,-9.662712,0.903418,-0.068608,0.225057
2222614978,5.220463,30.638237,-9.824092,0.852482,-0.104905,0.223298
2222635030,6.839343,30.737181,-9.059525,0.887164,-0.084316,0.221851
2222655082,9.692137,29.803707,-9.557518,0.889999,-0.036038,0.242943
2222675134,13.140539,30.800364,-11.578163,0.933239,-0.025300,0.294930
2222695185,15.730315,32.184891,-9.014573,0.970063,0.018256,0.336493
2222715237,12.177300,29.776859,-7.974294,0.965532,0.102290,0.336670
2222735289,0.768057,25.284361,-11.486614,1.072780,0.087441,0.259805
2222755341,-10.083197,19.027504,-12.469255,1.089285,0.015679,0.232760
2222775393,-15.846124,9.780117,-9.024840,1.048858,-0.001568,0.201773
2222795444,-14.258635,5.303080,-1.953960,0.968269,-0.009633,0.190116
2222815496,-9.735160,3.943643,2.876936,0.886931,-0.030630,0.265943
2222835550,-4.592038,-0.354741,3.329527,0.818140,-0.066533,0.339397
2222855601,-4.077252,-10.268517,2.961823,0.775216,-0.096085,0.382696
2222875653,-6.098085,-22.580990,1.663482,0.777927,-0.048516,0.347537
2222895705,-6.166620,-30.124538,-1.440610,0.837984,-0.030126,0.264227
2222915757,-1.852192,-28.822008,-0.415871,0.737733,-0.031686,0.150838
2222935809,-2.007852,-18.365725,1.329208,0.822282,-0.001811,0.098288
2222955861,-12.014935,-10.975963,3.740094,1.206221,0.001592,0.073796
2222975912,-17.016626,-2.417161,2.173825,1.377908,-0.002742,0.087514
2222995964,-15.768414,4.801198,-2.921808,1.295052,-0.092060,0.176573
2223016026,-7.426950,3.403461,-5.671074,1.167555,-0.214464,0.245885
2223036068,0.782282,-2.408483,-7.624451,1.038391,-0.202892,0.268193
2223056120,2.664402,-6.322896,-6.709725,0.917907,-0.104147,0.228206
2223076171,-0.822523,-5.965234,-4.178365,0.821508,-0.010944,0.203632
2223096223,-5.586671,-5.132229,-3.186724,0.798150,0.031585,0.201429
2223116275,-8.298087,-3.784955,-2.227889,0.821695,0.000130,0.228408
2223136343,-8.609841,-3.484235,0.022134,0.881112,-0.029689,0.262710
2223156377,-7.525401,-5.120717,1.823606,0.944419,-0.058382,0.286121
2223176429,-6.889621,-7.529672,1.990843,0.998996,-0.082805,0.272522
2223196481,-6.091425,-9.883851,1.051306,0.997745,-0.086878,0.254656
2223216533,-6.391240,-11.768044,-0.063783,1.016388,-0.082204,0.229014
2223236585,-6.958292,-12.635988,0.128881,1.034296,-0.067593,0.199525
2223256637,-6.536789,-13.090169,-0.097071,1.018481,-0.047137,0.196541
2223276688,-6.168567,-13.447210,-0.512812,0.999041,-0.029442,0.191563
2223296740,-6.814590,-13.626281,-0.549863,0.990323,-0.031038,0.202062
2223316792,-7.231505,-13.760704,-0.966097,0.972680,-0.033306,0.211415
2223336844,-5.589244,-12.725545,-2.235925,0.964427,-0.074076,0.240003
2223356896,-2.006710,-11.638495,-3.309558,0.982723,-0.069549,0.242443
2223376948,1.553517,-11.152812,-3.418584,0.986040,-0.021462,0.243637
2223397000,0.807364,-10.291188,-2.057079,0.945790,0.018166,0.231714
2223417052,-2.487174,-7.650474,1.148453,0.893879,0.032861,0.199730
2223437103,-3.742357,-3.401621,4.438677,0.913165,0.025346,0.179414
2223457155,-2.094052,1.810197,4.548983,0.931783,-0.026356,0.201775
2223477207,1.717455,5.810486,0.532175,0.969337,-0.046920,0.213003
2223497259,0.552143,5.010067,-3.572454,1.047795,0.029158,0.196684
2223517311,-7.726698,9.819697,-5.170131,1.169137,0.099104,0.177012
2223537362,-19.066813,11.958323,-7.000058,1.151922,0.057285,0.133204
2223557414,-28.925953,12.120228,-9.611903,1.031044,-0.017540,0.122762
2223577466,-31.798576,9.109510,-8.539470,0.934270,-0.009929,0.142618
2223597520,-37.782749,2.954830,-2.021000,0.885800,0.032491,0.194133
2223617571,-50.470581,-9.472745,3.892379,0.897757,0.059302,0.224808
2223637623,-65.982521,-9.227124,5.943283,0.785325,0.113891,0.170848
2223657675,-73.705994,-15.038183,1.403479,0.930814,-0.052101,0.193250
2223677726,-61.675934,-12.894719,-6.998025,0.973689,-0.167241,0.152898
2223697778,-52.865807,-13.933231,-0.274996,0.852129,-0.234683,0.099468
2223717830,-50.564262,-10.783575,4.389561,0.962359,-0.171949,0.066350
2223737882,-50.574543,-4.808446,5.664977,1.213488,-0.164882,0.083681
2223757934,-45.994247,-3.675006,1.301567,1.220573,-0.185567,0.129413
2223777986,-38.251717,-8.268981,-8.030169,1.061728,-0.247344,0.135182
2223798038,-34.351631,-15.478802,-12.879960,1.004940,-0.260285,0.109209
2223818089,-30.732735,-19.025108,-13.172166,0.973707,-0.194004,0.085408
2223838141,-28.290096,-18.088606,-17.655413,0.914783,-0.129423,0.074064
2223858193,-26.749306,-14.577148,-19.797737,0.904690,-0.102816,0.087408
2223898296,-19.904894,-2.231647,-14.673826,0.979932,-0.186007,0.154795
2223918347,-12.437017,4.604802,-13.381260,0.994378,-0.235102,0.156648
2223938399,-6.444409,5.099565,-12.172430,0.973168,-0.221022,0.159788
2223958451,-4.449764,-0.013532,-11.246035,1.011338,-0.144290,0.157353
2223978502,-4.854411,-0.594198,-12.608106,1.083824,-0.057031,0.174307
2223998555,-4.685196,-1.208401,-15.061629,1.131274,-0.004540,0.171672
2224018606,-7.278258,-2.026403,-14.481901,1.132839,0.022169,0.171283
2224038658,-13.027919,-2.521970,-12.477336,1.080037,0.031221,0.138722
2224058710,-17.052511,-1.679615,-11.971039,0.961242,0.044019,0.117828
2224078762,-21.140968,3.968376,-7.797906,0.824152,-0.006533,0.123712
2224098814,-19.564520,7.204210,0.428719,0.772934,-0.038903,0.168166
2224118866,-13.743782,8.690681,7.356304,0.799645,-0.061552,0.226148
2224138918,-4.993333,5.583299,8.735739,0.926167,-0.054472,0.225236
2224158969,-3.172409,5.924844,4.451814,0.920519,-0.025034,0.194227
2224179021,-5.716814,9.723275,-8.080822,1.003033,0.002329,0.163413
2224199073,-8.009086,9.982430,-31.886417,1.218710,0.070006,0.148527
2224219125,-17.036777,12.552678,-39.865177,1.159387,-0.027581,0.099613
2224239177,-24.173157,12.737127,-29.760565,1.055125,-0.125276,0.158715
2224259229,-33.208202,7.934676,-17.561466,0.948844,0.054393,0.159245
2224279281,-46.642189,7.038736,-7.322082,0.905081,0.246018,0.173076
2224299332,-66.898018,10.399260,1.177020,0.932989,0.232636,0.224415
2224319384,-77.324905,7.512671,3.274832,0.998889,0.133505,0.213760
2224339436,-92.846771,1.555562,0.504158,0.807897,-0.029326,0.139856
2224359489,-103.187492,-11.994692,-10.222807,0.808501,-0.121768,0.098488
2224379541,-111.071678,-21.482517,-16.167150,0.863796,-0.077160,0.083367
2224399593,-110.223465,-14.268278,-10.727879,1.011258,0.056877,0.023968
2224419645,-116.797455,5.552480,3.030143,1.121211,0.116845,-0.069466
2224439697,-125.738510,20.780621,-1.058784,1.394532,-0.137917,0.009673
2224459748,-116.494408,19.678883,-23.901203,1.322078,-0.434088,0.169181
2224479800,-98.831619,8.617046,-36.230545,1.048234,-0.509252,0.235182
2224499852,-91.133324,0.921803,-34.152832,0.996081,-0.324252,0.206133
2224519904,-91.506615,-1.494598,-29.331738,0.931968,-0.097828,0.159251
2224539956,-97.899673,-2.235621,-28.258314,0.838677,0.004201,0.128781
2224560008,-108.182236,-1.056321,-28.023827,0.793806,0.014019,0.142436
2224580059,-114.802834,1.112112,-24.034870,0.862285,-0.027516,0.207567
2224600111,-118.030151,2.642927,-21.136276,0.956544,-0.162237,0.213520
2224620163,-113.385971,2.468213,-21.152454,0.964006,-0.283504,0.214159
2224640237,-104.541107,0.429936,-20.079895,0.976424,-0.355194,0.231072
2224660265,-96.299042,-4.731606,-21.262474,1.039012,-0.410452,0.188258
2224680317,-90.117409,-6.013426,-19.069901,1.041033,-0.352979,0.172430
2224700369,-83.000664,-9.978552,-11.199350,1.009085,-0.256484,0.177812
2224720421,-79.788406,-15.930799,-2.593005,1.100944,-0.142087,0.157872
2224740473,-79.463921,-16.978870,-5.386143,1.135321,-0.072165,0.137130
2224760525,-85.223061,-11.497345,-5.387856,0.858435,-0.118725,0.132252
2224780577,-88.848091,-9.615920,0.533674,0.834581,-0.184942,0.175474
2224800629,-88.744408,-9.360730,1.161812,0.982349,-0.176548,0.250950
2224820680,-85.258865,1.011058,4.982542,0.980217,-0.144454,0.272012
2224840732,-77.272163,14.611476,4.500880,0.922387,-0.103830,0.288127
2224860784,-73.765518,14.292207,-8.754845,1.133427,-0.056106,0.218908
2224880836,-90.041054,10.625165,-15.951677,1.110176,-0.022152,0.124830
2224900887,-99.379112,4.411929,-16.404472,0.891958,-0.056345,-0.003378
2224920939,-94.527519,-7.583433,-17.880630,0.846434,-0.098084,0.007507
2224940991,-93.576607,-13.432417,-12.206904,0.873933,-0.087722,0.054660
2224961043,-95.148125,-17.183353,-9.487741,0.901971,-0.106932,0.117883
2224981095,-99.330025,-19.175081,-10.388889,1.072728,-0.120452,0.092711
2225001147,-114.124748,-18.483286,-0.973027,1.022586,-0.009144,0.037264
2225021199,-129.308914,-10.228571,3.104061,1.069757,0.049982,-0.060969
2225041251,-122.464233,-2.224756,-1.223184,1.239450,-0.102055,-0.006565
2225061302,-101.318375,-1.660015,-14.177395,1.196773,-0.411365,0.118861
2225081354,-79.704361,-11.715837,-22.782745,1.022921,-0.551296,0.157601
2225101407,-66.330940,-21.967773,-26.283895,0.882792,-0.455104,0.126411
2225121459,-62.816570,-30.386066,-29.757595,0.815633,-0.218891,0.065581
2225141511,-68.320480,-32.047367,-32.258575,0.844274,-0.063407,0.063257
2225161563,-76.253151,-29.681580,-30.513214,0.883087,-0.033791,0.114539
2225181615,-74.481079,-24.451641,-25.279638,1.040475,-0.060728,0.214940
2225201667,-69.834381,-18.795551,-16.865376,1.094790,-0.146502,0.167785
2225221719,-60.226414,-19.176613,-13.835843,1.067946,-0.308850,0.147207
2225241770,-50.507725,-14.471581,-19.357780,0.957181,-0.350970,0.090289
2225261822,-47.741867,-4.967773,-15.192758,0.762583,-0.129183,0.050533
2225281874,-46.294113,5.572619,-6.627468,0.882945,0.059575,0.061017
2225301926,-46.029850,14.911127,-3.203734,1.293723,0.065545,0.200187
2225321978,-55.104790,18.380915,-9.351469,1.316340,0.179363,0.188579
2225342030,-64.097488,15.721189,-14.856636,1.157439,0.161191,0.104412
2225362082,-76.151764,10.871173,-21.406660,0.993513,0.016987,0.007309
2225382134,-91.968796,-1.443483,-18.402895,0.827674,0.011428,-0.019432
2225402184,-110.353638,-21.878231,-7.480553,0.720438,0.212981,-0.006802
2225422236,-133.027527,-31.017113,6.564791,0.725666,0.462094,-0.027825
2225442288,-155.573807,-13.775585,26.324669,0.876348,0.435853,-0.152146
2225462340,-158.108917,10.417140,29.796726,1.172015,-0.002570,-0.200779
2225482392,-145.040329,12.518496,11.292250,1.286614,-0.423704,-0.053494
2225502443,-122.060867,1.365866,0.712094,1.198446,-0.690907,0.081846
2225522495,-98.546204,-11.292456,-10.818010,1.054531,-0.641400,0.128967
2225542547,-83.028793,-20.181601,-21.903566,0.974726,-0.389140,0.086856
2225562599,-80.508636,-24.842066,-21.971760,0.946078,-0.200832,0.012038
2225582651,-85.501305,-24.235445,-14.544721,0.957882,-0.089815,-0.035150
2225602702,-87.514282,-20.300095,-6.038828,0.861935,0.013760,-0.033212
2225622754,-85.363113,-9.785282,1.359144,0.904877,-0.009674,0.024530
2225642806,-78.299858,-1.010151,2.311697,1.044268,-0.241092,0.155798
2225662858,-73.164474,2.449118,-3.386239,1.102221,-0.410711,0.198616
2225682910,-75.046936,3.717479,-4.951215,1.124537,-0.416597,0.158217
2225702962,-72.244843,5.843862,-0.548570,1.144587,-0.310897,0.106422
2225723014,-71.954987,12.726845,15.479841,0.941901,-0.115508,0.013384
2225743065,-68.316360,20.547504,29.866796,0.820668,-0.062187,-0.000635
2225763117,-58.512302,21.829458,30.366734,0.965726,-0.133367,0.063564
2225783169,-51.886017,14.683697,16.049650,1.141137,-0.075564,0.095313
2225803221,-65.906845,0.766268,1.497868,1.140440,0.046215,0.091262
2225823273,-83.637787,-7.589141,-4.871352,1.039856,0.017270,0.032809
2225843326,-91.368546,-13.104986,-7.146062,0.887875,-0.003907,-0.001741
2225863378,-98.104095,-8.528511,-1.611677,0.880323,-0.002553,-0.020351
2225883430,-109.874413,7.870568,11.864374,0.962081,-0.035184,0.029957
2225903481,-120.353050,18.824940,24.979788,1.098339,-0.121841,0.016657
2225923533,-110.053200,29.469839,15.761382,1.009462,-0.265812,-0.037383
2225943585,-86.625275,30.214752,-5.849415,0.878091,-0.366774,0.013386
2225963637,-73.501282,23.226181,-10.460671,1.032112,-0.378113,0.073957
2225983689,-61.051060,11.086983,-0.555399,1.100967,-0.389906,0.122114
2226003741,-45.898621,3.150136,-4.754835,0.969140,-0.330104,0.092677
2226023792,-32.944221,-4.160682,-4.938811,0.977654,-0.223728,0.064604
2226043844,-25.660480,-15.130096,-9.951149,1.034060,-0.257220,0.147733
2226063896,-29.538773,-16.086437,-15.494292,0.924330,-0.425106,0.210518
2226083948,-26.499756,-13.230174,-3.985182,0.781170,-0.359680,0.214108
2226104000,-14.366979,-12.971361,13.539804,0.751085,-0.112037,0.152771
2226124052,0.612346,-8.103584,16.284107,0.883893,0.147878,0.072998
2226144102,4.678858,0.691772,10.348368,0.947532,0.175196,0.073860
2226164154,2.499869,-6.324274,4.014562,0.923694,0.016879,0.035989
2226184206,-7.044923,-21.383591,-2.478423,0.864067,-0.098831,0.048084
2226204258,-16.006227,-34.235798,-6.311426,0.936004,-0.128504,0.045939
2226224310,-24.783432,-37.223015,-0.234893,0.883239,-0.072205,-0.063149
2226244361,-24.600309,-32.686565,2.629416,0.863603,-0.042528,-0.305203
2226264413,-13.114995,-16.878206,1.934288,1.152414,-0.167518,-0.366963
2226284465,-1.161949,-9.660696,-1.164245,1.427452,-0.361341,-0.206903
2226304517,6.628148,-14.226065,3.540133,1.500318,-0.319041,-0.061188
2226324569,8.868145,-16.421474,6.995339,1.342563,-0.168024,-0.067781
2226344621,5.824815,-8.796135,3.461072,1.136034,-0.039626,-0.047374
2226364673,2.776633,6.298451,-3.820199,0.861271,-0.054832,0.114174
2226384724,-2.444829,18.906260,-4.748553,0.923730,-0.050375,0.187909
2226404777,-9.262563,19.279573,-3.496924,0.970277,-0.049617,0.131791
2226424828,-14.167356,10.391516,-2.934053,0.858873,-0.056357,0.026471
2226444880,-13.385983,4.100484,1.445251,0.814343,-0.050455,-0.062798
2226464932,-6.087319,4.382585,7.277521,0.839251,-0.039634,-0.040389
2226484984,0.184768,12.030479,7.271709,0.954879,-0.069715,0.062569
2226505036,1.363240,17.924046,5.234985,1.127255,-0.115381,0.166201
2226525088,-1.433272,15.517681,2.167199,1.181625,-0.109005,0.203594
2226545139,-2.798313,11.222212,2.606900,1.164987,-0.063502,0.173139
2226565191,-1.618283,7.731184,6.362522,1.138074,-0.018255,0.107079
2226585243,-0.346854,4.941949,5.765371,1.052480,-0.005370,0.067969
2226605296,-2.579468,7.947874,0.821894,1.011309,0.007716,0.055348
2226625348,-8.540641,16.801374,-1.169477,0.933982,-0.050586,0.056474
2226645400,-13.071877,24.680824,-3.802203,0.821421,-0.140431,0.081073
2226665452,-8.370693,30.016455,-10.059717,0.847636,-0.192110,0.129389
2226685504,1.930657,35.475773,-9.771399,0.857812,-0.178165,0.143751
2226705555,7.916210,38.840652,-2.501711,0.928967,-0.175013,0.149944
2226725608,11.955382,36.672607,-0.176493,1.022807,-0.137868,0.172719
2226745659,16.746874,31.569576,-0.547114,1.092386,-0.067293,0.103051
2226765719,15.156393,29.514618,6.258849,1.107056,-0.045890,0.046922
2226785763,9.160891,29.577925,8.056943,1.103298,-0.032045,0.043554
2226805815,6.963729,28.646544,-0.071299,1.080788,-0.041328,0.077857
2226825867,7.229253,24.590466,-6.658688,1.012501,-0.101641,0.108699
2226845918,8.087681,21.990822,-6.862241,0.923422,-0.117971,0.149699
2226865970,7.674124,19.980923,-4.937694,0.891996,-0.058854,0.177966
2226886042,6.539770,17.218256,-2.457037,0.878796,-0.002013,0.177578
2226906072,8.296248,15.415788,-1.185756,0.870384,0.002409,0.163926
2226926125,12.117618,14.116561,-1.697986,0.850733,-0.022360,0.169435
2226946176,13.332235,7.080290,-1.552902,0.840776,-0.019137,0.186777
2226966228,10.976173,-2.316758,-2.474645,0.833392,0.004793,0.190356
2226986280,8.999843,-8.885969,-5.596584,0.853434,0.024717,0.182724
2227006332,7.995715,-12.826845,-7.075707,0.941548,0.016983,0.193890
2227026384,12.178022,-16.665886,-9.815104,1.041474,-0.028237,0.199484
2227046435,2.007924,-7.817860,-17.906044,0.932536,-0.121156,0.058462
2227066487,5.670084,-5.756464,-22.242016,1.116493,-0.203477,-0.053341
2227086539,9.781909,-0.979835,-14.286850,1.390294,-0.003654,0.027902
2227106591,4.110458,6.396719,-7.655957,1.291737,0.058621,0.122456
2227126643,0.508775,7.782108,-0.967251,1.204396,0.013529,0.223513
2227146695,2.805275,3.487268,-0.612202,1.013769,-0.062344,0.245943
2227166747,5.228046,-1.905072,0.133110,0.874572,-0.112053,0.221992
2227186799,4.938428,-5.336758,3.987568,0.845469,-0.087344,0.213411
2227206850,7.150393,-8.377818,2.216218,0.819759,-0.052575,0.196194
2227226902,6.292544,-9.104968,-0.228979,0.819005,0.022480,0.209680
2227246954,5.460771,-7.830412,-1.900451,0.854391,0.074515,0.227960
2227267006,3.976265,-7.427098,-2.613743,0.915291,0.071976,0.244417
2227287058,1.157797,-6.690352,-3.244348,0.994155,0.055675,0.235986
2227307109,-0.412866,-4.718256,-3.099015,1.050978,0.047537,0.204400
2227327161,-0.493615,-3.316548,-1.057498,1.078244,0.031300,0.195693
2227347213,4.533655,-2.141448,-1.707519,1.063788,-0.029142,0.234643
2227367267,12.140025,-0.597549,-5.520139,1.070744,-0.103970,0.236195
2227387319,20.069899,2.922188,-5.762412,1.059325,-0.107753,0.195532
2227407371,21.244043,2.981184,-3.656076,0.992292,-0.008289,0.165914
2227427423,17.503521,4.160486,-1.786828,0.924018,0.047334,0.152244
2227447474,16.176714,8.517884,-0.459903,0.883869,0.054280,0.154969
2227467526,14.501798,14.746440,-0.602042,0.872186,0.077319,0.192336
2227487578,12.589511,19.031015,0.619233,0.953135,0.081273,0.253484
2227507630,11.285707,22.019728,1.579498,1.049386,0.091494,0.267318
2227527689,2.790423,24.335228,3.158496,1.046290,0.144900,0.209057
2227547734,-6.752001,24.262581,5.132617,1.034301,0.039367,0.207467
2227567785,-7.077970,16.729021,1.475317,0.986171,-0.033701,0.149623
2227587837,0.110521,11.062284,-0.470624,0.955798,-0.042329,0.109882
2227607897,3.983415,8.946357,4.257002,0.945935,-0.037231,0.156831
2227627941,1.764652,8.389699,9.746861,0.919973,0.024067,0.216194
2227648004,-2.250275,6.598807,11.611282,0.903164,0.022697,0.269440
2227668043,-4.484037,-1.002806,9.963309,0.920389,-0.034411,0.314302
2227688095,-1.785388,-11.965187,5.998450,0.944642,-0.071484,0.316721
2227708147,-1.504369,-23.025389,1.072246,0.880640,-0.079978,0.259563
2227728199,11.244520,-26.888290,0.103407,0.837655,-0.025396,0.162380
2227748250,19.964230,-29.736599,4.058806,0.854157,-0.027709,0.163341
2227768302,23.867357,-25.481762,5.369096,0.905523,0.045433,0.104511
2227788354,18.931572,-17.651438,12.164904,1.087220,0.064002,0.078864
2227808406,-0.999968,-1.357763,17.436165,1.195894,-0.001735,0.033136
2227828458,-22.220430,3.773354,6.853269,1.321057,-0.103440,0.100637
2227848509,-27.600742,-1.677991,-0.841442,1.170471,-0.076064,0.176959
2227868561,-22.512569,-3.756825,-1.093745,1.027058,-0.050318,0.150378
2227888613,-16.166368,-5.694002,0.540184,0.931755,-0.039925,0.135677
2227908665,-11.054674,-4.580044,-0.261234,0.881796,-0.016088,0.139318
2227928717,-7.583700,-1.719223,-2.841574,0.878173,-0.022300,0.169447
2227948769,-5.948770,0.361174,-3.288895,0.923564,-0.032023,0.207053
2227968821,-4.181186,0.001173,-3.220063,0.972814,-0.046993,0.226480
2227988872,-2.763816,-2.595351,-4.704667,0.990033,-0.057394,0.233539
2228008924,-1.608829,-6.703251,-4.819758,0.986149,-0.060414,0.213461
2228028976,-1.402811,-10.144920,-4.247128,0.980524,-0.056472,0.191199
2228049028,-2.080195,-10.846904,-2.910575,0.981964,-0.053485,0.177451
2228069080,-2.078048,-8.992668,-1.423911,0.976093,-0.064908,0.173725
2228089132,-1.368634,-6.877330,-0.196078,1.012099,-0.073300,0.178621
2228109185,0.178011,-5.847354,0.209095,1.045837,-0.072249,0.177031
2228129237,1.007671,-5.414452,-0.618794,1.032026,-0.058367,0.177772
2228149289,-0.491232,-4.638287,-2.379261,0.989796,-0.047455,0.191342
2228169341,-3.787867,-2.742050,-2.839379,0.959557,-0.030821,0.209294
2228189392,-6.662344,0.670364,-1.682972,0.942393,-0.014160,0.220795
2228209444,-5.847600,3.396837,-1.162125,0.960249,-0.045384,0.207377
2228229496,-2.038321,4.088248,-3.803318,0.976537,-0.074724,0.211740
2228249548,2.810607,4.063139,-6.775880,0.936449,-0.049029,0.210341
2228269600,6.701057,6.628287,-6.134292,0.925618,-0.009451,0.203080
2228289652,7.892048,8.231842,-4.700233,0.982528,0.027232,0.211875
2228309704,6.022489,9.318478,-5.006481,1.005609,0.045054,0.215741
2228329755,1.677891,11.377959,-3.784265,0.960768,-0.005593,0.239003
2228349807,2.964407,10.073659,-1.286744,0.962369,-0.040536,0.247689
2228369859,7.678360,4.268670,0.262558,0.993692,-0.010864,0.208215
2228389911,7.671676,-1.586247,2.397264,1.000708,0.033146,0.171310
2228409961,5.964348,-3.440136,3.920042,1.040537,0.027498,0.144938
2228430013,3.078628,-5.758718,2.814935,1.026506,0.031685,0.141246
2228450065,-1.519368,-7.444415,0.321298,0.961398,0.044070,0.153364
2228470117,-7.240055,-8.659697,1.335490,0.893803,0.061693,0.182764
2228490169,-11.377377,-10.629887,3.784152,0.885736,0.057674,0.208019
2228510220,-14.667645,-12.888361,2.997296,0.880691,0.028828,0.212044
2228530272,-15.818211,-13.410056,-1.464510,0.896886,-0.029222,0.184474
2228550324,-10.303537,-15.017840,-5.689959,0.912276,-0.127308,0.127371
2228570376,-2.438657,-15.005298,-3.441806,0.995127,-0.197285,0.087779
2228590428,-1.482455,-13.290068,0.280796,1.108248,-0.212470,0.082213
2228610480,-2.835296,-12.179338,3.240815,1.183275,-0.086202,0.081829
2228630531,-5.089457,-9.818374,7.947580,1.221170,0.040049,0.085999
2228650584,-8.740300,-5.552606,10.389742,1.136695,0.086861,0.087766
2228670635,-9.795200,-4.944687,7.977908,1.031409,0.007450,0.110206
2228690687,-7.653503,-7.456959,5.863707,0.943390,-0.074177,0.127522
2228710739,-4.177401,-10.438731,3.758235,0.875979,-0.075582,0.134967
2228730791,-2.359210,-12.504934,-0.706867,0.840664,-0.045767,0.141461
2228750842,-2.429580,-14.393884,-5.202233,0.833171,-0.016292,0.145247
2228770894,-4.425027,-15.918520,-7.727654,0.876326,-0.001805,0.147839
2228790946,-7.596952,-16.169451,-8.112205,0.950980,-0.000536,0.148899
2228810998,-9.393701,-15.261745,-6.780807,1.021199,-0.010940,0.134794
2228831050,-8.473654,-14.132418,-5.625440,1.048959,-0.020952,0.116475
2228851103,-6.640260,-12.966992,-4.508412,1.055158,-0.025488,0.103212
2228871155,-5.075205,-11.701120,-2.838372,1.056523,-0.028225,0.089439
2228891207,-3.751597,-10.831974,-1.227513,1.054463,-0.031837,0.084922
2228911259,-3.222587,-10.369272,-0.638134,1.054114,-0.032145,0.082469
2228931310,-3.744154,-9.860537,-0.086440,1.038161,-0.034889,0.083660
2228951362,-4.687778,-8.716291,0.554159,1.017274,-0.029007,0.097985
2228971414,-5.075636,-7.493698,1.004819,0.993242,-0.020896,0.103447
2228991466,-4.643824,-6.833438,0.524918,0.971477,-0.017262,0.113157
2229011518,-3.570756,-6.631014,0.213108,0.954042,-0.015171,0.115917
2229031570,-2.120593,-6.627585,1.652590,0.964887,-0.025784,0.121843
2229051622,-0.685743,-6.481555,2.849060,0.977527,-0.039252,0.118453
2229071674,1.002233,-7.887022,3.345944,0.976075,-0.042699,0.119028
2229091725,0.769351,-9.459475,2.237337,0.998078,-0.049894,0.101635
2229111777,-0.449564,-11.444330,0.562075,0.970634,-0.047240,0.100865
2229131829,0.592982,-12.730343,0.209930,0.941333,-0.048878,0.092406
2229151887,4.872790,-13.749763,1.447315,0.987449,-0.039130,0.074352
2229171931,7.380502,-14.761740,2.094135,1.029314,-0.035619,0.084787
2229191983,7.565001,-14.532501,0.941279,1.009935,-0.042343,0.081365
2229212035,7.890832,-15.332775,0.110237,0.989638,-0.053602,0.065810
2229232087,9.342340,-15.302626,0.973626,0.977128,-0.046581,0.050371
2229252139,9.555451,-14.832663,3.033409,0.984288,-0.024182,0.046255
2229272191,8.009677,-14.436330,2.479321,1.002538,-0.020213,0.041431
2229292243,7.502372,-14.356190,1.274167,1.013016,-0.026710,0.030129
2229312294,6.810712,-13.062217,1.323004,1.001981,-0.026184,0.030499
2229332346,6.059248,-14.463163,0.259461,1.013149,-0.018744,0.034491
2229352398,3.009388,-15.819937,-1.045956,1.007051,0.001969,0.022484
2229372450,0.048557,-13.170177,-0.349206,0.981237,0.014629,0.003068
2229392502,-1.151545,-10.454858,-0.706775,0.987697,0.003538,-0.004755
2229412554,-1.563918,-7.810983,-2.367953,0.969820,-0.008388,0.002709
2229432606,-1.285778,-6.132241,-1.305202,0.965396,-0.008333,0.026397
2229452658,-0.249725,-6.705021,-0.515380,1.033328,-0.009804,0.040256
2229472709,1.824267,-7.397722,-0.551614,1.072742,-0.021932,0.056672
2229492761,3.992499,-8.261868,-1.383081,1.041009,-0.037229,0.065621
2229512813,5.235197,-8.131132,-2.399547,1.010020,-0.026541,0.074457
2229532865,4.239444,-8.984490,-4.253102,1.015686,-0.034680,0.076227
2229552917,1.073814,-10.630594,-4.375164,1.000702,-0.023486,0.060723
2229572969,-2.334435,-10.181181,-3.018886,0.989623,0.003541,0.039883
2229593020,-2.953474,-9.856674,-2.686313,1.014591,0.013185,0.036949
2229613073,-2.745944,-10.853710,-4.494320,1.049140,-0.014700,0.051331
2229633125,-4.061531,-12.901175,-3.971436,1.037612,-0.027707,0.064851
2229653177,-7.495093,-13.266868,-3.029183,0.993149,-0.018430,0.040435
2229673229,-9.494100,-9.414092,-2.768916,0.963373,-0.020154,0.019704
2229693281,-8.118402,-5.358459,-3.927796,0.997805,-0.034754,0.016299
2229713333,-7.547286,-3.334459,-4.988445,1.042731,-0.033580,0.034418
2229733385,-10.670595,-3.378702,-3.956461,1.050006,-0.004341,0.038493
2229753437,-14.597624,-1.448861,-2.059417,1.047915,0.005164,0.017192
2229773489,-16.381605,4.200155,-0.100150,1.027975,-0.010317,0.005052
2229793541,-15.496596,11.200565,0.314997,1.018174,-0.026504,0.005533
2229813592,-15.580780,15.223936,1.559270,1.052421,0.005389,0.025947
2229833644,-16.725744,15.745326,4.748615,1.067833,0.032463,0.042647
2229853696,-17.993984,16.048489,5.975805,1.036349,0.024714,0.052057
2229873748,-17.850306,16.066725,6.309167,0.989029,0.005818,0.046759
2229893800,-16.969643,16.430534,6.504657,0.988101,-0.002805,0.053851
2229913858,-15.496910,17.454643,6.061034,1.007233,-0.006030,0.073291
2229933902,-12.447471,18.613884,4.949443,1.010271,-0.015850,0.104236
2229953954,-9.562403,20.862978,3.477944,1.004463,-0.021393,0.117892
2229974006,-6.726547,22.111919,2.366120,1.007004,-0.023253,0.120840
2229994057,-4.235535,21.778364,2.267870,1.009865,-0.038487,0.122490
2230014109,-2.039367,21.160503,1.935756,1.006092,-0.044404,0.115898
2230034161,0.062750,22.374527,2.059680,1.009595,-0.038045,0.121665
2230054213,1.940967,24.217239,2.189093,1.019189,-0.035781,0.132432
2230074265,3.668848,24.198456,2.234027,1.018460,-0.041880,0.150947
2230094317,4.181169,23.693647,2.311377,1.013122,-0.033199,0.155262
2230114369,4.255493,25.681877,2.107446,1.006023,-0.020935,0.162613
2230134420,3.565511,26.701797,2.035963,0.994015,-0.016022,0.171287
2230154472,2.238002,25.932137,1.751079,0.982798,-0.014284,0.186637
2230174524,0.771217,24.323608,1.014398,0.974256,-0.006483,0.193485
2230194576,-0.327695,23.794813,0.167762,0.978272,0.005464,0.202372
2230214628,-0.596672,22.925838,-0.109571,0.976479,0.000012,0.215419
2230234679,-0.410935,20.861233,-0.246522,0.957219,-0.013956,0.226441
2230254731,-0.481210,17.955746,0.165199,0.937465,-0.017044,0.223156
2230274783,-0.595935,14.664534,0.851107,0.930479,-0.014794,0.216355
2230294835,-0.033939,11.911937,0.777027,0.927002,-0.015353,0.203159
2230314887,-0.577681,9.457075,0.906940,0.934007,-0.017776,0.191421
2230334939,-1.184338,7.321704,1.202511,0.950468,-0.015158,0.181329
2230354991,-1.978576,6.366942,1.107552,0.970998,-0.018222,0.179874
2230375044,-1.790005,5.213918,1.058407,0.987622,-0.022413,0.176496
2230395096,-2.031001,3.305176,0.799805,0.989835,-0.024003,0.172985
2230415148,-2.211888,1.218763,1.193584,0.986095,-0.030091,0.160760
2230435199,-1.441510,-0.935954,1.807056,0.982616,-0.037319,0.151367
2230455251,0.409457,-2.752992,1.880880,0.974488,-0.040317,0.139802
2230475303,2.936380,-4.014552,1.459920,0.975247,-0.037231,0.133137
2230495355,4.454185,-4.627092,1.469079,0.977815,-0.038705,0.131263
2230515407,4.252528,-5.417741,1.502189,0.980545,-0.037604,0.131633
2230535459,3.738836,-6.098047,1.300082,0.988058,-0.033078,0.122909
2230555511,3.360743,-6.541550,1.188058,0.990730,-0.030163,0.116624
2230575562,2.984460,-6.996960,0.393968,0.991706,-0.044298,0.112795
2230595614,1.845386,-7.115926,-0.431329,0.996693,-0.058245,0.108811
2230615666,1.871571,-6.377931,-0.206513,1.005075,-0.063486,0.096753
2230635718,2.977256,-5.809549,0.890091,0.998862,-0.052008,0.093395
2230655770,2.603168,-6.161731,2.005542,0.990648,-0.036177,0.102605
2230675820,1.306717,-7.127657,1.865324,0.994628,-0.026891,0.103344
2230695872,0.319107,-7.153766,1.160917,0.999953,-0.023954,0.110982
2230715924,-0.076778,-7.058672,1.001570,0.995711,-0.026772,0.105168
2230735976,0.166846,-7.192190,1.244471,0.988539,-0.032815,0.103006
2230756027,0.253809,-7.559478,0.700021,0.983157,-0.028219,0.101188
2230776079,-0.025143,-7.657833,-0.155964,0.988832,-0.024470,0.095550
2230796131,-0.336808,-7.758368,-0.125193,0.998631,-0.025640,0.088453
2230816183,-0.632457,-8.318182,0.490735,1.001321,-0.030165,0.082890
2230836235,-1.119540,-8.396512,0.612439,0.996458,-0.033839,0.074445
2230856287,-1.499929,-8.219493,0.187541,1.001658,-0.031670,0.072821
2230876339,-2.019358,-7.663467,-0.185563,1.007871,-0.030788,0.070038
2230896391,-2.251784,-6.687644,-0.499581,1.007896,-0.034908,0.067813
2230916442,-2.651198,-6.029019,-0.380447,1.006627,-0.038717,0.068485
2230936494,-2.950387,-5.687816,-0.138992,1.002723,-0.040118,0.066383
2230956546,-2.852859,-5.233751,-0.466486,1.000177,-0.040229,0.065366
2230976598,-2.867913,-5.271760,-0.458770,0.997573,-0.040781,0.058902
2230996650,-2.763031,-4.824516,-0.672559,0.996362,-0.038917,0.062416
2231016701,-2.913495,-3.626368,-0.729688,1.001775,-0.041514,0.057849
2231036753,-2.417514,-2.302674,-0.810212,1.009985,-0.039524,0.055976
2231056805,-2.058340,-1.047861,-0.837399,1.025663,-0.031997,0.052546
2231076857,-2.379766,0.540186,-0.289494,1.021888,-0.034841,0.044827
2231096909,-3.162379,1.705134,-0.141655,1.010243,-0.047555,0.046982
2231116984,-1.965811,1.806694,-0.923057,0.992749,-0.053029,0.048103
2231137014,-0.595545,2.047720,-1.439736,0.995399,-0.042896,0.057456
2231157066,-0.187577,2.687790,-1.487559,0.994788,-0.038411,0.066307
2231177118,-0.804516,2.489742,-0.956133,1.000147,-0.034524,0.083204
2231197170,-1.327151,1.760131,-0.544172,1.000416,-0.032708,0.083094
2231217222,-0.881500,0.980439,-0.647747,0.997592,-0.031366,0.082059
2231237274,0.477574,0.319148,-0.979418,0.990213,-0.030675,0.080726
2231257325,1.577925,-0.366512,-1.295757,0.986196,-0.029587,0.081140
2231277377,1.940862,-1.291705,-1.512486,0.987830,-0.023792,0.079539
2231297433,2.117208,-1.496150,-1.610370,0.992685,-0.022033,0.074646
2231317481,1.912895,-1.882877,-1.328544,0.996711,-0.019805,0.071013
2231337533,1.258074,-1.894124,-1.229750,0.998651,-0.021215,0.067408
2231357585,0.365346,-1.587214,-0.995547,0.999670,-0.025042,0.066459
2231377637,0.004030,-1.115918,-0.527149,1.004149,-0.030384,0.067098
2231397689,0.199726,-0.734291,-0.407269,1.004943,-0.028692,0.070902
2231417752,-0.507571,-0.852835,-0.414192,1.005044,-0.027636,0.068527
2231437791,-1.261069,-0.962889,-0.231654,1.003044,-0.027561,0.067694
2231457843,-1.649641,-0.882017,-0.246955,1.004976,-0.028592,0.065175
2231477895,-1.515035,-0.402820,-0.241074,1.001430,-0.031510,0.065002
2231497947,-1.249531,-0.293890,-0.097542,1.001082,-0.036603,0.064695
2231517998,-1.182378,-0.065175,-0.014985,1.000530,-0.034066,0.064298
2231538050,-1.281761,-0.057271,0.136602,1.001978,-0.034308,0.066220
2231558102,-1.654365,-0.285579,0.433098,0.999596,-0.035188,0.068576
2231578154,-1.470857,-0.473881,0.479156,1.001715,-0.037311,0.065889
2231598205,-0.944451,-0.570861,0.206464,0.999629,-0.038965,0.064893
2231618258,-0.920305,-0.806378,0.154214,0.998992,-0.034819,0.062660
2231638309,-0.410888,-0.674184,0.123265,0.997084,-0.033487,0.060813
2231658361,-0.182467,-0.807849,0.358593,0.996254,-0.031569,0.061603
2231678413,0.128816,-0.646392,0.357927,0.997876,-0.032965,0.065448
2231698465,0.457243,-0.826972,0.275066,0.998428,-0.033427,0.064821
2231718517,0.570882,-0.749929,0.335393,0.999347,-0.030284,0.062064
2231738569,0.373310,-0.864517,0.426804,1.000892,-0.028916,0.062150
2231758621,0.159522,-0.729314,0.418834,0.999975,-0.027732,0.062494
2231778672,-0.199110,-0.617015,0.539836,1.000987,-0.029557,0.061795
2231798724,-0.230218,-0.480618,0.531798,0.999882,-0.029624,0.063697
