Timestamp (us),Gyroscope X (deg/s),Gyroscope Y (deg/s),Gyroscope Z (deg/s),Accelerometer X (g),Accelerometer Y (g),Accelerometer Z (g)
936661260,-1.738991,0.652132,6.839441,0.823798,0.510117,0.398265
936671240,-5.094338,7.067531,7.501812,0.784447,0.498234,0.403201
936681220,-8.615115,11.029374,5.541367,0.740108,0.493568,0.438161
936691199,-11.496542,10.455127,2.830872,0.686628,0.485705,0.484297
936701179,-11.410396,5.657388,-0.318868,0.658458,0.473207,0.517314
936711158,-7.361867,-0.840135,-2.891357,0.678833,0.465890,0.503784
936721137,0.416017,-4.500621,-3.133402,0.740848,0.479712,0.473369
936731117,7.605354,-3.788315,-0.560666,0.812419,0.532790,0.448861
936741096,10.039932,0.165740,3.038851,0.841248,0.577396,0.448842
936751076,5.118765,5.449384,5.670986,0.813910,0.578775,0.461613
936761056,-3.351589,9.809641,4.877537,0.742508,0.540209,0.484065
936771035,-10.336442,10.221289,1.848432,0.686199,0.503729,0.498199
936781015,-13.850826,7.550323,-0.754768,0.666671,0.477368,0.496816
936790994,-13.201339,4.960072,-1.993415,0.677904,0.444309,0.481901
936800974,-9.886247,3.640143,-2.633176,0.711211,0.425104,0.472627
936810954,-5.166543,4.629773,-2.209230,0.749487,0.423579,0.470076
936820934,0.444348,7.837406,-1.679402,0.765078,0.448798,0.477598
936830913,5.202935,11.291603,-0.909898,0.767991,0.471680,0.490390
936840893,7.634368,12.504349,0.932963,0.743433,0.470788,0.499060
936850873,9.952299,11.648279,2.459784,0.717777,0.473233,0.498914
936860852,11.278950,9.744943,3.514351,0.706879,0.483242,0.491811
936870832,10.798771,8.135063,3.924999,0.712406,0.494721,0.472602
936880812,8.576262,7.929150,3.887604,0.719628,0.490531,0.452223
936890791,5.646974,9.291177,3.390166,0.717504,0.491231,0.448894
936900771,1.321757,11.493886,2.735070,0.708876,0.490259,0.463322
936910750,-4.470117,12.286759,2.077235,0.705232,0.483311,0.470472
936920730,-8.836273,11.842974,1.365244,0.715629,0.472901,0.474657
936930710,-9.426975,11.340785,0.301525,0.728524,0.466383,0.473179
936940689,-7.616781,10.482039,-0.298363,0.726546,0.438498,0.467043
936950669,-2.798693,8.488457,-0.750005,0.718039,0.438402,0.441938
936960649,4.106380,6.731058,-1.453143,0.724792,0.453372,0.438538
936970628,8.465988,4.922650,-1.314603,0.726154,0.459307,0.447572
936980608,9.493538,3.444577,-1.035779,0.720732,0.463542,0.447404
936990588,8.030502,2.855936,-1.100450,0.708061,0.476986,0.450229
937000567,5.045700,2.866402,-0.639786,0.686809,0.483366,0.461209
937010547,1.987932,3.134746,-0.635113,0.676394,0.478900,0.471654
937020528,1.046671,3.228177,-1.048191,0.675593,0.477689,0.475302
937030508,1.990808,2.584914,-1.757514,0.689728,0.488991,0.475011
937040487,3.254308,2.093100,-2.283863,0.711976,0.503398,0.481376
937050467,3.756991,2.502683,-2.024774,0.735791,0.513454,0.489661
937060447,3.288120,3.295240,-1.951613,0.735753,0.511471,0.490786
937070427,2.904898,2.444407,-2.103396,0.717153,0.507492,0.479036
937080406,3.870094,-0.297507,-2.627368,0.711214,0.510263,0.465405
937090386,5.171760,-2.203187,-2.772007,0.719667,0.509214,0.449368
937100365,5.061547,-3.176385,-2.831632,0.721653,0.499128,0.444834
937110345,3.889383,-3.492453,-3.032357,0.723515,0.494285,0.450594
937120324,1.467325,-3.712204,-2.706099,0.722258,0.496459,0.461644
937130304,-0.928587,-4.204404,-1.681121,0.723425,0.497641,0.468749
937140284,-2.759820,-4.333430,-0.685178,0.724446,0.487957,0.478579
937150263,-3.769166,-4.602272,0.161903,0.716164,0.480971,0.479817
937160243,-3.304818,-5.758500,0.757139,0.712565,0.470522,0.471362
937170223,-1.532099,-7.208252,1.174992,0.719532,0.464726,0.465392
937180202,0.460585,-7.656118,0.969743,0.727279,0.464010,0.459172
937190182,2.228787,-7.480219,0.489601,0.738455,0.475016,0.461382
937200162,3.661842,-7.424991,-0.021825,0.751796,0.484368,0.463841
937210141,3.984920,-6.802848,-0.234191,0.756195,0.501344,0.471657
937220123,3.821409,-5.950762,-0.327078,0.749853,0.515290,0.488432
937230099,3.124757,-5.310068,-0.497305,0.738006,0.526419,0.495135
937240079,1.894888,-4.865492,-0.714537,0.721806,0.528595,0.495713
937250058,0.038339,-4.874815,-0.735837,0.714190,0.521680,0.489859
937260038,-1.635205,-4.839184,-0.802136,0.718716,0.510681,0.474459
937270018,-2.746352,-4.576492,-0.517803,0.737325,0.500011,0.466598
937279998,-3.141008,-3.615729,0.116968,0.743250,0.489600,0.455039
937289977,-3.397690,-2.610144,0.569981,0.735461,0.483045,0.448811
937299957,-3.474555,-2.274333,1.039769,0.727625,0.468444,0.451821
937309937,-2.488471,-2.809420,1.241152,0.729002,0.458236,0.450920
937319916,-1.288258,-3.299960,1.245851,0.732375,0.457178,0.455553
937329896,0.157054,-3.852948,0.841626,0.736415,0.460406,0.455392
937339875,1.162556,-4.222353,0.268705,0.743904,0.467641,0.458142
937349855,1.786561,-4.696736,-0.168709,0.747841,0.478865,0.457667
937359835,2.198601,-4.972838,-0.667836,0.742313,0.498248,0.461437
937369814,1.865371,-4.911519,-0.957427,0.725792,0.506805,0.462997
937379794,0.540239,-5.455308,-1.188675,0.707873,0.515325,0.461072
937389774,-0.418571,-6.137888,-1.782798,0.706814,0.518605,0.460816
937399753,-1.474509,-7.061369,-1.314364,0.718426,0.524733,0.477866
937409733,-4.158625,-7.476877,-0.427062,0.730678,0.526166,0.497555
937419713,-8.364028,-7.735377,0.485335,0.742383,0.517730,0.500822
937429692,-12.063767,-8.057984,0.579842,0.737612,0.479892,0.470939
937439672,-12.063803,-8.728411,-0.011130,0.724913,0.441327,0.435460
937449651,-8.500305,-8.908520,-0.712489,0.717525,0.412556,0.414669
937459631,-3.727765,-7.785115,-1.745735,0.713428,0.408440,0.428685
937469611,-0.112597,-5.316768,-1.403543,0.718042,0.432694,0.449499
937479591,1.873254,-2.416126,-0.460229,0.731270,0.476217,0.488731
937489570,1.452311,-0.131475,0.445695,0.761771,0.521810,0.520051
937499550,-1.517844,1.555304,2.528036,0.798562,0.530246,0.513849
937509530,-4.916964,4.372287,6.246583,0.826195,0.497560,0.498682
937519509,-7.077681,8.279844,9.679195,0.815187,0.446422,0.474914
937529489,-5.453959,11.652622,10.362568,0.786514,0.400577,0.464940
937539470,-1.419634,13.674071,8.490705,0.780176,0.375661,0.459768
937549450,2.679282,15.556524,5.678177,0.782651,0.364497,0.468920
937559429,4.531222,15.454485,3.271016,0.795054,0.367079,0.480215
937569409,4.367906,14.180021,4.577760,0.793901,0.360178,0.479943
937579389,6.370178,13.009999,8.304937,0.761067,0.345717,0.474842
937589368,9.972532,12.534803,12.172972,0.732925,0.343551,0.468351
937599348,11.478935,13.374885,16.305334,0.730285,0.330255,0.477263
937609328,10.180033,15.651787,19.515549,0.735561,0.314396,0.490550
937619307,8.142914,17.638224,20.826406,0.732761,0.311919,0.493271
937629287,8.116158,18.779470,21.037117,0.742085,0.318778,0.484041
937639267,9.317449,19.537910,21.920324,0.754823,0.332242,0.481323
937649246,11.070192,20.314987,25.370548,0.756683,0.338810,0.471779
937659226,13.620312,21.200253,30.933102,0.743508,0.335518,0.473594
937669206,16.985910,22.444639,34.858498,0.754580,0.359770,0.511282
937679185,18.389488,25.044170,36.407490,0.795079,0.397737,0.550377
937689165,17.757685,26.932352,36.478474,0.814528,0.441215,0.566049
937699145,17.994812,25.525824,33.278629,0.843858,0.495616,0.552401
937709124,18.475845,21.573696,27.715500,0.929820,0.535483,0.542215
937719104,14.788952,20.026348,23.895744,0.967512,0.515003,0.498621
937729083,7.645558,22.476368,20.741638,0.898442,0.454907,0.467560
937739062,2.665686,22.045238,17.796312,0.796686,0.407277,0.470298
937749041,1.004749,17.075672,17.175919,0.760083,0.360823,0.487690
937759021,3.562408,12.494127,19.543936,0.795561,0.318077,0.498875
937769001,7.804025,11.163549,22.626064,0.853193,0.269843,0.510921
937778981,13.342327,11.664378,23.311485,0.894181,0.220950,0.515934
937788960,17.785347,11.841778,20.274960,0.905817,0.161918,0.527860
937798940,19.885626,10.045444,15.290752,0.898891,0.114637,0.534517
937808919,19.557495,7.507371,8.220130,0.894688,0.105483,0.552074
937818899,19.457359,6.157204,2.271719,0.899978,0.153466,0.567412
937828879,22.990194,6.534312,-1.223478,0.906944,0.216636,0.578161
937838858,30.260866,8.349587,-2.158429,0.918515,0.252173,0.592179
937848838,37.494659,11.264933,-0.696893,0.910613,0.249935,0.595167
937858818,44.825825,13.086948,1.798758,0.879767,0.234779,0.568805
937868797,51.392258,13.389380,3.778074,0.841697,0.223311,0.540794
937878777,55.515194,11.859736,6.010093,0.808036,0.222784,0.505764
937888756,56.060829,10.128681,8.291306,0.782383,0.245091,0.483802
937898736,52.829819,10.659212,9.812898,0.780775,0.282518,0.480974
937908716,46.424702,13.360724,11.852014,0.783495,0.307290,0.473697
937918696,39.608719,16.612082,14.374672,0.775432,0.326548,0.454657
937928675,34.770786,19.064903,16.252371,0.771844,0.341613,0.437954
937938655,30.417152,20.420280,17.738663,0.759535,0.339658,0.432296
937948635,24.469944,18.875267,19.026697,0.741141,0.326835,0.425066
937958614,19.243000,15.031649,20.502693,0.731271,0.313611,0.408893
937968598,17.166372,10.324580,21.170731,0.739965,0.313586,0.400857
937978573,16.212532,7.040957,20.504620,0.762281,0.322777,0.411133
937988553,14.999644,6.661879,19.165440,0.789177,0.332608,0.431134
937998533,14.544642,6.342666,18.542084,0.798377,0.320241,0.462284
938008513,13.927877,4.824481,18.952141,0.809336,0.294392,0.467826
938018492,13.305314,2.562261,19.970446,0.811127,0.271878,0.446191
938028472,14.796839,0.583332,21.511395,0.803394,0.265456,0.436684
938038453,17.854559,-0.242008,24.361172,0.785362,0.261957,0.445699
938048432,19.950275,-0.666649,28.284868,0.750669,0.266017,0.475046
938058412,21.122499,-3.445495,32.391174,0.733359,0.278668,0.482535
938068392,20.496426,-6.537433,36.780407,0.745741,0.290112,0.478204
938078371,17.890614,-6.292206,41.112572,0.780033,0.288036,0.484877
938088351,14.822374,-3.977373,45.242790,0.820997,0.280063,0.503242
938098331,12.112888,-2.590284,49.967556,0.837944,0.256532,0.522333
938108310,7.603656,-2.704148,54.233257,0.852480,0.230566,0.509912
938118290,2.609652,-3.381223,57.511570,0.848943,0.209087,0.480695
938128270,1.316331,-4.878913,59.467602,0.847165,0.196442,0.460108
938138249,1.863238,-7.113368,61.020988,0.840103,0.189354,0.442792
938148229,1.563220,-8.494171,62.175652,0.833835,0.185475,0.434181
938158210,0.365543,-9.674110,63.463654,0.821114,0.182284,0.430722
938168188,-0.562646,-10.974838,65.617920,0.807227,0.180980,0.443602
938178168,0.592768,-13.890060,69.952065,0.802498,0.172019,0.449125
938188147,4.881004,-18.483711,76.591064,0.828879,0.162260,0.434471
938198127,9.215900,-21.676128,84.260284,0.858531,0.163838,0.426611
938208107,8.817093,-22.909389,90.529671,0.888470,0.166053,0.412736
938218086,4.860984,-22.524534,94.083046,0.890844,0.153742,0.405514
938228066,-0.742819,-21.819351,95.490280,0.871789,0.154613,0.401872
938238053,-5.631215,-22.685966,95.460243,0.865044,0.154367,0.380262
938248024,-7.524775,-23.545536,96.123138,0.881606,0.137136,0.382305
938258004,-9.113064,-24.369255,99.959358,0.894574,0.122076,0.393535
938267983,-11.055876,-28.017208,105.604912,0.885971,0.111711,0.412123
938277963,-10.346915,-32.345795,109.803085,0.902131,0.132758,0.470537
938287942,-9.711041,-32.659588,113.585182,0.989504,0.164037,0.545569
938297922,-18.056990,-29.636745,121.036240,1.073325,0.153140,0.580796
938307902,-32.193260,-22.317131,130.617142,1.097567,0.090527,0.555676
938317881,-38.694214,-14.090626,141.921936,1.063509,0.018502,0.504508
938327861,-32.680717,-17.048374,155.470566,1.028863,-0.071259,0.445970
938337841,-14.522047,-29.021990,167.403122,1.031934,-0.181246,0.386088
938347821,2.001727,-33.526215,177.421768,1.061937,-0.233916,0.348709
938357800,4.035157,-24.805925,183.137878,1.086396,-0.190549,0.347901
938367780,-12.592356,-6.954702,184.422333,1.102729,-0.144685,0.300643
938377760,-13.824955,0.466448,174.328445,1.098613,-0.103030,0.286772
938387739,12.934143,-7.267428,152.813766,1.062886,-0.060404,0.366828
938397719,21.967964,-19.991539,132.690002,1.076938,-0.082246,0.462148
938407698,16.418865,-38.298260,111.797783,1.179047,-0.028723,0.452399
938417678,23.315508,-47.374199,79.685394,1.258695,0.323372,0.405475
938427658,33.630852,-32.578300,26.632204,1.281221,0.933741,0.487681
938437637,23.714773,-13.962939,-34.932972,1.253975,1.599020,0.647116
938447617,-9.847594,-2.968005,-73.811844,1.178375,2.018631,0.893101
938457596,-62.276363,19.767412,-83.050484,1.045154,1.780625,1.070670
938467576,-115.533989,40.983177,-85.413582,0.834872,1.223566,1.082312
938477556,-139.382568,43.373043,-99.581902,0.733139,0.730853,0.933530
938487535,-118.613213,44.913113,-117.517654,0.839093,0.372797,0.703848
938497515,-62.702492,55.427708,-124.710335,1.040156,0.204870,0.501755
938507495,8.734428,69.256683,-123.083298,1.243661,0.148778,0.390393
938517475,75.733177,75.659897,-122.613419,1.368146,0.060403,0.303062
938527454,117.283646,69.758209,-132.333527,1.345208,-0.110382,0.207092
938537434,124.781578,54.981476,-154.538803,1.209342,-0.233863,0.083325
938547415,110.145935,37.230972,-177.981567,1.044388,-0.110902,-0.004398
938557395,86.981926,18.371065,-184.344315,0.900145,0.093801,-0.032434
938567374,55.836792,-0.204638,-175.585419,0.766487,0.211838,-0.011868
938577354,16.198151,-16.214489,-167.480743,0.651502,0.281299,0.019489
938587333,-22.050377,-26.202202,-165.178772,0.626424,0.352996,0.056101
938597313,-55.430599,-22.953407,-160.755478,0.743778,0.425634,0.158506
938607293,-91.610085,-4.761754,-149.867218,0.962756,0.479805,0.338295
938617272,-133.074509,14.195337,-137.358246,1.162332,0.493550,0.512198
938627252,-177.409958,23.605501,-134.513428,1.210988,0.417574,0.610132
938637232,-216.971924,30.629002,-146.069122,1.117973,0.253166,0.602377
938647211,-236.013657,37.621311,-155.674805,0.980493,0.119255,0.547594
938657191,-227.095734,37.462349,-152.503082,0.911658,0.044745,0.538082
938667171,-197.179062,30.575048,-141.480347,0.914676,-0.050073,0.533498
938677150,-153.757187,23.770184,-128.530945,0.923232,-0.172873,0.508894
938687130,-102.119614,19.758862,-112.629044,0.877092,-0.254500,0.488805
938697110,-49.069763,14.775930,-93.594200,0.769449,-0.326899,0.459423
938707089,1.426680,5.433382,-75.821106,0.656805,-0.380386,0.401957
938717069,48.113449,-7.817443,-63.746826,0.584599,-0.349502,0.336748
938727049,84.175690,-22.533272,-55.818928,0.584232,-0.248296,0.295199
938737028,104.491882,-37.688385,-49.308495,0.648234,-0.123335,0.295054
938747008,106.042892,-47.989891,-41.531593,0.762168,0.010910,0.331187
938756986,88.968933,-48.113380,-31.782314,0.867939,0.139256,0.405695
938766966,53.977631,-37.851166,-21.546150,0.917327,0.279990,0.504282
938776946,7.087670,-23.261557,-11.203986,0.869107,0.378632,0.589383
938786925,-38.080391,-12.816246,-1.715130,0.742112,0.382360,0.605206
938796905,-67.418152,-7.453169,9.154193,0.641813,0.337395,0.554929
938806884,-78.635071,-4.242331,22.302723,0.582173,0.253980,0.502386
938816864,-76.841064,-4.464045,35.848488,0.570354,0.147890,0.474767
938826844,-65.519287,-9.403139,48.248848,0.600568,0.058993,0.459111
938836824,-45.972790,-15.834420,57.794640,0.649456,-0.005623,0.451232
938846803,-22.222193,-22.272419,63.134617,0.696955,-0.035618,0.447677
938856783,2.819094,-29.268587,65.261795,0.748677,-0.038722,0.446126
938866762,24.613407,-35.100636,66.298798,0.811666,-0.030899,0.441326
938876742,43.757263,-37.669067,67.458771,0.852833,0.005028,0.428379
938886722,59.117554,-36.296715,70.877182,0.860680,0.066771,0.429151
938896702,66.415184,-35.304504,76.652588,0.817162,0.129030,0.441356
938906681,67.389313,-38.913891,83.415779,0.791498,0.203976,0.438565
938916661,62.907162,-45.031570,89.739677,0.805861,0.265137,0.441469
938926640,53.949318,-49.480118,94.558769,0.866136,0.314992,0.437205
938936620,41.301235,-46.939903,97.230179,0.946867,0.361261,0.438474
938946600,22.628832,-34.817329,97.985199,0.981628,0.380878,0.461920
938956580,0.178450,-21.438240,97.374931,0.936719,0.360453,0.500406
938966559,-18.886158,-15.495540,95.193192,0.888089,0.308264,0.514939
938976539,-30.794720,-15.704433,93.423767,0.877564,0.259011,0.496065
938986518,-35.841171,-18.183088,93.243828,0.902219,0.209044,0.453262
938996498,-32.387913,-21.127625,94.231079,0.941032,0.181035,0.392875
939006478,-20.486027,-22.827171,92.421143,0.968889,0.163201,0.361624
939016457,-5.617320,-22.903797,85.533669,0.989296,0.176728,0.368697
939026437,7.550745,-21.292082,75.981758,0.979727,0.215957,0.396473
939036416,18.005566,-19.044987,67.968170,0.951916,0.256684,0.426803
939046396,27.926239,-17.733459,62.792656,0.908182,0.265042,0.432784
939056376,38.330658,-17.740929,60.489517,0.876966,0.246184,0.426511
939066357,47.261490,-20.047371,62.252861,0.889487,0.214200,0.411420
939076337,50.960640,-24.016373,68.479156,0.941448,0.182313,0.368639
939086316,49.813797,-27.135628,73.580109,1.010955,0.172001,0.334204
939096296,42.627495,-27.461594,74.027397,1.073521,0.177703,0.320870
939106276,27.364632,-23.510683,70.677246,1.076912,0.189621,0.342592
939116255,4.985699,-19.692036,65.892151,1.012120,0.181549,0.378872
939126235,-18.420586,-20.613945,61.915218,0.940036,0.142285,0.365444
939136214,-36.721272,-23.675241,61.054840,0.885868,0.087444,0.306523
939146194,-47.890938,-24.669056,63.417667,0.843827,0.004684,0.236626
939156174,-49.817902,-25.002369,68.542236,0.800076,-0.088649,0.175976
939166154,-43.002689,-25.542849,75.289795,0.772157,-0.168480,0.167301
939176133,-33.907337,-27.826538,81.045670,0.772601,-0.211306,0.247781
939186113,-29.886223,-31.682495,83.508514,0.859581,-0.208681,0.352233
939196092,-29.885139,-34.540833,84.059227,1.004784,-0.184296,0.406949
939206072,-30.101698,-33.365311,85.878212,1.092805,-0.188925,0.401354
939216052,-24.728279,-28.004364,90.350533,1.025427,-0.258962,0.350635
939226032,-10.000485,-22.283543,99.528305,0.912243,-0.357173,0.267848
939236011,12.999571,-19.086988,114.535492,0.797238,-0.489892,0.198523
939245991,41.684158,-20.637543,130.190887,0.707972,-0.630055,0.197907
939255970,63.337555,-21.943611,142.817276,0.683650,-0.728780,0.366996
939265967,65.975166,-19.089603,144.294083,0.845159,-0.671242,0.587200
939275928,55.877186,-18.713213,126.425041,1.140406,-0.426588,0.581323
939285908,49.082802,-26.664116,87.480789,1.315592,-0.159966,0.338855
939295888,52.956120,-29.253353,46.681602,1.315963,0.019964,0.024118
939305867,75.718880,-18.712614,30.135447,1.175530,0.065700,-0.080831
939315847,110.928673,-11.461778,30.999908,0.953855,0.082169,0.005895
939325827,135.529816,-11.452957,29.092766,0.820041,0.202341,0.135151
939335806,140.481155,-9.283806,26.495129,0.879121,0.442263,0.297673
939345786,129.376678,-11.962624,23.062380,1.084740,0.726228,0.467625
939355765,97.835602,-18.133675,12.888633,1.333519,0.937275,0.542673
939365745,50.390366,-19.602474,-6.178774,1.516849,1.013101,0.524213
939375725,2.910102,-13.057629,-33.788769,1.626018,0.951732,0.507551
939385705,-35.947746,1.424759,-56.282055,1.537045,0.715742,0.468625
939395684,-52.371044,13.086135,-61.924385,1.312207,0.491246,0.435761
939405664,-44.782280,14.603072,-59.457779,1.156665,0.341400,0.384914
939415643,-26.258820,13.872004,-60.776749,1.113236,0.278916,0.333054
939425623,-1.732343,13.172761,-66.963501,1.117309,0.293386,0.293553
939435603,18.842869,13.558832,-76.716782,1.106824,0.284467,0.272927
939445582,26.677958,11.975490,-87.662811,1.095182,0.256737,0.245667
939455562,22.311611,9.400272,-96.917297,1.119402,0.264965,0.228674
939465542,13.943964,9.854379,-103.700203,1.168520,0.327052,0.244949
939475521,7.810351,14.684271,-109.252777,1.180306,0.435922,0.276164
939485501,4.478747,21.006090,-117.226944,1.095302,0.582114,0.267293
939495481,0.893140,23.593489,-129.567856,0.952338,0.703470,0.247021
939505460,-6.638485,20.655901,-142.505524,0.829381,0.748574,0.185930
939515440,-17.015797,15.318172,-150.925735,0.772193,0.721559,0.137971
939525420,-28.009222,13.542759,-151.202271,0.799796,0.618858,0.096450
939535399,-32.701454,13.893532,-143.097626,0.841264,0.446798,0.058505
939545379,-32.791504,13.295586,-130.544159,0.908497,0.257901,0.093429
939555359,-37.670658,9.563558,-118.457184,0.991915,0.094590,0.198712
939565338,-49.376820,7.040970,-113.270584,1.076232,0.025811,0.291901
939575318,-64.925713,11.655092,-120.053085,1.078713,0.061450,0.294094
939585299,-72.417976,13.795919,-133.757141,0.994370,0.182059,0.351401
939595279,-71.345657,12.495891,-143.147354,0.878607,0.285112,0.317175
939605258,-59.335777,13.277315,-136.384613,0.780140,0.267822,0.358087
939615238,-39.515259,13.928762,-113.855438,0.741484,0.169997,0.404330
939625218,-16.458067,13.451179,-87.944176,0.810167,0.050467,0.434684
939635197,1.073296,11.447989,-73.053535,0.985522,-0.025081,0.427664
939645177,8.552657,9.866613,-76.062225,1.217304,-0.014195,0.329018
939655157,11.762411,15.249287,-94.365318,1.269748,0.090291,0.213349
939665136,18.004187,27.868561,-117.025536,1.027407,0.324573,0.273909
939675116,24.604176,32.645927,-128.440506,0.749960,0.523855,0.464982
939685096,29.671160,28.666586,-125.169556,0.583667,0.638642,0.551114
939695075,31.742971,21.995157,-111.552513,0.565242,0.570700,0.591410
939705055,26.545630,12.166885,-98.531570,0.720129,0.442524,0.613652
939715034,8.668950,7.007469,-90.781021,1.008156,0.369318,0.535628
939725014,-10.772851,11.607328,-88.195847,1.263640,0.382042,0.392949
939734994,-17.269154,27.333649,-91.261406,1.257696,0.455796,0.310041
939744974,-12.103578,40.856808,-97.351257,0.963247,0.527644,0.390154
939754953,-1.901468,40.547230,-98.941208,0.667949,0.568929,0.493154
939764933,11.143674,32.457027,-100.191391,0.553333,0.586052,0.538670
939774913,18.649334,27.821466,-101.677544,0.608030,0.633109,0.463321
939784911,21.633230,28.795073,-104.401321,0.705087,0.667739,0.363820
939794870,20.548958,33.518742,-109.375443,0.754504,0.712649,0.287134
939804850,15.017848,37.435226,-114.378220,0.744432,0.770493,0.257226
939814830,6.546022,36.783062,-119.323189,0.661906,0.787707,0.257070
939824809,-4.410256,33.328442,-122.572144,0.576962,0.819243,0.289781
939834789,-18.066900,28.932281,-121.836578,0.536194,0.788989,0.380226
939844769,-32.888729,29.648180,-114.646332,0.607934,0.728506,0.434985
939854748,-41.362171,43.363831,-99.728516,0.717310,0.568344,0.525394
939864728,-39.133671,55.663788,-83.528549,0.684135,0.302253,0.618567
939874707,-28.770350,49.364754,-75.743690,0.624487,0.138585,0.510880
939884687,-8.718575,40.844681,-75.421829,0.597769,0.131134,0.317825
939894667,16.600922,36.414062,-75.285995,0.513637,0.215330,0.309439
939904647,36.407516,30.448637,-75.651817,0.455763,0.406909,0.315439
939914626,49.122322,25.916279,-78.046814,0.460095,0.632327,0.367191
939924606,51.075211,23.628983,-77.839615,0.499492,0.785514,0.427509
939934586,42.326466,24.851517,-73.772072,0.567482,0.856448,0.452909
939944565,29.425285,27.899647,-68.537033,0.614903,0.835114,0.469791
939954545,20.185429,29.652132,-66.429970,0.594329,0.782900,0.440218
939964525,14.838010,28.056694,-66.566696,0.560831,0.748777,0.420311
939974504,10.302633,24.192621,-66.591080,0.505787,0.737380,0.372683
939984484,9.270737,18.387487,-65.735794,0.447255,0.771731,0.417670
939994464,15.393099,12.512970,-65.327324,0.471936,0.829910,0.510053
940004443,24.726665,11.314425,-64.125923,0.564487,0.844731,0.582172
940014423,20.877682,16.278343,-59.956707,0.652604,0.757146,0.622740
940024402,3.454229,23.876013,-53.453209,0.637118,0.615167,0.587446
940044362,-14.702844,26.582829,-37.260735,0.430060,0.428416,0.437913
940054341,-4.947628,22.860573,-27.311165,0.320783,0.432417,0.385395
940064321,15.961433,16.756527,-19.264063,0.252914,0.491743,0.403576
940074301,41.152901,9.897903,-16.574986,0.269811,0.559011,0.465435
940084281,60.503227,7.751621,-16.932840,0.381211,0.601004,0.481906
940094260,58.412575,9.025575,-14.528221,0.450736,0.627746,0.445226
940104241,44.964455,10.429415,-10.962200,0.444555,0.664663,0.366923
940114221,43.256538,13.453423,-7.496414,0.497036,0.654953,0.436341
940124201,51.210152,19.647223,-0.770348,0.531436,0.600659,0.527466
940134180,63.389553,23.071697,4.547013,0.481889,0.570298,0.554555
940144160,75.977966,24.118673,8.154072,0.440490,0.578226,0.595008
940154140,83.429596,26.831398,15.065828,0.408160,0.613516,0.598390
940164119,85.025574,31.100361,22.638956,0.395212,0.687876,0.564517
940174099,83.577988,38.953049,30.060057,0.476300,0.712612,0.597835
940184079,80.825394,52.462997,35.024601,0.548071,0.649236,0.616398
940194058,81.823593,68.778389,34.244576,0.558260,0.530044,0.615988
940204038,90.871552,85.327332,33.809555,0.558506,0.435429,0.635754
940214018,109.998154,96.742683,37.878090,0.522065,0.431469,0.612568
940224007,133.387817,101.025948,41.819584,0.510627,0.577477,0.506338
940233977,149.908951,101.532639,40.188572,0.538692,0.853298,0.353722
940243957,151.526047,103.166267,30.750252,0.675831,1.204209,0.353585
940253936,129.470413,113.026405,20.523176,0.823769,1.506433,0.388501
940263916,87.698624,126.825485,9.041112,0.784683,1.733005,0.314137
940273895,39.079121,132.401184,-3.195055,0.565014,1.817331,0.143905
940283875,-15.125687,125.693237,-6.293670,0.298608,1.625838,0.001010
940293855,-72.273430,116.367989,-7.106097,0.150053,1.345908,0.048220
940303834,-136.845673,113.214760,-6.176360,0.139498,1.162239,0.174332
940313813,-196.483795,111.444336,1.916840,0.202575,0.944923,0.202361
940333772,-226.693634,96.360275,38.982124,0.376316,0.575432,0.084295
940343752,-205.591919,66.037247,59.952881,0.258696,0.296387,-0.171907
940353731,-160.439148,30.225136,74.605850,0.164337,0.023472,-0.290644
940363711,-113.688965,-5.180454,89.734055,0.129131,-0.111952,-0.177429
940373690,-84.088196,-41.036335,110.832230,0.140411,-0.085707,-0.052898
940383670,-76.575882,-73.618576,136.390991,0.182137,-0.016458,0.050180
940393650,-85.987259,-97.398209,163.383362,0.265662,-0.000721,0.128856
940403629,-104.221497,-108.494049,190.874084,0.387164,-0.025716,0.233848
940413609,-127.830048,-111.539894,219.382324,0.472103,-0.106277,0.305021
940423589,-150.144852,-112.829193,246.070786,0.489804,-0.204484,0.302766
940433568,-159.961914,-114.014511,268.702057,0.491876,-0.287092,0.361708
940443548,-155.624054,-119.322906,290.536316,0.559320,-0.329358,0.465809
940453528,-142.555161,-131.409210,313.912231,0.784926,-0.335989,0.607376
940463507,-129.476608,-152.621979,337.043793,1.258942,-0.366641,0.736774
940473487,-113.477699,-184.213272,354.584351,1.814157,-0.599307,0.548064
940483467,-70.193962,-190.057144,338.585876,1.974609,-1.053373,0.218784
940493446,10.965851,-160.394669,287.854431,1.752128,-1.034653,0.234977
940503426,99.292213,-139.851410,259.306213,1.422036,-0.511347,0.454562
940513406,154.239426,-132.131927,267.369232,1.356960,-0.017373,0.646159
940523385,166.359360,-123.391792,283.804504,1.618973,0.417004,0.773158
940533365,157.237167,-109.805222,294.030151,1.811792,0.740157,0.629708
940543345,147.947540,-79.881905,282.100067,1.629152,0.899884,0.432695
940553324,130.874146,-49.647594,238.647736,1.290873,1.109234,0.411041
940563304,87.331360,-46.960060,175.067535,1.032226,1.441079,0.542736
940573283,19.833241,-68.327545,107.163689,0.949828,1.790060,0.752782
940583263,-36.305485,-80.480247,56.041023,1.228765,1.741292,0.785651
940593243,-56.277267,-66.331116,56.545853,1.456765,1.341716,0.662699
940603222,-45.614281,-41.776772,76.200966,1.463167,0.875554,0.553711
940613202,-19.776442,-27.348993,76.264793,1.437416,0.553904,0.433024
940623183,5.828414,-32.831852,52.906319,1.291139,0.436033,0.325001
940633163,15.305383,-49.863514,1.810463,1.114517,0.443081,0.271562
940643142,2.809675,-64.721405,-54.522057,0.964334,0.521105,0.266801
940653122,-9.809024,-71.131813,-93.017303,0.885067,0.573882,0.189448
940663102,-3.797785,-73.910683,-118.903542,1.021112,0.735208,0.029032
940673081,3.096150,-64.514351,-147.294373,1.149868,0.992709,0.075256
940683061,-28.757509,-13.933357,-178.500748,1.383894,1.124722,0.815533
940693041,-133.446701,71.981506,-181.130493,1.667095,0.955390,1.496812
940703021,-257.451416,106.738571,-165.123215,1.060928,0.371279,1.292559
940713000,-311.030701,43.289066,-179.139603,0.374268,-0.193497,0.749220
940722980,-297.013184,-5.209585,-199.405960,0.616253,-0.223025,0.529583
940732959,-221.361710,4.825720,-194.298553,1.286198,-0.331506,0.236404
940742946,-103.365913,19.027565,-190.469070,1.757539,-0.638458,-0.031851
940752919,6.756449,47.473629,-202.746094,1.755770,-0.818146,-0.386267
940762899,77.895721,87.300598,-199.428497,1.457598,-0.760507,-0.298339
940772878,113.682068,87.139893,-184.753525,1.114264,-0.668446,-0.126206
940782858,133.666245,62.369839,-187.443359,0.942525,-0.419145,0.066715
940792838,138.191101,40.407925,-194.802856,0.889639,0.017092,0.346901
940802817,117.197701,28.667873,-196.919006,0.788651,0.470800,0.506992
940812797,72.852600,20.273258,-191.148438,0.666730,0.824841,0.599853
940822776,13.093451,7.230627,-176.572601,0.606708,1.001290,0.638843
940832754,-56.029999,-1.763855,-160.591797,0.658172,0.943818,0.611589
940842734,-117.145592,1.812570,-150.781082,0.822087,0.757601,0.475225
940852714,-150.673813,18.875181,-144.967285,0.966105,0.487590,0.338411
940862694,-152.169449,41.224915,-144.125244,1.007211,0.250920,0.220655
940872673,-130.465698,60.251747,-147.785599,0.927816,0.098455,0.156496
940882653,-96.370499,66.701904,-153.511230,0.798369,0.073643,0.183303
940892633,-62.589146,56.133781,-158.984802,0.715158,0.123957,0.220838
940902612,-39.237934,36.829937,-160.973450,0.764824,0.207712,0.227298
940912592,-33.761215,20.968018,-151.353821,0.809235,0.227527,0.196463
940922571,-36.260574,8.162942,-131.929214,0.750487,0.220323,0.122107
940932551,-33.196091,-5.854265,-108.932587,0.636750,0.198742,0.082493
940942530,-28.298008,-20.757645,-85.017838,0.534951,0.138228,0.036997
940952510,-27.481497,-33.421925,-58.418102,0.469096,0.021952,0.032958
940962490,-35.248535,-45.113781,-30.831200,0.398523,-0.146322,0.075216
940972470,-51.198944,-57.984955,-5.166928,0.386265,-0.304624,0.132039
940982449,-68.593628,-69.198051,18.319521,0.440659,-0.409245,0.164801
940992429,-72.864662,-74.557106,39.108402,0.538418,-0.432242,0.165696
941002409,-58.986244,-75.176971,55.366173,0.638516,-0.385563,0.196271
941012388,-33.096138,-75.432693,67.595169,0.745338,-0.270412,0.276843
941022368,-4.747208,-76.309631,77.359077,0.829865,-0.119768,0.381739
941032348,20.522631,-76.480347,85.517975,0.914796,0.042039,0.479540
941042328,43.163101,-77.040291,92.591064,0.973696,0.200003,0.519739
941052307,66.662491,-79.327789,96.648994,1.038394,0.359513,0.508114
941062287,93.534737,-79.214401,97.390320,1.099628,0.494729,0.461309
941072266,115.917213,-75.297424,91.599396,1.071597,0.576801,0.484219
941082246,128.077408,-78.175941,78.802612,0.954220,0.685303,0.473369
941092226,135.388702,-91.250488,55.653061,0.840308,0.933406,0.289098
941102205,128.299255,-99.915688,24.055456,0.872023,1.202309,0.175819
941112185,91.312500,-87.680550,6.398583,0.963982,1.353338,0.163012
941122165,40.178482,-54.793282,2.613431,0.979198,1.493540,0.126209
941132144,-2.515849,-30.903271,-14.487747,0.866184,1.781789,0.052393
941142125,-32.311054,-20.900978,-49.391022,1.110319,1.919339,0.593885
941152105,-84.936554,3.852668,-53.730560,1.527158,1.479409,0.854239
941162085,-153.362854,24.026604,-31.127529,1.231216,1.071253,0.668638
941172064,-179.066498,16.224524,-41.370621,0.930877,0.727704,0.335107
941182044,-150.454865,5.064900,-61.705269,0.845388,0.541004,0.125880
941192023,-127.316360,10.396999,-58.479576,0.887362,0.247656,0.011800
941202003,-118.940178,21.441540,-36.626076,0.847653,-0.080046,-0.072619
941211983,-87.782028,17.028320,-18.651039,0.728393,-0.232321,-0.127132
941221962,-42.948433,-2.480644,-12.918276,0.636450,-0.148472,-0.027838
941231942,-25.274714,-15.989157,-16.163845,0.640124,-0.069626,0.145230
941241922,-33.175400,-22.094934,-24.407749,0.656130,0.000454,0.262028
941251901,-42.653923,-30.072010,-35.386261,0.740007,0.095426,0.276581
941261882,-40.835583,-36.297939,-42.565708,0.888601,0.196725,0.247414
941271861,-32.209984,-31.888411,-44.638474,0.996652,0.230612,0.241738
941281840,-25.420916,-25.853241,-42.985744,1.013613,0.193665,0.263416
941291820,-22.250551,-26.263489,-37.768318,0.999292,0.143007,0.307511
941301800,-22.699944,-28.317215,-31.148766,1.008380,0.127213,0.365305
941311779,-27.047068,-27.301683,-24.713650,1.020628,0.160292,0.435652
941321759,-34.373093,-22.262440,-18.871185,1.030657,0.217092,0.510305
941331739,-39.287663,-13.355266,-14.453346,1.030977,0.245538,0.528786
941341724,-37.038395,-2.845658,-11.091920,0.953268,0.222396,0.457622
941351697,-25.753918,7.073183,-7.305106,0.869934,0.174802,0.426094
941361676,-13.263026,14.233400,3.122965,0.813193,0.114649,0.387428
941371656,-7.564997,15.373674,19.426968,0.807164,0.011901,0.418505
941381636,-8.243853,8.265763,38.499947,0.953045,-0.090723,0.416305
941391615,-9.123757,2.233300,62.579666,1.250238,-0.169689,0.386078
941401595,-11.162849,7.323903,87.139832,1.439420,-0.213887,0.419229
941411575,-16.648190,19.205896,102.586349,1.298292,-0.206478,0.465511
941421555,-18.052347,24.338715,111.408112,0.993917,-0.155229,0.484951
941431534,-8.747078,15.121054,118.343826,0.763251,-0.152038,0.415468
941441514,9.953341,1.452022,120.080536,0.731223,-0.156428,0.291290
941451493,28.264935,-3.897517,121.059784,0.868230,-0.156316,0.234247
941461473,36.813038,0.352039,122.493309,1.046283,-0.166242,0.265904
941471453,39.328739,4.677768,121.979080,1.183315,-0.158109,0.309990
941481432,48.350304,3.591989,118.276527,1.186202,-0.068163,0.296368
941491412,68.043442,-3.511085,111.734253,1.097731,0.064873,0.280546
941501392,91.118225,-15.702157,106.622383,1.016133,0.201020,0.258425
941511371,108.212517,-27.471256,105.178589,0.998581,0.321914,0.220790
941521351,117.722084,-33.216618,107.115952,1.006930,0.401881,0.125294
941531331,121.985100,-30.838863,108.811333,1.007147,0.462951,0.037242
941541310,114.981506,-22.409050,107.030029,0.957642,0.535379,0.031870
941551290,96.581085,-14.307426,97.940887,0.825951,0.672054,0.010460
941561270,75.881866,-11.803689,77.362152,0.746922,0.852813,0.044842
941571249,44.609291,-15.050968,54.282921,0.790182,0.933779,0.204396
941581229,-0.615587,-19.255405,39.780586,0.909398,0.878651,0.298547
941591208,-45.117508,-20.176029,33.199081,1.019196,0.709199,0.325738
941601188,-76.900330,-19.535999,28.721598,1.052103,0.498236,0.331618
941611168,-92.853256,-18.947992,23.522377,1.024527,0.302579,0.346884
941621147,-92.769844,-18.386021,15.735077,0.997214,0.184635,0.367984
941631127,-81.601929,-17.054493,7.376105,0.978253,0.128304,0.381308
941641106,-61.176651,-16.509804,0.612319,0.952806,0.082838,0.374665
941651088,-29.042664,-17.202232,-5.230553,0.945619,0.058287,0.344157
941661067,10.297235,-19.666697,-11.016605,0.978226,0.123126,0.325480
941671047,45.315933,-23.373882,-21.414263,1.026558,0.315708,0.363462
941681027,65.258606,-25.028822,-41.123894,1.095795,0.522085,0.389762
941691006,73.197723,-18.674374,-67.821877,1.163691,0.739325,0.436987
941700986,64.843353,-6.715184,-93.974930,1.169636,0.945735,0.545174
941710966,34.092983,3.032888,-113.186081,1.198825,1.100891,0.596166
941720945,-11.244444,10.902870,-128.951492,1.269628,1.186890,0.559631
941730925,-63.717678,28.905849,-139.336792,1.270780,1.082119,0.519480
941740905,-108.659744,42.598709,-133.130676,1.065675,0.701580,0.297575
941750884,-97.719376,29.729383,-124.256386,0.922625,0.132422,-0.135554
941760864,-37.154457,11.697382,-122.966774,0.974767,-0.030566,-0.142309
941770844,-3.294591,4.014543,-123.055901,1.143306,-0.052998,0.059482
941780823,1.384654,11.122344,-128.333282,1.057899,-0.083299,0.140004
941790803,-1.453324,21.883877,-143.825958,0.732911,0.110273,0.317185
941800783,-5.828884,10.224572,-162.508133,0.489626,0.306283,0.271084
941810762,10.399843,-0.306649,-169.937103,0.495925,0.525295,0.234102
941820742,21.258682,2.996925,-158.795258,0.630080,0.791068,0.277922
941830722,27.243359,7.040958,-142.691986,0.743667,0.845383,0.181133
941840701,29.635900,12.204053,-135.466660,0.851457,0.819725,0.168778
941850681,6.468668,9.751143,-136.495834,0.846429,0.762207,0.197857
941860659,-32.441208,1.141717,-138.114227,0.785869,0.813094,0.078989
941870639,-66.263718,-5.726948,-135.832672,0.701766,0.843487,-0.015752
941880618,-88.355911,-10.620558,-131.162567,0.655213,0.856923,-0.012637
941890598,-100.355392,-15.205866,-123.560432,0.662585,0.789914,0.010269
941900578,-105.220413,-19.133829,-118.091087,0.731639,0.727196,0.071935
941910557,-111.916534,-25.071842,-116.677528,0.799308,0.673434,0.123412
941920537,-117.182274,-30.594488,-118.204559,0.866075,0.673582,0.106240
941930517,-114.734749,-32.155376,-119.028969,0.834697,0.678971,0.079532
941940496,-108.080734,-34.189648,-121.660240,0.728909,0.665774,0.059414
941950476,-100.121155,-37.361000,-127.943588,0.658311,0.660858,0.008844
941960456,-94.623894,-39.291584,-133.781555,0.621270,0.678350,0.022630
941970435,-95.277351,-43.397221,-134.308838,0.622739,0.693080,0.073774
941980415,-103.832031,-49.672108,-129.424957,0.687463,0.677087,0.082691
941990394,-117.334335,-55.664589,-120.565849,0.736429,0.591484,0.069328
942000374,-128.190704,-61.497032,-111.121422,0.696385,0.469438,-0.000253
942010354,-130.225677,-68.428818,-104.879295,0.614060,0.360297,-0.050242
942020333,-125.912621,-77.371170,-97.550659,0.515306,0.273656,-0.052637
942030313,-117.297920,-86.988701,-86.366562,0.435112,0.229338,-0.019507
942040293,-108.167290,-99.976395,-71.183693,0.382529,0.234402,0.078339
942050272,-98.543106,-116.749153,-54.141724,0.464589,0.262395,0.098873
942060252,-84.298882,-129.167542,-35.178459,0.633792,0.324550,0.067994
942070232,-68.208176,-131.124359,-14.676487,0.788636,0.391779,0.038225
942080211,-58.452721,-123.753967,5.122740,0.845366,0.408089,0.074877
942090191,-60.758659,-116.210739,23.637190,0.786264,0.340191,0.151579
942100171,-68.093758,-117.174362,39.476257,0.710742,0.253195,0.153804
942110150,-69.312904,-123.459381,50.941635,0.694259,0.169336,0.101513
942120130,-63.740891,-131.191681,56.921700,0.733482,0.129575,0.020928
942130110,-52.829700,-136.530807,58.878265,0.790072,0.190022,-0.007617
942140090,-40.104027,-140.162277,58.242702,0.850507,0.347512,0.038628
942150069,-30.960686,-141.766525,54.070782,0.948852,0.540142,0.102841
942160049,-30.192890,-138.013474,45.886322,1.052352,0.710173,0.216692
942170029,-43.011295,-128.358932,38.847275,1.048936,0.789995,0.302195
942180010,-59.993851,-119.076195,36.925468,0.940159,0.749699,0.304138
942189989,-72.624191,-123.289001,39.698105,0.759231,0.683347,0.238527
942199968,-64.309471,-161.995575,23.951920,0.538110,1.002409,-0.117518
942209949,-15.818909,-207.978622,-51.758759,0.970910,2.156968,-0.251061
942219928,-13.791725,-136.236984,-125.385498,2.369418,2.585227,0.822980
942229908,-143.642136,2.314560,-109.841042,1.855672,1.960047,1.245779
942239887,-248.636505,22.156431,-91.092346,0.997392,1.226069,0.621929
942249867,-261.711792,-12.221621,-91.069000,0.820004,0.653273,0.039798
942259847,-247.724686,-36.804359,-93.338753,0.822056,0.266362,-0.222641
942269826,-219.643295,-65.555779,-96.496788,0.879738,-0.004077,-0.512194
942279806,-169.694397,-86.300995,-92.308685,0.979889,-0.143423,-0.621355
942289786,-116.309349,-80.339661,-83.641037,1.033601,-0.168891,-0.459866
942299765,-90.317909,-55.221443,-84.366814,0.943509,-0.030088,0.104798
942309745,-111.166298,-48.399632,-98.410423,0.788441,0.177169,0.530375
942319725,-142.041656,-66.280128,-121.527184,0.691080,0.422006,0.432970
942339684,-133.204056,-86.709366,-138.862366,0.946247,0.832254,0.247349
942349663,-110.654190,-85.544182,-113.698997,1.126350,0.781318,0.111434
942359643,-89.632904,-76.317307,-83.194611,1.167080,0.584851,0.082253
942369623,-97.749336,-64.161827,-64.524109,1.130329,0.294729,0.245325
942379608,-132.094727,-52.646748,-57.991322,1.062736,-0.013187,0.325803
942389581,-157.162079,-40.806969,-56.756115,0.989771,-0.199219,0.283256
942399560,-151.511505,-37.300537,-51.308666,0.894406,-0.249636,0.174333
942409540,-116.247612,-46.440598,-40.204182,0.740971,-0.295602,0.055167
942419520,-59.871078,-65.077354,-28.681801,0.595903,-0.260078,-0.017829
942429500,-9.113484,-83.801254,-16.479635,0.561509,-0.114551,0.050731
942439479,17.501730,-96.685310,2.358239,0.589100,-0.024689,0.161042
942449459,29.855215,-101.392700,25.675232,0.689942,0.038718,0.254554
942459439,26.605637,-103.342667,49.103508,0.752165,0.083884,0.316513
942469418,7.379626,-104.920975,65.617607,0.730598,0.126335,0.431982
942479398,-7.978607,-95.702591,64.520920,0.646296,0.382960,0.628207
942489377,9.772295,-99.019623,16.680170,0.459438,1.373174,0.678132
942499357,46.146793,-72.834030,-124.356262,1.741894,3.142850,1.040373
942509337,-62.218830,52.095787,-147.001434,1.968187,2.088780,1.451169
942519317,-162.798340,100.157425,-43.278934,0.626209,0.775035,-0.001082
942529296,-68.891609,16.141228,-13.805960,0.006778,0.291721,-0.620286
942539276,20.535913,-73.182892,-21.360998,0.171608,0.302316,-0.188718
942549255,-2.765998,-119.540344,-11.973031,0.647157,0.290487,0.110321
942559235,-78.167061,-89.293663,-6.028913,0.922256,0.252925,-0.013508
942569215,-114.116531,-31.074903,-19.926018,1.006913,0.239788,-0.193318
942579194,-102.944702,-9.183127,-37.514072,0.926251,0.411857,0.054079
942589174,-96.716476,-29.025269,-39.406727,0.830989,0.500226,0.311139
942599154,-96.744568,-54.763855,-26.147594,0.901071,0.498134,0.454151
942609134,-94.433136,-63.218803,-6.592179,0.982180,0.377249,0.525005
942619113,-91.286873,-53.537918,9.584374,0.979228,0.217895,0.591122
942629093,-87.101738,-39.050499,12.460530,1.048464,0.135473,0.685532
942639072,-84.419701,-22.638205,9.606424,1.107130,0.025992,0.699693
942649052,-74.704041,-5.564017,6.713860,1.079270,-0.003122,0.628449
942659032,-52.176437,2.088784,5.805423,0.941491,-0.017373,0.538372
942669012,-19.846931,-3.641741,5.996719,0.832874,0.020910,0.443598
942678991,11.574610,-13.365531,8.179407,0.793107,0.102279,0.372693
942688971,31.897640,-16.665642,10.406893,0.771633,0.191728,0.345154
942698952,40.390118,-15.611317,11.177144,0.715278,0.342616,0.379349
942708931,39.106834,-17.105024,7.592934,0.774223,0.521068,0.428319
942718911,29.085276,-14.446847,5.051338,0.949924,0.684639,0.424856
942728891,15.296570,-6.873278,5.373923,1.032818,0.786328,0.425621
942738871,0.522215,-0.510345,7.182584,1.067930,0.798943,0.467765
942748850,-10.922768,5.521746,16.121611,1.077997,0.707811,0.446677
942758830,-21.087624,12.576603,28.918758,1.006388,0.523550,0.389373
942768809,-30.612705,14.829379,37.292984,0.899915,0.362288,0.338521
942778789,-31.598501,8.588782,41.002686,0.871749,0.257360,0.341545
942788769,-26.356409,1.290476,42.958626,0.890660,0.190403,0.338799
942798749,-21.409924,0.862970,42.444347,0.908450,0.159453,0.335990
942808728,-17.748234,2.272645,38.310528,0.917534,0.156560,0.368440
942818708,-14.421430,1.504490,32.251141,0.939023,0.193824,0.433060
942828688,-10.380042,0.048666,25.724598,0.987373,0.269267,0.491901
942838667,-6.351192,1.593445,21.288212,1.027644,0.343820,0.521469
942848647,-1.613168,4.144319,19.083948,1.028241,0.369797,0.532892
942858627,4.935756,5.736233,19.376431,1.012703,0.346570,0.512408
942878586,18.227814,11.083041,29.369671,0.913602,0.186985,0.370055
942888566,23.164360,9.402050,33.259094,0.881050,0.136347,0.327853
942898549,26.221008,7.312491,35.215206,0.860164,0.119077,0.325567
942908523,25.794899,7.496705,35.380493,0.862106,0.135929,0.360476
942918503,22.013432,9.882345,35.789436,0.886838,0.168974,0.424860
942928483,16.827446,13.325834,38.119869,0.915583,0.198923,0.454401
942938463,13.371174,16.903214,41.700485,0.936054,0.213126,0.458004
942948442,11.264527,20.447926,46.302582,0.920437,0.194597,0.423054
942958422,11.005989,22.710566,51.626114,0.870899,0.159554,0.403414
942968401,15.552387,21.431303,58.002983,0.850800,0.113606,0.392506
942978381,23.687241,16.979294,65.550034,0.847192,0.088869,0.376636
942988361,31.891888,13.376391,71.896927,0.871449,0.080383,0.348080
942998341,38.413158,11.506574,75.169540,0.879886,0.092753,0.329638
943008320,41.449589,11.195305,76.470238,0.870883,0.136241,0.325847
943018300,40.809341,11.639719,77.104965,0.859066,0.202378,0.339663
943028279,38.685783,11.406384,78.707245,0.850199,0.267374,0.339710
943038259,35.358429,9.035892,82.084671,0.866178,0.297928,0.326936
943048239,30.231092,7.465392,87.109451,0.899909,0.297039,0.302437
943058219,25.061256,7.569731,92.936058,0.910407,0.267294,0.289821
943068198,21.288971,6.466967,98.237823,0.889143,0.215030,0.268797
943088157,17.919647,-2.116803,105.282494,0.854075,0.154790,0.252021
943098137,16.321455,-6.135924,108.440414,0.848177,0.146207,0.295034
943108117,14.892778,-9.821306,111.431427,0.851241,0.140776,0.348542
943118096,14.956817,-13.070181,114.517799,0.870948,0.131465,0.384752
943128076,15.180866,-15.058348,117.010834,0.905386,0.094777,0.374329
943138056,15.930863,-15.543493,118.972107,0.976688,0.053859,0.324401
943148035,20.399700,-13.955526,121.549721,1.051927,0.006363,0.275018
943158015,26.336624,-9.571766,125.053925,1.062695,-0.026807,0.277034
943167995,27.180870,-5.174102,127.387672,1.009083,-0.042067,0.326931
943177974,21.746571,-3.952323,128.794693,0.938965,-0.035952,0.384735
943187954,16.814217,-6.168912,130.527267,0.919945,-0.044208,0.428413
943197934,19.792667,-13.156941,131.913651,0.947511,-0.039902,0.394245
943207913,26.196379,-16.667109,136.144592,1.022327,-0.017254,0.354814
943217894,32.848175,-12.034909,143.293701,1.077935,-0.022217,0.315848
943227874,40.549683,-6.887849,150.976761,1.087237,-0.054103,0.330018
943237854,43.445427,-7.625365,159.396515,1.104752,-0.087740,0.342182
943247833,40.976166,-11.931305,169.777100,1.143373,-0.111864,0.360952
943257813,35.116264,-11.900320,183.373093,1.205209,-0.098867,0.373529
943267792,20.856222,-3.910680,200.678589,1.208176,-0.202941,0.345056
943277772,19.931393,-1.655850,208.610703,1.198350,-0.268053,0.373625
943287752,36.625858,-4.443613,202.735107,1.168375,-0.282472,0.360927
943297731,46.619438,-0.157917,194.231232,1.145986,-0.266145,0.292863
943307711,52.467457,0.607051,190.636871,1.148826,-0.241961,0.245349
943317691,60.861263,-7.601041,191.435791,1.176768,-0.235562,0.167990
943327671,72.367401,-13.663931,182.405960,1.145791,-0.235777,0.168700
943337650,76.631683,-15.713967,153.143158,1.096586,-0.284838,0.284978
943347630,74.030128,-24.282799,108.582352,0.989847,-0.168606,0.350324
943357610,78.286598,-32.806835,51.870712,0.926755,0.287189,0.369019
943367589,77.575897,-29.813148,-3.250414,1.014598,0.902297,0.436136
943377569,51.809795,-23.680569,-27.433517,1.184457,1.448753,0.603500
943387548,14.383965,-21.640594,-17.936871,1.275746,1.477873,0.682828
943397528,-16.973129,-5.793196,-15.438244,1.245209,0.977907,0.672974
943407508,-35.788128,11.443683,-35.607761,1.195492,0.504151,0.713879
943417509,-42.053772,12.977199,-61.890121,1.101677,0.163119,0.699168
943427466,-33.069427,13.074666,-89.774422,1.039874,0.018804,0.545776
943437445,-10.831717,19.873808,-114.665085,1.011151,0.027255,0.394494
943447425,17.193901,24.850765,-128.923889,0.941171,0.084543,0.308860
943457405,45.743092,20.943291,-135.760437,0.881089,0.163142,0.307745
943467384,62.543533,14.794748,-141.175262,0.915644,0.278049,0.320338
943477364,59.331223,16.215910,-142.963943,1.013128,0.419916,0.331458
943487344,40.736481,27.704332,-139.779114,1.063592,0.529286,0.337148
943497323,13.239289,42.283886,-133.865768,1.035351,0.560245,0.333209
943507303,-15.610252,52.591927,-128.876434,0.929079,0.504565,0.329258
943517282,-42.480923,54.678776,-124.657570,0.827097,0.406365,0.317341
943537242,-73.472595,39.562595,-119.773918,0.738273,0.184562,0.266529
943547221,-78.666283,31.656015,-119.202469,0.786815,0.095877,0.265958
943557201,-81.790680,26.844620,-119.129715,0.855809,0.018845,0.268667
943567181,-84.458275,25.712330,-119.167191,0.905703,-0.048476,0.275420
943577160,-88.262756,26.303503,-118.649384,0.943927,-0.119719,0.291676
943587140,-92.643166,27.435541,-114.825317,0.984704,-0.192436,0.295982
943597120,-92.356804,28.074120,-106.962692,1.006783,-0.245125,0.264104
943607099,-82.969696,27.669292,-96.761261,1.032919,-0.279548,0.228540
943617079,-65.152206,25.065506,-85.086685,1.017599,-0.305742,0.204284
943627059,-43.294022,18.962702,-74.926590,0.949293,-0.302114,0.217542
943637038,-20.856869,7.257164,-66.577667,0.871446,-0.264391,0.243179
943647018,0.312913,-7.809869,-60.292240,0.793403,-0.209403,0.268347
943656998,15.799801,-22.771147,-55.816845,0.761353,-0.163478,0.315452
943666977,23.471466,-36.293400,-51.566750,0.767521,-0.141731,0.339978
943676957,28.658245,-44.403290,-44.873985,0.809572,-0.102719,0.352130
943686937,33.765232,-47.650570,-33.027954,0.860534,-0.036639,0.369284
943696916,37.762806,-49.020782,-19.837477,0.912249,-0.000097,0.368541
943706896,39.967098,-49.692184,-9.902241,0.925199,0.056686,0.344537
943716875,36.126553,-47.293625,-3.194299,0.891070,0.103958,0.320553
943726855,26.062510,-42.603394,-1.276498,0.883200,0.139999,0.342948
943736836,12.203681,-37.844391,-1.435661,0.901556,0.186217,0.371121
943746816,-3.144972,-30.079561,0.748479,0.917735,0.214624,0.410656
943756796,-18.018536,-20.443539,3.872478,0.896348,0.192761,0.479464
943766775,-34.611919,-14.558790,7.026759,0.853422,0.182964,0.525097
943776755,-48.195972,-14.907262,8.803848,0.828170,0.183766,0.499852
943786735,-52.815014,-18.356291,10.812522,0.830194,0.187345,0.435177
943796714,-46.651836,-21.531782,14.693056,0.872055,0.180449,0.378506
943806694,-29.974201,-21.577768,18.300083,0.907682,0.103155,0.339630
943816674,-9.316200,-18.736679,19.290012,0.942832,0.028442,0.352608
943826654,8.943466,-16.219091,21.987707,0.941030,0.000812,0.314235
943836633,24.007107,-11.747561,23.138859,0.946334,0.035722,0.256027
943846613,37.349834,-6.453908,21.960733,0.952707,0.088238,0.209025
943856593,49.428333,-3.563209,18.884668,0.946899,0.150646,0.220827
943866572,50.117477,-3.040793,15.061102,0.955224,0.188412,0.310512
943876552,38.185009,-4.823668,17.134192,0.937926,0.141896,0.349749
943886531,28.067036,-6.959325,28.138950,0.884654,0.053586,0.327635
943896511,26.085438,-10.811716,45.457191,0.817562,-0.064635,0.276618
943906491,28.905777,-18.737976,64.011703,0.738472,-0.180759,0.236274
943916470,28.047350,-28.611385,76.606865,0.675895,-0.236993,0.287588
943926450,13.578008,-34.519188,80.681335,0.713846,-0.187613,0.409316
943936430,-15.030327,-31.509586,79.656395,0.838301,-0.060289,0.476899
943946431,-37.111916,-26.644159,74.005524,0.964875,0.033112,0.376794
943956388,-34.010834,-26.124313,65.196091,1.090349,0.098187,0.228506
943966367,-9.621626,-23.858467,58.382122,1.180070,0.196245,0.221989
943976347,17.398890,-14.680950,51.369190,1.184804,0.329938,0.416761
943986327,32.543484,-2.505096,41.625881,1.128455,0.428723,0.617906
943996306,41.050976,3.139132,33.175777,1.057693,0.469275,0.668031
944006286,49.263092,4.976028,29.375107,0.987195,0.456503,0.639811
944016266,53.629528,7.866138,28.869139,0.952372,0.438865,0.577539
944026245,50.236340,12.989776,30.003859,0.957033,0.444973,0.476264
944036225,42.716850,18.950409,32.368351,0.988844,0.436331,0.355148
944046205,34.434490,23.390627,33.806690,0.988772,0.397556,0.239587
944056184,25.439817,20.128494,31.064835,0.947363,0.345897,0.171013
944066164,14.934787,10.945545,23.864262,0.941183,0.316279,0.142792
944076143,4.659101,2.858476,17.406569,0.944328,0.292902,0.137769
944086123,-2.921103,-1.413486,13.942310,0.959995,0.292874,0.159365
944096103,-8.549030,-3.011863,11.907316,0.964833,0.313010,0.197188
944106082,-14.056261,-2.879869,8.306719,0.983039,0.374735,0.253879
944116062,-19.209980,0.472990,3.472990,0.989575,0.466540,0.295477
944126042,-20.544334,4.545187,-0.635787,0.941251,0.565066,0.310278
944136021,-20.099916,6.174495,-6.541316,0.859325,0.620835,0.361224
944146001,-18.847954,2.193443,-17.672483,0.841825,0.627607,0.376819
944155980,-15.062729,-3.102499,-28.186161,0.940678,0.632365,0.349415
944165960,-10.465844,-2.628358,-34.668213,1.050483,0.625257,0.314028
944175940,-11.599912,2.913365,-41.343750,1.077443,0.632899,0.296184
944185920,-20.271160,6.881166,-48.497204,1.019662,0.632075,0.298416
944195899,-30.846197,5.490488,-53.417652,0.962094,0.593257,0.288526
944205879,-37.868675,1.539099,-55.423382,0.937154,0.509489,0.273778
944215858,-44.625069,-2.111672,-58.779587,0.929702,0.409888,0.282740
944225838,-55.077572,-5.362048,-65.533493,0.960793,0.351187,0.318693
944235818,-67.127548,-6.968630,-74.253197,1.054633,0.361718,0.322063
944245798,-71.700165,-4.021820,-83.410362,1.114223,0.377999,0.296481
944255777,-61.981667,3.001227,-92.556747,1.052102,0.388786,0.281506
944265757,-37.695980,8.687706,-100.317268,0.911800,0.416858,0.311619
944275738,-8.888982,8.787226,-103.379417,0.807881,0.452882,0.326972
944285718,13.583814,5.326077,-102.176743,0.772077,0.498898,0.315362
944295697,22.048100,0.953297,-100.062729,0.806870,0.550309,0.300042
944305677,16.736855,-7.862246,-97.881363,0.906604,0.606932,0.227001
944315657,-0.084545,-16.416815,-97.650948,1.080086,0.666443,0.167468
944325636,-23.199810,-16.487198,-101.279076,1.164934,0.723179,0.091603
944335616,-44.918488,-8.146082,-110.000061,1.019278,0.741405,0.153287
944345596,-62.205078,-6.237382,-118.575363,0.806747,0.704385,0.306076
944355575,-74.968887,-8.842924,-118.477036,0.710694,0.592633,0.378812
944365555,-78.175598,-9.042843,-109.577362,0.672039,0.382997,0.362596
944375534,-76.126007,-9.248751,-95.332550,0.686450,0.174926,0.354248
944385514,-72.564781,-12.761476,-81.806381,0.793001,0.010381,0.316827
944395494,-67.649963,-15.651726,-74.226768,1.022968,-0.058839,0.271366
944405474,-60.012695,-10.325168,-75.666649,1.191164,-0.008435,0.206968
944415453,-43.572224,0.069493,-84.173538,1.133621,0.115994,0.221176
944425433,-17.994041,6.590354,-90.959579,0.890021,0.263716,0.341593
944435413,11.654291,5.769302,-89.114807,0.671021,0.349745,0.437793
944445392,32.856621,2.207119,-79.704453,0.579717,0.382411,0.481114
944455372,36.508553,-1.281916,-69.365570,0.628654,0.400142,0.472615
944465352,24.315475,-1.974494,-62.559181,0.790692,0.433077,0.440079
944475331,5.814385,3.485368,-61.930252,0.996748,0.507187,0.357593
944485309,-10.049239,11.206758,-67.003227,1.127678,0.581312,0.334922
944495289,-18.506285,20.042545,-73.404297,1.051160,0.636890,0.389066
944505269,-15.485047,24.495544,-77.878723,0.836255,0.623889,0.479314
944515249,-6.000206,20.325640,-79.131348,0.689304,0.563765,0.553003
944525228,-0.145414,17.283295,-77.589569,0.685782,0.500529,0.565084
944535208,3.054919,20.035759,-72.786606,0.736857,0.438202,0.503844
944545188,9.106415,24.848986,-67.324600,0.789545,0.428966,0.419182
944555167,18.342503,27.654148,-64.535721,0.795724,0.474987,0.325658
944565147,25.803528,26.698948,-66.300743,0.807800,0.559859,0.282419
944575127,22.659494,23.536928,-70.465401,0.784903,0.610848,0.296826
944585106,11.207794,21.421764,-74.006393,0.732551,0.636370,0.326773
944595086,1.777540,21.876381,-74.690926,0.697721,0.619245,0.374313
944605065,-2.632399,24.692692,-72.903435,0.704995,0.574457,0.437285
944615045,-3.357286,30.711273,-68.755821,0.732920,0.537000,0.543860
944625025,-4.027012,40.778587,-63.081028,0.773660,0.483060,0.626354
944635005,-2.580611,50.153084,-58.202682,0.807112,0.436345,0.625729
944644984,11.379281,56.483913,-56.966881,0.828289,0.416742,0.568159
944654964,30.616219,61.009941,-59.885124,0.808645,0.467122,0.518346
944664944,44.218349,64.336838,-62.971985,0.733961,0.512175,0.500394
944674923,54.543484,68.331696,-64.340279,0.667860,0.561675,0.407127
944684903,64.434769,74.312225,-62.237038,0.610325,0.656425,0.393410
944694883,67.939667,82.618484,-55.862762,0.548270,0.769638,0.420650
944704862,54.727058,90.448509,-48.146568,0.481744,0.848573,0.500275
944714842,22.244179,94.387108,-39.653408,0.438941,0.825929,0.575078
944724821,-18.262936,93.688965,-27.673525,0.492560,0.699956,0.576850
944734801,-51.477200,91.943367,-10.689323,0.622787,0.510785,0.438459
944744781,-61.934357,92.597458,10.449598,0.716253,0.293674,0.228095
944754760,-47.747009,92.467224,36.164066,0.662946,0.069343,0.066699
944764740,-18.843430,88.685249,61.887081,0.581632,-0.084297,0.095042
944774720,-6.470200,80.041138,94.059280,0.495294,-0.284665,0.256463
944784699,-21.825844,53.225262,137.065399,0.341897,-0.511276,0.154280
944794680,-31.371046,15.350060,180.851013,0.257135,-0.632272,-0.061838
944804660,-8.567791,-18.693401,222.521683,0.281719,-0.608217,-0.102759
944814640,24.413120,-44.971527,261.816101,0.393348,-0.457732,0.047804
944824620,36.668137,-62.327538,295.458099,0.545534,-0.308603,0.233919
944834599,22.848011,-72.058052,320.638977,0.687486,-0.210730,0.338912
944844579,-2.510376,-78.814598,339.098633,0.822738,-0.163735,0.304016
944854558,-17.885868,-86.798279,353.160889,1.001109,-0.166020,0.211710
944864538,-17.186432,-95.643036,365.440887,1.278111,-0.210180,0.122991
944874518,-6.970343,-99.658203,374.178101,1.554071,-0.262623,0.026558
944884497,5.237307,-88.565056,373.458130,1.658016,-0.286778,0.027221
944894477,10.202815,-69.559875,362.729889,1.664107,-0.315136,0.181145
944904457,23.337410,-64.850098,343.246277,1.653970,-0.302965,0.173293
944914436,55.290421,-66.781960,325.914307,1.619741,-0.212394,0.113995
944924416,94.324356,-67.055611,312.413116,1.560368,-0.077719,0.156231
944934396,135.151062,-74.686554,296.333282,1.531874,0.108261,0.297632
944944375,153.280731,-84.026276,286.920380,1.563143,0.382857,0.312466
944954355,150.427505,-89.008270,270.737793,1.578063,0.628371,0.253899
944964335,136.357483,-96.351135,212.597733,1.810989,1.088065,0.238985
944974314,96.098778,-101.333633,99.405090,1.933429,1.765436,0.286776
944984294,23.493521,-71.479660,-24.343998,2.025269,2.527839,0.545880
944994274,-16.576988,-27.480732,-51.606010,2.073595,3.299965,1.016746
945004261,-8.219882,-6.648706,-3.462306,1.638623,2.305846,1.129956
945014232,-20.542284,2.654840,-2.773170,1.588490,1.440210,1.064356
945024211,-27.219965,0.910738,-18.366100,1.475589,0.932818,0.910874
945064130,-160.611832,98.828896,-140.277573,0.650300,0.282450,0.495884
945074109,-177.861679,30.544544,-126.040329,0.720212,-0.146427,-0.363810
945084089,-119.816216,-10.534907,-93.349976,1.044778,-0.648782,-0.982691
945094069,-13.314098,-13.192852,-43.556625,1.345899,-1.134539,-1.016928
945104048,69.289948,-9.597266,-0.302603,1.292817,-1.629247,-0.371455
945114028,52.642372,3.727419,-48.767616,0.753829,-1.719991,0.290544
945124008,-20.503000,4.759050,-173.219177,0.658773,-0.536543,0.316950
945133987,-72.084030,-16.828224,-234.406586,0.622964,0.694466,0.268446
945143967,-101.572151,-24.063406,-218.479568,0.785288,1.336806,0.373272
945153947,-88.415062,-8.531835,-166.426300,0.882116,1.383213,0.370463
945163926,-49.097996,19.850857,-126.297058,0.704421,0.959565,0.490156
945173906,-48.195435,21.845320,-108.841408,0.598442,0.598884,0.789525
945183886,-74.968292,-6.972418,-103.574234,0.595036,0.291943,0.658626
945193865,-85.849922,-24.956284,-116.136192,0.893524,0.007585,0.458041
945203845,-88.118904,-27.069695,-134.400650,1.328263,-0.231125,0.292900
945213825,-91.667259,-13.670281,-155.288101,1.505644,-0.448497,0.074427
945223804,-85.200867,21.604462,-173.625122,1.283099,-0.367999,-0.023856
945233784,-55.708885,39.937450,-177.152435,0.981661,-0.151601,0.239164
945243764,-14.290873,28.955019,-172.354431,0.811034,0.090021,0.492149
945253744,17.956179,19.248930,-167.634186,0.777498,0.320953,0.546031
945263723,40.412045,13.767083,-157.837326,0.759045,0.440130,0.539552
945273703,53.388813,8.856565,-151.260223,0.806664,0.507378,0.484868
945283683,49.096424,5.381346,-154.168350,0.908046,0.524455,0.443831
945293662,28.972816,4.794596,-160.214447,1.016698,0.511865,0.343494
945303642,6.694912,11.153232,-164.866394,1.060110,0.539442,0.245856
945313621,-11.176378,20.532944,-165.364471,0.991152,0.594584,0.250609
945323603,-25.966286,23.230640,-163.413773,0.898079,0.630455,0.325353
945333582,-36.915791,20.807417,-160.547180,0.838990,0.593383,0.396633
945343562,-45.023987,19.078007,-156.078461,0.833582,0.535150,0.426263
945353542,-48.959358,19.985176,-149.930206,0.845301,0.441951,0.414163
945363521,-48.235222,24.968277,-144.091431,0.854887,0.380117,0.394590
945373500,-45.171021,33.153770,-137.961273,0.840889,0.334347,0.400183
945383480,-38.850040,40.445026,-132.653900,0.813116,0.311209,0.414440
945393460,-29.123880,45.929024,-128.152191,0.782626,0.312119,0.430257
945403440,-17.399475,49.171417,-123.336967,0.738545,0.336801,0.433415
945413420,-5.489382,48.533092,-119.319809,0.698501,0.384028,0.414605
945423399,1.850478,45.153580,-116.694923,0.690491,0.432038,0.397463
945433379,4.964690,43.202438,-113.888809,0.713820,0.461106,0.325476
945443358,11.787016,43.901474,-110.937798,0.721834,0.486636,0.274210
945453338,16.252377,46.588085,-106.616264,0.681235,0.531425,0.287302
945463318,5.101685,46.940189,-100.536583,0.592630,0.584210,0.365675
945473297,-13.767717,40.483585,-96.506180,0.558538,0.615893,0.407148
945483277,-34.015079,34.675064,-90.067871,0.583462,0.578494,0.366147
945493257,-48.565136,31.464872,-75.888603,0.557328,0.459887,0.305324
945503236,-48.166546,24.820459,-59.074406,0.504676,0.348456,0.244079
945513216,-36.909515,13.900079,-41.140232,0.428665,0.225556,0.190061
945523196,-20.569897,-1.159002,-23.501829,0.358373,0.114218,0.159999
945533189,-3.381488,-19.229506,-4.459675,0.331819,0.046025,0.152434
945543154,9.786768,-37.812542,18.030735,0.366419,0.016617,0.179958
945553133,16.646919,-53.209320,41.740196,0.425533,0.013780,0.226801
945563113,19.574497,-63.408310,64.791389,0.501714,0.031592,0.255590
945573093,22.326237,-67.833092,84.827957,0.579316,0.051255,0.287652
945583072,25.828054,-67.354103,101.596237,0.644413,0.073353,0.328187
945593052,30.038811,-64.175850,115.478851,0.718498,0.122978,0.380274
945613011,41.731159,-53.615372,143.886093,0.895015,0.290405,0.417376
945622991,47.228733,-47.495735,155.188171,0.927119,0.336402,0.440158
945632971,48.105705,-43.046719,160.405914,0.924654,0.385819,0.473543
945642950,44.467651,-40.740593,159.327942,0.907710,0.436407,0.502090
945652930,39.658337,-39.001495,154.285263,0.889107,0.533633,0.536035
945662910,35.208824,-36.810783,147.497528,0.879410,0.636442,0.585167
945672889,36.020317,-34.863483,141.471313,0.917359,0.656173,0.581351
945682869,46.325153,-31.826256,140.362411,0.966031,0.652672,0.587765
945692849,64.228127,-27.604740,142.707275,1.002918,0.586904,0.567118
945702828,85.624969,-24.031578,145.853928,1.049437,0.497019,0.545221
945712808,104.402939,-20.937027,148.871246,1.074872,0.491150,0.534856
945722788,119.265114,-16.896650,147.092850,1.125143,0.469473,0.380781
945732768,135.615784,-5.908121,138.782104,1.198314,0.544471,0.327168
945742747,140.367401,13.502758,125.259659,1.260923,0.690444,0.258540
945752727,126.312447,33.820732,101.868172,1.123308,0.889908,0.299736
945762707,95.538269,39.020157,67.120628,0.848950,1.038021,0.375327
945772686,57.973461,27.935444,31.934797,0.673273,1.105199,0.506140
945782666,25.395193,13.703157,5.057789,0.697116,1.123752,0.473856
945792645,15.189320,0.683469,-11.106747,0.786643,1.118853,0.301468
945802625,18.283558,-7.182628,-22.559954,0.902738,1.044414,0.178969
945812604,7.828497,-6.851086,-25.554871,0.905855,0.924282,0.121621
945822584,-16.296038,-2.962841,-21.238546,0.857762,0.782168,0.141097
945832564,-40.878925,-0.269310,-14.250478,0.804373,0.640970,0.194701
945842543,-57.629406,-0.502228,-5.456232,0.781191,0.447656,0.286318
945852523,-64.136765,-0.692331,3.083404,0.829086,0.237820,0.355106
945862504,-61.050568,3.199912,7.231605,0.904056,0.063499,0.447484
945872484,-53.872631,4.750322,3.033294,0.925897,0.027910,0.515853
945882463,-41.969727,-1.686781,-9.910822,0.911206,0.131958,0.471991
945892443,-20.579062,-8.925936,-28.423370,0.948195,0.378062,0.357361
945912403,17.685959,4.372787,-48.094803,1.015249,0.630850,0.223867
945922382,20.112028,18.107962,-43.917953,0.913820,0.636979,0.247950
945932362,4.375929,24.543022,-38.044655,0.811098,0.594428,0.311417
945942341,-22.189726,23.039354,-33.834587,0.736470,0.460560,0.353947
945952321,-46.397114,19.120884,-31.662266,0.727899,0.330087,0.401823
945962301,-66.040253,15.234047,-29.201685,0.768104,0.201426,0.409220
945972280,-78.021606,11.432964,-24.879274,0.863112,0.139364,0.422178
945982262,-77.157570,10.073874,-18.666250,0.924924,0.046323,0.344337
945992239,-57.216942,9.823318,-13.287394,0.898994,0.035928,0.298865
946002219,-25.243708,-0.718285,-16.019596,0.793829,0.182810,0.297991
946012199,8.436638,-16.498001,-34.038586,0.868761,0.483985,0.396057
946022179,30.178829,-12.085740,-59.185349,1.137217,0.809979,0.600348
946032159,26.029247,19.979698,-71.739151,1.234500,0.888816,0.752003
946042138,3.886968,49.511127,-72.114494,1.032502,0.718546,0.701368
946052118,-15.099092,53.881329,-69.557838,0.799966,0.622546,0.623094
946062097,-36.967384,40.393379,-64.919685,0.662401,0.566792,0.442457
946072075,-45.281548,22.452305,-59.774734,0.612322,0.457624,0.239166
946082055,-35.731178,12.950397,-50.105606,0.703494,0.367405,0.138870
946092035,-32.544525,16.499615,-34.906372,0.746385,0.341083,0.271581
946102014,-55.650730,25.100269,-22.761454,0.742755,0.273316,0.309413
946111994,-75.559738,28.624516,-18.794945,0.657322,0.090489,0.240906
946121974,-71.630554,25.737555,-18.671394,0.603477,-0.027508,0.214714
946131953,-56.104824,13.484660,-13.623123,0.614499,-0.119879,0.233914
946141933,-35.754089,-1.902660,-1.541607,0.683876,-0.169871,0.283357
946151913,-14.997257,-14.119785,14.422294,0.744317,-0.158632,0.323984
946161893,5.436231,-20.740395,29.526745,0.773774,-0.083310,0.336222
946171872,23.960676,-21.185814,41.610256,0.765156,0.006599,0.324392
946181852,39.696304,-20.643675,48.749954,0.747117,0.108453,0.327128
946191832,49.213036,-22.643862,52.457668,0.778951,0.215383,0.389157
946201811,48.247410,-23.064358,53.593521,0.843283,0.353683,0.431235
946211791,40.144257,-15.162616,52.188835,0.871373,0.491993,0.473194
946221771,26.884777,-3.329538,53.721111,0.821100,0.523270,0.512738
946231750,14.248592,-2.541888,62.239033,0.766328,0.413363,0.492043
946241730,15.453713,-10.902216,74.186066,0.769826,0.283887,0.417554
946251710,33.645981,-18.615942,79.206009,0.836758,0.226150,0.358169
946261689,56.042118,-23.026365,69.663231,0.901593,0.304636,0.325837
946271669,71.142769,-24.366640,47.478165,0.921966,0.501645,0.273628
946281648,72.192360,-21.489862,20.079563,0.909551,0.773351,0.296086
946291628,57.559956,-17.386360,-4.610153,0.890644,1.059961,0.388481
946301608,38.748791,-14.203433,-24.804192,0.956832,1.361985,0.476174
946311587,20.790560,-4.510453,-36.004105,1.106477,1.606075,0.540120
946321567,-16.383196,12.752119,-34.847366,1.101936,1.534926,0.532461
946331547,-74.873863,24.716040,-32.538853,0.932624,1.257655,0.460683
946341526,-135.128250,27.129385,-32.422821,0.794523,0.881043,0.318620
946351506,-171.992493,23.323847,-24.479004,0.658906,0.416000,0.098464
946361486,-157.854477,12.888199,-10.497706,0.565582,-0.005021,0.009673
946371465,-106.136124,-2.045576,4.646661,0.545510,-0.263312,0.086021
946381445,-57.296741,-14.246491,12.810352,0.661825,-0.347035,0.261632
946391426,-33.876785,-14.465028,9.427301,0.784558,-0.421791,0.396055
946401406,-22.043987,-9.938745,-5.066492,0.816758,-0.410386,0.415581
946411385,3.847716,-12.267372,-25.104567,0.903036,-0.146609,0.413207
946421365,23.103241,-16.932724,-30.285835,0.980299,0.141856,0.451788
946431345,15.952135,-15.464624,-22.600819,0.902299,0.293035,0.440778
946441324,6.080242,-15.040644,-16.562546,0.818904,0.415891,0.453445
946451304,-4.079755,-19.273767,-4.886924,0.825298,0.464081,0.446399
946461284,-18.222626,-17.279215,11.410950,0.871455,0.395230,0.370606
946471263,-30.021347,-7.883651,20.829504,0.895039,0.309101,0.328193
946481243,-39.365265,-0.211371,24.339003,0.912720,0.219113,0.353486
946491223,-45.536625,1.801275,24.558460,0.924980,0.136844,0.380555
946501202,-44.577709,-1.919781,21.197493,0.936381,0.110648,0.424903
946511182,-39.869888,-7.834107,14.725354,0.989885,0.128572,0.470211
946521162,-34.360725,-12.140283,7.494518,1.056723,0.137182,0.497158
946531141,-29.319530,-9.947072,1.891735,1.066824,0.122363,0.472999
946541121,-23.892059,-2.333197,-0.150848,0.981533,0.104282,0.444230
946551101,-18.097891,4.652414,3.607028,0.874476,0.093107,0.424784
946561080,-13.040138,7.847219,11.967319,0.817382,0.093275,0.408253
946571060,-5.733799,5.847305,19.841904,0.830156,0.085466,0.380568
946581040,2.895150,1.344842,25.781712,0.926833,0.063800,0.359749
946591019,8.422648,-1.860638,28.870892,1.052332,0.021561,0.357461
946601006,11.174795,-2.965497,28.395914,1.133739,-0.015803,0.358837
946610977,13.782339,-1.733478,25.002634,1.129152,-0.012449,0.373632
946620957,17.247343,-1.009366,20.003990,1.057034,0.035749,0.411041
946630937,21.486309,-3.479845,15.968945,0.963711,0.109393,0.445459
946640916,24.903822,-7.708606,13.633842,0.913479,0.206366,0.464622
946650896,25.304760,-10.829119,13.032677,0.931740,0.287012,0.484944
946660876,21.919821,-11.729629,13.660347,1.008460,0.355207,0.465929
946670855,16.542624,-7.526604,15.214893,1.099157,0.388265,0.441007
946680835,9.015802,2.476916,16.116156,1.106773,0.373344,0.358343
946690815,5.424240,18.064419,16.688145,1.019666,0.337359,0.297416
946700794,2.538751,28.921696,18.392769,0.890420,0.280017,0.337691
946710774,-4.248349,26.762691,23.109362,0.827204,0.191496,0.343810
946720754,-10.916252,19.169765,33.556881,0.821328,0.038641,0.305046
946730733,-9.141750,13.532293,46.549065,0.875383,-0.122342,0.250212
946740713,-0.708924,15.999919,61.676170,0.948136,-0.260736,0.211743
946750693,8.223861,21.331558,79.851593,0.929765,-0.395263,0.211606
946760672,17.210186,16.135580,96.919693,0.846356,-0.537941,0.229715
946770652,31.634230,-1.127630,112.171989,0.764680,-0.611320,0.226323
946780632,59.333897,-20.706106,124.162628,0.717855,-0.568957,0.218214
946790611,94.352966,-34.178951,128.351227,0.726841,-0.375753,0.245993
946800591,120.525841,-40.288925,126.731644,0.815425,-0.102737,0.230579
946810570,131.612274,-42.948631,122.673973,0.939858,0.151237,0.206482
946820550,125.308876,-44.342445,115.430107,1.083473,0.426314,0.234297
946830530,104.985596,-45.247719,109.505280,1.271570,0.685745,0.218198
946840510,82.628754,-41.867310,106.162895,1.417758,0.907229,0.138392
946850489,59.470222,-30.019611,99.283722,1.367606,1.013523,0.136095
946860469,32.983715,-18.976015,80.615990,1.115378,0.968134,0.185575
946870448,14.451676,-24.151402,41.795769,0.908939,1.016577,0.293912
946880428,2.040931,-43.997822,-14.255795,0.814366,1.354178,0.375888
946890407,-25.459978,-56.977432,-75.558640,0.942329,1.851427,0.592463
946900387,-93.196770,-36.292976,-100.296837,1.181852,1.642459,0.769472
946910367,-161.855560,-5.577239,-77.376396,1.079887,1.097025,0.496066
946920347,-172.550140,-8.873251,-54.410908,1.000106,0.599411,0.164186
946930327,-147.348831,-25.576258,-45.969482,0.981095,0.155660,-0.046532
946940307,-120.857826,-30.413427,-49.472095,0.934948,-0.061045,0.033027
946950287,-120.708801,-22.742992,-61.975235,0.899944,-0.183198,0.283349
946960267,-140.498825,-13.359934,-78.903145,0.823636,-0.139284,0.373021
946970246,-148.835236,-15.386543,-101.437859,0.784073,0.046012,0.260532
946980226,-125.221596,-23.219101,-124.070816,0.816692,0.164336,0.107301
946990205,-77.993713,-26.037777,-134.611603,0.824269,0.322319,0.112501
947000185,-35.586506,-28.930647,-129.275970,0.827659,0.548624,0.199372
947010165,-16.822002,-33.154167,-119.811966,0.911938,0.722169,0.266372
947020145,-24.611238,-36.103310,-116.296631,0.969276,0.750446,0.251479
947030124,-62.774498,-38.451290,-119.212143,1.027040,0.733365,0.131160
947040104,-109.473831,-37.525261,-126.167969,1.057398,0.630452,-0.010111
947050084,-149.282242,-27.040777,-133.980499,1.077797,0.742164,0.084959
947060063,-186.493561,-17.759274,-138.382568,1.064127,0.733772,0.135476
947070043,-201.837631,-15.588598,-142.200867,1.044296,0.666072,0.129118
947080023,-199.270874,-15.829866,-144.635818,1.028995,0.567966,0.172697
947090002,-189.795898,-19.316435,-146.451111,1.007327,0.436789,0.175542
947099982,-178.004974,-22.628820,-148.729568,1.010354,0.338366,0.135685
947109961,-166.231537,-22.152803,-150.467285,1.020132,0.298424,0.084067
947119941,-136.760468,-17.534225,-151.621460,1.037451,-0.117144,-0.225157
947129921,-49.971268,-9.612741,-151.316132,0.781455,-0.100813,0.139045
947139899,-28.547592,-18.075556,-158.123886,0.833497,0.328452,0.588824
947149879,-31.549355,-40.495319,-170.622818,0.899183,0.409609,0.266886
947159858,-13.310350,-41.515362,-179.911179,1.041078,0.681657,0.210578
947169838,-33.142357,-37.138477,-175.384079,1.074110,0.764218,0.198175
947179818,-67.543358,-32.804047,-169.736282,1.066910,0.826744,0.217053
947189797,-104.187180,-30.113991,-160.951431,1.049134,0.754646,0.172377
947199777,-130.791092,-25.693501,-153.077072,1.087783,0.726372,0.143498
947209757,-153.554047,-19.070086,-147.895142,1.071194,0.665981,0.154382
947219736,-173.979492,-12.558105,-141.475830,1.035080,0.516309,0.150343
947229716,-182.880325,-8.988575,-135.332809,0.987018,0.339592,0.115932
947239695,-174.508759,-11.127306,-134.254608,0.930039,0.134528,0.076175
947249675,-156.983612,-14.410990,-135.846268,0.919110,0.016648,0.075902
947259655,-141.067612,-16.983606,-134.332672,0.852054,-0.136040,0.167143
947269635,-127.740036,-22.444145,-128.421432,0.802397,-0.193496,0.305769
947279614,-117.284225,-31.220924,-119.767380,0.768548,-0.169543,0.415669
947289594,-106.095825,-39.132465,-110.808617,0.722151,-0.102746,0.450149
947299574,-89.441544,-45.462715,-100.999313,0.696152,0.002832,0.440840
947309553,-69.868080,-51.794357,-87.264221,0.668267,0.030702,0.424756
947319533,-48.996914,-57.881443,-70.884094,0.637778,0.024691,0.414825
947329513,-28.148769,-63.118454,-55.370522,0.626975,-0.016455,0.428049
947339492,-8.910473,-70.478226,-39.130501,0.618821,-0.022636,0.509410
947349472,1.034885,-79.625587,-18.972023,0.640828,0.020213,0.546083
947359452,-0.930695,-88.684502,3.545211,0.550106,-0.026208,0.390374
947369431,-3.202281,-101.999680,19.282864,0.461562,-0.021690,0.263557
947379411,9.041376,-115.221207,29.042351,0.569229,0.067894,0.224726
947389391,29.568871,-117.795242,37.143631,0.759743,0.226950,0.258761
947399370,36.212852,-107.404877,41.126907,0.920777,0.403478,0.410168
947409350,22.030838,-97.162865,36.632523,0.929172,0.612539,0.514897
947419330,7.216806,-96.726364,18.474579,0.793046,0.884380,0.496291
947429309,-5.341283,-100.016617,-3.814157,0.692271,1.082271,0.555491
947439289,-23.338242,-96.690735,-12.196595,0.658967,1.112931,0.614661
947449269,-41.694489,-84.630318,-4.063537,0.696902,1.014773,0.655029
947459250,-63.278988,-69.414719,17.350784,0.763281,0.811881,0.689620
947469229,-86.831802,-58.062508,43.135876,0.703770,0.540910,0.579322
947479209,-98.215042,-57.389488,57.122482,0.537714,0.334649,0.417565
947489189,-91.803444,-71.149445,47.131035,0.380383,0.382727,0.398776
947499168,-64.136581,-100.451447,4.188760,0.362154,0.909099,0.464308
947509148,-16.031351,-96.225639,-79.081390,1.213753,1.870921,0.775239
947519128,-45.368362,-10.130167,-106.552994,2.017092,1.663053,1.153436
947529107,-148.374115,65.107117,-53.971027,1.163816,0.862689,0.618367
947539087,-172.624207,54.376312,-28.458815,0.619765,0.196964,-0.013951
947549067,-113.693130,1.578619,-20.246639,0.467076,-0.143511,-0.243928
947559046,-52.807003,-46.352562,-9.257550,0.502834,-0.213216,-0.024493
947569026,-33.366993,-73.221909,2.079176,0.562456,-0.177111,0.373768
947579014,-48.702805,-82.923172,9.237757,0.635918,-0.030215,0.637517
947588985,-72.886627,-76.269012,12.335446,0.770239,0.186860,0.633328
947598965,-84.964272,-57.783756,10.916992,0.897911,0.353311,0.606353
947608945,-85.363052,-40.275040,3.846535,0.988813,0.509407,0.616027
947618924,-83.132721,-29.128801,-1.429804,1.085543,0.492277,0.681825
947628904,-75.023941,-17.480148,2.829653,1.096183,0.293659,0.620984
947638884,-57.567223,-10.359928,8.841977,0.991325,0.096177,0.518667
947648863,-40.631001,-13.880796,9.373751,0.934666,0.010999,0.472035
947658843,-28.847977,-22.226431,7.679598,0.923779,0.035385,0.428637
947668821,-18.327053,-30.720848,5.632383,0.936379,0.135096,0.405926
947678801,-11.318691,-35.243568,6.512316,0.961952,0.239562,0.394303
947688781,-13.953852,-34.663506,10.904600,0.949330,0.266731,0.390895
947698760,-22.488600,-31.765976,16.260548,0.920577,0.244236,0.398749
947708740,-36.051380,-28.880131,22.935633,0.907232,0.185491,0.412580
947718720,-48.857704,-27.168007,29.539078,0.894083,0.111128,0.427762
947728699,-57.065811,-26.492538,34.702099,0.906841,0.059001,0.452708
947738679,-61.757618,-23.793697,38.128151,0.905869,-0.003391,0.487041
947748659,-59.672432,-21.164448,40.407940,0.885695,-0.028741,0.492186
947758638,-49.460274,-22.287811,42.568398,0.887519,-0.044893,0.483013
947768618,-36.683296,-23.141985,46.512856,0.920951,-0.048403,0.453087
947778598,-26.139471,-21.263268,52.039627,0.937221,-0.060723,0.442660
947788577,-16.633751,-19.852131,57.867237,0.920032,-0.075696,0.438401
947798557,-6.161269,-19.644638,64.200745,0.913086,-0.077480,0.460704
947808537,1.015045,-20.230146,71.814758,0.889472,-0.088448,0.439871
947818516,2.885232,-21.715136,77.530388,0.841067,-0.067567,0.416240
947828496,6.024378,-22.893566,78.893440,0.836374,0.022353,0.507564
947838476,9.589691,-25.124763,79.303207,0.886531,0.109360,0.562788
947848455,8.370852,-26.134382,82.048058,0.949600,0.162591,0.567626
947858435,0.685463,-21.233732,86.477898,0.998146,0.167632,0.499045
947868415,-5.278356,-14.495730,92.125000,1.005750,0.149949,0.426442
947878394,-7.495384,-10.217558,98.228348,1.019911,0.100007,0.390367
947888374,-6.969339,-9.356260,103.784256,1.010640,0.044505,0.380179
947898353,-4.610842,-13.890866,106.485474,0.974512,-0.014127,0.373191
947908333,0.212069,-21.663265,106.497849,0.941672,-0.047645,0.357840
947918313,5.726322,-27.932285,106.419189,0.941337,-0.047484,0.356192
947928293,10.538195,-29.618340,107.606384,0.962647,-0.035037,0.352190
947938272,13.163764,-28.328384,110.330139,0.989032,-0.013273,0.354867
947948252,13.806015,-27.365099,113.852303,1.003910,0.005204,0.335896
947958232,12.699751,-26.244539,117.171143,1.017961,0.016993,0.319024
947968211,9.283798,-24.706722,120.102249,0.993321,0.015852,0.310577
947978191,4.884198,-23.716755,121.330887,0.950081,0.009587,0.311526
947988172,0.425823,-23.976994,120.982605,0.921668,0.016254,0.337121
947998151,-2.122115,-26.282017,120.355309,0.929625,0.034116,0.383234
948008131,-2.155276,-28.955708,121.907433,0.990668,0.046400,0.421123
948018111,-8.537720,-25.665035,129.516373,1.086166,0.036347,0.422857
948028090,-19.278643,-15.705756,141.077789,1.189385,0.005826,0.397932
948038070,-16.926165,-8.609878,148.800980,1.240411,-0.097491,0.393093
948048050,-3.066566,-6.625848,151.469742,1.210157,-0.205393,0.377732
948058030,5.284611,-6.178634,152.650269,1.178591,-0.239656,0.362052
948068009,8.034027,-6.901339,153.115799,1.177492,-0.223143,0.371596
948077989,6.621589,-7.736135,151.746292,1.200915,-0.186504,0.407304
948087968,4.680208,-9.735682,145.185608,1.277512,-0.188971,0.454462
948097948,11.013703,-13.373480,131.308167,1.308377,-0.194684,0.446198
948107934,25.821892,-12.082050,108.860168,1.245550,-0.086238,0.407937
948117907,37.168312,-4.229320,83.840866,1.103704,0.117475,0.388521
948127887,41.039291,-2.410578,64.194366,0.970955,0.373157,0.398654
948137867,41.845058,-12.223932,48.926617,0.856047,0.611751,0.421596
948147846,40.954601,-19.991993,27.001888,0.867130,0.808861,0.456817
948157826,32.359055,-15.089657,0.721974,1.015231,0.902239,0.507359
948167806,18.723921,2.365142,-23.847790,1.083941,0.814258,0.531915
948177785,12.645948,22.663143,-44.511051,1.041046,0.618596,0.548357
948187765,17.921894,33.617607,-57.078056,0.930763,0.428447,0.545989
948197743,28.922611,33.874496,-63.098431,0.885854,0.302328,0.492776
948207723,42.020527,30.284449,-65.235527,0.927756,0.232364,0.387601
948217703,57.279900,29.978531,-64.547134,1.008331,0.199769,0.266862
948227682,75.350121,34.573742,-65.177330,1.061536,0.169315,0.161248
948237662,92.066299,40.089081,-71.748299,1.022403,0.134553,0.118482
948247642,98.641281,39.933983,-85.417633,0.898742,0.130477,0.137590
948257621,89.405762,29.481134,-101.840851,0.779221,0.188010,0.183082
948267601,65.670563,11.886319,-115.311066,0.750076,0.295430,0.210474
948277580,31.271404,-2.271432,-123.235855,0.825709,0.395868,0.220051
948287560,-10.730446,-3.386526,-124.253365,0.961809,0.450335,0.236771
948297540,-53.359344,8.180933,-119.948952,1.074626,0.451244,0.254488
948307520,-90.050499,20.276741,-115.762314,1.115777,0.403032,0.293732
948317499,-122.242676,26.098089,-115.953293,1.120457,0.319246,0.348553
948327479,-151.500275,27.035217,-119.952339,1.131537,0.227533,0.375573
948337459,-171.973770,21.382267,-127.206299,1.131022,0.112792,0.386003
948347438,-180.416779,13.950119,-137.848267,1.142012,0.008054,0.367522
948357418,-175.583893,15.175163,-148.702164,1.137106,-0.048566,0.346141
948367398,-153.397919,21.828148,-155.681763,1.105313,-0.042691,0.377333
948377377,-119.637505,26.220636,-156.563385,1.054379,-0.001569,0.418342
948387357,-85.975777,27.917999,-151.551926,1.010566,0.045168,0.450466
948397336,-59.285683,25.492180,-143.157288,0.958702,0.047847,0.460216
948407316,-40.313358,20.477978,-133.251221,0.929321,0.038330,0.447449
948417296,-26.360279,17.489952,-122.135284,0.914922,0.013240,0.412264
948427275,-15.290169,15.924460,-111.607788,0.872231,-0.019956,0.387074
948447235,-0.000923,9.938515,-99.162415,0.790221,-0.063712,0.332924
948457215,5.841169,4.966714,-96.555267,0.790283,-0.063240,0.340385
948467194,5.583016,0.226774,-94.226677,0.837261,-0.084293,0.351243
948477174,-0.404049,-3.242301,-89.247437,0.924550,-0.112052,0.354756
948487153,-9.272995,-3.545512,-80.199371,0.987937,-0.145001,0.346988
948497133,-20.284065,1.565772,-67.113716,0.935145,-0.160993,0.347374
948507113,-33.536659,6.555840,-49.815575,0.799025,-0.165951,0.359529
948517094,-46.710636,5.287045,-28.637218,0.675092,-0.203489,0.365338
948527073,-53.768017,-2.219384,-6.108773,0.604552,-0.264064,0.312949
948537053,-46.300411,-11.810410,16.379717,0.603621,-0.357037,0.207730
948547033,-21.813362,-17.244415,38.007507,0.631056,-0.425978,0.162375
948557013,7.731241,-17.590679,56.365780,0.657074,-0.428378,0.228092
948566992,28.784695,-18.663408,70.613983,0.696752,-0.354691,0.347268
948576972,37.179798,-25.251867,82.597305,0.785668,-0.234353,0.434165
948586952,37.503571,-33.311970,91.186455,0.926186,-0.119397,0.438137
948596931,36.737404,-37.087746,95.652138,1.058840,-0.046007,0.366336
948606911,40.947243,-35.453110,98.335075,1.107212,-0.005939,0.305920
948616891,50.336723,-33.404076,103.523849,1.066839,-0.010452,0.267007
948626870,62.382339,-36.588535,112.265884,0.979437,-0.024590,0.257805
948636850,74.799034,-49.325527,121.220734,0.901486,-0.011565,0.297686
948646830,80.022278,-68.075584,123.770523,0.902532,0.108890,0.367671
948656809,66.948120,-76.855347,116.333176,1.051426,0.335390,0.434077
948666789,32.270546,-63.499996,107.227936,1.253291,0.467080,0.482064
948676769,-6.706039,-40.291000,105.227798,1.229873,0.357095,0.416050
948686748,-15.449341,-28.355639,104.300697,1.042858,0.142383,0.283187
948696728,-2.270787,-30.674793,98.959244,0.926193,0.147010,0.280789
948706708,8.259907,-40.743027,93.362564,0.906339,0.221085,0.234956
948716699,24.144974,-38.779655,89.010262,1.013925,0.238342,0.335175
948726666,37.541649,-19.324203,88.630814,1.074790,0.187321,0.457511
948736645,33.950115,-5.192729,91.238937,1.002259,0.289525,0.582540
948746625,19.352634,-6.387234,94.243423,0.885708,0.230492,0.515987
948756604,3.317090,-16.557039,94.235992,0.843254,0.108371,0.427057
948766584,-10.455853,-29.703186,92.646706,0.871088,0.026244,0.350418
948776564,-12.577325,-37.198898,90.647293,0.977764,-0.132481,0.188695
948786544,-0.035903,-30.381285,89.676743,1.112950,-0.208921,0.154363
948796523,11.396601,-15.026400,89.205856,1.118958,-0.147210,0.188976
948806503,17.323685,-6.414074,85.281258,1.017883,-0.056783,0.271604
948816483,16.846653,-5.143796,80.891098,0.987126,0.057298,0.355680
948826462,11.202147,-2.695150,79.426796,1.055490,0.156907,0.440171
948836442,4.401070,4.504478,78.862305,1.129537,0.242011,0.481660
948846422,1.463555,9.757417,76.962570,1.133704,0.283846,0.473584
948856401,2.894969,11.704517,71.818779,1.071188,0.245518,0.443925
948866381,10.861869,11.997235,63.678459,1.004151,0.185304,0.356445
948876361,28.110397,11.468536,55.114677,0.944081,0.110085,0.279719
948886340,48.372322,11.768150,47.242661,0.915825,0.060912,0.253780
948896320,63.920826,10.579259,40.465351,0.919950,0.041701,0.235958
948906300,74.742294,5.668060,35.772659,0.989206,0.053265,0.217916
948916279,83.753220,-0.800204,32.943306,1.132313,0.122314,0.204840
948926259,90.560715,-4.091769,25.563459,1.237651,0.211957,0.218234
948936239,88.693451,-2.238973,6.171164,1.233562,0.362282,0.263413
948946218,74.680611,2.848155,-20.020676,1.122682,0.569426,0.289312
948956198,50.203400,8.147388,-40.585716,0.978045,0.743208,0.322241
948966177,20.424385,12.450359,-50.723759,0.871086,0.838602,0.367344
948976157,-8.893965,15.673231,-52.707634,0.823413,0.879683,0.420251
948986137,-32.928001,13.199107,-50.552078,0.897268,0.860594,0.447780
948996116,-49.045364,9.128752,-50.538536,1.098947,0.757925,0.419832
949006096,-56.042751,13.563611,-57.246975,1.309730,0.624941,0.364136
949016076,-54.194824,22.976591,-70.323891,1.323716,0.435600,0.293552
949026055,-45.800495,26.912495,-88.865738,1.147863,0.250399,0.272234
949036037,-34.569923,21.943253,-106.580421,0.991909,0.207849,0.273167
949046016,-21.281237,13.259702,-115.054024,0.920924,0.276664,0.254164
949055996,-6.423903,9.825771,-112.419395,0.918467,0.341608,0.230290
949065976,6.201616,12.933468,-105.096474,0.952252,0.362255,0.236400
949075955,13.047194,15.433623,-98.960541,0.984302,0.362178,0.291261
949085935,6.768121,15.542475,-100.180573,1.017170,0.357570,0.360054
949095914,-6.707650,15.836262,-111.579300,0.991288,0.347454,0.333701
949105894,-18.897039,16.587944,-127.679901,0.924429,0.376027,0.350584
949115874,-26.882914,15.958394,-135.719772,0.850093,0.426934,0.347840
949125853,-27.260983,12.939844,-132.255737,0.800742,0.464032,0.313545
949135833,-24.171661,9.833337,-121.676422,0.834143,0.473381,0.292696
949145813,-21.031290,5.740609,-109.820450,0.903214,0.432365,0.234534
949155792,-18.635624,0.088856,-102.912895,0.977959,0.387577,0.183458
949165772,-15.936591,-5.766566,-105.991714,1.018913,0.343593,0.138670
949175751,-11.313392,-8.542993,-117.811760,1.020302,0.346710,0.166328
949185731,-7.161680,-6.379426,-131.963120,0.912425,0.392311,0.249565
949195711,-8.653650,-5.389013,-140.970566,0.777686,0.458343,0.393168
949205691,-19.241428,-8.687128,-141.455994,0.708382,0.537852,0.497683
949215670,-32.882610,-11.515715,-132.693115,0.761202,0.557462,0.508529
949225650,-40.882492,-12.250787,-117.706612,0.909787,0.480448,0.456786
949235646,-46.257713,-9.316767,-104.356216,1.056949,0.358672,0.388995
949245608,-47.505859,-6.724020,-95.302460,1.128915,0.201137,0.321503
949255588,-40.355389,-1.069235,-93.147064,1.065848,0.063062,0.345555
949265567,-29.900841,5.710230,-93.714622,0.938597,0.004083,0.461839
949275547,-17.602562,6.377642,-90.229385,0.841972,-0.018790,0.520178
949285527,-5.752544,6.257228,-85.924805,0.826573,0.000612,0.493352
949295506,5.372313,6.791982,-82.200386,0.879299,0.110325,0.461925
949305486,18.501413,6.438578,-78.270691,0.951067,0.257465,0.467206
949315466,26.346619,14.753260,-75.919647,1.005396,0.433295,0.507575
949325445,20.332586,29.235722,-69.039619,0.936829,0.560215,0.572535
949335425,14.170839,38.039909,-64.868607,0.822822,0.615836,0.603044
949345405,7.646584,44.710823,-63.200115,0.747367,0.604527,0.621696
949355384,-5.044252,51.494339,-60.717335,0.736438,0.546698,0.600406
949365364,-15.569735,58.208027,-59.259445,0.760139,0.466213,0.521296
949375343,-15.736399,65.484909,-56.265461,0.787017,0.386175,0.437684
949385323,-8.074505,72.710159,-51.393719,0.794486,0.346687,0.415520
949395303,1.399051,77.841789,-48.546822,0.772283,0.343949,0.423900
949405283,8.806232,79.138763,-49.844833,0.716137,0.372621,0.442798
949415262,11.198853,76.310699,-53.111328,0.690432,0.404460,0.451094
949425242,7.774276,72.488838,-53.071400,0.706695,0.409216,0.439658
949435221,-0.505446,71.630333,-46.919697,0.737061,0.372262,0.432989
949445201,-11.506449,74.153534,-35.014088,0.759767,0.313767,0.414877
949455181,-22.902534,79.838615,-17.073339,0.775218,0.228355,0.390880
949465161,-33.372849,81.336662,7.707195,0.762903,0.114527,0.355911
949475140,-38.372692,75.139442,34.065548,0.719454,-0.035622,0.289095
949485120,-37.438202,66.866524,58.731407,0.666850,-0.200296,0.217068
949495099,-31.376699,59.080688,84.157242,0.606077,-0.342065,0.188954
949505079,-18.523283,49.791325,113.903381,0.525009,-0.476794,0.180385
949515059,1.255085,32.735493,149.922501,0.416228,-0.602845,0.211052
949525039,19.731346,2.564880,189.478424,0.282754,-0.723345,0.218409
949535018,31.408888,-43.771114,227.138657,0.215989,-0.770559,0.100124
949544998,50.777512,-92.030563,258.436890,0.330610,-0.689031,0.000176
949554979,82.533401,-120.537872,284.039337,0.610404,-0.551581,-0.012606
949564959,102.103157,-125.019089,310.263794,0.901659,-0.450828,0.009479
949574938,100.460030,-116.728325,330.934753,1.180675,-0.418399,0.050126
949584918,89.850479,-107.901306,339.371429,1.514841,-0.382184,0.040545
949594898,79.738968,-94.551888,336.054596,1.665772,-0.320222,-0.041478
949604877,71.165520,-73.516350,322.667847,1.617367,-0.238050,0.023674
949614857,59.598408,-62.165787,306.371307,1.539837,-0.132422,0.155475
949624837,48.546871,-63.000870,289.624146,1.473342,0.009471,0.301091
949634816,39.601326,-65.660263,276.635834,1.501413,0.196876,0.393422
949644796,32.317993,-64.007576,270.082428,1.513735,0.330537,0.329901
949654776,33.454281,-54.152046,256.607849,1.473377,0.393164,0.294806
949664755,55.494358,-45.940346,222.910706,1.378280,0.467955,0.381624
949674739,80.928413,-43.093010,174.327194,1.289314,0.624785,0.550623
949684715,86.452271,-41.292099,125.891953,1.370882,0.888042,0.721007
949694694,70.669762,-40.218307,90.395645,1.634346,1.143673,0.759533
949704674,49.751549,-40.667274,68.484863,1.780664,1.260790,0.591834
949714654,47.796772,-45.811531,48.692905,1.793965,1.302845,0.418554
949724633,58.204903,-48.495590,16.461140,1.709040,1.351408,0.372309
949734613,68.342354,-40.134792,-30.010586,1.598941,1.509034,0.443835
949744592,70.027893,-21.868847,-73.033913,1.439893,1.627425,0.545339
949754574,53.142799,-10.418612,-101.096581,1.295946,1.542926,0.545540
949764550,16.371153,-16.776337,-129.122437,1.168008,1.383626,0.439625
949774530,-34.138741,-22.565199,-160.791931,1.123064,1.187564,0.327639
949784510,-98.083923,12.566325,-173.138092,1.290847,0.868526,0.485647
949794489,-179.921753,99.570496,-150.041763,1.439198,0.481615,0.613268
949804469,-243.870972,158.467224,-113.562828,1.052776,-0.017780,0.527124
949814449,-270.906738,113.837471,-98.103073,0.607224,-0.598020,0.402974
949824428,-256.807953,16.608845,-109.553322,0.708678,-1.020300,0.079740
949834408,-202.339523,-48.935036,-108.561966,1.313972,-1.342104,-0.114605
949844388,-119.197601,-56.815491,-83.382172,1.332723,-1.678048,-0.410719
949854368,-2.510637,-14.139182,-110.913483,0.744499,-1.522175,-0.611466
949864347,91.528702,16.365295,-168.676941,0.538479,-0.646008,-0.404673
949874327,116.422005,11.639808,-172.124268,0.481233,0.021145,-0.138184
949884307,96.155952,12.471237,-138.950882,0.543695,0.309196,0.110484
949894286,70.168312,12.438731,-113.323784,0.672223,0.542874,0.517153
949904265,43.257828,-3.636442,-109.897552,0.875268,0.803314,0.817297
949914245,9.861893,-10.005478,-130.656769,0.967747,1.025388,0.802061
949924225,-20.050049,-7.422269,-156.578644,0.986231,1.061384,0.740435
949934204,-53.515984,-7.548191,-166.418686,1.019549,0.833991,0.679752
949944184,-91.827034,-10.693409,-157.645813,1.159304,0.525669,0.580641
949954164,-113.852631,-7.574947,-147.082886,1.293696,0.280822,0.379860
949964144,-101.975739,7.783921,-144.880844,1.408841,0.130314,0.239102
949974123,-66.482094,23.503101,-145.318298,1.327167,0.037481,0.235665
949984103,-27.784981,31.794807,-150.727921,1.117999,-0.025334,0.292594
949994083,5.897698,32.036953,-158.297455,0.902618,0.014898,0.342804
950004062,32.820744,23.210342,-163.325729,0.754563,0.139165,0.356448
950014042,50.704250,12.414853,-163.432632,0.712028,0.289101,0.347748
950024022,57.261513,6.015255,-158.741501,0.771823,0.396869,0.349993
950034001,52.414196,5.416338,-154.187805,0.904206,0.464339,0.345670
950043981,39.151241,9.127765,-152.461258,1.016335,0.530769,0.342996
950053961,17.616251,14.364458,-154.164383,1.017952,0.599737,0.361019
950063940,-10.193699,20.652876,-157.149658,0.916542,0.668397,0.397009
950073920,-34.529846,24.268595,-160.073929,0.789202,0.687648,0.442257
950083901,-46.351669,25.569950,-159.492615,0.727015,0.655878,0.451107
950093881,-49.324524,28.697010,-152.190918,0.709355,0.532584,0.436411
950103860,-46.622761,30.076389,-142.727631,0.717289,0.365454,0.413433
950113840,-36.099960,29.885475,-137.774643,0.776912,0.288179,0.355509
950123820,-20.508512,33.869865,-135.998688,0.823104,0.304529,0.325128
950133799,-6.824788,41.247185,-136.677902,0.805300,0.376183,0.351492
950143779,4.981125,43.733521,-137.067596,0.756527,0.475638,0.404699
950153759,14.523823,42.048454,-135.439789,0.704797,0.570601,0.446997
950163738,18.137657,41.452984,-130.858109,0.658287,0.629662,0.462114
950173718,16.714355,41.139408,-122.696152,0.609652,0.658286,0.445637
950183698,11.567276,39.135864,-113.724304,0.569429,0.667753,0.405587
950193677,4.842731,36.403656,-106.547676,0.528512,0.672636,0.349938
950203657,-3.337511,35.175510,-102.520134,0.497881,0.670921,0.285479
950213637,-9.775459,33.588024,-100.444359,0.490886,0.683225,0.264022
950223616,-15.676752,30.815292,-96.968582,0.500792,0.700106,0.269209
950233596,-30.766550,29.783871,-89.306068,0.527749,0.675171,0.298888
950243576,-50.550549,25.988928,-79.226318,0.551276,0.557751,0.329654
950253555,-61.986710,16.508812,-69.368530,0.543734,0.414674,0.287057
950263535,-62.277168,7.042813,-57.485508,0.500981,0.290024,0.236409
950273515,-57.287220,-2.676993,-42.427460,0.461443,0.209664,0.257944
950283508,-45.216621,-12.231730,-24.811394,0.430158,0.127197,0.253076
950293473,-29.773653,-20.865095,-5.045349,0.370583,0.058962,0.281512
950303452,-12.965565,-33.471004,15.505268,0.343283,0.003944,0.304132
950313432,3.618763,-47.381847,37.241039,0.377391,-0.012768,0.291918
950323412,18.519672,-57.891956,60.742088,0.412195,-0.021967,0.296714
950333391,31.664619,-65.810242,84.506683,0.463952,0.000033,0.296210
950343371,44.237396,-68.799301,107.988808,0.534646,0.066105,0.276937
950353351,56.053730,-65.752205,129.197754,0.613758,0.138241,0.280484
950363330,60.748936,-57.232841,145.062408,0.669577,0.197842,0.330434
950373310,56.894547,-46.430614,155.628342,0.702111,0.259448,0.401596
950383290,49.163235,-38.710789,162.634216,0.736820,0.336804,0.482193
950393269,42.145744,-36.212254,168.633301,0.798554,0.445595,0.543465
950403249,37.424599,-33.415619,175.246658,0.884009,0.533067,0.568368
950413229,36.993675,-31.243345,188.265427,0.948436,0.546207,0.567695
950423208,41.399773,-37.560890,207.581696,0.998917,0.439937,0.484764
950433188,53.209591,-50.222286,222.879196,1.138946,0.359707,0.343676
950443168,76.585304,-57.621513,226.139877,1.288902,0.340259,0.176459
950453147,95.902359,-46.426926,211.584961,1.286580,0.464081,0.188230
950463127,85.929703,-21.291790,184.966675,1.148297,0.638388,0.299033
950473107,57.992634,2.417478,161.964417,0.979358,0.749831,0.465488
950483086,32.970695,12.455873,144.942352,0.767307,0.860923,0.726772
950493066,18.217018,-8.279079,134.724426,0.750207,0.954060,0.755712
950503045,11.118860,-29.079550,134.291855,0.971387,1.020125,0.668353
950513025,-1.088851,-21.899696,137.974777,1.259757,0.945307,0.579799
950523005,-0.623921,-4.331142,131.772278,1.376809,0.757796,0.533294
950532985,5.524953,11.055569,108.591545,1.325885,0.547656,0.411594
950542964,15.535265,18.730068,76.054581,1.176900,0.397374,0.360510
950552944,37.075291,6.969619,40.761505,0.881928,0.546208,0.209331
950562923,74.886940,-34.658836,-11.934344,0.764168,1.150855,0.061767
950572903,94.694382,-45.784901,-67.209419,1.146114,1.626331,0.075372
950582883,49.080303,29.940796,-58.548183,1.277012,1.352987,0.198991
950592863,9.707508,76.716606,-12.665303,0.709855,0.919984,0.273449
950602842,-6.052795,39.448162,12.960164,0.382876,0.611154,0.256848
950612823,-31.691586,-13.473782,21.697531,0.413043,0.359667,0.087774
950622803,-56.917709,-55.352409,16.515955,0.607438,0.167464,-0.001127
950632782,-78.645584,-65.247971,0.217601,0.903152,0.088786,0.024708
950642762,-90.603775,-43.616341,-24.610903,1.128029,0.162100,0.112683
950652742,-77.438225,-17.931789,-58.894741,1.185204,0.460427,0.301897
950662722,-54.668259,1.158997,-89.433342,1.190431,0.758485,0.547895
950672701,-46.547020,19.167931,-98.935364,1.101720,0.787262,0.662902
950682681,-55.469810,24.005219,-90.183548,0.911052,0.678177,0.676854
950692660,-62.502148,13.448587,-79.216721,0.823723,0.509983,0.588221
950702640,-62.650684,6.152108,-69.825790,0.847054,0.402770,0.483680
950712620,-69.672569,7.486096,-60.561554,0.862855,0.341627,0.354025
950722600,-78.000359,12.725466,-55.117355,0.878385,0.207317,0.243411
950732579,-87.384888,18.680578,-50.907196,0.951822,0.112671,0.188392
950742559,-94.192657,24.775928,-40.966312,1.007787,0.020991,0.199663
950752538,-95.401505,27.180058,-27.343319,0.987511,-0.042828,0.222191
950762518,-87.453690,21.030792,-17.001444,0.906459,-0.082717,0.221904
950772498,-62.342186,9.228780,-14.532927,0.857739,-0.100664,0.228225
950782477,-31.425652,-2.303675,-20.029686,0.873177,-0.009184,0.303684
950792457,-8.246861,-5.073871,-29.541965,0.892643,0.102947,0.389442
950802437,0.026055,2.487047,-38.238571,0.847318,0.177406,0.538553
950812438,-8.565817,11.115755,-41.953133,0.746882,0.203111,0.634091
950822395,-20.281994,11.792436,-41.734821,0.704472,0.225159,0.644790
950832374,-27.753738,4.476855,-38.318169,0.787479,0.284429,0.604181
950842354,-28.288179,-0.574371,-32.407822,0.938401,0.349078,0.469662
950852334,-18.723415,9.234869,-25.363079,1.060529,0.393538,0.401238
950862313,-7.632113,28.531685,-17.568529,0.996779,0.434188,0.413244
950872293,-12.991272,42.121304,-14.935078,0.909961,0.536085,0.532006
950882273,-36.892208,45.799301,-16.461546,0.876956,0.584374,0.615843
950892252,-63.275749,43.260845,-19.747669,0.894173,0.571234,0.624570
950902232,-84.043556,37.374096,-22.737017,0.998588,0.552729,0.589271
950912212,-96.154045,35.750595,-24.869287,1.130547,0.503243,0.468657
950922191,-99.269447,45.596909,-27.049692,1.181554,0.382985,0.324589
950932171,-99.177734,63.527428,-27.835125,1.045652,0.244781,0.238398
950942151,-102.918678,78.154213,-28.734543,0.796464,0.105884,0.260871
950952130,-106.877441,75.905899,-33.631844,0.611171,0.065351,0.329347
950962110,-98.839027,58.040882,-40.272442,0.577183,-0.053500,0.258732
950972090,-73.831421,38.619370,-45.184967,0.648315,-0.188068,0.144953
950982069,-41.679501,22.576553,-45.282421,0.689505,-0.250017,0.152369
950992049,-10.039381,5.037915,-41.265873,0.734437,-0.171412,0.275932
951002029,17.418005,-6.224084,-38.820766,0.920552,-0.011138,0.377799
951012008,35.264786,0.403028,-35.356457,1.096189,0.187546,0.463181
951021988,36.058773,20.751326,-27.794834,1.009420,0.426847,0.579329
951031968,14.954089,34.097797,-19.839748,0.739332,0.575098,0.704715
951041947,-12.079258,26.238144,-15.515478,0.467168,0.492022,0.661746
951051927,-23.179659,6.195350,-8.615844,0.381996,0.270744,0.512463
951061906,-21.707577,-8.496411,9.230915,0.460408,0.031236,0.351364
951071886,-12.990363,-11.394543,33.975174,0.539970,-0.120603,0.268437
951081866,-1.564762,-13.524042,59.501358,0.609960,-0.191305,0.269604
951091846,9.312857,-19.506773,81.616249,0.669094,-0.267363,0.307084
951101826,23.326269,-27.045662,98.810722,0.750909,-0.319020,0.363339
951111805,43.946674,-31.268044,111.771996,0.839133,-0.365070,0.409786
951121785,70.445389,-32.500843,123.154449,0.890348,-0.400781,0.453198
951131766,98.517731,-35.258381,135.166718,0.857436,-0.391388,0.487955
951141746,124.641861,-44.441429,148.183945,0.784127,-0.340000,0.456629
951151725,145.618774,-56.455830,159.442841,0.777864,-0.255262,0.366250
951161705,158.412445,-61.724480,169.146713,0.845301,-0.187780,0.291893
951171684,168.010345,-56.824677,177.898926,0.957201,-0.091749,0.286726
951181664,171.335114,-46.858074,185.211227,1.082818,0.037701,0.351381
951191644,163.866791,-36.047817,194.034821,1.218692,0.103091,0.344060
951201623,161.129837,-24.170206,204.132294,1.380924,0.120134,0.269172
951211603,160.011032,-10.774566,207.797028,1.486260,0.240344,0.321586
951221583,150.282089,-0.825239,200.980270,1.505227,0.311906,0.305463
951231563,145.970657,0.963317,183.568405,1.354975,0.300888,0.266099
951241542,150.934326,-0.755157,161.426300,1.148878,0.261201,0.228366
951251522,167.108459,-3.148848,146.516998,1.030498,0.317600,0.172091
951261501,188.758591,-4.653169,136.299561,0.985223,0.496923,0.169416
951271481,195.631363,-7.085132,125.381973,1.013383,0.791703,0.207174
951281461,176.017883,-15.768067,110.363815,1.026027,1.137400,0.209939
951291440,129.696274,-31.570900,82.396400,1.011676,1.480299,0.213530
951301420,51.477974,-47.860992,33.848072,0.956867,1.827078,0.242541
951311399,-37.003208,-53.838825,-30.930210,0.912976,2.085815,0.201255
951321379,-90.168526,-53.884842,-92.580063,0.892683,2.185483,0.152262
951331359,-107.829521,-66.759476,-139.066376,0.972755,2.204317,0.079480
951341337,-133.578781,-75.206451,-159.918640,1.040919,1.853386,0.186464
951351317,-172.563141,-60.584484,-151.174545,1.065887,1.246415,0.370611
951361296,-207.476151,-40.856068,-122.950188,1.174967,0.765888,0.321838
951371276,-226.578888,-21.192890,-94.491333,1.326163,0.422238,0.226794
951381256,-234.902893,3.396186,-72.607010,1.339720,0.095581,0.214363
951391235,-231.918182,8.475024,-68.506454,1.113695,-0.228210,0.240837
951401215,-217.726334,-17.059481,-89.838715,1.031709,-0.417431,0.147728
951411195,-193.163361,-40.693718,-117.833405,0.980802,-0.488173,-0.126325
951421174,-144.346832,-40.545422,-140.395004,0.902434,-0.430885,-0.342332
951431154,-90.736717,-21.623095,-152.859711,0.862213,-0.179078,-0.170898
951441134,-52.136223,-8.559432,-152.842743,0.808024,0.137714,0.120691
951451113,-23.193937,-11.236216,-144.652802,0.821086,0.488567,0.352309
951461093,-11.859778,-22.101408,-136.918610,0.913020,0.732826,0.436685
951471072,-22.637909,-34.143410,-136.829971,0.984476,0.820740,0.394849
951481052,-59.831505,-37.779282,-143.292206,1.076196,0.881251,0.345820
951491032,-119.461784,-32.349304,-147.201019,1.105254,0.920244,0.285249
951501012,-171.665405,-23.020437,-144.336533,1.098842,0.846795,0.181067
951510991,-200.615601,-9.332005,-137.622192,1.087903,0.760954,0.133828
951520971,-213.114273,2.764484,-132.490402,1.086857,0.643409,0.163599
951530951,-218.728119,7.986122,-131.530136,1.034937,0.484407,0.206593
951540930,-216.232666,8.345682,-137.821640,0.979503,0.356783,0.204753
951550910,-194.439148,5.839144,-147.004944,0.949085,0.300235,0.195105
951560890,-164.261871,2.825578,-152.987442,0.920635,0.256986,0.151399
951570869,-102.855621,-2.438737,-154.613281,0.795564,0.063264,0.105473
951580849,-29.823416,-6.871437,-155.351929,0.794524,-0.072067,0.037735
951590829,34.619404,-16.706774,-156.171616,0.722957,0.251936,0.250574
951600808,39.589622,-34.518879,-164.051926,0.695255,0.577222,0.345817
951620768,4.188110,-52.725746,-182.720581,0.789037,0.955117,0.033922
951630747,-35.460213,-53.245010,-178.707016,0.842914,1.032416,0.024538
951640727,-86.360901,-53.139725,-169.434143,0.922474,1.041238,0.075026
951650706,-143.588470,-55.150845,-156.217361,0.915930,0.875415,0.069062
951660688,-190.038177,-56.771336,-143.405716,0.829966,0.650215,-0.013149
951670667,-211.960312,-61.067368,-128.763474,0.669283,0.435388,-0.097811
951680647,-209.364426,-75.357056,-113.387741,0.513574,0.271737,-0.135503
951690627,-192.665970,-95.717026,-99.079567,0.458651,0.146362,-0.144838
951700606,-170.761200,-113.495613,-86.184868,0.524395,0.025281,-0.135639
951710586,-149.029633,-123.330704,-71.602585,0.623002,-0.075385,-0.087015
951720565,-127.523735,-128.327515,-56.618446,0.645424,-0.122398,-0.016262
951730545,-107.647514,-136.106964,-43.821281,0.621628,-0.075234,0.071769
951740525,-93.052460,-147.336609,-30.656944,0.632360,0.016269,0.145502
951750505,-85.042747,-156.124313,-16.212639,0.686676,0.090795,0.195544
951760484,-80.738564,-159.455338,-1.925346,0.781034,0.167356,0.226617
951770464,-78.080421,-155.677719,12.573568,0.886917,0.208513,0.256660
951780444,-77.710342,-147.073654,25.873760,0.984924,0.228874,0.288721
951790423,-79.082077,-135.762238,36.431957,1.054419,0.250604,0.294739
951800403,-78.922104,-123.765968,42.091438,1.053171,0.261018,0.309844
951810383,-75.203918,-113.310333,43.651516,0.989665,0.256957,0.347720
951820362,-72.158012,-107.864418,41.331085,0.914163,0.337176,0.409311
951830342,-65.182602,-107.667404,36.951984,0.900570,0.422467,0.376522
951840322,-47.079739,-108.643372,34.205185,0.935878,0.402438,0.312297
951850301,-26.730412,-115.356606,40.976326,0.904086,0.267242,0.231973
951860301,-13.877746,-125.295700,50.262375,0.948870,0.229171,0.146545
951870259,-11.766688,-125.095711,54.716446,1.089598,0.277680,0.144507
951880239,-25.241590,-109.107872,57.137352,1.199804,0.281990,0.069601
951890219,-30.391628,-79.414658,58.305443,1.245878,0.242703,0.113525
951900198,-34.131031,-59.954910,48.018295,1.029786,0.554714,0.510769
951910178,-23.158916,-81.212067,-14.359349,1.006314,1.627162,0.605870
951920158,3.462707,-68.144371,-114.076477,2.098842,2.415010,1.138247
951930137,-122.751709,20.300678,-102.922882,1.780998,1.713926,1.108387
951940117,-296.900146,82.704674,-55.535492,1.017860,0.701338,0.259549
951950097,-317.103455,67.607002,-47.018837,0.621454,0.068177,-0.328888
951960076,-225.092682,12.480782,-39.908173,0.558366,-0.193064,-0.808757
951970056,-104.771805,-43.965469,-31.609102,0.600353,-0.443410,-0.605008
951980035,-45.919739,-76.368942,-24.596434,0.806798,-0.503893,-0.043843
951990015,-68.011253,-90.605057,-21.733829,0.864020,-0.349121,0.324383
951999995,-108.361511,-86.575371,-33.287670,0.924163,-0.025193,0.339121
952009975,-107.713783,-70.605690,-47.638206,1.043881,0.285334,0.312554
952019954,-88.253403,-53.901894,-45.306854,1.081004,0.356737,0.398027
952029934,-88.411728,-43.103863,-30.979530,1.081113,0.271823,0.496856
952039913,-93.345352,-42.990284,-20.203861,1.129487,0.092559,0.543115
952049893,-92.901398,-43.978245,-11.640061,1.243103,0.004590,0.463409
952059873,-91.560638,-36.660839,-8.792949,1.290934,-0.051685,0.403468
952069852,-87.402672,-27.308058,-17.900478,1.245411,-0.037701,0.432455
952079832,-80.500488,-18.269295,-35.058426,1.150386,0.048320,0.466638
952089812,-71.217911,-7.046805,-51.665333,1.047348,0.124802,0.539077
952099792,-61.750565,0.964115,-61.588146,0.968958,0.174418,0.581993
952109771,-53.063271,4.116859,-68.303543,0.924528,0.139725,0.540222
952119751,-38.985039,4.011906,-75.406082,0.962487,0.141392,0.482065
952129731,-22.738031,4.932680,-83.307480,1.045411,0.182773,0.436467
952139710,-9.684519,10.686118,-90.740921,1.137461,0.269156,0.403958
952149690,-4.688038,20.667038,-96.279587,1.124107,0.399346,0.370984
952159669,-10.828549,30.323486,-99.350090,1.047278,0.449977,0.397339
952169649,-18.623392,33.573395,-99.092300,0.902310,0.526861,0.417825
952179630,-25.328236,29.056362,-94.493347,0.791681,0.492085,0.348251
952189610,-25.467831,23.005339,-85.954262,0.694756,0.378608,0.264920
952199589,-19.170338,20.484089,-74.226807,0.679768,0.324646,0.194318
952209569,-15.048122,18.226717,-55.782734,0.682770,0.240038,0.141851
952219549,-11.756406,16.234917,-35.186394,0.664474,0.152046,0.141317
952229528,-11.332794,12.846854,-17.618034,0.612163,0.061508,0.191379
952239508,-11.824186,3.230503,-5.189010,0.549609,-0.046138,0.245357
952249488,-9.540464,-12.004475,1.034265,0.523272,-0.130835,0.302902
952259468,-4.059635,-25.359123,1.967886,0.589036,-0.143813,0.382087
952269447,5.311417,-30.226357,1.687373,0.687155,-0.080225,0.486109
952279427,21.867783,-29.882759,2.196937,0.755952,0.073070,0.574647
952289407,49.555008,-28.646450,-4.589421,0.793414,0.428916,0.667488
952299386,76.799095,-18.678558,-26.569113,0.930570,0.935751,0.775165
952309366,82.247330,15.704849,-35.998184,1.178155,1.081375,0.950702
952319346,66.005524,46.956223,-3.858746,1.002353,0.841779,0.852327
952329325,53.717457,44.636818,25.687637,0.666193,0.554296,0.535614
952339305,42.871960,28.009769,29.790108,0.503489,0.403678,0.302343
952349285,39.164104,14.456319,23.195320,0.560729,0.338379,0.241084
952359264,39.621883,10.043954,15.644374,0.761531,0.300530,0.269063
952369244,36.424572,16.375004,4.923276,0.904693,0.366735,0.272971
952379223,32.281490,24.701120,-13.545127,0.944227,0.525115,0.327925
952389202,21.865637,28.262371,-28.945835,0.894565,0.643163,0.346571
952399182,16.869402,23.236891,-32.400433,0.802225,0.721658,0.302978
952409161,24.909330,10.678827,-24.613892,0.746936,0.747161,0.279691
952419141,30.084929,-2.457792,-6.590254,0.770724,0.701839,0.280506
952429121,25.765266,-8.242008,14.472321,0.819435,0.617907,0.294248
952439100,15.249878,-9.347956,30.118946,0.845447,0.526041,0.321363
952449080,2.379127,-8.883504,36.390106,0.856778,0.422512,0.348582
952459060,-10.615224,-4.437468,33.259220,0.861855,0.355190,0.410607
952469039,-20.585835,1.968287,26.219265,0.864366,0.347935,0.463405
952479019,-26.072941,6.769134,22.368893,0.866069,0.366374,0.469873
952488999,-24.159119,9.546301,22.310352,0.870370,0.353995,0.434459
952498978,-16.707972,10.698274,24.594898,0.896597,0.317429,0.414048
952508958,-6.965948,11.587016,28.192787,0.923727,0.236390,0.423886
952518938,1.639557,13.132450,31.315393,0.904334,0.141219,0.441481
952528917,11.281925,12.753759,32.273731,0.856681,0.120924,0.437115
952538897,24.288448,9.956383,30.863729,0.829619,0.182772,0.445258
952548877,34.502327,8.749296,29.229616,0.830373,0.261466,0.443983
952558856,38.708336,9.479879,28.604912,0.830543,0.326314,0.415423
952568836,37.956226,11.398282,28.387056,0.832550,0.365994,0.382756
952578816,33.127483,13.816516,28.215698,0.842272,0.385146,0.356577
952588795,26.928177,13.518834,29.167099,0.864004,0.380032,0.295683
952598775,22.313383,11.622110,31.628834,0.876255,0.369138,0.243089
952608755,19.479580,10.679429,34.838783,0.853862,0.366248,0.240904
952618734,16.228956,9.161699,38.837521,0.786652,0.376576,0.290497
952628714,12.870499,4.741330,43.872398,0.725342,0.395692,0.373382
952638693,9.528228,-2.278340,49.715691,0.723131,0.413611,0.428596
952648673,5.670377,-7.270613,56.965878,0.790419,0.406537,0.452529
952658653,0.505884,-7.740920,64.447853,0.882069,0.374571,0.432515
952668632,-3.646098,-3.836488,70.712326,0.966634,0.343052,0.400707
952678612,-7.542545,1.905489,75.973106,0.994656,0.301908,0.379312
952688592,-10.905823,5.710381,79.386719,0.966951,0.285513,0.382350
952698571,-11.068069,5.852510,81.723511,0.909798,0.305667,0.402280
952708552,-11.152391,3.150958,84.459457,0.870305,0.326926,0.423245
952718532,-11.583358,-0.763207,88.713943,0.853747,0.326419,0.389257
952728512,-9.872820,-4.286166,94.249962,0.875938,0.307562,0.358647
952738491,-9.043705,-6.679288,100.525124,0.893702,0.276337,0.324517
952748471,-11.292530,-8.168594,105.119102,0.894182,0.234599,0.305176
952758451,-12.241590,-10.006813,104.693710,0.887354,0.215503,0.299899
952768430,-9.354057,-13.007597,99.531754,0.924183,0.222234,0.301375
952778410,-6.931335,-13.556774,95.032471,0.987679,0.186737,0.318420
952788389,-13.666719,-7.602195,95.638832,1.006130,0.097162,0.297824
952798369,-24.186871,-0.990790,99.176384,0.950012,0.023486,0.279789
952808349,-27.822081,-2.353079,104.220955,0.887177,-0.015496,0.279822
952818329,-25.702236,-12.003761,111.315720,0.868851,-0.031449,0.332199
952828314,-23.435385,-24.266672,120.555077,0.876353,-0.044891,0.388104
952838288,-21.367596,-33.502934,129.424957,0.890785,-0.042031,0.419829
952848268,-18.715464,-36.052856,136.252823,0.916501,-0.042675,0.406470
952858247,-13.906788,-32.480606,142.835800,0.945505,-0.053281,0.397887
952868227,-10.015285,-24.872471,150.578506,0.981470,-0.064867,0.364498
952878207,-12.199781,-16.633631,159.757339,1.004730,-0.092764,0.363014
952888186,-14.766207,-12.104055,169.289566,1.035658,-0.136243,0.395436
952898166,-13.196442,-16.547585,178.181015,1.082083,-0.224073,0.402097
952908146,-7.192008,-26.601871,187.383881,1.141573,-0.320199,0.385276
952918124,2.958195,-30.218428,197.577469,1.200744,-0.409123,0.326077
952928104,14.477161,-22.766491,207.819733,1.220238,-0.482444,0.273910
952938083,27.882906,-12.264540,217.502075,1.164660,-0.521479,0.188296
952948063,48.418427,-6.040042,221.674103,1.085527,-0.477574,0.076122
952958043,71.822571,1.089545,211.616501,1.061516,-0.327944,0.059572
952968022,76.910324,10.013762,195.120605,1.016112,-0.176732,0.136215
952978002,55.988930,6.334202,177.707581,0.783515,-0.046602,0.329607
952987981,13.495667,-12.090298,145.506653,0.560618,0.128409,0.577990
952997961,-27.432186,-37.289322,97.686852,0.754715,0.438933,0.852927
953007941,-45.704113,-56.806202,52.437920,1.165706,0.872518,1.056248
953017920,-45.110977,-54.246273,18.056023,1.422432,1.250814,0.912157
953027900,-26.284485,-27.799309,1.199862,1.483952,1.199383,0.645860
953037880,3.333643,3.735325,5.151568,1.285694,0.673949,0.565778
953047860,38.532761,17.096054,3.790754,1.072378,0.235090,0.552299
953057839,73.282822,7.658143,-12.883261,0.985548,0.063610,0.475567
953067819,97.864052,-8.717765,-31.720726,1.021887,0.085071,0.340017
953077799,110.295258,-12.036034,-50.951790,1.155708,0.204825,0.256915
953107737,36.774075,52.933907,-102.641800,1.257670,0.662507,0.372401
953117717,-10.809950,62.337341,-108.262299,1.019829,0.572335,0.353307
953127697,-53.859791,57.237560,-103.266502,0.841207,0.416750,0.328903
953137676,-82.348518,40.423882,-91.450493,0.795135,0.247218,0.277473
953147656,-92.660858,21.392456,-79.586296,0.881933,0.077133,0.220111
953157636,-94.664452,12.431878,-68.681129,1.003805,-0.071965,0.168148
953167615,-97.109673,16.031826,-59.860519,1.058749,-0.231607,0.180877
953177595,-100.421799,24.870905,-56.499798,1.016585,-0.361109,0.234130
953187575,-99.847603,30.000814,-61.044033,0.899047,-0.460821,0.269486
953197555,-91.145409,28.528263,-68.481049,0.837881,-0.494737,0.281486
953207534,-77.077019,24.068127,-70.628830,0.807221,-0.471406,0.276353
953217513,-59.394146,16.794350,-66.977318,0.823902,-0.430937,0.270714
953227493,-39.210369,3.435643,-59.862862,0.887495,-0.384107,0.273299
953237474,-18.823107,-11.556620,-55.447121,0.968087,-0.333315,0.285419
953247454,-0.695948,-20.714092,-57.468208,1.024281,-0.222498,0.319602
953257434,11.270628,-22.696581,-63.709724,1.025622,-0.073070,0.344498
953267413,16.092543,-18.960930,-66.568176,1.008211,0.121681,0.372313
953277393,13.366972,-10.142643,-65.042114,0.993009,0.237803,0.420399
953287373,3.540940,-0.359757,-64.057053,0.950244,0.246375,0.466644
953297352,-14.235677,5.191878,-62.029423,0.906776,0.190023,0.486075
953307332,-36.001144,5.467974,-57.654366,0.873489,0.106452,0.491386
953317312,-51.960026,2.467689,-54.727570,0.912057,0.060243,0.479191
953327291,-59.023411,-1.814137,-54.729332,0.990054,0.014415,0.483740
953337271,-61.493404,-4.934577,-59.832916,1.049468,-0.026794,0.480223
953347251,-58.300591,-3.035381,-70.845024,1.051522,-0.044388,0.434654
953357230,-49.393761,4.771348,-84.852493,1.015447,-0.039923,0.416071
953367210,-36.956005,12.123041,-92.654655,0.949055,0.006929,0.415179
953377190,-22.752998,15.817198,-93.690933,0.891648,0.047380,0.418016
953387169,-7.880176,16.932297,-90.395172,0.871007,0.081237,0.418722
953397149,5.881323,16.534163,-85.021339,0.876069,0.117417,0.397460
953407129,14.509611,18.509569,-79.834976,0.881524,0.152285,0.373860
953417108,18.175079,22.049067,-76.215591,0.865068,0.205254,0.341729
953427088,17.327776,24.609467,-75.007912,0.822839,0.243043,0.372207
953437079,8.819708,22.869677,-76.308456,0.802094,0.262100,0.392641
953447046,-4.497124,17.381584,-80.988983,0.799907,0.260542,0.359116
953457026,-16.384354,14.853833,-86.170105,0.827756,0.256669,0.325268
953467005,-25.551870,16.570515,-86.612793,0.843323,0.247083,0.314784
953476985,-31.043819,16.731197,-83.519531,0.833994,0.215644,0.321502
953486964,-35.681473,14.197975,-79.948860,0.854158,0.194355,0.334605
953496944,-43.502228,12.849335,-74.766357,0.884521,0.156853,0.327762
953506924,-51.840580,13.544230,-67.721611,0.884276,0.109644,0.294292
953516904,-56.589947,13.588780,-60.709591,0.859437,0.065491,0.241015
953526883,-56.360153,11.276349,-53.085609,0.882998,0.006876,0.215271
953536863,-51.559109,6.689865,-42.088596,0.948416,-0.055857,0.211124
953546843,-45.368130,2.591032,-28.431427,0.962685,-0.154970,0.206635
953556822,-39.219795,-1.600428,-15.518026,0.878045,-0.258313,0.178546
953566802,-27.141186,-11.241699,-3.077785,0.734926,-0.345796,0.149307
953576782,-8.154816,-28.143963,9.836324,0.607082,-0.374969,0.164924
953586762,9.437879,-48.154732,25.254978,0.552019,-0.346459,0.173464
953596741,23.175604,-65.027382,44.526802,0.574425,-0.359321,0.155145
953606721,37.331146,-74.475395,65.564835,0.637116,-0.405465,0.127182
953616700,48.581009,-76.477020,86.354446,0.729618,-0.428131,0.159483
953626680,55.735012,-74.022018,108.262291,0.842399,-0.433856,0.208451
953636660,60.673878,-66.465172,129.912308,0.923876,-0.428277,0.262305
953646639,65.557602,-55.663441,146.517944,0.968903,-0.432378,0.312190
953656619,75.743515,-48.270920,155.359451,1.023422,-0.409399,0.430465
953666599,79.780045,-49.582382,160.049820,1.169148,-0.275549,0.536759
953676579,70.096161,-48.071068,162.535248,1.317853,-0.056396,0.610385
953686558,69.943306,-31.166956,157.728149,1.385466,-0.034759,0.434429
953696538,81.219872,-7.202437,142.383820,1.337015,0.134199,0.528937
953706517,84.838623,-0.022234,126.098160,1.163774,0.194915,0.368321
953716497,107.570885,-0.843360,109.447449,1.031637,0.148737,0.249731
953726477,142.718918,2.463302,100.299576,1.004585,0.201800,0.241445
953736456,162.027252,7.546497,102.253143,0.958581,0.339344,0.390057
953746436,166.892731,12.158232,103.977539,0.984508,0.306252,0.345908
953756417,170.631561,16.392851,105.471085,1.070999,0.308831,0.446891
953766397,158.684677,22.262230,100.838837,1.063451,0.257314,0.412083
953776377,137.005981,21.194124,94.985649,1.021535,0.063666,0.392813
953786356,108.409416,20.670170,91.567780,1.057995,-0.078384,0.377050
953796336,76.457382,27.978735,90.100342,1.148918,-0.134311,0.321718
953806316,57.657269,37.483547,89.826691,1.217179,-0.040114,0.234736
953816295,36.629967,44.751217,85.390022,1.123736,0.417855,0.741842
953826275,-191.351318,37.042332,34.846428,0.529100,2.156414,1.862950
953836254,-387.419556,-55.600548,18.581331,0.455781,1.153249,-0.229498
953846234,-378.434570,-99.830704,47.866001,0.656451,0.229460,-0.065898
953856214,-303.371552,-41.850559,61.263336,1.379485,0.077825,-0.301119
953866193,-218.903381,11.611061,73.878853,1.390252,-0.255378,-0.477406
953876183,-154.561676,33.428421,73.406189,1.143866,-0.574212,-0.013926
953886153,-118.503616,27.447243,53.300911,1.087971,-0.738855,0.274955
953896133,-71.048737,12.028850,25.111559,0.997619,-0.809086,0.269349
953906112,9.016609,5.163455,-1.707793,0.958603,-0.410602,0.177601
953916092,100.655960,-0.403467,-22.495201,0.957641,-0.047347,0.339733
953926071,154.752335,-4.106461,-38.294197,1.074629,0.315039,0.538465
953936051,148.235413,-4.034883,-50.808010,1.140266,0.508815,0.620635
953946031,114.954933,-3.932394,-67.751457,1.221939,0.590926,0.574529
953956013,78.064850,-1.760016,-82.205414,1.308953,0.694645,0.405961
953965989,49.023762,8.821824,-85.034210,1.292259,0.650932,0.301468
953975968,37.551346,22.518757,-76.592453,1.197716,0.662104,0.264948
953985948,33.293102,27.725346,-65.882881,1.041086,0.600934,0.285114
953995928,21.946398,19.999773,-60.732857,0.957292,0.587844,0.300365
954005907,3.088759,5.362223,-63.247448,0.987207,0.606990,0.275649
954015887,-17.524256,-5.058431,-74.198380,1.092961,0.576272,0.251501
954025867,-35.076046,-4.842392,-92.881119,1.217188,0.616204,0.185740
954035846,-46.907513,5.446617,-115.567215,1.201504,0.582361,0.135376
954045826,-51.069695,17.897068,-132.842712,1.082502,0.560340,0.149035
954055806,-50.027416,25.571749,-134.307922,0.932713,0.452407,0.158801
954065785,-41.586086,27.410837,-121.608452,0.816024,0.355489,0.199408
954075765,-32.880966,25.793001,-103.089462,0.773331,0.282179,0.228420
954085745,-30.413504,22.868700,-86.122192,0.770058,0.207175,0.306262
954095724,-33.771809,15.460036,-77.105995,0.804955,0.191320,0.378190
954105704,-40.824463,7.531687,-82.718437,0.855201,0.200391,0.362754
954115684,-45.162922,6.339056,-100.201820,0.940643,0.265076,0.321191
954125663,-43.138115,14.634931,-116.357803,0.966428,0.274061,0.232640
954135643,-34.964027,23.928093,-118.515244,0.888079,0.198472,0.192374
954145623,-24.392021,24.502365,-103.636276,0.795999,0.110374,0.182112
954155602,-12.122682,16.035202,-81.907715,0.760158,0.066472,0.188002
954165582,0.516932,5.309490,-63.301399,0.788639,0.082520,0.236524
954175561,5.768116,-3.648701,-54.800880,0.860669,0.129235,0.311933
