Timestamp (us),Gyroscope X (deg/s),Gyroscope Y (deg/s),Gyroscope Z (deg/s),Accelerometer X (g),Accelerometer Y (g),Accelerometer Z (g)
8950777571,23.637331,-8.428959,13.707290,0.603751,0.114182,0.813158
8950797616,18.681465,-8.135781,13.866903,0.616415,0.112936,0.780849
8950817661,13.620651,-4.613638,10.877912,0.612362,0.122401,0.807872
8950837705,9.858255,-6.154681,7.883751,0.619166,0.162986,0.798938
8950857750,6.198314,-3.431415,5.791351,0.615698,0.137785,0.773992
8950877795,4.979439,-2.405678,2.668607,0.589093,0.115759,0.786726
8950897840,4.664188,-4.161206,2.581264,0.641029,0.090575,0.765372
8950917884,2.449497,0.035114,-0.026417,0.629905,0.115860,0.821984
8950937929,-1.678616,-2.903033,-0.563360,0.616671,0.122016,0.826480
8950957974,-1.733301,-3.549078,-0.638513,0.637062,0.082953,0.774692
8950998065,0.369597,-2.174929,-0.107418,0.650894,0.034260,0.764179
8951018110,-0.234206,-0.632176,-1.681235,0.643398,0.036194,0.751453
8951038155,-0.120479,1.700598,-2.880385,0.654756,0.027551,0.752244
8951058199,-1.144690,4.004251,-3.415609,0.642687,0.066232,0.793717
8951078244,-2.173245,3.396958,-3.696644,0.618148,0.064306,0.791733
8951098289,-3.004399,3.488574,-4.383622,0.612705,0.037771,0.779712
8951118334,-3.096049,2.493127,-4.016301,0.620323,0.031642,0.792565
8951138377,-3.397794,0.996654,-2.679370,0.633262,0.065899,0.803666
8951158422,-5.776005,0.960885,-2.280188,0.616200,0.062814,0.795646
8951178467,-5.888359,-0.171077,-1.295496,0.609608,0.052366,0.786944
8951198511,-5.775552,-1.409067,0.967444,0.597498,0.052900,0.785394
8951218556,-4.964711,-3.065775,3.057824,0.603306,0.048820,0.775364
8951238601,-3.694673,-3.796337,3.505875,0.594444,0.034264,0.773872
8951258646,-1.982476,-5.660297,2.816482,0.586830,0.045093,0.780464
8951278691,-2.779516,-6.867711,3.722693,0.587111,0.082629,0.802736
8951298736,-4.265369,-9.427701,4.079329,0.583517,0.094409,0.810533
8951318780,-3.274688,-10.438055,7.165717,0.639312,0.081360,0.748410
8951338825,-1.245831,-6.479029,8.974810,0.662081,0.048953,0.751757
8951358872,1.008010,-6.191806,9.734324,0.636968,0.034643,0.788200
8951378917,2.489485,-7.347368,12.001928,0.647442,0.036993,0.744374
8951398961,3.916786,-4.550588,14.121465,0.676033,0.032756,0.734603
8951419006,2.337298,-2.952299,15.846178,0.696519,0.017397,0.758369
8951439051,2.063409,-1.613752,17.149740,0.684252,0.031699,0.781651
8951459096,1.626202,-2.030878,18.334322,0.666012,0.038363,0.757882
8951479141,9.169668,-2.613841,21.004389,0.711113,-0.013797,0.673515
8951499184,14.197165,3.219035,20.747013,0.719519,-0.044351,0.701598
8951519229,15.824801,5.899273,17.638971,0.695987,-0.033303,0.755688
8951539273,11.933438,5.976972,13.943390,0.674248,0.013882,0.780632
8951559318,14.587891,6.757511,13.853735,0.695783,0.023876,0.732545
8951579363,18.327747,11.018167,13.622957,0.695787,-0.000366,0.708709
8951599408,16.169542,13.092888,8.898962,0.659055,0.020716,0.773910
8951619453,13.826530,11.596840,7.265170,0.680111,0.041885,0.782265
8951639497,11.766717,15.223430,5.670074,0.682521,0.048959,0.744623
8951659542,7.816017,19.161676,0.516200,0.649064,0.040945,0.739528
8951679587,5.181758,19.169313,-4.445975,0.635839,0.027020,0.765585
8951699632,3.007592,18.151144,-7.887050,0.612362,0.018606,0.801264
8951719678,1.945097,15.513614,-10.116188,0.592644,0.028660,0.826893
8951739723,1.880514,12.777564,-9.793139,0.623234,0.018096,0.791150
8951759768,3.615341,13.954085,-9.990392,0.606543,0.010868,0.790815
8951779813,5.212506,11.285507,-8.560256,0.593359,0.004734,0.810344
8951799858,8.166899,10.288014,-6.898321,0.606461,0.006256,0.795860
8951819902,9.325191,11.306504,-4.691240,0.583040,0.033173,0.800929
8951839947,9.591640,8.837523,-1.422701,0.550648,0.046331,0.813512
8951859990,9.433397,7.857549,-0.582548,0.589398,0.033622,0.838118
8951880035,7.731537,11.557196,-8.031309,0.511848,0.185700,0.855507
8951900080,-3.598222,6.436524,-8.000547,0.483324,0.233978,0.841334
8951920125,-8.370369,3.560887,-5.995719,0.496166,0.112277,0.843616
8951940170,-4.311749,2.068718,-3.618045,0.517699,0.078030,0.854708
8951960214,-3.607511,1.133992,-1.916063,0.553561,0.085807,0.819581
8951980259,-3.347270,3.368997,-0.533641,0.535555,0.055403,0.813782
8952000304,-0.965539,1.748585,0.782832,0.518486,0.032934,0.835512
8952020349,2.752982,-0.275884,1.952307,0.531338,0.047756,0.844315
8952040393,4.454564,-2.792810,2.779653,0.555595,0.052320,0.832345
8952060438,5.346008,-2.793353,3.283245,0.554020,0.056429,0.830024
8952080485,6.293490,-4.542292,3.369054,0.550207,0.070158,0.829609
8952100529,5.453175,-5.864277,2.950122,0.553176,0.087838,0.834766
8952120574,4.098783,-7.892184,3.632833,0.561892,0.097153,0.829927
8952140619,2.264960,-8.232742,3.388193,0.565991,0.100933,0.819092
8952160664,0.784101,-8.764098,2.089702,0.563699,0.093490,0.818863
8952180708,0.152800,-9.509192,0.381131,0.580315,0.086315,0.806662
8952200754,-0.562578,-8.718357,-0.185504,0.586191,0.083227,0.807914
8952220812,-0.279417,-8.156053,0.032724,0.593820,0.086163,0.801117
8952240842,-0.667196,-6.795492,-0.628381,0.605765,0.092348,0.798695
8952260886,-1.486557,-5.487541,-0.798556,0.603063,0.082754,0.802669
8952280931,-1.477478,-5.107421,-0.593291,0.601063,0.063441,0.800538
8952300976,-0.017409,-5.154237,-0.482549,0.604262,0.071259,0.804047
8952321020,-0.534773,-5.161434,-0.577613,0.606299,0.069647,0.787141
8952341065,-0.623793,-4.059232,-0.524645,0.609668,0.064068,0.791673
8952361110,-0.038252,-4.059722,-0.491042,0.613375,0.082943,0.799738
8952381155,-0.584897,-3.382845,-0.617002,0.623074,0.078019,0.794478
8952401200,0.036586,-2.706396,0.543193,0.620186,0.052754,0.786927
8952421245,0.577741,-1.999991,0.561231,0.618540,0.066214,0.791538
8952441291,0.923002,-1.946724,1.358454,0.620348,0.077571,0.790001
8952461336,0.518300,-0.608249,2.251632,0.624785,0.067893,0.784559
8952481381,1.108487,-0.099057,3.259859,0.608263,0.054971,0.791465
8952501425,1.665363,-0.448873,3.918712,0.606241,0.060294,0.792135
8952521470,1.476621,-0.281373,4.186641,0.612268,0.060362,0.788809
8952541515,2.270621,0.257866,4.797126,0.608811,0.063226,0.799413
8952561560,2.469157,-0.046166,5.169188,0.614528,0.059524,0.791018
8952581605,2.530813,1.002549,4.885847,0.610292,0.055734,0.787650
8952601648,2.801538,0.553619,4.320441,0.615048,0.063886,0.790257
8952621693,2.808848,1.222295,3.923601,0.615410,0.069514,0.787573
8952641738,2.977066,1.017089,4.272947,0.614972,0.051938,0.789354
8952661783,4.391092,1.053852,4.231598,0.620556,0.060531,0.791509
8952681827,3.432255,0.758212,4.140191,0.615167,0.097514,0.788797
8952701872,1.842120,0.736651,3.847671,0.618938,0.089961,0.773318
8952721917,2.255801,0.820254,4.629105,0.621339,0.082644,0.787599
8952741962,3.290020,0.949474,6.624665,0.619690,0.083351,0.793590
8952762006,3.802601,-0.030869,7.932009,0.591642,0.093593,0.802860
8952782051,2.881272,-2.736402,6.867452,0.607724,0.098594,0.783999
8952802096,1.530213,-2.181139,5.193642,0.654719,0.087401,0.745741
8952822142,-1.268715,2.859319,2.490604,0.664069,0.076347,0.736887
8952842187,-3.252364,5.893135,1.215453,0.659116,0.061873,0.767197
8952862232,-2.474844,6.880582,1.277122,0.680079,0.039015,0.751060
8952882277,-0.269051,11.393532,1.370218,0.658977,0.034179,0.744664
8952902322,0.548775,12.236835,2.102125,0.629793,0.048401,0.784757
8952922366,0.634343,10.794069,5.294899,0.603503,0.077227,0.783234
8952942411,2.794132,10.018971,9.811959,0.595203,0.144736,0.772328
8952962454,1.197771,6.028172,5.797893,0.639338,0.166186,0.804157
8952982499,-3.591000,4.334234,-1.111676,0.747750,0.155111,0.770717
8953002544,-6.561489,13.776885,-1.067355,0.663516,0.092900,0.755320
8953022589,-8.494038,10.173731,-5.703910,0.604675,0.097230,0.790817
8953042634,-13.889421,11.140177,-13.464592,0.585235,0.074870,0.784941
8953062678,-20.060942,7.684565,-19.280096,0.592397,0.044850,0.833677
8953082723,-16.026134,1.013742,-22.664394,0.654185,0.085919,0.791636
8953102768,-22.804770,7.317771,-28.873003,0.611506,0.081830,0.780706
8953122813,-25.405388,3.000099,-34.905525,0.575223,0.079162,0.827988
8953142857,-29.716148,-2.860446,-44.062218,0.627982,0.143057,0.746998
8953162902,-37.953384,2.743163,-55.622261,0.625275,0.165288,0.752076
8953202993,-53.643387,-1.509306,-76.958672,0.654590,0.143037,0.748923
8953223038,-65.135788,3.033108,-88.317535,0.692682,0.182163,0.754250
8953243083,-74.407524,5.803103,-98.655663,0.688504,0.125329,0.753049
8953263128,-81.664825,8.449738,-109.016739,0.661703,0.092906,0.752393
8953283173,-88.254440,9.144477,-114.810097,0.674673,0.071707,0.734909
8953303217,-91.017769,10.944723,-122.576508,0.657190,0.071278,0.727683
8953323261,-97.479202,14.421380,-127.984970,0.601817,0.021199,0.747540
8953343305,-96.098503,12.600060,-135.878769,0.568857,0.036537,0.833028
8953363350,-95.895836,8.227419,-140.454788,0.579436,0.044787,0.810913
8953383395,-96.478409,9.039557,-144.085022,0.566589,0.032214,0.810650
8953403440,-97.653320,4.204390,-148.825256,0.577385,0.077467,0.799976
8953423485,-100.957161,2.481757,-149.110626,0.643088,0.060490,0.757168
8953443529,-108.861732,8.196645,-149.245895,0.674616,0.000096,0.803692
8953463574,-110.479538,5.644948,-147.608398,0.796572,-0.076187,0.832617
8953483619,-108.812401,12.461912,-146.324875,0.757575,-0.116493,0.763380
8953503664,-112.009521,16.739771,-155.393036,0.647105,-0.207881,0.756044
8953523709,-102.928497,16.296478,-160.292252,0.611317,-0.360432,0.778619
8953543755,-83.697296,19.015982,-160.602249,0.499097,-0.366722,0.785590
8953563800,-74.625320,19.205940,-160.207260,0.463360,-0.274389,0.772185
8953583844,-64.271500,22.762619,-158.225464,0.442314,-0.210904,0.795998
8953603889,-61.973324,22.647800,-155.614670,0.466441,-0.138501,0.898002
8953643979,-53.547295,16.333569,-152.024139,0.468532,-0.103884,0.911297
8953664024,-58.200191,11.630171,-157.751068,0.416544,-0.078791,0.920088
8953684067,-59.086731,6.939975,-160.703354,0.437065,-0.066165,0.943350
8953704112,-61.025276,2.251251,-162.405792,0.438779,-0.051082,0.902450
8953724157,-62.064110,1.689244,-163.410522,0.462499,-0.021101,0.886898
8953744202,-65.153748,0.734985,-161.725128,0.495866,-0.026348,0.860964
8953764246,-64.493088,5.925376,-162.420761,0.515988,-0.021478,0.832483
8953784291,-62.379749,9.161622,-162.036255,0.441157,-0.081232,0.823234
8953804336,-50.582169,9.815024,-156.870697,0.377455,-0.104773,0.914736
8953824381,-37.255116,5.093830,-150.782364,0.430155,-0.086536,0.961130
8953844425,-26.039612,16.800755,-142.057449,0.492977,-0.055115,0.923273
8953864470,-33.767521,22.203241,-143.565033,0.335000,0.083648,0.837121
8953884515,-46.369743,17.183027,-142.320938,0.138095,0.004477,0.977638
8953904562,-37.262260,1.078890,-154.724792,0.396924,0.001017,0.997493
8953924606,-47.982197,11.067003,-173.469223,0.661223,0.287162,0.798766
8953944651,-72.837555,34.778091,-177.338776,0.236964,0.097232,0.885913
8953964696,-64.639465,8.369871,-186.031052,0.117983,-0.128412,1.115974
8953984740,-52.570190,-5.653270,-196.303619,0.407327,0.165960,0.959425
8954004786,-75.496025,7.398492,-203.461349,0.414526,0.322367,0.944348
8954024830,-91.024940,3.576999,-212.663483,0.294681,0.286055,1.006957
8954044873,-96.091087,-3.354683,-222.019043,0.170406,0.123396,1.036800
8954064918,-97.534317,-13.595509,-230.736496,0.162181,0.043139,1.028298
8954084963,-95.384338,-17.877623,-233.095367,0.249574,0.059433,0.991837
8954105008,-93.028229,-20.531813,-232.021500,0.231815,0.153319,0.978186
8954125052,-96.872299,-27.088831,-234.096115,0.312228,0.231490,0.948903
8954145097,-107.624168,-26.802166,-242.614990,0.448608,0.239227,0.889837
8954165142,-121.246750,-18.090195,-248.362000,0.461242,0.117657,0.872087
8954185187,-118.973373,-18.617374,-250.062592,0.464350,0.049845,0.880681
8954205232,-125.970047,-20.485451,-259.697632,0.610728,-0.073684,0.956698
8954225277,-129.590836,-6.676864,-270.782806,0.548264,-0.468421,1.030606
8954245321,-91.988396,-10.358285,-255.297745,0.269538,-0.587879,1.041392
8954265368,-66.391182,-24.727060,-230.820007,0.276153,-0.280939,0.939850
8954285412,-56.614330,-16.280390,-207.027206,0.219648,-0.146896,0.852385
8954305457,-51.940880,-18.468723,-196.601044,0.159921,-0.186783,0.910911
8954325502,-39.976124,-25.182558,-195.909363,0.259449,-0.180829,0.994439
8954345547,-34.856964,-24.648949,-199.499252,0.313091,-0.062699,0.964084
8954365592,-34.012634,-21.960463,-202.669861,0.312288,-0.005955,0.955143
8954385636,-41.274258,-23.479519,-214.162079,0.380173,-0.006705,0.929151
8954405680,-43.903622,-18.060780,-220.432129,0.394877,-0.046564,0.856660
8954425725,-40.692970,-19.263031,-217.263565,0.420149,-0.010302,0.867926
8954445770,-44.652554,-18.921482,-209.066696,0.494286,0.043730,0.841073
8954465814,-48.600105,-12.112623,-202.803497,0.485988,-0.035886,0.857875
8954485859,-42.331352,-8.967949,-195.266708,0.464137,-0.128118,0.866853
8954525949,-33.489048,-0.691183,-179.214386,0.422899,-0.091264,0.872803
8954545994,-29.631105,5.896961,-175.509613,0.357373,-0.106866,0.886565
8954566039,-27.861134,9.461014,-173.614365,0.351397,-0.102792,0.920356
8954586083,-10.693658,23.322613,-162.194534,0.350478,-0.119383,0.906101
8954606129,-16.864323,35.833210,-157.481415,0.231789,-0.106343,0.912774
8954626174,-26.671886,25.403683,-162.454895,0.128321,-0.024354,0.941933
8954646219,-32.679337,18.978121,-163.697876,-0.047925,-0.058497,0.923538
8954666264,-31.927212,-1.010404,-176.209229,0.377214,0.025653,0.972290
8954686309,-50.562176,20.689720,-194.721222,0.418073,0.106850,0.814047
8954706354,-62.999535,44.770756,-214.021942,0.021541,-0.060871,1.078476
8954726398,-56.071831,11.834162,-223.764893,-0.072307,-0.051009,1.225748
8954746462,-63.956238,-1.594698,-235.370575,0.177663,0.067535,1.055067
8954766487,-76.227951,15.900324,-245.958649,0.073895,0.015748,1.066391
8954786532,-80.239944,12.155025,-249.550659,-0.107782,-0.098499,1.191375
8954806576,-74.538948,3.007410,-247.452591,-0.251612,-0.246091,1.246898
8954826621,-60.438271,-13.365821,-240.262131,-0.354176,-0.235258,1.246514
8954846665,-49.329582,-30.465565,-231.806274,-0.191706,-0.110057,1.134137
8954886755,-46.396172,-32.895947,-238.949570,0.147589,0.145342,0.973904
8954906800,-58.311844,-30.915951,-236.467926,0.225579,0.270461,0.914262
8954926845,-83.998283,-40.676064,-236.901703,0.468087,0.202112,0.903487
8954946890,-106.400864,-16.493692,-269.679077,0.698625,-0.475864,1.006364
8954966936,-78.993958,19.558926,-245.346695,0.083283,-1.152924,1.272489
8954986981,-11.200187,-23.516479,-204.831665,-0.234628,-0.605519,1.062164
8955007025,-17.620543,-29.519917,-180.969604,-0.076888,-0.075971,0.867933
8955027070,-20.243906,-22.588665,-170.435165,0.011794,-0.271409,0.966064
8955047115,2.931295,-29.955830,-164.404587,0.048624,-0.353609,0.996237
8955067160,18.097128,-29.654865,-159.013123,0.197115,-0.228322,0.979444
8955087205,19.504097,-19.980633,-159.535873,0.293905,-0.096040,0.915601
8955107257,11.856524,-10.050466,-166.068848,0.283815,0.051387,0.908757
8955127293,0.866624,-4.679605,-159.689316,0.254447,0.102911,0.887996
8955147338,-9.273521,-1.938058,-150.517914,0.280530,0.101907,0.878818
8955167382,-15.929158,3.840390,-142.160797,0.333812,0.075362,0.886254
8955187427,-16.416634,9.942345,-129.364075,0.329509,-0.002207,0.916817
8955207473,-19.375034,13.292873,-121.238693,0.352851,-0.052038,0.919857
8955227517,-18.850168,21.089582,-106.950546,0.352453,-0.096362,0.904105
8955247562,-5.902812,31.970627,-72.320671,0.228129,-0.230059,0.992523
8955267607,10.185263,23.137501,-44.004189,0.143441,-0.141003,0.966587
8955287651,11.197441,20.702850,-30.609068,0.231971,0.046095,0.851610
8955307696,8.727995,26.984674,-27.251642,0.212288,0.144865,0.891166
8955327743,-0.853970,22.334435,-25.672976,0.175999,-0.088551,0.937804
8955347787,3.247626,15.432691,-35.357899,0.538616,-0.111852,0.962860
8955367832,-13.814562,40.940266,-51.965736,0.329283,0.144264,0.899127
8955387877,-25.158112,38.911686,-55.038445,0.053913,0.024917,1.170233
8955407922,-26.280142,17.788063,-60.045559,0.101280,-0.172228,1.099006
8955427966,-23.846003,23.780865,-64.579910,0.108083,-0.130744,1.038351
8955448011,-31.591845,18.753544,-69.787628,0.122341,-0.010642,0.934766
8955468055,-34.674004,25.642389,-69.892403,0.052960,0.063497,0.957592
8955488099,-48.752373,25.488497,-67.308372,-0.094513,-0.003911,1.112575
8955508144,-55.989223,6.294253,-69.824959,-0.118010,-0.051931,1.205392
8955528189,-63.872112,-4.721927,-74.210808,-0.050492,-0.021916,1.259627
8955548234,-70.656113,-9.193987,-76.668602,-0.118157,-0.031143,1.343152
8955568278,-75.216217,-19.377094,-81.354973,-0.241245,-0.108748,1.437397
8955588323,-76.235451,-38.197826,-86.426003,-0.347670,-0.162910,1.442530
8955608368,-68.518097,-56.553047,-87.473442,-0.406512,-0.154013,1.328858
8955628413,-60.170036,-74.005455,-91.025360,-0.408270,-0.093368,1.152538
8955648458,-43.688152,-112.904655,-90.596909,-0.219205,-0.093494,1.085909
8955668503,9.992780,-103.957092,-85.501305,0.194110,-0.040885,0.534670
8955688549,-5.729208,-113.749329,-70.698662,0.581256,0.046209,0.195817
8955708593,-57.603302,-118.925545,-52.362583,1.333153,-0.435660,0.483701
8955728638,-46.059296,12.328907,-34.641716,0.633784,-1.640555,0.930287
8955748683,69.402809,-52.664257,-31.770658,-0.275461,-0.884495,1.440728
8955768732,62.825897,-115.851974,-17.612356,0.427944,0.160813,0.733009
8955788773,32.163700,-35.493122,-16.249546,0.460748,0.058577,0.707689
8955808818,19.587982,-42.482475,-33.036282,0.004269,-0.032478,1.048526
8955828861,21.979803,-83.437599,-34.173878,0.230742,-0.059134,0.795840
8955848906,2.834084,-66.081161,-44.983372,0.569013,-0.152466,0.655959
8955868951,1.138870,-41.031387,-52.932323,0.628204,-0.100866,0.702581
8955888995,1.483324,-30.919271,-45.196716,0.548316,-0.110922,0.672217
8955909040,6.257079,-19.665688,-42.813721,0.639888,-0.160617,0.659003
8955929085,10.070036,-2.511146,-36.025558,0.678174,-0.148246,0.683853
8955949130,11.103586,10.244523,-30.278494,0.595388,-0.119964,0.704137
8955969175,9.696569,17.966318,-34.107010,0.509139,-0.068837,0.712099
8955989220,7.832757,24.718454,-31.653633,0.603917,-0.046279,0.787443
8956009264,10.013662,40.376785,-25.476244,0.877765,-0.135516,0.914820
8956029309,20.228111,67.373276,-25.404861,0.566295,-0.103671,0.753501
8956049356,17.794546,68.995697,-22.370892,0.250794,-0.013617,0.940645
8956069401,26.080597,52.579361,-20.750496,0.364703,-0.094991,0.842182
8956089445,21.404047,48.271935,-24.893011,0.378246,-0.147011,0.849903
8956109490,16.183046,36.883915,-22.876696,0.325513,-0.058595,1.002380
8956129535,17.380798,21.860039,-14.605823,0.498666,0.079771,0.829245
8956149580,10.212569,28.912092,2.271288,0.645468,-0.106186,0.808909
8956169624,0.123919,45.816628,-15.730324,0.737207,0.020097,0.899945
8956189668,-16.603640,56.951416,-31.412949,0.414237,0.400671,0.729745
8956209712,-31.843845,69.003677,-32.313107,0.055756,0.133929,0.995451
8956229757,-24.644648,22.071825,-29.954639,0.119959,-0.095694,1.043520
8956249802,-20.934406,16.250853,-37.115929,0.160837,-0.120903,0.832986
8956269847,-15.262377,32.494576,-40.808701,0.051587,0.031555,0.874904
8956289892,-13.730831,31.736448,-33.574730,-0.122145,0.116974,1.255772
8956329981,-20.381350,-7.844254,-38.057297,-0.343711,0.130969,1.570236
8956350026,-15.708755,-29.324982,-48.532730,-0.614500,0.220371,1.597018
8956370071,-10.921769,-81.336060,-38.319363,-0.568071,0.149015,1.383263
8956390116,49.547707,-102.100060,-21.187954,0.085110,-0.252825,0.952243
8956410162,43.129478,-89.493256,-39.579319,0.611615,0.143007,0.706455
8956430206,35.222935,-102.513382,-21.291044,0.975198,0.627598,0.358140
8956450251,-96.226059,-57.102459,-44.239967,0.962562,0.247353,0.759416
8956470296,-130.803146,-10.209194,-66.599815,0.397448,-0.686613,1.329749
8956490341,10.439487,-76.576813,-45.252689,0.101075,-0.219330,1.265732
8956510386,-29.280384,-58.011375,-27.001762,0.285705,0.110161,0.808501
8956530430,-33.227966,-47.398094,-28.550900,0.162813,-0.255648,0.811897
8956550474,-10.058418,-69.155426,-27.085276,0.111895,-0.301819,0.739162
8956570519,-4.210148,-76.589050,-33.042500,0.376038,-0.144272,0.670597
8956590563,-3.597382,-65.616013,-37.102890,0.668493,-0.096765,0.635013
8956610608,-0.128112,-42.963238,-41.333351,0.686822,-0.141576,0.603560
8956630653,1.696897,-28.767942,-44.050022,0.599890,-0.165094,0.663026
8956650698,-2.420842,-29.697819,-40.833122,0.629763,-0.137267,0.764985
8956670743,-12.501492,-25.865814,-40.508053,0.710294,-0.127090,0.850980
8956690788,-16.536213,-19.977684,-36.726868,0.753478,-0.011793,0.885851
8956710832,-21.910606,-14.861891,-29.003637,0.673212,-0.080914,0.881101
8956730877,-24.561821,-17.177958,-29.323944,0.523367,-0.142379,0.808042
8956750922,-27.435211,-29.655769,-29.213932,0.600727,-0.141358,0.819524
8956770968,-19.407515,-31.326092,-26.637972,0.768214,-0.306385,0.836495
8956791013,5.880301,1.124347,-21.971590,0.736546,-0.440582,0.821439
8956811058,16.078299,20.566336,-20.605450,0.578954,-0.146248,0.879404
8956831103,-3.080037,3.548079,-24.251617,0.340823,0.039476,0.729823
8956851147,-20.243422,3.104691,-29.056259,0.389919,0.030573,0.897868
8956871192,-31.006762,-6.124906,-38.023163,0.477439,-0.078934,0.887940
8956891237,-35.553635,-3.482857,-53.356903,0.521171,-0.286455,0.824147
8956911281,-33.461937,-6.400888,-81.626427,0.821890,-0.064949,0.775351
8956931326,-43.122707,35.199654,-78.986229,0.262666,-0.386109,0.841836
8956951370,-25.669258,-3.263427,-87.159088,0.141676,-0.515617,1.187080
8956971415,-10.405288,-33.916779,-91.063896,0.416976,-0.146559,0.854006
8956991460,-15.172174,-10.433778,-90.325813,0.370587,0.023264,0.868471
8957011504,-15.011220,-19.470839,-89.648102,0.314303,0.084737,0.843881
8957031549,-29.002375,-27.898449,-96.122688,0.578958,0.239386,0.603725
8957051594,-56.922035,-3.013204,-114.612213,0.854024,0.232251,0.603061
8957071639,-67.177803,20.938517,-129.968048,0.890884,0.005762,0.862583
8957091684,-65.884964,15.165260,-137.080368,0.834039,-0.273932,1.059403
8957111730,-53.300152,15.451920,-134.640228,0.744550,-0.310872,0.947889
8957131775,-48.487701,18.668451,-122.247108,0.426646,-0.147646,0.874843
8957151820,-54.213646,2.583872,-102.860382,0.436246,-0.147369,0.895123
8957171865,-37.570713,-3.391203,-89.909340,0.583892,-0.233793,0.798405
8957191909,-25.152897,17.870823,-93.452888,0.601469,-0.177007,0.657856
8957211954,-14.126275,43.750282,-91.200226,0.389944,-0.045170,0.724780
8957231999,-19.542566,34.331764,-87.508247,0.340341,-0.001047,0.898131
8957252044,-14.343445,14.106054,-78.135628,0.616895,0.019090,0.952336
8957272087,-1.292208,25.306265,-60.282341,0.532342,0.083131,0.971948
8957292132,1.220465,17.108763,-47.396088,0.291024,0.063152,1.099633
8957312177,14.060562,-10.384622,-26.518223,0.302051,0.020413,1.137304
8957332222,19.241829,-18.337660,-5.767717,0.257053,0.088294,1.089618
8957352267,19.868225,-20.443188,11.972483,0.032184,0.274442,1.238574
8957372311,18.553608,-53.352577,29.893814,-0.055862,0.265067,1.197129
8957392356,24.590168,-73.711166,49.598167,0.140195,0.080585,0.917209
8957412401,52.511139,-73.177322,90.164337,0.307772,-0.146840,0.828537
8957432446,85.369110,-77.826859,123.978203,0.540331,-0.499190,0.782432
8957452491,128.232285,-65.180702,135.537369,0.874025,-0.248577,0.642137
8957472537,143.702454,-54.328884,143.918137,1.272744,0.415811,0.481148
8957492582,95.625900,-0.005529,138.742584,1.074811,1.342539,0.552354
8957512626,-22.446796,1.233792,115.793839,0.703355,1.123943,0.730075
8957532671,-60.107086,-11.190880,82.870941,0.711072,0.482739,0.817091
8957552716,-34.236515,-9.277957,59.579716,0.704842,0.344520,0.640103
8957572761,-48.774597,-1.894509,55.631271,0.639094,0.311917,0.534462
8957592806,-50.039062,11.223665,68.663467,0.579017,0.149536,0.697150
8957612849,-23.520985,9.385046,87.385742,0.521187,-0.001271,0.751051
8957632894,1.226639,7.202516,98.556946,0.558155,-0.006466,0.739620
8957652939,22.712744,5.559644,103.505638,0.630197,0.113028,0.634003
8957672984,32.404106,13.539425,103.103821,0.573620,0.224516,0.553825
8957693029,31.918814,11.851207,100.259888,0.562161,0.259416,0.615636
8957713073,39.783821,9.966991,100.148041,0.654447,0.215258,0.688327
8957733118,47.457748,17.819010,99.099022,0.693960,0.216939,0.737584
8957753163,52.553516,24.452410,104.401718,0.734840,0.251899,0.877711
8957773208,61.095242,24.531776,111.344994,0.718548,0.257110,0.808629
8957793253,65.556473,27.408676,111.544235,0.608462,0.400620,0.759297
8957813297,56.035049,18.306204,117.171967,0.666060,0.337957,0.823420
8957833344,65.475945,19.599083,120.084724,0.661635,0.256293,0.817142
8957853388,65.450714,15.868582,123.227188,0.585058,0.312615,0.844797
8957873433,55.606911,8.621096,129.160355,0.611831,0.277334,0.837363
8957893478,58.887806,9.166780,131.968674,0.663423,0.277751,0.838100
8957913523,61.170422,11.248062,133.434769,0.656140,0.372029,0.799668
8957933567,58.697525,10.306778,131.367203,0.562590,0.349049,0.794075
8957953612,59.638107,0.264659,129.624908,0.529796,0.296699,0.811475
8957973656,64.178421,-4.627080,128.360565,0.593103,0.280573,0.780478
8957993700,63.059074,-3.874914,125.549683,0.643775,0.386537,0.825951
8958013745,59.111000,-6.682518,128.302322,0.697555,0.328026,0.763825
8958033790,57.387856,0.007355,127.798775,0.733412,0.270073,0.778950
8958053835,61.151520,3.833162,124.048599,0.707528,0.316080,0.783935
8958073880,57.825932,4.268804,123.007118,0.629238,0.343256,0.761652
8958093925,53.388046,1.118382,123.082214,0.616125,0.302864,0.834179
8958113969,56.183777,-2.326651,124.183929,0.654754,0.275366,0.830773
8958134014,55.130550,0.077780,127.953156,0.680760,0.296888,0.860102
8958154059,56.392662,-0.347052,132.156784,0.685220,0.258239,0.832503
8958174104,56.365120,3.393847,135.109360,0.708991,0.300979,0.829046
8958194150,57.569862,4.868338,137.315659,0.732507,0.276665,0.806020
8958234240,62.697315,14.882540,139.339050,0.686261,0.343065,0.827804
8958254284,60.788979,19.832968,140.948837,0.616038,0.385527,0.830492
8958274329,59.505211,20.350941,140.988663,0.549609,0.351530,0.845218
8958294374,59.521828,19.432508,143.792938,0.553983,0.315179,0.882696
8958314419,62.809307,19.848883,146.395660,0.573641,0.312117,0.878222
8958334462,64.965530,22.630625,150.269440,0.593382,0.316679,0.881788
8958354507,65.441719,29.995163,149.999802,0.504264,0.333878,0.894379
8958374552,64.788147,29.144667,150.477951,0.422808,0.305879,0.988337
8958394597,70.494850,23.504890,144.421082,0.377372,0.365321,0.982689
8958414642,60.835678,23.837755,139.314392,0.289426,0.337137,1.025253
8958434686,63.293507,13.425181,144.859116,0.352512,0.239046,1.067948
8958454731,74.790527,11.301610,160.260956,0.468493,0.129420,1.050126
8958474776,80.702065,19.545975,149.435593,0.138642,0.435122,1.213261
8958494821,65.781769,-15.159452,153.125290,0.195390,0.390998,1.142206
8958514865,58.066730,-13.161631,152.634048,0.312138,0.330014,1.157947
8958534912,67.747940,-23.959904,142.605316,0.045464,0.273893,0.989942
8958554956,94.138924,-50.456291,141.788071,0.182410,-0.079071,0.800477
8958575001,114.782784,-53.934509,154.035660,0.933982,-0.666879,0.748909
8958595046,177.246719,-18.275045,182.708725,0.970392,-0.112143,0.784473
8958615091,203.954041,-11.339317,175.077179,0.770823,1.160818,1.113014
8958635136,91.055618,-9.205956,138.892990,0.600362,1.302936,0.672945
8958655180,-1.572890,5.124889,121.039108,0.441074,0.972450,0.982969
8958675232,7.620260,-17.773933,126.384018,0.431043,0.450984,0.913089
8958695269,24.289871,-12.599960,103.106941,0.464387,0.386308,0.688258
8958715314,-2.381989,-3.239649,94.290146,0.471519,0.485090,0.722183
8958735359,-3.140368,5.673620,104.480820,0.513821,0.326603,0.866558
8958755403,14.437716,8.241277,101.380096,0.583442,0.257552,0.791614
8958775448,18.893856,23.960880,96.089676,0.504539,0.396360,0.774233
8958795493,16.670389,25.845158,90.292191,0.393972,0.411491,0.871992
8958815538,22.014551,24.985781,82.572777,0.371908,0.323430,0.852437
8958835583,26.221130,26.592514,80.398270,0.297712,0.346089,0.869280
8958855628,19.294973,25.906975,80.718666,0.400054,0.426932,1.089506
8958875672,25.751911,24.744801,77.859100,0.411886,0.366506,1.053673
8958895719,25.181087,32.515053,81.954765,0.243168,0.503992,1.070516
8958915763,29.621098,15.899688,89.905182,0.249268,0.461127,0.968034
8958935808,25.894308,19.839046,87.644539,0.167566,0.524379,0.947705
8958955853,14.446134,6.109132,92.643860,0.255743,0.238075,0.885707
8958975899,35.305565,15.541838,99.415276,0.293923,0.273036,0.845091
8958995943,39.618320,6.624257,120.158119,0.407949,0.180465,0.774126
8959015987,52.966465,30.892834,127.872040,0.286636,0.197673,0.934610
8959036031,58.852982,33.063110,131.336884,0.010319,0.564125,1.300119
8959056076,41.445942,13.449280,139.602371,-0.294716,0.846006,1.435408
8959076121,19.550478,-8.839476,140.438873,-0.603891,0.691901,1.408201
8959096165,28.031586,-66.130295,146.979767,-0.379301,0.215011,1.106776
8959116210,65.885513,-79.933395,151.517349,0.335536,-0.400458,0.849133
8959136255,112.206261,-62.209259,188.124634,0.828689,-0.665855,0.873317
8959156299,172.525970,-43.887714,211.071106,1.166908,-0.349420,0.892477
8959176344,200.749985,-5.992907,209.546631,1.198656,0.700742,0.634123
8959196389,119.135582,32.752014,197.344620,0.476033,1.646545,0.780548
8959216434,-11.703632,19.017252,165.228806,-0.164366,1.214736,0.884227
8959236479,-28.118437,-30.019318,140.732971,-0.076852,0.654299,0.946668
8959256525,-1.673884,-31.249352,109.966797,0.320316,0.464267,0.656427
8959276569,-23.968975,-17.489655,106.384148,0.393093,0.471447,0.702968
8959296614,-29.184704,-6.642627,115.091118,0.312378,0.309075,0.849389
8959316659,-9.770831,-12.013552,124.691154,0.383279,0.287445,0.841710
8959336704,-1.247584,-6.379651,128.117249,0.429544,0.376102,0.792607
8959356749,-4.976529,-2.539333,125.338699,0.390455,0.299633,0.789948
8959376794,-0.928092,-5.142160,125.576767,0.428483,0.203046,0.837456
8959416882,14.677129,1.323771,133.587311,0.482834,0.186335,0.782727
8959436927,15.499848,8.437767,134.595139,0.584280,0.185329,0.891000
8959456972,21.354631,17.498459,130.427795,0.578955,0.112151,0.833843
8959477017,21.389065,26.794352,131.020599,0.430445,0.179944,0.861606
8959497062,18.371189,19.860868,138.440033,0.393145,0.138142,0.853393
8959517106,18.019867,21.296305,135.340729,0.470671,0.096130,0.877341
8959537151,18.314909,22.743698,126.286568,0.511862,0.070478,0.907352
8959557196,22.870525,29.896456,119.281769,0.487387,0.011491,0.944351
8959577240,24.374950,28.743992,111.614922,0.689415,0.009022,0.945756
8959597285,20.303041,58.508480,104.182541,0.379775,-0.021691,0.986174
8959617331,34.602901,50.015472,107.996742,0.249546,-0.148440,1.127753
8959637377,49.776680,43.681999,98.706360,0.379903,-0.105983,0.941440
8959657421,45.494785,52.276440,86.214195,0.333295,-0.039653,0.990444
8959677466,40.452942,45.601490,73.140457,0.175916,0.016784,1.005308
8959697511,38.697220,37.935120,58.998749,0.193738,0.058920,1.006820
8959717556,31.822432,34.991898,41.966393,0.237062,0.051609,0.993358
8959737601,20.474480,35.207626,26.694715,0.178231,0.070681,1.062602
8959757643,6.913103,30.606443,11.467411,0.103523,0.083658,1.138700
8959777688,-7.624559,23.214184,-9.227322,0.034001,0.127187,1.126634
8959797733,-22.659531,18.254580,-29.912924,-0.021990,0.114581,1.220925
8959817778,-31.414227,0.726558,-48.471203,-0.057446,-0.010796,1.232444
8959837823,-38.633213,-11.187092,-69.728195,-0.096687,-0.103790,1.288826
8959857867,-35.482468,-25.956696,-83.756042,-0.227155,-0.159460,1.337952
8959877912,-29.324810,-45.415260,-90.549911,-0.328920,-0.117299,1.284510
8959897957,-26.033285,-59.833164,-99.726334,-0.318935,-0.054823,1.120916
8959918002,-15.262751,-76.835648,-112.210663,-0.089409,0.109077,0.989771
8959938047,-28.382465,-86.218735,-128.952866,0.258686,0.411100,0.652409
8959958091,-54.749985,-67.802788,-130.078461,0.655343,0.466330,0.502169
8959978138,-90.694168,-51.704056,-147.302094,0.883757,0.171252,0.525210
8959998183,-107.351486,1.400568,-148.694916,0.868464,-0.994372,0.936682
8960018227,-24.764256,11.413097,-120.037621,0.164251,-1.547931,1.241289
8960038272,49.689415,-57.496353,-65.196388,0.000551,-0.642705,0.946377
8960058326,27.291721,-56.209667,-35.878281,0.252763,-0.271240,0.859025
8960078362,38.170708,-36.576477,-47.422939,0.233344,-0.266524,0.853199
8960098407,43.090927,-51.290150,-52.025352,0.214003,-0.307834,0.874430
8960118450,47.799534,-52.537064,-60.745125,0.269296,-0.237341,0.828366
8960138495,39.044422,-45.306919,-73.315964,0.309478,-0.202214,0.789584
8960158540,29.620335,-39.184742,-83.343735,0.346876,-0.136928,0.843035
8960178584,18.819660,-34.752426,-84.712585,0.355149,-0.116520,0.883260
8960198629,9.182483,-33.062542,-80.709259,0.379947,-0.162246,0.877172
8960218674,-2.190094,-30.657982,-79.557770,0.447395,-0.170992,0.866538
8960238719,-8.724115,-24.403599,-77.418556,0.438943,-0.259997,0.832979
8960258763,-10.050099,-22.543755,-85.104630,0.440599,-0.280308,0.851458
8960278808,-6.627531,-19.484133,-86.223183,0.501297,-0.283569,0.866587
8960298853,-1.763565,-10.345086,-87.084274,0.493583,-0.309473,0.911629
8960318898,1.868753,-8.306090,-92.523048,0.476262,-0.260458,0.846365
8960338944,0.863242,-7.786918,-89.293289,0.496163,-0.102746,0.798867
8960358989,-4.708250,-7.781048,-86.949852,0.567934,-0.071808,0.838285
8960379034,-6.760942,0.449607,-92.868927,0.534245,-0.049234,0.814272
8960399079,-20.164461,1.669451,-93.407257,0.592101,0.074414,0.886783
8960419125,-13.662689,-0.806091,-75.902199,0.825007,-0.097346,0.739679
8960439168,-5.183158,33.021965,-65.531662,0.553319,-0.036659,0.777435
8960459213,-18.704844,28.610521,-64.456299,0.378572,0.052238,1.007861
8960479256,-10.104332,5.031940,-50.710835,0.588834,-0.057551,0.836044
8960499301,1.741540,24.292603,-43.780560,0.546945,-0.109783,0.763152
8960519346,6.277434,33.177025,-36.845383,0.379707,0.026693,0.995152
8960539391,5.582227,16.027065,-27.521896,0.303111,0.133732,1.026667
8960559436,3.075524,11.357872,-20.717978,0.289948,0.144079,1.055802
8960579481,3.304240,5.159621,-11.602388,0.299597,0.145396,1.093827
8960599525,1.307638,1.190086,-2.951798,0.231780,0.143137,1.057206
8960619570,3.850961,-5.110353,3.106441,0.143572,0.113562,1.033316
8960639615,3.210991,-14.633371,3.326045,0.134110,0.079101,0.988829
8960659660,9.869987,-27.457951,11.187288,0.228523,0.026760,0.931044
8960679705,25.386862,-29.701920,20.136208,0.453986,0.012788,0.878362
8960699751,46.428616,-19.675758,28.581696,0.559959,0.006950,0.833116
8960719796,53.356232,-13.478938,29.993048,0.536265,0.005071,0.851804
8960739841,46.124390,-2.932094,26.518875,0.607566,0.013585,0.853165
8960759886,53.839169,8.573170,36.428814,0.602405,0.288214,0.897476
8960799975,2.892268,22.682028,27.496536,0.365068,0.724645,0.874568
8960820019,-39.323547,16.322958,3.249600,0.329972,0.564187,0.901857
8960840063,-46.286659,14.878075,-11.741781,0.335360,0.435232,0.894220
8960860108,-59.697758,15.305825,-15.882752,0.192725,0.296943,0.902696
8960880152,-56.736771,-0.240881,-17.490601,0.178492,0.135150,0.927326
8960900197,-45.518581,-8.787421,-20.303499,0.265424,0.122595,0.934529
8960920242,-35.330307,-12.662270,-14.313787,0.252571,0.145852,1.009628
8960940286,-20.858845,-21.245197,-7.323992,0.366044,0.206946,0.969256
8960960331,-19.350185,-19.719601,-9.180629,0.487754,0.353801,0.816979
8960980376,-37.441521,-4.618570,-13.558611,0.362976,0.359145,0.755843
8961000421,-56.277290,-6.772073,-21.472319,0.252755,0.166185,0.872530
8961020466,-53.726810,-15.761334,-28.202713,0.286163,0.070499,0.971710
8961040511,-43.458305,-18.318022,-31.714874,0.384156,0.006508,1.024212
8961060557,-33.844292,-19.855047,-33.889782,0.439989,-0.003592,0.991563
8961080602,-29.036358,-19.341209,-31.359768,0.366625,-0.001579,0.941665
8961100646,-25.536503,-24.077238,-26.422611,0.326088,-0.046684,0.961498
8961120691,-22.766006,-30.160309,-26.689505,0.348675,0.024705,0.971179
8961140736,-25.683851,-31.677406,-25.538193,0.307695,0.032439,0.909816
8961160781,-28.272713,-35.583351,-28.683863,0.301380,0.026593,0.920289
8961180826,-25.008661,-41.636528,-29.129793,0.375190,-0.008254,0.856383
8961200869,-20.586506,-40.424809,-30.406622,0.431335,-0.047693,0.851656
8961220914,-16.102345,-40.558037,-30.730373,0.435123,-0.043350,0.854925
8961240959,-15.058708,-41.927425,-31.529383,0.432647,-0.043276,0.860005
8961261003,-10.852344,-42.356361,-30.791780,0.478014,-0.039403,0.884249
8961301093,-11.188305,-43.945343,-32.402779,0.479627,-0.014875,0.888155
8961321138,-8.361504,-46.228580,-33.679317,0.518059,-0.029125,0.863243
8961341183,-5.753804,-45.828983,-35.878513,0.538847,-0.008862,0.809147
8961361228,-6.458559,-43.344112,-38.458069,0.523544,0.014147,0.795007
8961381272,-6.822149,-45.200508,-43.199722,0.518575,0.016006,0.789584
8961401317,-6.904553,-44.632160,-47.138290,0.537347,0.045745,0.780735
8961421363,-7.966544,-46.151672,-47.776264,0.574102,0.045687,0.773265
8961441408,-8.162354,-43.402222,-52.592129,0.562328,0.021230,0.783214
8961461453,-7.594067,-46.086311,-53.805252,0.584206,0.034706,0.813489
8961481498,-8.391903,-49.329460,-50.139290,0.654419,0.096441,0.822324
8961501542,-17.972137,-46.472527,-53.694847,0.591056,0.151852,0.789629
8961521587,-24.076221,-48.703968,-58.361660,0.560254,0.114572,0.764766
8961561675,-31.788185,-47.448296,-69.654968,0.669936,0.091860,0.738350
8961581720,-34.133125,-43.238583,-76.520294,0.704350,0.132599,0.732438
8961601765,-40.302723,-38.933533,-81.558456,0.740421,0.185827,0.692020
8961621810,-54.224346,-29.710669,-84.225883,0.804678,0.216787,0.744221
8961661899,-84.009865,-16.274162,-94.081612,0.738610,0.217523,0.771865
8961681945,-97.447739,-17.383665,-102.517639,0.736741,0.126721,0.780613
8961701989,-106.959976,-15.957265,-109.485352,0.729147,0.060362,0.778920
8961722034,-116.330978,-15.890698,-114.654961,0.726823,0.028787,0.794823
8961742079,-125.160080,-18.311045,-122.073769,0.717394,0.079114,0.775857
8961762123,-139.432083,-18.711958,-128.279541,0.709356,0.060630,0.812551
8961782170,-143.822357,-23.254610,-131.007034,0.632267,-0.055533,0.801839
8961802214,-142.477753,-35.012543,-127.661789,0.592375,-0.121338,0.784701
8961822259,-146.976395,-41.946331,-123.758247,0.650239,-0.192586,0.784710
8961842304,-147.535065,-44.305992,-115.615395,0.628431,-0.289207,0.704319
8961862350,-141.818192,-46.859764,-104.534103,0.546663,-0.282218,0.682086
8961902438,-146.005600,-57.891068,-84.843979,0.761014,-0.195843,0.702969
8961922482,-145.956848,-47.835392,-84.846245,0.793179,-0.080541,0.678307
8961942527,-152.970581,-48.483322,-85.584160,0.852582,-0.193372,0.667382
8961962571,-150.310898,-42.593407,-98.705971,0.906279,-0.300901,0.583990
8961982616,-146.446915,-36.122139,-101.339554,0.809379,-0.342318,0.631240
8962002661,-140.180969,-39.332397,-95.480385,0.724508,-0.478695,0.570382
8962022706,-129.524536,-38.120670,-84.798576,0.718871,-0.437624,0.577741
8962042751,-122.439552,-37.155499,-71.506554,0.664388,-0.306498,0.557141
8962062796,-122.181313,-38.237919,-61.085693,0.712834,-0.294785,0.650355
8962082840,-117.548561,-36.956463,-59.004539,0.840995,-0.237951,0.643720
8962102885,-119.139191,-28.285662,-65.582741,0.840055,-0.363348,0.748630
8962122930,-108.949081,-27.659460,-73.234039,0.880160,-0.311514,0.637785
8962142976,-109.477882,-18.088690,-70.938316,0.750689,-0.335021,0.661343
8962163021,-102.272675,-25.257986,-78.064178,0.728236,-0.390409,0.595628
8962183066,-96.519379,-20.819942,-68.749596,0.732104,-0.332091,0.699968
8962203110,-88.254791,-23.104950,-63.569420,0.754183,-0.296978,0.621996
8962223155,-87.146461,-15.986195,-51.463943,0.744287,-0.087185,0.604259
8962243200,-91.562828,-19.370558,-47.625355,0.740083,-0.177679,0.575204
8962263245,-90.099495,-16.321474,-42.161896,0.847269,-0.188611,0.696711
8962283288,-87.541260,-15.517746,-41.572811,0.937440,-0.302462,0.721799
8962303333,-75.588371,-6.947678,-43.333347,0.842987,-0.453190,0.686026
8962323378,-62.287270,-8.291641,-31.709501,0.745857,-0.425738,0.713132
8962343423,-51.355988,-11.213897,-18.740408,0.725060,-0.439579,0.685053
8962363468,-37.803375,-9.798649,-6.283084,0.681805,-0.421244,0.697696
8962383513,-23.809074,-14.640416,3.380853,0.649984,-0.437374,0.658174
8962403557,-6.947807,-14.781658,8.988286,0.640951,-0.385810,0.634557
8962443647,6.475449,-15.003707,14.226003,0.669322,-0.221289,0.675651
8962463692,13.281794,-11.225036,12.905609,0.674127,-0.204703,0.672090
8962483737,18.004349,-12.255739,11.727629,0.653150,-0.177387,0.712044
8962503783,20.219391,-16.095762,12.262794,0.686237,-0.119788,0.740034
8962523828,19.459284,-20.973679,14.642524,0.734977,-0.158071,0.690995
8962543873,22.679983,-20.914209,17.847929,0.806537,-0.203097,0.714469
8962563917,24.664478,-20.541748,21.702457,0.840527,-0.196024,0.691442
8962583962,28.056728,-22.396877,26.950064,0.821386,-0.252641,0.639237
8962604007,38.737282,-24.793262,25.750547,0.855980,-0.288263,0.550924
8962624052,48.321899,-17.322565,25.510015,0.945514,-0.255080,0.547116
8962644095,57.117519,-8.216287,26.927156,0.913174,-0.255347,0.569097
8962664140,68.469772,-2.738517,26.644478,0.851901,-0.189142,0.558179
8962684185,73.930756,1.506697,29.173580,0.820545,-0.142949,0.564944
8962704230,79.401535,2.102818,30.037649,0.816647,-0.098999,0.583035
8962724274,79.538277,3.813374,31.185345,0.859685,-0.019363,0.590430
8962744319,79.026909,8.904947,28.228554,0.844664,-0.020304,0.580587
8962764364,78.815536,9.223569,26.477665,0.875715,0.004081,0.612842
8962784409,77.854454,12.028978,26.307161,0.950697,0.031763,0.574831
8962804454,74.825165,20.604725,25.301428,0.951935,0.093383,0.576244
8962824498,72.124352,27.303410,25.605295,0.953130,0.099440,0.571559
8962844543,69.702972,35.650620,24.625591,0.928852,0.107500,0.589433
8962864589,65.982758,41.194153,23.323290,0.869397,0.112160,0.618823
8962884635,60.773331,43.858139,21.646595,0.820567,0.103020,0.627737
8962904679,56.321342,46.171577,19.393053,0.808591,0.096506,0.610041
8962924724,52.223175,49.554867,13.715175,0.815454,0.121014,0.596869
8962944769,48.017361,54.862461,10.786504,0.755989,0.162078,0.592545
8962964814,43.183758,55.375080,9.009925,0.685071,0.183372,0.604143
8962984858,38.581310,53.576855,7.149957,0.666790,0.203767,0.625509
8963004902,33.856262,52.355240,2.768727,0.686334,0.219434,0.626251
8963024946,25.832298,51.987659,-1.839420,0.665367,0.240229,0.634393
8963044991,18.713383,48.617706,-4.928008,0.623433,0.233409,0.663278
8963065036,15.009952,41.611771,-7.787942,0.619339,0.221658,0.693663
8963085081,11.732578,37.471249,-9.945350,0.619221,0.192453,0.714206
8963105126,6.218477,32.978020,-6.348699,0.648345,0.098292,0.763540
8963125170,8.768470,30.558784,-6.381199,0.666105,0.149005,0.765801
8963145215,4.721332,30.442204,-2.982773,0.679016,0.116289,0.744132
8963165260,6.933896,32.995392,-0.175762,0.665101,0.112407,0.745793
8963185305,5.762041,32.405354,3.825767,0.621961,0.155361,0.746580
8963205350,2.846164,29.126408,8.330783,0.613809,0.117198,0.759855
8963225396,2.918214,26.094751,10.732859,0.603042,0.058292,0.786028
8963245441,4.150532,21.525835,11.101027,0.598951,0.055529,0.798858
8963265486,5.465203,18.696880,10.301319,0.573865,0.092440,0.770601
8963285530,5.063932,14.890298,12.563009,0.536307,0.093977,0.779328
8963305575,8.267720,9.598948,15.887880,0.555690,0.077126,0.771141
8963325620,9.088300,8.852571,14.114851,0.572840,0.089494,0.764609
8963345665,7.305098,7.743257,11.562206,0.569001,0.067281,0.811197
8963365708,9.765934,3.644050,10.884421,0.614042,0.088305,0.786224
8963385753,9.074232,5.971776,13.797714,0.594672,0.140022,0.774913
8963405798,5.469145,1.764850,15.452029,0.548440,0.141377,0.815898
8963425843,3.767439,-2.049150,15.628667,0.609311,0.116707,0.795879
8963445887,4.608189,-0.871496,16.230566,0.601214,0.091180,0.791570
8963465932,4.755390,-2.673174,15.819757,0.618705,0.068300,0.777956
8963485977,4.228923,-1.669866,14.847704,0.609258,0.058436,0.780973
8963506021,3.426636,-3.904668,12.875211,0.628188,0.056229,0.779855
8963526067,1.989852,-3.288787,10.623010,0.648712,0.062631,0.774763
8963546111,0.595183,-3.721127,9.948465,0.625408,0.054779,0.787768
8963566156,-0.359484,-5.263422,9.553473,0.615788,0.058127,0.789673
8963586202,-1.882572,-5.163619,8.841318,0.606522,0.055209,0.795456
8963606247,-2.803709,-6.029258,8.940619,0.595397,0.056335,0.802012
8963626292,-3.848217,-7.936965,7.091567,0.599749,0.059029,0.792826
8963646336,-5.276316,-8.703991,5.785276,0.591867,0.044231,0.797625
8963666381,-4.823339,-11.289338,4.192023,0.603780,0.026918,0.785837
8963686426,-4.432569,-11.768957,3.221957,0.618417,0.026755,0.768465
8963706471,-4.078808,-12.415606,2.595155,0.615135,0.040701,0.773879
8963726515,-4.683826,-13.532664,1.976150,0.639063,0.041255,0.761485
8963746559,-4.767954,-12.499179,1.351118,0.652304,0.027663,0.750040
8963766604,-3.034994,-11.870009,0.925848,0.653134,0.029699,0.755948
8963786649,-2.727156,-12.107204,-1.971240,0.651871,0.036259,0.752789
8963806693,-3.436092,-11.650871,-2.682356,0.654309,0.022570,0.755833
8963826738,-3.171633,-11.393826,-5.229137,0.668284,0.043405,0.753851
8963846783,-5.347110,-11.354080,-5.532464,0.666628,0.054157,0.749562
8963866828,-6.757810,-12.128462,-6.259890,0.668615,0.019155,0.741945
8963886873,-5.986930,-12.478329,-5.305565,0.680044,0.021815,0.742644
8963906917,-4.478768,-12.281723,-4.662140,0.694712,0.015761,0.717763
8963926962,-3.024605,-10.679338,-4.895736,0.694497,0.000440,0.716614
8963947009,-1.429249,-10.019741,-5.533291,0.690214,0.000882,0.718400
8963967053,-0.126983,-9.481074,-5.216198,0.713378,0.012501,0.709004
8963987098,-0.154911,-8.166119,-5.194372,0.705971,0.034171,0.727526
8964007143,-1.518858,-8.666841,-5.754814,0.701836,0.058895,0.734121
8964027188,-3.430771,-8.725511,-4.681156,0.709934,0.063018,0.728501
8964047232,-4.400543,-8.047956,-4.118226,0.701149,0.047365,0.726745
8964067277,-4.170792,-8.101151,-3.655221,0.701105,0.038449,0.729186
8964087321,-3.747327,-7.394176,-2.600193,0.699648,0.030109,0.720139
8964107366,-3.515636,-6.892412,-1.893942,0.696734,0.036435,0.719064
8964127410,-3.330872,-7.143068,-1.171384,0.712497,0.039381,0.705316
8964147455,-2.648168,-4.779634,-0.714136,0.715683,0.031830,0.701487
8964167500,-1.448964,-3.792135,0.273732,0.704422,0.030049,0.709249
8964187545,-1.066730,-3.799816,0.826945,0.704331,0.031086,0.713701
8964207590,-0.820907,-3.313388,1.258843,0.719701,0.027819,0.709834
8964227635,-0.193793,-1.550513,1.381879,0.719188,0.022967,0.705956
8964247680,1.270202,-0.829362,2.154657,0.710298,0.022088,0.717279
8964267724,2.093869,-1.559279,3.177501,0.704886,0.024490,0.710482
8964287769,2.042171,-1.331083,3.467177,0.701109,0.028856,0.713878
8964307815,1.940955,-1.650437,2.995921,0.702745,0.034469,0.711841
8964327860,0.676178,-1.216521,2.075776,0.709309,0.036155,0.718885
8964347905,-0.039287,-0.744857,1.638955,0.703472,0.036347,0.720753
8964367950,-0.208651,-1.216100,1.313112,0.686057,0.036254,0.722265
8964387994,0.074920,-3.215528,0.870967,0.691578,0.038591,0.716460
8964408039,0.162457,-3.330027,-0.043792,0.707567,0.031966,0.703521
8964428084,0.330579,-2.137018,-0.389032,0.706593,0.028077,0.705731
8964448127,0.520281,-1.666085,-0.710900,0.706282,0.046747,0.715043
8964468172,-0.237901,-0.639310,-0.652730,0.693808,0.042225,0.719359
8964508262,1.330409,-2.023438,0.570719,0.686426,0.029575,0.719774
8964528307,1.253965,-2.220997,0.556255,0.693329,0.040779,0.720187
8964548351,0.541650,-1.726166,0.934545,0.703386,0.048251,0.715282
8964568396,-0.207241,-0.904374,1.533737,0.693928,0.037753,0.718942
8964588441,0.228159,-1.307258,2.262136,0.691404,0.027318,0.720466
8964608486,0.701196,-1.565837,2.822507,0.692960,0.021558,0.721436
8964628531,1.148530,-1.771544,2.598341,0.697076,0.021461,0.716550
8964648577,1.238140,-1.688223,2.132859,0.693103,0.037022,0.717030
8964668621,0.313649,-2.242695,1.203422,0.707213,0.052316,0.705444
8964688666,-1.272051,-1.595918,-0.240126,0.705931,0.047193,0.712943
8964708711,-2.059885,-2.317710,-1.139981,0.705483,0.036491,0.719674
8964728756,-2.511614,-2.500072,-1.882938,0.712923,0.044977,0.711009
8964748800,-4.270643,-1.906156,-2.898483,0.705986,0.048664,0.702188
8964768845,-5.533855,-2.399141,-2.964515,0.700815,0.032087,0.706202
8964788903,-5.330252,-2.452708,-3.377413,0.714416,0.025166,0.697709
8964808934,-5.243729,-1.373374,-3.135311,0.711913,0.016567,0.701039
8964828978,-4.421067,-1.252315,-2.783673,0.712606,0.020008,0.699195
8964849023,-4.267569,-0.872324,-2.587134,0.711371,0.017693,0.704303
8964869068,-2.888407,-1.131521,-1.660412,0.703778,0.003795,0.708096
8964889113,-1.623782,-1.329884,-0.892855,0.713784,0.003123,0.711543
8964909158,-0.183284,-1.497885,0.124730,0.708854,0.008844,0.710822
8964929203,0.266409,-1.125785,0.242823,0.695973,0.018672,0.706914
8964969292,0.890384,-1.453019,0.543080,0.723244,0.026754,0.708595
8964989337,1.174899,-1.195416,-0.731601,0.731779,0.028181,0.696718
8965009384,0.766771,1.259717,-1.271692,0.713078,0.019774,0.693100
8965029428,0.807382,0.788848,-0.364981,0.699265,0.024883,0.702790
8965049473,0.747685,0.735840,-0.044504,0.738388,0.046856,0.708448
8965069517,-0.773667,2.218874,-0.963674,0.716984,0.028197,0.706079
8965089572,0.315210,1.085874,0.019427,0.695152,-0.006366,0.709664
8965109607,1.978165,0.081120,-0.038083,0.704474,0.007040,0.704432
8965129652,1.923091,-0.124226,-0.426000,0.696369,0.021230,0.708444
8965149696,3.397686,-0.528290,-0.322649,0.708993,0.015488,0.697021
8965169740,4.147394,0.071037,-1.387907,0.713754,0.031425,0.704481
8965189785,4.029175,0.359408,-2.621438,0.722066,0.056966,0.698595
8965209830,1.215380,1.965147,-3.591760,0.702183,0.057777,0.706364
8965229875,-0.979743,0.492173,-4.335367,0.700929,0.042086,0.714951
8965249919,-1.555903,0.751233,-4.026462,0.698650,0.046149,0.704886
8965269964,-1.722157,0.265157,-3.529539,0.693994,0.019491,0.702614
8965290009,0.149862,-0.298584,-2.804385,0.709554,0.017142,0.700016
8965310054,1.280415,-0.488905,-1.312068,0.715055,0.027602,0.708072
8965330099,2.233678,-2.396745,0.366070,0.714080,0.035535,0.706179
8965350143,2.769965,-2.389125,1.436131,0.701492,0.022427,0.708107
8965370190,4.106500,-2.854005,1.251103,0.716210,0.006344,0.708165
