Timestamp (us),Gyroscope X (deg/s),Gyroscope Y (deg/s),Gyroscope Z (deg/s),Accelerometer X (g),Accelerometer Y (g),Accelerometer Z (g)
4126657221,1.893457,0.266030,0.676613,0.841730,-0.196415,0.501047
4126677182,4.011331,-0.584174,1.026406,0.842245,-0.202350,0.499605
4126697143,5.481477,-0.406742,0.833674,0.848382,-0.191252,0.498261
4126717103,3.897198,0.045157,-0.082966,0.841470,-0.168517,0.494028
4126737064,-0.265298,1.167575,-0.675194,0.843122,-0.163207,0.485321
4126757025,-6.915462,1.722097,-0.212277,0.852136,-0.184929,0.473275
4126776985,-14.242318,-0.826474,-0.961264,0.880650,-0.212043,0.479342
4126796946,-22.348700,-2.657412,-5.334049,0.893451,-0.200708,0.498969
4126816907,-27.026331,-4.987286,-17.860964,0.847881,-0.142359,0.528230
4126836868,-22.728790,-9.636685,-35.029827,0.899949,-0.068329,0.505389
4126856829,-4.957092,-6.245151,-44.698204,0.971018,-0.060467,0.453019
4126876788,13.707362,-0.770922,-49.714432,0.916342,-0.069097,0.483119
4126896749,16.850960,0.073547,-55.875496,0.885768,-0.033093,0.430791
4126916710,18.552898,0.606750,-56.523361,0.885871,-0.026129,0.384875
4126936670,13.643338,-0.967402,-49.198273,0.893150,-0.029704,0.394173
4126956631,6.911654,-5.604461,-43.825104,0.885730,-0.035546,0.393496
4126976592,-3.637106,-10.667281,-44.429188,0.911073,-0.017882,0.407239
4126996552,-21.295336,-11.133278,-47.036896,0.933389,0.046000,0.415344
4127016513,-37.519730,-11.022090,-51.530479,0.939439,0.122106,0.433605
4127036474,-49.781281,-11.695798,-58.074123,0.957042,0.147800,0.419028
4127056435,-54.111965,-11.214985,-64.077194,0.969203,0.105769,0.381693
4127076395,-46.774490,-14.115129,-68.852707,0.944506,0.072374,0.380512
4127096356,-33.934013,-17.963097,-74.838104,0.932450,0.053571,0.366667
4127116317,-22.632364,-19.744066,-80.254883,0.926569,0.061125,0.363157
4127136278,-15.063593,-23.226170,-82.873360,0.928930,0.097364,0.356506
4127156238,-13.599646,-26.614882,-86.559509,0.953087,0.157794,0.328731
4127176199,-15.104755,-29.870655,-93.132050,0.970638,0.237822,0.287584
4127196160,-22.528187,-37.546467,-102.313126,0.965880,0.314737,0.266385
4127216122,-33.514996,-47.865360,-111.668983,0.962474,0.358164,0.200047
4127236083,-39.488670,-56.523647,-119.272781,0.975413,0.362682,0.120258
4127256044,-43.667206,-62.459946,-124.317093,0.997052,0.367653,0.065117
4127276005,-51.139355,-67.979866,-124.219696,1.012024,0.390202,0.026321
4127295965,-59.606354,-75.026283,-120.897804,1.088917,0.387296,0.006379
4127315926,-75.130600,-81.323006,-122.783920,1.075840,0.366804,0.025507
4127335887,-91.295425,-88.396690,-130.067062,1.049909,0.400447,-0.017135
4127355848,-105.723000,-95.279762,-134.362106,1.065188,0.427604,-0.038972
4127375808,-118.581520,-107.168968,-133.453323,1.046691,0.392155,-0.058127
4127395769,-124.870422,-116.012733,-135.494858,1.018017,0.376084,-0.089624
4127415730,-125.404045,-123.378708,-138.513794,1.005901,0.390246,-0.130601
4127435691,-125.334877,-128.839279,-138.528168,0.988984,0.418630,-0.159696
4127455650,-130.428101,-134.793091,-134.885605,1.048128,0.456227,-0.201207
4127475611,-144.749512,-138.077820,-130.875259,1.077199,0.391741,-0.189327
4127495571,-164.547165,-144.581421,-125.231339,1.029722,0.344185,-0.143069
4127515532,-177.791122,-153.423080,-122.172997,1.029990,0.392714,-0.137484
4127535493,-199.531540,-158.088379,-109.335869,0.996277,0.276059,-0.206947
4127555454,-187.859451,-151.166458,-86.410385,0.924179,0.100539,-0.257390
4127575415,-151.681854,-149.156845,-62.151920,0.976925,0.017548,-0.244774
4127595375,-113.691368,-146.455505,-42.700180,1.007653,-0.040244,-0.159304
4127615336,-98.232254,-137.478333,-24.121582,1.042906,0.085818,-0.116831
4127635297,-99.195358,-126.959595,1.261273,1.184976,0.289196,-0.063739
4127655258,-115.454453,-106.498657,22.548746,1.169338,0.339226,-0.053736
4127675219,-147.122986,-102.255440,21.253801,1.031906,0.450652,0.096541
4127695179,-173.951904,-104.154892,6.065053,1.027344,0.440708,0.184222
4127715140,-179.111542,-97.363342,-9.436956,1.007791,0.365637,0.233538
4127735101,-168.657181,-84.931557,-16.608160,0.944865,0.231745,0.251515
4127755062,-149.511185,-74.809914,-12.939867,0.895262,0.169422,0.144082
4127775022,-128.723724,-74.199829,-20.643641,0.906225,0.357177,0.192202
4127794984,-149.510910,-75.267090,-43.478973,0.961758,0.536047,0.254853
4127814945,-179.961761,-82.945114,-63.816673,1.019679,0.577068,0.135771
4127834906,-203.326981,-99.695862,-84.261597,0.980217,0.708125,0.112502
4127854867,-223.789093,-109.299530,-100.882553,0.960767,0.707135,0.005984
4127874828,-232.684479,-103.469673,-93.915627,0.992622,0.551971,0.035062
4127894788,-233.294144,-98.253654,-69.009407,1.031205,0.331299,0.077357
4127914749,-213.293228,-95.693756,-42.619473,1.020873,0.112456,0.154148
4127934710,-175.775925,-94.525002,-25.899195,0.945054,0.008750,0.263093
4127954671,-131.958130,-91.149277,-17.282066,0.921524,0.055068,0.318270
4127974631,-93.043549,-84.143585,-11.441524,0.889022,0.174805,0.346401
4127994592,-71.239700,-74.747635,-8.924542,0.857098,0.287931,0.357986
4128014553,-67.232521,-70.270111,-10.997492,0.833152,0.380809,0.376787
4128034512,-71.181992,-68.080048,-17.313025,0.873109,0.448297,0.339352
4128054473,-72.649643,-67.540726,-23.708965,0.885959,0.467066,0.289197
4128074434,-73.215111,-70.474419,-27.470797,0.864755,0.449449,0.256678
4128094395,-70.117569,-76.924103,-26.691982,0.891029,0.431422,0.211105
4128114355,-59.668205,-81.173325,-24.275614,0.893894,0.420229,0.131389
4128134316,-51.729549,-86.739426,-26.434399,0.815950,0.450876,0.077005
4128154277,-55.621758,-97.095062,-31.463564,0.770326,0.505664,0.080280
4128174238,-75.489136,-107.109238,-32.015156,0.822096,0.522040,0.130408
4128194198,-103.843025,-111.944115,-30.758303,0.925381,0.485103,0.114330
4128214159,-123.642105,-107.700470,-31.907772,0.981745,0.380077,0.083391
4128234120,-135.063171,-107.983971,-32.187950,0.938760,0.334052,0.106942
4128254081,-144.158249,-106.502075,-32.038074,0.925938,0.368813,0.168879
4128274041,-160.108002,-93.927956,-25.567503,0.983756,0.387545,0.229005
4128294003,-179.664932,-80.149353,-4.546574,1.054777,0.292808,0.253168
4128313964,-192.177216,-67.705673,25.599339,1.060835,0.063242,0.242287
4128333924,-198.642578,-56.628868,55.015923,1.026860,-0.122838,0.329855
4128353885,-202.781952,-42.287453,77.855293,0.978787,-0.212534,0.459204
4128373846,-204.647263,-23.972490,91.103226,0.895966,-0.205112,0.547715
4128393808,-195.819748,-8.679195,101.195877,0.857282,-0.229242,0.554868
4128413769,-171.235260,1.068648,116.653877,0.864026,-0.340564,0.530680
4128433730,-128.390656,4.516538,136.871872,0.876938,-0.466330,0.505294
4128453691,-75.460602,-0.451645,155.488907,0.930063,-0.456351,0.498000
4128473651,-33.801987,-2.321644,169.055054,1.026538,-0.290385,0.533931
4128493612,-13.778667,5.943122,177.244705,1.116864,-0.112091,0.563173
4128513573,-18.122299,18.229370,176.270889,1.155160,0.001960,0.656712
4128533534,-39.455311,24.513281,166.241287,1.149494,0.026609,0.666221
4128553495,-62.674927,39.938698,145.900528,1.078115,0.061764,0.657506
4128573455,-89.422112,47.801979,114.805260,0.907543,0.214523,0.639309
4128593416,-113.643311,30.122829,77.654587,0.940232,0.388657,0.616658
4128613377,-152.527634,25.307137,45.414898,1.186901,0.448030,0.668017
4128633336,-185.479050,33.762928,15.474573,1.253468,0.345345,0.605447
4128653297,-183.014175,27.950752,-23.024855,1.195081,0.255461,0.490564
4128673258,-130.808426,18.464481,-84.957481,1.213876,0.269858,0.250998
4128713179,28.933918,37.653015,-204.355804,1.080407,0.087642,-0.114716
4128733140,77.741318,34.169544,-206.443344,0.802921,-0.293545,-0.021498
4128753100,57.160137,-8.743065,-181.561554,0.761566,-0.443498,0.337436
4128773061,29.742290,-61.882618,-166.659546,0.991979,-0.338274,-0.024856
4128793022,-27.414074,-85.524567,-173.347565,1.167868,0.145799,-0.079006
4128812982,-126.285095,-92.821274,-203.459427,1.060995,0.559770,-0.079551
4128832943,-239.317017,-101.706284,-221.525757,1.025716,0.557732,-0.007589
4128852904,-303.588501,-98.818077,-226.098816,1.178055,0.357143,-0.096760
4128872865,-291.651489,-95.610016,-222.884186,1.369707,0.199423,-0.247652
4128892826,-224.009857,-98.280151,-217.974014,1.374156,-0.058451,-0.374384
4128912786,-149.038528,-107.413338,-215.967041,1.208862,-0.155811,-0.373635
4128932747,-112.016388,-125.330025,-221.168442,1.060062,0.095878,-0.337051
4128952708,-119.673660,-142.380402,-210.770767,1.101973,0.390204,-0.326806
4128972669,-171.839828,-150.691223,-183.434311,1.201709,0.444501,-0.341256
4128992631,-245.782028,-155.606018,-158.307495,1.303207,0.273966,-0.363009
4129012591,-286.516327,-153.121033,-137.043686,1.376701,0.052360,-0.459565
4129032552,-275.847290,-152.066269,-121.322708,1.239780,-0.144970,-0.337641
4129052513,-233.994522,-154.119781,-115.466507,1.103565,-0.207495,-0.084597
4129072474,-190.142380,-146.922195,-100.950409,1.129659,-0.264261,0.099026
4129092435,-157.629364,-129.906921,-70.624588,1.130463,-0.318874,0.200468
4129112396,-132.035477,-116.587196,-39.708961,1.093139,-0.188059,0.261748
4129132356,-110.604942,-94.821365,-24.378008,1.002160,-0.052019,0.250566
4129152317,-104.215019,-69.403122,-28.045385,0.855051,0.064278,0.235764
4129172278,-119.606361,-73.554207,-40.491142,0.778351,0.271336,0.205286
4129192239,-141.233261,-81.994171,-47.592972,0.968592,0.345390,0.126426
4129232159,-134.577255,-78.304337,-43.880444,0.955869,0.349176,0.121487
4129252120,-135.995956,-84.488045,-35.284679,1.000610,0.495755,0.081660
4129272080,-146.755142,-79.208641,-13.872863,1.135579,0.396795,0.173267
4129292041,-160.253357,-78.803268,-0.196419,1.114593,0.312509,0.281443
4129312002,-154.706497,-88.198730,3.137346,1.079077,0.313176,0.270855
4129331963,-135.501205,-97.763237,4.611558,1.027978,0.300350,0.258927
4129351924,-117.075653,-101.329445,3.880890,0.952184,0.273280,0.212632
4129371884,-97.289536,-101.862877,4.508689,0.902973,0.282003,0.165054
4129391845,-84.329903,-97.459076,6.457467,0.902115,0.322278,0.146166
4129411806,-89.772736,-90.978256,6.080681,0.909288,0.370004,0.157718
4129431766,-113.544647,-86.305016,0.500406,0.919141,0.401046,0.173963
4129451727,-146.943939,-79.213760,-9.175632,0.927338,0.396721,0.182380
4129471688,-176.668015,-72.664207,-17.677536,0.940992,0.361471,0.168547
4129491649,-193.980957,-70.868988,-22.237953,0.989799,0.323379,0.153037
4129511610,-198.092346,-72.198990,-24.549143,1.073067,0.264206,0.156262
4129531570,-191.453064,-71.802200,-28.451521,1.083566,0.186415,0.214916
4129551531,-179.057571,-72.793510,-32.757812,1.056753,0.172789,0.258812
4129571493,-163.765686,-72.733910,-35.538216,1.043329,0.190192,0.270757
4129591454,-151.683167,-70.665298,-35.220570,1.058797,0.174267,0.268114
4129611415,-144.135620,-69.439713,-33.990742,1.057136,0.138585,0.282236
4129631376,-137.016388,-70.009773,-33.875294,1.019875,0.130819,0.284230
4129651337,-132.558975,-68.567352,-35.600693,0.975954,0.172668,0.292847
4129671297,-133.752777,-64.726624,-37.363533,0.941365,0.227132,0.300426
4129691258,-138.216721,-62.271263,-37.404716,0.937747,0.242213,0.291007
4129711219,-138.324203,-59.588726,-34.798325,0.963796,0.210410,0.272974
4129731180,-134.624329,-57.289562,-31.488144,0.967436,0.189456,0.272382
4129751140,-130.162872,-55.983566,-29.213707,0.947055,0.206803,0.275548
4129771101,-127.178154,-56.043938,-28.027395,0.931936,0.240252,0.283374
4129791062,-125.242737,-55.487560,-28.128084,0.926132,0.257166,0.285905
4129811021,-125.279129,-54.249710,-29.055960,0.925620,0.258952,0.295792
4129830982,-126.338638,-54.005077,-30.099575,0.917953,0.247591,0.290465
4129850943,-125.575867,-54.594990,-31.037262,0.921083,0.221387,0.284759
4129870904,-122.399803,-54.903648,-31.990160,0.942213,0.199420,0.283230
4129890864,-116.761696,-53.706013,-32.550110,0.936336,0.202710,0.298913
4129910825,-111.257217,-52.620312,-32.267914,0.913026,0.223044,0.299154
4129930786,-106.892586,-52.747238,-31.729633,0.937356,0.235458,0.288834
4129950747,-102.380356,-52.060787,-31.131365,0.963596,0.242356,0.275543
4129970707,-100.908615,-51.388859,-31.233755,0.968075,0.255399,0.281785
4129990668,-103.766518,-52.124340,-30.900578,0.970878,0.257862,0.284346
4130010629,-108.894676,-53.460823,-30.498108,0.968952,0.252578,0.282212
4130030590,-113.779190,-55.217175,-30.504038,0.965657,0.238044,0.280568
4130050551,-117.302826,-57.579250,-30.800550,0.967459,0.215658,0.280149
4130070511,-116.894379,-59.255585,-31.760548,0.944468,0.198958,0.284280
4130090472,-112.308151,-57.333359,-32.939800,0.911599,0.217362,0.288749
4130110433,-108.231537,-53.931572,-32.840340,0.891721,0.240423,0.297659
4130130394,-104.258163,-49.834232,-31.171253,0.904138,0.240460,0.290328
4130150356,-100.517860,-46.038773,-28.720778,0.924496,0.231233,0.276738
4130170316,-96.204620,-43.038479,-27.473932,0.935634,0.223405,0.265232
4130190277,-93.122490,-41.215828,-27.618258,0.926897,0.243493,0.265198
4130210238,-91.962234,-41.804428,-27.279610,0.938251,0.271502,0.255295
4130230199,-92.917976,-43.502518,-26.111464,0.942315,0.285362,0.248677
4130250160,-95.304787,-45.553860,-25.137249,0.932661,0.299325,0.245631
4130270121,-99.316727,-48.165211,-25.366697,0.933232,0.305243,0.252920
4130290081,-102.496094,-51.054901,-26.541655,0.942021,0.305294,0.250167
4130310042,-103.219261,-52.050491,-27.362213,0.939267,0.304803,0.245753
4130330003,-104.795029,-52.624165,-27.723267,0.921160,0.302024,0.254209
4130349964,-106.283226,-53.752613,-27.756857,0.922470,0.289125,0.255810
4130369924,-106.790642,-53.523487,-28.077631,0.930898,0.264662,0.261009
4130389884,-105.110832,-52.784821,-28.695515,0.937748,0.245842,0.265632
4130409844,-100.823662,-50.472065,-29.018738,0.933778,0.240319,0.276759
4130429805,-95.946091,-45.786175,-28.212734,0.922154,0.237203,0.273046
4130449766,-89.267555,-42.160610,-26.162121,0.919171,0.223387,0.258556
4130469727,-80.065453,-42.397850,-23.642029,0.912499,0.216672,0.223485
4130489687,-69.331703,-44.572735,-21.668005,0.936859,0.246621,0.193846
4130509648,-67.040596,-46.996384,-20.662601,0.990328,0.331639,0.202358
4130529609,-71.458740,-47.036781,-21.291883,1.005700,0.391408,0.204029
4130549570,-83.876175,-44.836964,-21.116114,0.971354,0.420889,0.237702
4130569531,-106.686691,-41.446239,-20.073328,0.965855,0.407402,0.281349
4130589492,-126.211151,-36.091469,-20.381124,0.956822,0.333485,0.273926
4130609452,-130.597244,-29.750786,-20.685902,0.950408,0.233531,0.253226
4130629413,-121.261864,-26.290890,-17.389187,0.928006,0.139849,0.233679
4130649374,-103.273964,-26.376451,-12.479982,0.916996,0.083169,0.228760
4130669335,-83.329109,-27.074162,-10.098259,0.893374,0.067272,0.243885
4130689295,-63.739670,-30.819185,-10.923476,0.862156,0.112111,0.273266
4130709256,-54.515041,-34.941879,-11.805150,0.891124,0.187731,0.293138
4130729218,-55.100128,-36.487812,-10.021261,0.923783,0.236291,0.311337
4130749179,-60.279182,-34.637203,-5.624105,0.930100,0.255350,0.319973
4130769140,-64.223953,-31.777969,-0.677940,0.914667,0.265572,0.311874
4130789100,-63.382721,-29.638321,1.970347,0.900578,0.281780,0.297508
4130809061,-60.235283,-29.391537,1.115187,0.907772,0.295097,0.299516
4130829022,-58.673149,-26.966339,-0.560535,0.942703,0.290700,0.315710
4130848983,-58.974102,-22.768152,-0.901738,0.951446,0.263859,0.338893
4130868943,-58.056358,-20.270000,-1.365393,0.936609,0.246653,0.345277
4130888904,-55.212669,-19.618731,-1.994479,0.941257,0.234676,0.343828
4130908865,-49.987057,-18.700935,-2.449126,0.966872,0.223194,0.341390
4130928826,-42.946674,-15.523664,-3.394463,0.980529,0.222515,0.335733
4130948787,-34.468239,-12.335736,-4.319886,0.975883,0.239359,0.334279
4130968746,-26.497087,-10.035305,-4.919314,0.953645,0.270171,0.330725
4130988707,-22.151209,-8.285558,-5.271858,0.941001,0.294989,0.321891
4131008668,-20.788816,-5.786923,-4.792958,0.960640,0.294021,0.306878
4131028628,-18.925188,-1.220573,-3.928431,0.955721,0.281460,0.283591
4131048589,-17.100361,2.081541,-4.025998,0.919477,0.290842,0.277855
4131068550,-17.388397,3.388999,-4.772666,0.895755,0.296203,0.267133
4131088511,-17.648367,3.706994,-5.882054,0.896427,0.284779,0.269609
4131108471,-16.594667,3.614812,-8.436066,0.911739,0.278973,0.287469
4131128432,-14.078421,2.336342,-12.402692,0.907168,0.288005,0.298984
4131148393,-10.812666,1.217148,-15.395634,0.892006,0.286932,0.295628
4131168354,-6.220091,0.358242,-15.439889,0.896186,0.268658,0.285987
4131188315,0.469367,0.271158,-14.089504,0.919521,0.261178,0.269600
4131208276,4.741278,-0.499053,-12.146526,0.920586,0.291091,0.277052
4131228236,6.461253,-1.983580,-10.203324,0.909655,0.310866,0.266419
4131248197,6.401186,-3.229825,-9.822190,0.905851,0.330178,0.254104
4131268158,5.549366,-5.174269,-9.973886,0.943878,0.351948,0.246796
4131288119,4.425578,-9.873289,-11.344260,1.003139,0.389749,0.225591
4131308081,5.717116,-13.090755,-17.118315,1.001595,0.464924,0.218230
4131328042,8.868641,-12.779757,-23.824993,0.932620,0.553726,0.237274
4131348002,5.830919,-16.348337,-33.316463,0.834754,0.576865,0.264695
4131367963,-1.199257,-23.950672,-46.913376,0.817913,0.534671,0.208073
4131387924,-3.640797,-25.379795,-61.764198,0.857678,0.480026,0.135755
4131407885,-3.627793,-23.199877,-74.365837,0.844311,0.447361,0.105448
4131427845,-7.357218,-25.041365,-80.803642,0.820059,0.467321,0.129172
4131447806,-21.897240,-27.486525,-83.177979,0.829171,0.458550,0.151247
4131467767,-39.605877,-28.019669,-81.459778,0.831090,0.419231,0.161669
4131487728,-50.762825,-27.911945,-75.895828,0.832158,0.366659,0.166557
4131507688,-52.112526,-26.579020,-65.717293,0.828013,0.328104,0.175126
4131527649,-45.915627,-20.206512,-52.364155,0.798824,0.316571,0.198820
4131547616,-35.910797,-18.104010,-38.559456,0.775207,0.336527,0.222737
4131567569,-19.436665,-19.852592,-23.536079,0.803765,0.314254,0.217980
4131587530,5.343844,-17.252581,-7.376115,0.839745,0.309644,0.220355
4131607491,28.700939,-13.367848,10.044660,0.850678,0.361650,0.216334
4131627452,44.154984,-9.972880,24.753399,0.893711,0.445024,0.210749
4131647413,45.878891,-0.427339,35.681168,0.942141,0.514954,0.234441
4131687334,32.046146,27.198017,38.516094,0.871794,0.575227,0.216137
4131707295,27.893341,32.657951,12.940665,0.747853,0.752805,0.293366
4131727256,13.628072,18.227427,-15.347876,0.813903,0.861539,0.210568
4131747217,15.174416,16.918112,-28.584332,1.007828,0.762694,0.109110
4131767177,18.079626,24.011765,-28.615690,0.985597,0.531724,0.150003
4131787138,5.249433,31.021111,-23.735447,0.905421,0.399172,0.291121
4131807099,-0.539563,31.055885,-15.679497,0.835909,0.343076,0.228752
4131827060,10.397456,28.686611,-11.731266,0.741348,0.364300,0.177132
4131847020,15.462304,21.189253,-14.473459,0.756687,0.513671,0.127159
4131866981,28.397915,13.855841,-17.728735,0.902609,0.715401,0.057689
4131886942,25.514097,15.910248,-14.227438,0.997194,0.735591,0.125477
4131906904,4.951273,17.330202,-13.933222,0.864175,0.642822,0.164715
4131926865,-9.981086,9.443378,-15.215445,0.730691,0.511071,0.204583
4131946826,-19.096731,6.324334,-11.317182,0.705552,0.408522,0.229478
4131966786,-17.680353,4.253802,-10.064743,0.709870,0.399783,0.244179
4131986747,-7.963856,2.589047,-13.164571,0.744479,0.468428,0.238590
4132006708,5.830711,4.420233,-14.730678,0.791943,0.531462,0.212657
4132026669,19.367487,3.187423,-12.551476,0.801860,0.554953,0.166286
4132046630,27.252365,-1.376853,-12.032877,0.775413,0.586100,0.120489
4132066590,22.614559,-9.006892,-12.977886,0.769119,0.614735,0.153415
4132086551,3.541257,-14.879416,-13.775903,0.808643,0.642023,0.201318
4132106512,-19.319262,-17.288637,-15.282247,0.821639,0.604222,0.236415
4132126472,-34.842354,-17.432529,-16.942284,0.804875,0.565547,0.258960
4132146432,-38.052338,-15.780467,-17.365189,0.821584,0.558987,0.263563
4132186353,-19.551638,-9.502321,-12.441031,0.848748,0.480001,0.239766
4132206314,-5.194666,-11.054511,-5.188917,0.809484,0.378010,0.292804
4132226275,8.274529,-14.396204,3.262066,0.778708,0.395349,0.269464
4132246236,21.465372,-14.696861,7.047686,0.767596,0.531780,0.242074
4132266197,21.622683,-10.585566,9.592103,0.773777,0.660523,0.254557
4132286158,11.313604,-3.669212,13.835716,0.808424,0.700541,0.230770
4132306118,-3.992661,4.896041,20.792542,0.839851,0.599555,0.272066
4132326079,-19.511791,10.425426,26.667910,0.820422,0.487415,0.260525
4132346040,-21.836254,11.341129,28.298172,0.786204,0.428066,0.236920
4132366001,-24.035639,12.589322,32.835098,0.799710,0.380555,0.279653
4132385961,-24.178219,15.417943,39.934082,0.854908,0.407566,0.288600
4132405922,-15.479337,19.629547,41.641384,0.887167,0.463034,0.269160
4132425883,-8.028657,25.021942,46.143291,0.852031,0.432228,0.294700
4132445844,-3.762800,28.355810,58.090553,0.816472,0.352148,0.307106
4132465805,2.443255,28.418491,68.812035,0.788273,0.294288,0.327480
4132485765,10.438583,23.549042,76.548988,0.764991,0.256094,0.353449
4132505728,20.484583,22.833683,77.129692,0.813158,0.260808,0.274667
4132525688,28.475443,24.094208,81.298027,0.832969,0.266238,0.231049
4132545649,32.513084,24.122278,90.282013,0.852455,0.298250,0.227240
4132565610,30.847919,26.338150,100.344353,0.882021,0.306986,0.261241
4132585571,17.690683,25.483456,108.195145,0.909069,0.306233,0.309830
4132605531,1.758609,28.111509,115.272598,0.951310,0.278254,0.322355
4132625492,-17.650713,34.602306,124.108727,0.993050,0.219081,0.358420
4132645462,-33.976128,39.191963,134.096298,1.050227,0.129323,0.352743
4132665414,-37.565636,45.956100,141.375336,1.118854,0.034325,0.394714
4132685375,-38.262619,55.930664,146.268478,1.150974,-0.040817,0.376228
4132705336,-41.065193,62.687473,151.167068,1.127903,-0.040457,0.378257
4132725296,-50.294201,67.078766,153.247437,1.102665,-0.022540,0.410829
4132745256,-65.517342,58.073669,151.328430,0.969133,-0.055898,0.546703
4132765216,-79.977051,23.318966,135.888123,0.885393,-0.209344,0.655043
4132785177,-30.164612,1.796115,97.507935,1.017633,-0.041251,0.426241
4132805138,64.980515,6.085187,25.822788,1.036612,0.722881,0.266552
4132825099,94.438583,-9.255362,-63.794128,0.924085,1.066385,0.254491
4132845059,92.933395,-10.738404,-103.846207,0.851601,0.821443,0.242968
4132865020,103.411339,-9.601274,-122.938599,0.881459,0.667895,0.119819
4132904942,116.305191,-21.981518,-139.908112,1.067094,0.545110,0.190708
4132924902,94.324692,-50.085087,-153.751495,1.074493,0.485891,0.249092
4132944863,62.983826,-78.052315,-178.896271,1.135817,0.505289,0.257730
4132964823,23.959305,-95.626602,-195.088516,1.210212,0.569600,0.288547
4132984785,-22.010513,-105.200188,-199.514145,1.207269,0.578008,0.289539
4133004745,-59.733349,-104.136017,-199.185028,1.119095,0.506969,0.267504
4133024706,-79.148094,-93.030075,-198.400589,1.027492,0.413932,0.236842
4133044667,-81.696037,-81.566460,-193.417114,0.930795,0.349789,0.232841
4133064627,-73.311203,-76.140739,-178.476746,0.882562,0.254424,0.210389
4133084588,-50.114487,-70.507179,-157.696991,0.846919,0.147280,0.174610
4133104551,-17.338358,-67.236267,-135.599457,0.806619,0.104507,0.142700
4133124511,13.640238,-66.831039,-115.666565,0.773331,0.148889,0.170411
4133144472,31.776234,-69.752823,-99.026993,0.751031,0.295920,0.213580
4133164433,31.167446,-67.759026,-80.528999,0.745918,0.453801,0.258799
4133184394,10.572278,-56.951969,-56.402992,0.713284,0.530535,0.292639
4133204354,-13.088490,-42.189003,-28.930914,0.626276,0.474645,0.269285
4133224315,-15.561392,-29.390265,0.860577,0.559778,0.324526,0.175729
4133244276,7.323715,-14.549990,34.793156,0.533460,0.226898,0.132134
4133264237,41.360577,7.072159,70.452484,0.563230,0.269910,0.129425
4133284198,60.841843,23.016514,95.917564,0.556864,0.399763,0.146760
4133304159,60.189495,27.866550,101.471199,0.693867,0.546484,0.275449
4133324120,37.624962,47.195412,79.449516,0.997643,0.965759,0.412566
4133344079,30.805880,46.249569,22.113165,1.226083,1.502187,0.109013
4133364040,0.847457,58.165417,-37.056854,1.257256,1.716271,0.281372
4133384000,-43.281532,71.975609,-65.584946,1.111057,1.270795,0.067713
4133403961,-39.851158,77.369331,-40.437954,0.824803,0.492292,0.006190
4133423922,-4.082268,62.821281,8.653689,0.676068,0.120590,0.062093
4133443883,42.049026,45.685829,35.637547,0.634747,0.211213,0.007581
4133463844,72.221428,35.446003,32.625717,0.661861,0.438773,0.010452
4133483804,65.004944,26.034336,26.574768,0.687018,0.546191,0.150937
4133503765,33.141636,23.090708,24.872503,0.701422,0.599985,0.190934
4133523726,-1.518655,28.090757,24.560757,0.680497,0.656492,0.248542
4133543687,-33.529720,36.494923,27.007633,0.667151,0.647134,0.295438
4133563647,-50.435589,46.535599,38.996334,0.673602,0.515292,0.310009
4133583608,-40.057331,51.778915,57.146309,0.694714,0.371452,0.285252
4133603569,-15.417621,54.879677,76.264923,0.744272,0.267805,0.275474
4133623530,15.366826,48.437233,94.287308,0.770288,0.251119,0.240620
4133643491,42.293648,38.983307,106.245071,0.821632,0.329574,0.209042
4133663452,65.353661,34.788261,121.536720,0.884454,0.361304,0.173067
4133683412,73.630234,44.101471,136.987030,0.893665,0.352674,0.211077
4133703374,61.902908,56.112099,149.771591,0.890553,0.338230,0.253054
4133723335,35.242859,65.871338,161.371780,0.927396,0.318039,0.309608
4133743296,3.705046,72.484612,170.243530,1.004530,0.330031,0.332682
4133763257,-27.880444,79.885368,173.581284,1.038336,0.357568,0.368638
4133783217,-64.018723,86.539162,165.126343,1.044420,0.365700,0.406953
4133803178,-103.050110,90.637169,148.074432,1.045875,0.340025,0.392740
4133823139,-127.639664,76.661514,136.629944,1.020831,0.198499,0.406619
4133863061,-73.218773,27.406538,140.890594,1.196383,-0.223161,0.221873
4133883021,39.953781,22.317719,127.300095,1.133559,0.232427,0.120739
4133922942,62.482769,-12.526621,-62.187229,0.938511,1.782073,0.602453
4133942902,-35.151482,-34.976685,-115.078522,0.856275,1.262801,0.460200
4133962863,-65.692238,-44.589306,-155.829147,0.937470,0.893058,0.277882
4133982823,-36.548870,-37.231720,-194.518127,1.192415,0.633525,0.277430
4134002784,4.167579,-40.799004,-224.523407,1.359904,0.288969,0.275127
4134022745,49.700123,-52.919533,-242.022964,1.302804,0.129182,0.185999
4134042706,99.288261,-69.460052,-250.099258,1.121203,0.213709,0.168536
4134062667,117.003815,-87.193687,-247.927094,0.976664,0.363803,0.204131
4134082627,94.603531,-96.072639,-232.634476,0.937009,0.469739,0.222066
4134102588,48.047085,-96.703979,-212.212509,0.923314,0.524935,0.194958
4134122549,-5.282295,-108.088623,-191.174500,0.883165,0.533821,0.177412
4134142510,-53.942165,-118.704918,-173.924500,0.862378,0.472254,0.160828
4134162470,-92.939735,-121.791321,-159.712341,0.827489,0.423688,0.178013
4134182431,-119.781143,-117.607246,-145.015549,0.788092,0.436454,0.221246
4134202392,-132.329895,-107.439583,-127.275055,0.710582,0.447403,0.293587
4134222353,-124.983887,-97.148048,-107.108681,0.642869,0.423032,0.332083
4134242314,-97.997055,-80.600952,-80.101814,0.663953,0.327675,0.346963
4134262274,-53.524174,-60.446297,-46.637100,0.644933,0.208458,0.361497
4134282237,-2.426034,-45.381641,-18.895657,0.585562,0.191192,0.357049
4134302198,41.190681,-35.240173,3.159132,0.598150,0.309094,0.328850
4134322158,63.159172,-21.705765,21.668949,0.617271,0.448899,0.336107
4134342120,66.896675,-9.468421,35.612350,0.604112,0.529815,0.296659
4134362080,69.448746,-0.168784,46.588764,0.613069,0.595757,0.206047
4134382041,73.274933,6.036316,52.382851,0.602716,0.671022,0.142611
4134402002,74.281288,10.748178,56.158665,0.605700,0.733558,0.113321
4134421962,69.974251,16.655565,59.831642,0.622759,0.738600,0.103444
4134441924,61.103008,27.824606,59.580723,0.664825,0.734960,0.101816
4134461884,52.437092,38.662048,57.388092,0.716459,0.785824,0.092095
4134481845,43.967510,43.068531,53.126213,0.752904,0.825271,0.080280
4134501806,37.338261,47.939419,44.498222,0.713421,0.832166,0.076255
4134521765,28.042694,44.544666,35.866180,0.636420,0.860644,0.073284
4134541726,13.193986,41.104366,33.553020,0.695610,0.934126,0.092653
4134561686,-6.614566,29.424992,21.938753,0.764983,1.016863,0.030921
4134581647,-20.398102,11.791142,8.645679,0.888905,0.978893,0.027260
4134601608,-49.397377,5.332419,3.140659,0.990781,0.832208,0.132610
4134621569,-67.161484,10.075116,0.031513,0.991696,0.652224,0.151966
4134641530,-61.165054,19.798304,0.249301,0.832231,0.487866,0.175227
4134661490,-43.686226,25.127533,8.161728,0.689045,0.367634,0.219009
4134681451,-20.590971,29.601992,23.455723,0.649587,0.330551,0.216252
4134701412,8.106827,35.683655,41.353813,0.679033,0.388125,0.208290
4134721373,28.773176,42.391254,58.996754,0.733296,0.471507,0.217390
4134741334,35.290276,47.039787,74.015602,0.778292,0.520565,0.222420
4134761295,29.360052,49.556355,86.894249,0.781263,0.515512,0.227111
4134781255,14.489697,52.555046,98.422066,0.759200,0.460799,0.230789
4134801216,-1.494686,56.332409,109.656647,0.731406,0.388832,0.262693
4134821177,-8.218822,58.853516,119.762520,0.736645,0.332338,0.288301
4134841138,-3.676690,56.661064,129.601501,0.761463,0.296169,0.281608
4134861099,3.924596,51.620308,138.498581,0.837350,0.288820,0.243053
4134881061,11.536779,53.093719,145.807373,0.958067,0.306048,0.194901
4134901022,17.680443,58.915314,153.651245,1.053896,0.309711,0.233570
4134920983,16.743174,67.302826,163.107193,1.102842,0.256992,0.256093
4134940943,4.215983,75.777969,171.264877,1.087354,0.200021,0.333871
4134960904,-19.217993,80.110100,178.056961,1.067031,0.160931,0.400250
4134980864,-51.724304,84.137085,185.092758,1.016963,0.117470,0.407602
4135000825,-86.269104,83.445847,191.096695,0.944994,0.024626,0.379209
4135020786,-112.762398,68.022591,190.379517,0.937791,-0.085756,0.509100
4135040747,-96.083458,21.187168,192.022507,1.223052,-0.088587,0.461471
4135060708,3.061504,1.786449,156.534332,1.678731,0.454152,0.159797
4135080668,57.003643,22.308292,44.214451,1.345694,1.375048,0.532174
4135100635,-16.641447,-4.652460,-23.921440,0.864865,1.260573,0.724565
4135120588,-60.900368,-21.814070,-54.915779,0.733707,0.702920,0.409208
4135140549,-25.033733,-4.321778,-80.528725,0.711085,0.333084,0.308764
4135160510,34.243980,7.910646,-90.361549,0.783869,0.080553,0.384808
4135180471,74.989006,-6.107074,-105.900856,0.976739,-0.115570,0.412320
4135200431,103.365807,-29.004248,-131.933563,1.126079,-0.205147,0.384746
4135220392,119.358131,-44.225872,-150.118088,1.096025,-0.084158,0.332311
4135240353,111.844482,-52.245579,-156.506042,0.976537,0.127621,0.314630
4135260314,75.854492,-57.460445,-159.668121,0.892611,0.336581,0.303476
4135280274,28.313583,-62.970028,-161.342453,0.859437,0.487296,0.280001
4135300235,-15.611274,-69.815079,-159.580017,0.916060,0.517103,0.275998
4135320196,-49.329224,-73.239563,-153.789368,1.043681,0.429384,0.235793
4135340157,-63.026855,-72.331703,-147.673386,1.093924,0.330030,0.209202
4135360118,-55.057648,-77.887802,-144.838257,1.055092,0.313810,0.191454
4135380078,-35.642448,-84.459991,-145.014725,0.992080,0.363838,0.186292
4135400039,-18.743628,-91.213051,-140.827728,0.940724,0.409480,0.156828
4135420000,-6.535410,-96.926155,-129.948761,0.940224,0.488238,0.165273
4135439961,-3.627185,-96.749107,-116.771805,0.950238,0.579177,0.199845
4135459923,-14.181566,-93.364548,-106.930321,0.911952,0.582750,0.236875
4135479884,-33.851246,-89.774895,-100.322006,0.876203,0.565481,0.273929
4135499845,-53.804699,-84.128807,-96.396759,0.860828,0.524800,0.272127
4135519805,-67.143700,-74.031860,-92.319702,0.848393,0.466812,0.270026
4135539766,-70.519630,-62.799019,-86.177452,0.816989,0.408508,0.263940
4135559727,-64.316933,-51.924767,-76.762337,0.780259,0.353323,0.262258
4135579688,-48.638004,-42.591499,-66.030998,0.723980,0.335007,0.262892
4135599648,-25.015934,-32.951511,-56.541294,0.691184,0.363828,0.252439
4135639570,16.577900,-17.447296,-33.286896,0.719715,0.440512,0.239048
4135659531,28.795216,-9.339117,-17.078014,0.731782,0.456463,0.206955
4135679492,42.070698,-3.879084,-0.004077,0.693952,0.482263,0.141731
4135699451,55.047752,5.355601,14.126133,0.627633,0.508040,0.092011
4135719412,61.225670,17.473497,21.740616,0.577642,0.565287,0.123668
4135739373,50.448589,29.977543,31.818180,0.568343,0.637143,0.213473
4135759334,23.570463,33.047966,48.573265,0.591646,0.637344,0.181479
4135779294,11.952887,34.360165,66.132751,0.713211,0.588093,0.138165
4135799255,7.601402,43.529659,65.770737,0.894113,0.691047,0.220295
4135819216,12.880548,40.620102,41.794807,0.932341,0.863417,0.099428
4135839177,26.520330,36.659412,18.925785,0.908731,0.925797,0.102891
4135859138,27.970013,28.678839,0.910059,0.808705,0.915324,0.099133
4135879099,27.432810,32.109314,-3.377271,0.806406,0.862099,0.125369
4135899059,26.995371,41.962440,9.576862,0.767318,0.735434,0.132282
4135919020,26.843784,45.630585,29.424778,0.727061,0.597541,0.110217
4135938981,28.161297,43.038006,46.903831,0.704736,0.514020,0.064461
4135958942,28.418451,39.033794,60.374275,0.692410,0.482398,0.037799
4135978902,23.674345,36.963909,71.024818,0.681666,0.479450,0.052402
4135998863,15.032615,35.018188,80.508705,0.657934,0.480399,0.094386
4136018824,7.943242,35.193066,91.861542,0.659482,0.432110,0.143832
4136058747,6.198344,38.313156,120.235512,0.753025,0.294142,0.180408
4136078708,18.226170,40.718613,132.862488,0.834073,0.276939,0.192739
4136098669,32.239716,45.110538,145.644852,0.972688,0.291633,0.145685
4136118629,48.113621,61.534042,161.663651,1.161362,0.279369,0.161640
4136138590,44.209965,85.378662,179.655167,1.243844,0.248814,0.244243
4136158551,21.653687,104.914505,196.096329,1.221634,0.235649,0.372722
4136178511,-14.633468,119.169838,212.075043,1.179663,0.192812,0.484569
4136198472,-60.216854,125.746452,225.765244,1.091944,0.124931,0.486166
4136218433,-96.779846,128.197968,233.298447,0.957511,0.069333,0.418045
4136238394,-122.006630,127.221802,229.695068,0.831435,-0.024619,0.362544
4136258355,-144.173233,108.981483,215.396164,0.830370,-0.189590,0.574395
4136278317,-137.877991,19.415331,205.039459,1.592961,-0.469523,0.489248
4136298275,47.804447,-13.504266,145.844604,2.024429,0.251259,-0.379551
4136318236,147.666748,45.758343,1.386340,1.204903,1.544424,0.403064
4136338196,68.210434,1.814530,-38.935776,0.588773,1.257452,0.601445
4136358157,-1.312402,-20.098234,-48.703026,0.456343,0.680589,0.351580
4136378118,-1.256471,-12.346287,-62.413307,0.495599,0.334778,0.278285
4136398079,16.757217,-7.459891,-77.099716,0.726666,0.158019,0.357904
4136418039,20.068911,-17.918131,-95.173897,1.086326,-0.071172,0.424166
4136438000,18.384085,-36.538086,-114.428734,1.251897,-0.372734,0.364301
4136457961,24.853832,-43.289505,-125.917984,1.079005,-0.367268,0.304765
4136477922,14.808502,-45.577061,-125.985718,0.899288,-0.132585,0.312741
4136497883,-10.410851,-44.531700,-122.731277,0.806032,0.097074,0.342874
4136517843,-44.757992,-46.247787,-119.275200,0.808089,0.256060,0.406600
4136537804,-84.747681,-50.115242,-116.806000,0.944380,0.263010,0.456247
4136557765,-116.369049,-45.092361,-116.067970,1.102385,0.141782,0.464773
4136577726,-119.050598,-39.160961,-116.761162,1.150831,-0.010078,0.445566
4136597686,-83.687820,-40.678383,-115.549156,1.154536,-0.094476,0.389283
4136617647,-26.228889,-39.790215,-112.074387,1.107989,-0.047767,0.361529
4136637610,23.427469,-39.664574,-106.886284,1.029028,0.093224,0.380537
4136657570,52.757477,-36.139145,-99.766838,0.959409,0.258748,0.399133
4136677531,64.216354,-32.272377,-91.227020,0.920861,0.362276,0.414851
4136697492,64.569916,-28.790823,-83.884506,0.919490,0.386547,0.401407
4136717453,60.229412,-25.262392,-83.342506,0.911328,0.361651,0.396383
4136737414,58.141651,-25.908777,-86.627060,0.902522,0.346917,0.364682
4136757374,63.746391,-24.879852,-91.702576,0.921870,0.381010,0.310297
4136777335,72.341995,-20.836121,-94.199890,0.864245,0.451816,0.250347
4136797296,76.558464,-20.511480,-92.471237,0.801918,0.540147,0.198219
4136817257,72.636917,-19.572407,-89.328400,0.795523,0.586180,0.165112
4136837218,61.947254,-21.555084,-86.317421,0.823387,0.594769,0.131881
4136857178,47.210209,-20.610527,-82.504517,0.831449,0.584870,0.107058
4136877138,25.543495,-20.067165,-81.195656,0.798678,0.544234,0.083628
4136897098,6.565462,-22.837578,-78.423386,0.745194,0.515981,0.053151
4136917059,-6.096817,-28.056137,-72.879211,0.683890,0.509979,0.034368
4136937020,-9.939843,-33.536728,-62.638016,0.640313,0.506924,0.024603
4136956981,-8.461946,-36.429749,-50.569233,0.652591,0.516422,0.036329
4136976942,-3.986939,-35.631828,-40.029129,0.691124,0.520306,0.043255
4136996903,3.017048,-36.332260,-33.106163,0.686509,0.544705,0.055064
4137016864,8.345206,-35.391022,-29.325611,0.654538,0.605784,0.056847
4137036824,6.712431,-32.889141,-24.447165,0.631174,0.688818,0.067989
4137056785,-1.395457,-27.472385,-13.667145,0.672744,0.747677,0.081902
4137076745,-13.898520,-15.886093,-1.347449,0.734929,0.758656,0.099709
4137096706,-23.982704,-4.443471,7.679061,0.752288,0.722798,0.109083
4137116667,-23.632793,1.642769,13.135496,0.735845,0.694031,0.106976
4137136628,-15.689268,6.074410,17.162333,0.715512,0.711954,0.118512
4137156589,-8.675545,13.309980,22.350677,0.721397,0.714763,0.122126
4137176550,-4.125542,18.681908,27.192139,0.721157,0.692066,0.123859
4137196510,-2.416241,21.455086,28.597683,0.706982,0.674658,0.123156
4137216471,-3.344293,22.643070,27.932564,0.694731,0.653910,0.125365
4137236433,-7.028063,22.556257,28.072309,0.684011,0.630355,0.154330
4137256394,-13.465506,24.419804,33.117973,0.683895,0.590410,0.182665
4137276355,-18.384800,29.251398,41.617409,0.698321,0.532237,0.180695
4137296316,-17.932840,37.990593,50.424736,0.700395,0.474966,0.188137
4137316277,-13.032917,45.818035,59.149460,0.721377,0.452227,0.189623
4137336237,-6.710773,49.503437,67.664993,0.766692,0.464892,0.198897
4137356198,-0.857495,52.107193,74.579208,0.783729,0.483667,0.214382
4137376159,3.034532,55.463024,81.751465,0.780958,0.498211,0.224839
4137396120,2.731034,60.067814,90.683907,0.803136,0.516999,0.232405
4137416081,-1.362451,61.994793,100.715874,0.882754,0.551097,0.233489
4137436041,-8.538503,62.492100,109.669693,0.960604,0.531107,0.239433
4137456015,-16.995373,62.900669,114.080940,0.963605,0.477433,0.269780
4137475962,-23.901962,60.345737,114.608383,0.947695,0.416138,0.293986
4137495922,-26.974207,53.698574,113.287598,0.982151,0.378210,0.341772
4137515883,-25.429909,49.011684,110.848328,1.015632,0.365573,0.352974
4137535844,-23.446686,47.567482,106.819473,0.961750,0.376913,0.363001
4137555805,-23.627584,45.697342,103.102859,0.894186,0.367496,0.373663
4137575765,-26.247946,48.794262,99.810944,0.885312,0.323244,0.362296
4137595726,-22.427835,48.839447,98.100700,0.892417,0.279877,0.354394
4137615687,-13.017735,44.281483,92.863976,0.903818,0.258251,0.363062
4137635648,-2.307938,35.671108,82.658936,0.902338,0.256729,0.363606
4137655609,4.684930,28.598879,71.300911,0.904364,0.255199,0.372320
4137675569,6.568272,21.944260,62.832119,0.924595,0.241377,0.380111
4137695530,4.298571,16.566959,55.174942,0.919314,0.218085,0.399792
4137715491,-0.270607,11.499073,46.462357,0.882001,0.208235,0.414658
4137735452,-6.667740,5.409307,37.229187,0.861396,0.204496,0.430368
4137755412,-15.953247,0.816443,30.329359,0.883261,0.184889,0.435279
4137775373,-22.907204,-1.359177,26.560459,0.900159,0.145100,0.442798
4137795334,-25.882732,-2.830885,23.661263,0.896614,0.097955,0.448786
4137815296,-24.021076,-3.231019,20.525995,0.878140,0.055739,0.451780
4137835257,-16.795984,-3.766415,19.146629,0.870535,0.019144,0.461437
4137855218,-7.080664,-3.591163,19.618660,0.902962,-0.021125,0.465788
4137875179,6.562329,1.630544,20.946140,0.899419,-0.058063,0.461046
4137895139,22.495815,6.086361,23.223423,0.842488,-0.067434,0.451231
4137915100,34.595093,2.849935,25.150417,0.821561,-0.033599,0.425342
4137935061,38.226803,-2.177453,26.862371,0.849360,0.013071,0.422720
4137955023,32.742596,-6.031891,26.341516,0.869555,0.072782,0.430035
4137974982,17.059488,-8.472627,24.350449,0.884565,0.100134,0.446253
4137994943,-3.404016,-8.785986,21.338602,0.898770,0.091418,0.463321
4138014904,-19.579269,-8.353140,18.036234,0.911872,0.051093,0.468775
4138034865,-26.315250,-7.587462,17.481569,0.921714,0.003649,0.463722
4138054824,-23.375254,-7.027615,20.685591,0.916421,-0.043804,0.459758
4138074785,-13.663074,-7.369881,24.725407,0.902635,-0.092971,0.450749
4138094746,0.018907,-7.521587,27.730717,0.895331,-0.118642,0.443022
4138114707,13.851336,-6.663102,30.347958,0.898703,-0.119229,0.442548
4138134668,23.761995,-4.841735,32.836956,0.901643,-0.101572,0.439945
4138154628,28.047920,-2.383668,32.915749,0.893246,-0.068338,0.437789
4138174589,24.344845,-0.772169,30.457314,0.881988,-0.042395,0.444716
4138194550,15.439671,-0.513107,27.915405,0.891442,-0.024596,0.450244
4138214511,5.623057,-0.652267,26.327343,0.907213,-0.027605,0.442113
4138234471,-1.938787,-1.173064,23.851749,0.911445,-0.042178,0.436875
4138254432,-6.613587,-1.818809,20.558641,0.917345,-0.056531,0.435488
4138274393,-7.457152,-0.962426,17.754082,0.920284,-0.079335,0.432182
4138294354,-4.828432,-0.297758,15.887191,0.917527,-0.095803,0.435406
4138314315,-1.520161,-0.676682,14.244197,0.922790,-0.096128,0.441791
4138334276,1.333529,-0.719802,12.470181,0.925175,-0.097727,0.439858
4138354236,4.359936,-0.636322,9.641618,0.904690,-0.098514,0.433667
4138374197,5.995146,-0.647991,6.451897,0.883513,-0.090161,0.430410
4138394158,5.510090,-0.193556,4.764765,0.884235,-0.085203,0.428066
4138414120,3.858279,0.524790,3.877861,0.884954,-0.087310,0.427476
4138434081,1.188066,1.078247,2.578010,0.879121,-0.093121,0.430014
4138454042,-2.057318,1.086997,1.777974,0.873456,-0.104697,0.430099
4138474002,-3.929595,0.689400,1.521930,0.876505,-0.117803,0.431099
4138493963,-4.958075,0.342792,1.488692,0.886383,-0.128048,0.433724
4138513924,-5.826536,-0.133947,1.289210,0.896398,-0.139365,0.443928
4138533885,-6.723113,-0.108796,1.028169,0.898090,-0.154311,0.448757
4138553845,-5.582429,-0.439749,0.880645,0.890034,-0.158028,0.443753
4138573806,-2.911664,-0.509240,0.821270,0.886371,-0.155028,0.441178
4138593767,-1.480855,-0.148260,1.075909,0.877213,-0.155517,0.438559
4138613728,-0.993892,0.002562,1.213903,0.871531,-0.148174,0.439336
4138633689,-1.156303,0.011865,1.797737,0.884030,-0.151075,0.436335
4138653648,-1.246548,0.773548,2.244076,0.892726,-0.152224,0.438516
4138673609,-1.339688,0.340396,2.259594,0.890216,-0.149105,0.432409
4138693570,-1.469070,-1.263334,2.504424,0.886154,-0.148808,0.424954
4138713530,-1.932833,-2.180499,3.270793,0.894122,-0.152793,0.425438
4138733491,-2.198922,-1.166466,4.126001,0.905133,-0.155203,0.430051
4138753452,-1.991476,-0.436628,4.338099,0.892357,-0.145594,0.431571
4138773413,-1.105063,-2.022438,3.766604,0.884595,-0.133363,0.423306
4138793374,-1.686998,-3.047474,3.652371,0.903259,-0.139144,0.420374
4138813334,-1.912248,-1.737686,4.158160,0.912262,-0.152906,0.424316
4138833295,-1.768151,-1.913165,4.105773,0.902702,-0.149875,0.425912
4138853256,-3.095433,-2.806450,4.034417,0.901557,-0.145234,0.431643
4138873217,-6.576346,-1.829532,4.021454,0.896992,-0.149862,0.435187
4138893178,-10.714903,0.168461,3.966844,0.880255,-0.164860,0.442046
4138913139,-13.757261,0.764273,4.221529,0.871656,-0.179147,0.447313
4138933100,-14.820976,2.508281,3.767632,0.864525,-0.180240,0.448384
4138953060,-14.427909,4.444175,2.726289,0.875941,-0.182932,0.433976
4138973021,-13.919109,5.692455,4.061841,0.894627,-0.211128,0.433597
4138992982,-14.037355,5.267160,7.925096,0.883437,-0.231802,0.454128
4139012944,-15.715010,5.650853,10.742240,0.844934,-0.233821,0.462835
4139032905,-17.010355,5.430623,12.612873,0.812999,-0.241213,0.456906
4139052866,-14.954105,3.418677,13.761086,0.807219,-0.239969,0.438385
4139072826,-7.767750,1.923760,11.677212,0.836135,-0.215684,0.416299
4139092787,1.583384,1.006861,9.273284,0.840245,-0.197707,0.392859
4139112748,8.453500,-0.264205,8.326442,0.824197,-0.185962,0.395195
4139132709,11.080438,-1.481405,8.511498,0.847148,-0.173556,0.401969
4139152669,9.561270,-0.906318,8.444903,0.882265,-0.156754,0.413448
4139172630,2.067192,0.706212,8.030669,0.912753,-0.144155,0.432559
4139192591,-8.865962,0.329325,7.463844,0.920022,-0.134513,0.444373
4139212552,-20.066526,-0.019127,5.492051,0.917415,-0.122441,0.459972
4139232512,-32.383755,-0.974328,2.568798,0.910935,-0.100996,0.467333
4139252472,-40.782616,-2.948456,2.141754,0.953800,-0.100698,0.430961
4139292393,-16.182888,2.726768,0.598021,0.986263,-0.165916,0.370156
4139312354,0.809099,6.181633,-1.544330,0.937352,-0.164127,0.377061
4139332315,11.132206,6.283406,-2.603243,0.932508,-0.115522,0.377998
4139352276,14.435461,6.524695,-5.932028,0.973511,-0.043284,0.367823
4139372236,5.939630,3.102464,-8.080025,0.930206,-0.066343,0.357845
4139392197,-10.985132,3.458984,-8.940965,0.858714,-0.146996,0.411308
4139412158,-28.717533,7.868317,-7.617292,0.863320,-0.178913,0.488589
4139432119,-38.106968,14.913427,-9.707990,0.894358,-0.138268,0.517633
4139452080,-41.274700,17.820560,-9.935307,0.901327,-0.161972,0.474257
4139472040,-33.786217,19.205526,-8.956364,0.873795,-0.246409,0.418039
4139492002,-12.502303,17.684153,-5.612719,0.848556,-0.309829,0.383465
4139511962,9.755005,16.655983,-5.044318,0.842626,-0.268494,0.396248
4139531923,16.719995,14.564448,-9.177172,0.862859,-0.151412,0.416920
4139551884,4.919968,11.844395,-15.298809,0.885146,-0.064534,0.455973
4139571844,-18.305195,8.774108,-20.865704,0.907607,-0.031483,0.481796
4139591805,-38.986275,8.658156,-24.379467,0.919566,-0.035025,0.478067
4139611767,-50.323521,10.432244,-26.187916,0.912095,-0.055931,0.466616
4139631728,-55.186165,11.099833,-27.161247,0.888866,-0.094827,0.450800
4139651689,-54.637054,9.135283,-27.520790,0.920463,-0.116989,0.449557
4139671650,-49.647606,8.030773,-28.049089,0.976170,-0.120160,0.427501
4139691611,-40.283508,9.634089,-32.718388,0.922153,-0.135668,0.397898
4139711572,-31.540558,9.477377,-36.233513,0.861692,-0.132225,0.410301
4139731532,-25.449875,8.545499,-36.151279,0.939051,-0.080512,0.414697
4139751493,-25.078411,8.729480,-42.366055,0.979454,-0.024074,0.398942
4139771454,-35.996643,3.844995,-56.913380,0.928455,0.029889,0.385467
4139791415,-53.428776,0.558662,-69.913605,0.924597,0.067464,0.353911
4139811375,-67.153931,-0.912515,-78.251991,0.955466,0.066262,0.337013
4139831336,-78.614403,-4.756568,-83.080635,0.985901,0.025982,0.351617
4139851296,-91.773323,-14.701252,-91.328583,0.979371,0.003206,0.337300
4139871256,-98.601318,-21.705145,-102.003807,1.002667,0.009804,0.320136
4139891217,-100.568771,-26.514448,-110.359070,1.008885,0.040980,0.286957
4139911178,-98.226761,-28.481775,-116.784210,1.006710,0.052573,0.232727
4139931139,-93.463272,-32.629810,-122.203873,1.015354,0.056085,0.180559
4139951100,-82.495239,-36.558701,-129.796692,1.012021,0.097398,0.168711
4139971060,-75.409943,-41.209846,-135.898590,1.004892,0.157831,0.100296
4140010982,-70.428619,-53.510197,-129.602478,1.038597,0.190266,0.035911
4140030943,-79.929382,-57.652748,-132.276367,1.011238,0.240121,0.044245
4140050903,-97.461533,-63.855396,-135.945190,1.009631,0.238231,0.019478
4140070864,-111.238701,-66.331818,-133.763306,1.056325,0.195961,0.002723
4140090825,-121.320312,-70.225044,-130.641205,1.076950,0.217976,-0.031316
4140110786,-123.235458,-74.452560,-133.259583,1.116145,0.282099,-0.063155
4140130747,-126.571396,-75.331848,-133.345169,1.120968,0.297964,-0.081357
4140150707,-124.613403,-81.493423,-131.037491,1.143575,0.259548,-0.087780
4140170668,-117.412659,-90.513580,-131.303802,1.122222,0.270876,-0.067959
4140190629,-114.337761,-96.688141,-133.659897,1.091950,0.294310,-0.047135
4140210591,-112.288849,-99.252121,-134.734558,1.074821,0.328348,-0.043999
4140230552,-110.494141,-102.241394,-132.166550,1.082633,0.321444,-0.063048
4140250513,-108.739693,-106.312263,-126.735825,1.094914,0.325967,-0.043410
4140270474,-114.812210,-109.299477,-124.284874,1.030499,0.306723,-0.024971
4140290434,-119.563187,-112.952621,-121.889259,1.022089,0.334596,-0.045706
4140310395,-126.198784,-117.717407,-119.354027,1.030959,0.377407,-0.045881
4140330356,-132.820740,-119.929268,-114.189041,1.017155,0.375180,-0.071230
4140350317,-126.340279,-118.900101,-102.709152,0.945851,0.280816,-0.091208
4140370277,-109.224060,-122.220619,-93.069794,0.914978,0.347665,-0.048340
4140390238,-103.595757,-120.378616,-90.898552,0.908667,0.445360,0.007768
4140410199,-108.236092,-109.123383,-79.440338,0.857284,0.427516,-0.011823
4140430160,-105.806686,-99.576622,-63.030685,0.875100,0.375396,-0.038872
4140450119,-93.640900,-100.553062,-45.290516,0.863631,0.385374,-0.017299
4140470080,-80.470291,-100.390907,-38.318096,0.819846,0.420425,0.017566
4140490041,-76.356361,-96.944084,-34.681919,0.792825,0.513819,0.013537
4140510002,-76.737495,-93.133209,-31.129436,0.732643,0.601134,0.017833
4140529962,-83.987175,-87.689697,-28.323092,0.713885,0.612554,0.002277
4140549923,-91.378006,-86.786270,-21.966171,0.751717,0.601483,-0.000764
4140569884,-93.917099,-86.647141,-17.345230,0.782893,0.579169,0.012194
4140589845,-92.584686,-81.377945,-19.504093,0.748124,0.608317,0.060070
4140609806,-93.101921,-82.198334,-23.618038,0.719959,0.666473,0.044941
4140629766,-97.151154,-82.317726,-25.126356,0.766375,0.707461,0.058598
4140649727,-104.877525,-77.380081,-25.030247,0.813801,0.675126,0.112632
4140669688,-120.382378,-76.638222,-24.892860,0.815231,0.643186,0.167363
4140689649,-127.796478,-79.290749,-28.298275,0.815450,0.672420,0.121448
4140709610,-120.495697,-79.026253,-28.874105,0.822238,0.657046,0.088131
4140729570,-102.438927,-79.215477,-22.469404,0.805313,0.547957,0.075584
4140749531,-74.739769,-80.899963,-14.436828,0.787208,0.478650,0.084947
4140769492,-46.402782,-81.344070,-5.007544,0.774593,0.500831,0.094734
4140789453,-30.308212,-81.996422,2.446293,0.750545,0.554347,0.119551
4140809415,-29.633718,-83.994316,4.599311,0.718083,0.619425,0.114702
4140829376,-39.220623,-83.857193,4.612961,0.709968,0.665536,0.091943
4140849337,-51.848934,-82.755608,6.671850,0.719449,0.679518,0.066391
4140869297,-60.407825,-83.788651,8.808092,0.724946,0.661194,0.054225
4140889258,-60.837452,-85.187546,8.330629,0.736250,0.651786,0.059140
4140929180,-56.652672,-80.089546,1.233152,0.724921,0.712757,0.111751
4140949141,-59.130020,-71.635605,-0.275194,0.717865,0.697198,0.105684
4140969101,-65.410660,-67.202034,1.040750,0.743226,0.678954,0.081953
4140989063,-71.023643,-69.803474,3.181482,0.788140,0.652051,0.076752
4141009023,-73.809135,-70.022858,3.111889,0.803415,0.615989,0.101754
4141028984,-76.773552,-67.351608,3.143638,0.753805,0.580059,0.145871
4141048944,-76.155037,-65.306839,11.172223,0.715128,0.521201,0.127822
4141068904,-73.545700,-58.097538,22.743923,0.700227,0.460462,0.141019
4141088865,-66.592400,-54.124474,31.602629,0.737025,0.431592,0.113573
4141108826,-47.181431,-45.507355,32.549446,0.778854,0.464913,0.103141
4141128787,-25.928812,-38.353073,23.782501,0.754821,0.642319,0.065190
4141148748,-13.251081,-48.857071,9.162173,0.777957,0.875116,-0.061678
4141168708,-22.540359,-63.647106,-1.001052,0.757359,0.992241,-0.060788
4141188669,-64.678604,-61.439423,-2.517287,0.779969,0.981701,0.160989
4141208630,-132.152328,-49.265343,-0.732085,0.852537,0.784567,0.177205
4141228591,-163.604370,-46.650543,9.124967,0.885838,0.430719,0.177966
4141248551,-151.521881,-52.623024,15.639999,0.889572,0.205205,0.150312
4141268512,-119.365738,-55.206360,14.938056,0.894102,0.221140,0.286089
4141288473,-89.702530,-54.631378,11.422665,0.942373,0.392495,0.414113
4141308434,-59.972038,-42.344490,11.942737,0.964927,0.498655,0.447938
4141328395,-29.416897,-25.589359,15.820965,0.925938,0.490080,0.449367
4141348355,-1.295049,-11.199939,15.566048,0.888390,0.448534,0.422404
4141368316,20.333977,-1.668044,9.809789,0.868975,0.436183,0.378359
4141388277,33.686291,3.595936,1.490105,0.842341,0.439958,0.350307
4141408239,46.300503,8.552447,-2.088177,0.843905,0.465117,0.281537
4141428200,55.598164,13.457330,-2.588451,0.823457,0.542643,0.234998
4141448161,61.116325,16.563465,-3.508355,0.848021,0.619619,0.213881
4141468122,68.666786,18.255867,-0.829639,0.881649,0.651322,0.186478
4141488083,78.346054,22.398819,6.087341,0.874680,0.649751,0.117533
4141508043,81.007362,27.042755,8.973171,0.832982,0.679160,0.078769
4141528004,86.969955,30.946049,8.083902,0.770279,0.663153,0.040000
4141547965,79.182274,27.316471,2.295639,0.733195,0.661712,0.002190
4141567926,52.656425,20.020897,-10.743831,0.757569,0.739581,-0.001553
4141587886,13.934804,15.337063,-15.107272,0.770009,0.766427,0.015629
4141607847,-9.264969,12.145329,-12.993418,0.735898,0.654631,0.010915
4141627808,-12.620974,6.714816,-11.068684,0.717558,0.566712,-0.003280
4141647767,-0.508885,-3.606795,-11.597615,0.692349,0.570810,-0.001988
4141667728,20.283756,-8.151824,-15.020828,0.654047,0.565105,0.003504
4141687689,35.798676,-9.656669,-16.378939,0.617945,0.609370,0.008765
4141707650,39.124596,-10.986535,-14.392715,0.619615,0.691510,0.020016
4141727611,31.913864,-9.982684,-10.737179,0.672878,0.727439,0.040712
4141747572,17.684940,-7.507651,-5.186914,0.708453,0.653207,0.055784
4141767532,12.858421,-7.671469,0.201042,0.731073,0.539561,0.039393
4141787493,20.835842,-6.492117,5.576176,0.764716,0.525256,0.023580
4141807454,39.490112,0.059194,10.439717,0.797643,0.539816,0.023125
4141827415,49.934387,5.603943,16.036573,0.758130,0.592196,0.046312
4141847376,46.866341,4.596952,17.158760,0.722653,0.658139,0.042577
4141867337,40.260574,5.251790,14.646626,0.756665,0.690646,0.014440
4141887297,35.659492,9.933165,13.288689,0.807970,0.662482,0.002092
4141907258,28.686464,12.429561,14.536936,0.801124,0.615301,0.009477
4141927219,20.017088,12.550768,11.889758,0.783411,0.597941,-0.002948
4141947180,12.743662,12.297733,3.130689,0.821208,0.599846,-0.007567
4141967140,10.369009,12.639162,-4.778246,0.834519,0.584136,-0.028192
4141987101,11.031601,8.240804,-8.837406,0.757437,0.561846,-0.021865
4142027024,17.132956,4.711274,-18.427752,0.764050,0.532597,0.040294
4142046985,13.566827,3.450107,-23.446663,0.816472,0.522708,0.047609
4142066946,15.725786,-1.694270,-29.268099,0.867734,0.527919,0.023786
4142086906,24.424856,-13.250858,-36.667290,0.911439,0.578182,-0.051453
4142106867,29.187208,-15.168650,-44.860428,0.909163,0.705503,-0.024076
4142126828,18.850378,-17.913008,-53.170532,0.804249,0.818663,-0.037051
4142146789,15.444665,-22.611841,-58.054756,0.707344,0.782736,-0.138317
4142166750,19.968632,-27.868149,-55.314949,0.657905,0.650435,-0.163646
4142186710,22.674801,-35.426620,-43.106110,0.721391,0.567485,-0.177970
4142206671,18.225170,-44.492943,-28.178896,0.743313,0.629459,-0.207358
4142226632,-0.691573,-46.975075,-21.900539,0.755719,0.803900,-0.154896
4142246606,-53.453201,-37.392693,-29.944258,0.787380,0.938081,0.036356
4142266552,-108.283722,-33.301319,-41.386662,0.752788,0.911728,0.080865
4142286513,-123.294250,-29.823267,-48.772839,0.742224,0.760185,0.029063
4142306474,-104.505455,-20.121372,-53.924000,0.758727,0.613682,0.055259
4142326435,-61.523129,-15.506018,-57.894722,0.747597,0.557005,0.019376
4142346396,-6.109554,-18.028507,-59.460983,0.720212,0.579204,-0.073462
4142366356,38.270817,-23.919523,-55.662601,0.708791,0.626542,-0.083007
4142386317,52.430565,-35.434040,-52.426228,0.662325,0.686009,-0.108509
4142406278,48.178127,-51.858624,-50.609455,0.604201,0.734406,-0.134681
4142426239,24.848845,-63.353401,-44.180420,0.577466,0.812059,-0.120963
4142446199,-4.274185,-67.382187,-40.392452,0.590019,0.915362,-0.171598
4142466160,-24.359371,-67.278503,-35.882568,0.516214,0.924578,-0.153069
4142486121,-37.635387,-64.365410,-30.329811,0.498972,0.905630,-0.161817
4142506082,-44.902237,-56.331470,-21.440683,0.598216,0.845913,-0.084894
4142526043,-46.991577,-51.832031,-14.775632,0.587288,0.755114,-0.048276
4142546003,-36.500637,-58.412552,-21.895529,0.483172,0.776615,-0.100166
4142565964,-19.379564,-63.308891,-28.092899,0.488185,0.813021,-0.161955
4142585925,-19.309324,-57.270012,-16.406410,0.548054,0.867090,-0.052195
4142605886,-34.500271,-42.944267,3.785707,0.577102,0.910667,0.026847
4142625848,-47.789421,-27.691509,11.543678,0.542255,0.973667,0.070981
4142645809,-57.364525,-14.255774,14.155840,0.571288,0.935736,0.083608
4142665770,-66.876572,-4.940377,17.624382,0.601268,0.972123,0.119167
4142685730,-63.381523,-2.528227,12.547421,0.607467,0.934740,0.103320
4142725652,-23.576229,-7.287137,16.131668,0.563143,0.730669,0.009779
4142745613,2.932957,-11.782030,23.974777,0.618034,0.743438,0.001835
4142765574,0.920208,-7.272054,32.211075,0.670106,0.739283,0.158847
4142785535,-12.489244,-0.518600,33.735268,0.683886,0.789018,0.250349
4142805495,-22.036291,15.206267,28.891298,0.721071,0.836055,0.285774
4142825456,-25.947227,32.980404,34.710838,0.688247,0.655739,0.258440
4142845417,-11.433863,42.808125,51.197952,0.644311,0.496194,0.182845
4142865376,3.197113,44.340546,76.220764,0.604078,0.389094,0.078320
4142885337,14.573278,41.581390,98.674026,0.576564,0.341196,0.046820
4142905298,25.880379,37.287979,118.214996,0.610561,0.378839,0.115214
4142945220,44.802551,40.294933,164.667099,0.929310,0.374138,0.237150
4142965181,59.155064,68.017395,177.317062,1.031251,0.379412,0.259695
4142985142,43.165665,95.452171,184.046112,1.103538,0.423923,0.165679
4143005102,10.570360,115.456459,198.153809,1.033952,0.341044,0.223767
4143025063,-36.130013,117.593399,225.917725,0.981991,0.047151,0.248481
4143045023,-39.458305,103.473557,255.761826,1.246984,-0.031421,0.216200
4143064984,-53.532547,101.941238,265.538269,1.572153,0.059842,0.421733
4143084945,-33.142311,144.921600,262.589142,1.651833,-0.084332,0.477917
4143104906,-0.497795,207.286209,256.084503,1.492683,-0.257485,0.384678
4143124867,15.170300,177.394058,255.892563,1.182514,-0.010562,0.434863
4143144828,6.706106,97.782875,177.114426,1.111105,1.561270,0.008683
4143164789,218.200653,-24.408234,-110.925339,0.900524,3.429595,-1.358473
4143184749,280.506622,-66.314949,-262.596802,1.117696,1.859904,-0.470611
4143204710,260.299103,-60.523560,-311.350739,0.944898,1.384383,0.003341
4143224672,146.364517,-148.809601,-352.471893,1.492615,1.497325,0.058433
4143244633,20.833370,-241.377365,-370.606232,2.284227,1.012705,-0.166525
4143264594,-54.178493,-217.499939,-377.280090,2.036819,0.539455,-0.044384
4143284554,-69.798378,-175.038300,-366.428467,1.273044,0.330385,0.024348
4143304515,-23.271029,-165.112778,-348.780792,0.872365,0.099424,0.052836
4143324476,15.254358,-163.106628,-318.761780,0.788848,-0.116473,0.167484
4143344437,45.767784,-147.427521,-256.572632,0.729716,-0.255876,0.184255
4143364397,84.500008,-127.853264,-169.415771,0.693431,-0.390110,0.340957
4143384358,93.816940,-94.525208,-70.263947,0.650810,-0.283750,0.504075
4143404319,70.436691,-40.112675,12.871256,0.387319,-0.136398,0.435635
4143424280,54.753994,18.618334,73.750519,0.256845,-0.025187,0.370682
4143444241,8.683773,73.313354,140.386826,0.376758,0.164634,0.537964
4143464200,-34.445957,136.045380,188.396439,0.492107,0.864919,0.406859
4143484161,87.106308,80.835533,12.662104,1.062814,3.978777,-1.090760
4143504122,81.634987,146.098099,-57.610031,1.603915,1.659670,0.535435
4143524082,-126.704010,96.177979,33.843239,0.851496,-0.532443,-0.828146
4143544043,19.588310,25.036743,97.121536,-0.000735,-0.117081,-0.365493
4143564005,134.483749,6.058797,118.863426,0.220566,0.557505,-0.295173
4143583965,116.330559,64.364143,142.076508,0.608304,0.833470,0.122205
4143603926,40.544186,133.774139,184.048462,0.860454,0.780700,0.235420
4143623887,-40.240768,187.308182,223.416885,0.919912,0.557133,0.231248
4143643847,-94.680450,199.813904,255.625061,0.905032,0.369834,0.205268
4143663808,-117.910156,190.422897,287.172241,1.018002,0.115313,0.185920
4143683769,-100.764656,186.102173,306.193726,1.194370,-0.180586,0.148016
4143703730,-67.474503,184.960892,328.436157,1.324617,-0.302453,0.329698
4143723691,-45.580696,175.871582,369.869171,1.575870,-0.366304,0.430512
4143743651,-58.733829,207.368195,388.995026,1.670933,-0.417088,0.773841
4143763612,-38.946770,102.620262,304.731659,2.083224,0.234478,0.087857
4143783573,251.891586,-61.006535,42.243225,3.056120,6.033468,-1.703346
4143803534,307.864380,37.003265,-137.663208,0.245931,2.990272,0.350137
4143823496,41.805420,-96.618637,-225.006241,0.034904,0.962316,-0.163426
4143843457,-75.022972,-129.378677,-284.525574,0.730135,1.635691,0.128874
4143863417,-110.514618,-150.906525,-369.892883,2.221479,1.954283,0.108117
4143883378,-223.753494,-199.476807,-359.576935,3.208584,0.478713,-0.024266
4143903339,-171.902557,-150.563583,-380.023193,2.056931,-0.265918,-0.116512
4143923300,-10.613081,-116.237961,-401.262421,1.178126,-0.292254,0.115035
4143943261,90.682236,-112.959335,-372.411560,0.776333,-0.349391,0.050777
4143963222,157.106445,-123.915649,-326.457062,0.489132,-0.283033,-0.115482
4143983182,174.276978,-145.891693,-271.898285,0.366179,-0.134897,-0.086653
4144003143,158.536163,-169.738174,-175.096542,0.483107,-0.145748,0.000175
4144023104,136.049286,-175.961990,-61.586021,0.725954,-0.137500,0.033725
4144043065,83.361900,-125.832619,27.112844,0.797337,0.026328,0.453329
4144063024,-29.980755,-53.953396,72.524025,0.511245,0.415085,0.727922
4144082985,-114.511917,-8.167917,83.818420,0.519347,0.689152,0.733689
4144102946,-195.952118,48.932453,118.208275,0.785155,0.400543,0.617262
4144122907,-175.913437,77.397568,146.069916,0.569162,0.121547,0.356887
4144142868,-7.880923,50.917542,91.952713,0.867975,1.150241,0.192898
4144162828,150.371933,66.490311,-42.783302,1.465321,2.380262,-0.252572
4144202750,89.011330,35.469017,51.738182,0.554770,-0.317406,-0.231640
4144222711,150.660645,12.426186,107.826820,0.387460,0.227323,-0.521188
4144242672,170.838043,28.933865,119.617233,0.384361,0.952729,-0.061700
4144262632,64.985222,74.699173,136.153793,0.642507,1.098245,0.070323
4144282593,-64.030952,140.762589,157.751831,0.705725,0.792927,0.166271
4144302554,-170.442902,167.647964,189.971710,0.753621,0.384269,0.053095
4144322515,-213.702591,164.243713,235.863586,0.862353,0.039747,0.073755
4144342476,-193.592331,145.037064,295.657074,0.962984,-0.399833,0.133886
4144362436,-125.596718,149.508575,342.830780,1.232961,-0.544462,0.262683
4144382397,-93.913261,169.271759,395.690308,1.664173,-0.541456,0.749346
4144402358,-91.436157,167.817673,455.285156,2.394592,-0.485505,1.382412
4144422320,-40.629547,154.850418,358.297577,2.847989,0.164160,-0.114239
4144442281,252.889450,-7.574529,66.316170,1.625881,5.735915,-0.677765
4144462242,288.287170,24.931536,-158.664230,0.060640,2.863728,-0.447979
4144482202,133.701309,-62.176243,-283.101410,0.397992,1.402603,0.147453
4144502164,-1.841224,-106.292824,-301.880127,1.425981,2.122306,0.094508
4144522124,-38.192554,-128.614532,-386.315613,1.934098,1.762557,0.152337
4144542085,-148.215302,-212.828278,-385.559113,2.582826,0.425611,-0.226194
4144562046,-76.028824,-185.111053,-415.810730,1.913454,-0.048188,-0.254112
4144582006,15.049206,-145.034271,-437.996338,1.304975,-0.021537,0.299239
4144601967,78.718544,-133.354095,-401.814392,0.852928,-0.218922,0.150395
4144621928,148.459900,-153.358368,-342.136536,0.503299,-0.247597,-0.044228
4144641889,174.429199,-183.696121,-260.555817,0.494102,-0.070671,-0.098380
4144661848,174.151123,-187.262619,-144.228531,0.605534,-0.070859,0.154542
4144681809,126.356354,-157.253845,-31.736141,0.648962,-0.145584,0.490031
4144701770,31.908760,-92.357094,35.446045,0.392572,0.217563,0.656678
4144721731,-28.968651,-13.287316,75.396118,0.269215,0.391329,0.604035
4144741692,-95.393974,52.884377,129.091553,0.612346,0.251112,0.700864
4144761652,-147.936829,121.037430,195.458679,0.761792,0.023489,0.688119
4144781613,-87.607430,113.408882,207.630341,0.651064,0.595111,0.537309
4144801574,129.820831,56.699448,28.450748,1.740596,3.402081,-0.368709
4144841496,16.403576,106.275864,63.649319,0.668172,-0.885806,-0.468393
4144861457,134.479187,28.544369,136.596603,0.140761,-0.118563,-0.397751
4144881417,199.286438,71.760330,200.019104,0.279962,0.648248,-0.382170
4144901378,117.225838,156.108917,229.554504,0.612195,0.758944,0.169392
4144921339,-56.415245,220.804718,297.902100,1.011900,0.705971,0.199081
4144941300,-157.413376,245.762146,329.239594,1.557030,0.463531,0.205401
4144961260,-262.401489,212.305161,342.466980,1.765125,0.346545,0.303379
4144981221,-272.233917,195.791229,351.452606,1.453781,-0.252813,0.017182
4145001182,-186.451859,222.753662,364.339752,1.377601,-0.878643,-0.427361
4145021144,-91.153694,55.777782,423.547607,0.958206,-1.205796,0.308726
4145041105,356.476318,-98.079765,151.484009,4.760999,4.893850,-2.411318
4145061066,494.606903,61.495834,-96.039162,0.385112,4.720303,1.133619
4145081026,14.249119,-92.728867,-153.853714,-0.168238,1.767089,-0.081623
4145100987,-148.839294,-101.607307,-277.904633,0.719883,1.267831,-0.095129
4145120948,-308.895172,-139.126007,-303.141754,2.726035,1.416623,0.099952
4145140909,-321.409668,-188.357941,-284.143585,2.838152,0.224151,-0.277128
4145160869,-195.048767,-148.133118,-342.892487,1.845076,-0.562215,-0.083399
4145180831,-14.621496,-108.409149,-364.547058,1.067571,-0.258127,0.232285
4145200792,112.301338,-92.756912,-351.431122,0.774071,-0.037790,0.185594
4145220752,173.558624,-82.225349,-322.958679,0.699942,0.015986,0.024632
4145240713,176.357239,-94.229759,-286.570648,0.658312,0.151244,0.013549
4145260673,141.178192,-113.933258,-240.157120,0.656499,0.322658,0.054144
4145280633,88.826286,-120.737938,-179.050659,0.740714,0.441250,0.105287
4145300594,34.778378,-106.577705,-117.783783,0.787244,0.428433,0.169365
4145320555,-8.061283,-96.031616,-69.793884,0.633811,0.331765,0.163673
4145340516,-30.218979,-101.766998,-41.474140,0.438225,0.381326,0.200707
4145360477,-29.389923,-92.986931,-11.847876,0.423694,0.424574,0.195179
4145380437,-13.821529,-65.936470,23.932041,0.523869,0.369971,0.180973
4145400398,18.484343,-29.263601,57.142128,0.555021,0.317308,0.151173
4145420359,57.460152,-1.121520,71.747414,0.529719,0.350244,0.185046
4145440320,60.889435,25.048906,70.581223,0.504412,0.581359,0.269764
4145460281,59.682858,60.075241,67.724396,0.470086,0.735054,0.038689
4145480241,41.445610,72.215218,81.542198,0.281622,0.822087,0.013682
4145500202,16.555208,51.470181,76.648903,0.509864,1.423593,-0.116193
4145520163,42.723263,104.950806,-1.006991,1.432060,1.734816,0.125189
4145540123,-120.316483,134.239792,133.858658,0.858384,-0.236822,0.086316
4145560084,-117.926239,90.209732,278.078064,0.561660,-0.034356,-0.775692
4145580045,-6.589608,131.857986,346.771912,0.601728,0.179844,-0.645151
4145600006,-86.246140,182.712357,401.622864,0.761308,0.324537,-0.047957
4145619968,-184.685150,205.397690,460.453491,1.155159,0.203452,0.038015
4145639929,-215.683273,218.238022,533.471008,1.934452,0.102665,0.847289
4145659890,-275.098328,152.601746,560.861511,3.489588,-0.718633,1.028043
4145679851,-106.373955,126.034683,333.063171,1.762086,0.408554,-0.363900
4145699811,231.007996,2.615615,31.507080,0.849436,3.764083,-0.680741
4145719772,290.596466,54.678310,-77.805527,0.482315,2.408718,-0.289370
4145739733,220.832474,32.635792,-103.237923,0.401380,0.761655,0.143353
4145759694,158.728912,1.455932,-114.697189,1.496471,0.263535,0.541217
4145779654,-2.393476,-60.938095,-115.098450,2.430024,0.250981,0.947196
4145799615,-204.743088,-75.582016,-105.985268,1.599195,0.390801,0.552126
4145819576,-265.707733,-78.323860,-121.581543,0.748467,0.179681,0.182290
4145839537,-232.137161,-75.519844,-137.336670,0.486072,-0.133231,0.118678
4145859496,-169.484879,-60.255836,-131.923325,0.351836,-0.506080,-0.018185
4145879457,-68.987839,-61.795887,-99.166962,0.318530,-0.654944,-0.020911
4145899418,30.256935,-45.688515,-66.403152,0.480482,-0.486733,0.283633
4145919379,76.902084,-7.801027,-52.993809,0.702023,-0.110586,0.527766
4145939340,82.656807,6.025184,-36.139370,0.923114,0.323991,0.514959
4145959300,47.522335,2.740274,10.135910,1.392427,0.424538,0.524651
4145979261,8.404572,11.546258,49.655739,1.281250,0.169898,0.468959
4145999222,3.344227,11.629494,41.449917,0.929557,0.150405,0.310300
4146019183,18.219604,3.385202,30.817919,0.768875,0.247129,0.159341
4146039144,15.477374,-9.008780,38.781082,0.894013,0.232098,0.090216
4146059104,24.139181,-13.058724,57.956257,1.099767,0.175277,0.154657
4146079065,45.072670,-14.395945,61.556507,1.102085,0.274395,0.333014
4146099026,39.686668,-14.410537,49.585403,0.975540,0.406899,0.415578
4146118987,25.066278,-3.036625,43.782501,0.868927,0.262579,0.360803
4146138948,-0.430221,3.433866,44.235008,0.792115,0.230847,0.274681
4146158908,-11.654435,7.418348,41.300396,0.792701,0.390280,0.181200
4146178869,-10.337346,20.809172,31.380558,0.793828,0.378485,0.183508
4146198830,-8.985342,36.907570,32.916794,0.967501,0.007694,0.150697
4146218792,-19.314632,32.039207,61.145317,0.964948,-0.218886,0.095353
4146238753,-19.713833,9.491508,98.585892,0.955613,-0.087792,0.264049
4146258714,17.805218,12.228961,101.286186,1.106228,0.007003,0.388465
4146278675,27.772608,55.129448,76.209961,1.073920,-0.094465,0.357845
4146298636,-28.940208,61.897171,72.794518,0.774381,-0.079061,0.378598
4146318596,-62.809227,28.556595,101.746742,0.644639,-0.189915,0.538759
4146338557,-56.297478,25.453438,104.338120,0.537341,-0.556187,0.553900
4146358518,-20.284622,23.737875,61.215225,0.384802,-0.717340,0.365881
4146378478,37.374363,7.663676,10.641454,0.599730,-0.390908,0.089105
4146398439,170.406998,2.666034,-12.992654,1.125692,-0.093769,-0.392022
4146418400,252.623444,11.041347,-2.320802,1.482604,0.129484,-0.350614
4146438361,211.031158,12.768954,7.837998,1.512108,0.756818,0.026847
4146458321,105.504707,9.622540,7.615405,1.307501,1.152672,0.415734
4146478281,-42.389915,-7.150584,8.806226,1.068927,0.974393,0.413186
4146498242,-95.415550,-26.157883,-8.560972,1.097181,0.431771,0.032574
4146518203,-42.116421,-31.387058,-24.428625,1.480429,0.160297,-0.115763
4146538164,37.939461,-25.389580,-46.038124,1.622437,0.100422,-0.336828
4146558124,79.654755,-0.918381,-44.783257,1.285340,0.136562,0.112527
4146578085,47.263523,2.026783,-27.226547,0.955180,0.342028,0.322474
4146598046,9.584789,-9.061158,-19.031675,0.821521,0.431551,0.245342
4146618007,-22.926115,-15.841295,-27.317955,0.753195,0.314152,0.137740
4146637967,-25.998562,-18.092356,-39.703072,0.780715,0.119314,0.011582
4146657928,-5.073506,-5.856069,-40.509811,0.746115,-0.093614,0.034286
4146677889,8.801932,7.779954,-25.905083,0.613560,-0.086276,0.330782
4146697850,6.146801,10.626602,-10.094189,0.652924,0.137987,0.334478
4146717811,10.475660,6.164572,-2.233354,0.764838,0.338146,0.195567
4146737772,13.447384,4.860551,0.692749,0.916162,0.275864,0.146182
4146757732,43.569904,-4.344481,-2.138641,1.208871,0.092748,0.064581
4146777693,72.872101,-12.701866,-4.533823,1.167900,0.170301,0.080043
4146797654,53.660896,-8.133392,-5.826033,1.076055,0.544950,0.204808
4146817616,9.559146,-5.518040,3.124022,1.170997,0.766272,0.183436
4146837577,-16.272150,-16.275698,1.559623,1.232454,0.582073,0.168731
4146857537,-33.861603,-32.475403,-26.851099,1.168795,0.435151,0.015984
4146877499,-20.451696,-36.416023,-47.679363,1.048715,0.313244,0.011226
4146897459,4.188205,-32.378216,-42.799881,0.955816,0.286570,0.029719
4146917420,13.801304,-24.621452,-31.494249,0.894337,0.411758,0.105583
4146937381,-0.608858,-23.575380,-25.851374,0.882860,0.431205,0.078373
4146957341,-27.356331,-19.266632,-13.287066,0.911710,0.297574,0.092200
4146977303,-34.106945,-3.930898,0.708116,0.854902,0.107620,0.159743
4146997264,-29.096684,5.355570,16.580254,0.775694,-0.023987,0.210621
4147017224,-20.488367,10.033544,26.892952,0.752906,0.112823,0.200951
4147037185,4.099078,7.600389,20.807648,0.915667,0.322537,0.005446
4147057146,22.182426,5.683389,11.482170,1.071694,0.414133,0.032942
4147077105,19.268421,4.772450,3.930028,1.131749,0.392346,0.040137
4147097066,1.605679,5.889772,2.056120,1.103393,0.409067,0.144247
4147117027,-28.699137,4.872672,4.044581,1.119237,0.377734,0.219630
4147136988,-54.011795,3.595520,5.662868,1.155201,0.216882,0.266725
4147156948,-53.262779,1.214622,2.807694,1.146188,0.043532,0.235342
4147176909,-20.609188,-0.883133,-1.429995,1.071921,-0.021695,0.185420
4147196870,20.759192,0.906995,-6.069702,0.981461,0.085379,0.170624
4147216831,41.216423,3.095685,-8.358087,0.930654,0.262953,0.187364
4147236792,36.862289,5.442565,-9.218408,0.895460,0.391708,0.196265
4147256752,16.042795,5.570643,-8.854803,0.874200,0.427869,0.186177
4147276713,-9.300245,4.228380,-5.635153,0.871905,0.373379,0.200504
4147296674,-27.076721,4.644116,-4.882452,0.866481,0.300622,0.206605
4147316635,-34.933651,4.302989,-9.233871,0.869715,0.255847,0.211587
4147336596,-32.263401,3.023215,-13.602225,0.912030,0.202162,0.194392
4147356556,-23.084290,0.485290,-13.097553,0.967963,0.141557,0.192222
4147376517,-13.002023,-3.045774,-9.628545,1.014785,0.117401,0.227078
4147396478,-8.754660,-5.460773,-8.776064,1.022968,0.143859,0.264404
4147416440,-11.373127,-7.740950,-12.272439,1.029509,0.215876,0.332824
4147436401,-16.573483,-8.896898,-24.256397,1.088422,0.266992,0.389070
4147456362,-26.004818,-9.799555,-49.300919,1.154760,0.236308,0.494964
4147476323,-4.325954,-9.081868,-88.900192,1.258191,0.251099,0.373503
4147496284,46.602982,7.352258,-121.345375,1.093585,0.404032,0.396300
4147516244,73.115883,-1.715456,-133.432800,0.837434,0.432497,0.383668
4147536205,87.560539,-18.845631,-142.633743,0.737950,0.405431,0.239957
4147556169,98.123238,-32.441246,-155.063080,0.781828,0.364924,0.136522
4147576127,99.778564,-43.865391,-164.504547,0.874988,0.374079,0.119869
4147616048,47.537830,-66.227119,-173.432297,0.859939,0.398075,0.183763
4147636009,4.217114,-74.315620,-165.093597,0.805946,0.393141,0.131312
4147655974,-21.347586,-78.933655,-146.205246,0.776299,0.342984,0.068120
4147675929,-27.213461,-74.482880,-120.670135,0.772866,0.281776,0.075980
4147695890,-18.382496,-63.398392,-93.381172,0.733878,0.240059,0.086147
4147715851,1.740750,-54.342941,-66.332664,0.673041,0.229196,0.058528
4147735812,27.650858,-54.528934,-38.386040,0.647752,0.301376,0.009803
4147755773,48.356483,-63.011993,-11.187974,0.671912,0.463405,-0.032384
4147775734,49.809792,-63.249470,5.308973,0.780884,0.738695,0.041506
4147795694,28.814968,-43.253696,3.433787,0.870225,0.984498,0.167516
4147815655,-13.918499,-21.557255,-15.387038,0.773600,1.128560,0.253535
4147835616,-55.272148,-12.265359,-32.484741,0.683407,1.015133,0.116053
4147855576,-50.708549,-6.566822,-35.346970,0.698295,0.717381,-0.020033
4147875537,-15.381745,-11.134226,-30.631813,0.692523,0.531679,-0.110618
4147895498,25.744074,-9.984557,-32.706139,0.651123,0.542380,-0.079499
4147915459,40.014450,-13.746267,-35.142689,0.608889,0.625971,-0.055963
4147935420,31.747351,-19.827532,-28.072409,0.670146,0.652200,-0.077670
4147955380,10.712628,-26.705297,-25.133825,0.654857,0.734627,-0.065004
4147975341,-12.016112,-26.685667,-25.004051,0.521632,0.711049,-0.105763
4147995302,-21.464043,-31.626480,-19.942984,0.458345,0.694085,-0.148261
4148015264,-26.732138,-36.504726,-18.708437,0.519174,0.774115,-0.152463
4148035225,-29.892155,-37.101429,-10.392406,0.676279,0.820005,-0.073204
4148055186,-36.691978,-32.690834,1.311761,0.721682,0.835399,-0.007696
4148075147,-45.512531,-29.997858,-0.929931,0.765749,0.836701,0.031792
4148095108,-52.881977,-23.423023,0.781454,0.833841,0.726876,0.097582
4148115068,-49.178947,-17.326942,5.118134,0.812412,0.659626,0.083538
4148135029,-35.507122,-8.892918,7.996739,0.736557,0.590362,0.104681
4148154990,-20.088148,-4.947197,9.180208,0.692066,0.658930,0.075059
4148174951,-2.465282,-3.913406,6.694447,0.740918,0.823141,0.044216
4148194912,3.997358,1.059238,8.901711,0.770416,0.863818,0.061939
4148214873,2.471126,4.289638,9.415510,0.754801,0.838334,0.061160
4148234833,-3.449358,7.767744,12.661785,0.768019,0.703007,0.072179
4148254793,-8.915028,11.001366,16.069304,0.750868,0.618222,0.086730
4148274753,-14.786286,13.748899,7.856819,0.724677,0.570716,0.101689
4148294714,-8.076146,5.135746,-6.285153,0.707924,0.593407,-0.005897
4148314675,4.170293,-8.456922,-10.831142,0.779679,0.643505,-0.010319
4148334636,4.797833,-14.037430,-1.569236,0.849643,0.607298,0.049837
4148354597,1.632243,-13.901918,0.271917,0.831344,0.680872,0.101476
4148374557,-1.772697,-8.893209,-2.797764,0.825347,0.757082,0.143190
4148394518,-7.270863,-3.746283,2.769770,0.774638,0.747790,0.093421
4148414479,-11.057450,6.350028,17.867865,0.707245,0.646449,0.102587
4148434440,-9.484965,12.281086,23.730812,0.667861,0.632486,0.064667
4148454401,0.518963,8.240820,27.238270,0.693702,0.582286,-0.005702
4148474361,6.680681,1.743388,31.814402,0.653285,0.603372,0.021440
4148494323,-8.436997,2.528399,38.866955,0.672720,0.652031,0.111788
4148514283,-14.863785,11.188932,54.322765,0.708176,0.582064,0.163669
4148534244,-14.277961,18.765949,67.784576,0.827488,0.540492,0.134120
4148554205,-10.096641,30.735826,74.261864,0.880627,0.464852,0.258265
4148574166,-2.572452,33.950195,77.385994,0.937611,0.418707,0.288477
4148594128,11.605106,36.920116,82.961090,1.003147,0.373419,0.265106
4148614089,22.029388,46.775833,91.784531,0.999852,0.354978,0.244950
4148634049,15.527671,58.619022,101.474968,0.861656,0.318326,0.232817
4148654010,2.269285,59.021008,117.618767,0.827424,0.237522,0.252635
4148673971,-1.381673,52.767788,133.447540,0.893087,0.211161,0.243162
4148693932,10.043415,54.204945,143.895828,1.031951,0.255134,0.246628
4148713892,14.544942,67.925812,151.798370,1.126334,0.323254,0.353330
4148733853,3.330802,77.662918,161.810318,1.257413,0.271163,0.327630
4148753814,-4.539039,98.822357,184.498154,1.326574,0.104686,0.374151
4148773775,-14.415605,118.588799,222.193314,1.335493,-0.082945,0.373472
4148793736,12.082434,133.608551,271.619965,1.405991,-0.365701,0.351350
4148813697,51.748760,169.209610,301.653198,1.432156,-0.540970,0.169936
4148833656,11.145074,157.820984,276.847717,1.033478,-0.543892,0.396792
4148853617,31.161453,31.645729,138.147903,1.615453,1.274967,-0.801670
4148893538,150.560303,-37.177399,-161.644897,0.340517,1.919132,0.332720
4148913499,-41.439877,-115.639153,-236.470047,0.803404,1.165580,0.114424
4148933459,-60.745354,-121.028259,-284.422546,1.592488,1.423055,-0.057809
4148953420,-96.105400,-147.114441,-325.908264,2.168772,1.240384,0.123215
4148973381,-153.524170,-133.033783,-343.218018,2.529871,0.564291,0.175789
4148993342,-115.568390,-89.713455,-353.387848,1.791282,0.058169,0.113893
4149013303,-37.477657,-74.006935,-334.149384,1.179813,-0.119128,0.001407
4149033264,19.099169,-76.344872,-310.287537,0.741679,-0.198549,0.028730
4149053225,51.004902,-87.870392,-295.737396,0.548492,-0.240906,-0.014642
4149073185,71.618683,-94.654778,-278.598114,0.419569,-0.247192,-0.019817
4149093146,80.507256,-103.034775,-237.899765,0.415368,-0.135167,0.010689
4149113107,92.254745,-118.353584,-152.829056,0.650367,0.008195,0.022394
4149133068,97.511200,-115.305679,-36.212536,0.928264,0.032966,0.278598
4149153028,25.319214,-69.745758,52.314865,0.875996,0.027296,0.618941
4149172989,-50.067913,-33.112450,72.593475,0.519889,0.210000,0.783072
4149192951,-59.586845,-0.132888,78.652565,0.599815,0.393329,0.570727
4149212912,-57.249165,32.124771,103.733025,0.659696,0.520562,0.524119
4149232873,15.726149,31.513420,82.147957,1.012211,1.415326,0.221616
4149252834,152.701111,56.562141,-48.483185,1.579924,2.206540,0.226444
4149272795,98.056671,61.833015,-17.873816,0.790571,0.341758,0.510962
4149292756,64.279755,28.319016,45.830883,0.465523,-0.190283,-0.509820
4149312717,176.080139,20.549669,47.107506,0.225351,0.522743,-0.393955
4149332677,149.534409,2.329316,47.054596,0.352196,0.924922,-0.108822
4149352638,83.552055,17.975262,56.952621,0.691898,0.992602,-0.045148
4149372599,1.494413,62.124695,71.672859,0.717631,0.791102,0.024827
4149392560,-61.821907,88.582718,92.264603,0.690988,0.685123,-0.080377
4149412521,-83.352928,104.080795,110.544250,0.713069,0.511826,-0.092341
4149452441,-59.046051,123.843658,189.206177,0.814851,0.213836,0.016032
4149472402,-46.322010,131.050827,227.002365,1.055687,0.100910,0.091597
4149492362,-51.109039,150.493256,262.938873,1.330312,0.054945,0.269767
4149512323,-61.244350,164.450043,300.467285,1.699636,0.062787,0.576825
4149532284,-111.147087,187.649704,336.780365,2.173096,-0.033562,0.713754
4149552245,-159.942261,216.216003,343.543488,2.121233,-0.407940,0.742246
4149572206,-111.714920,93.718872,255.643829,0.584421,-0.380671,-0.384774
4149592166,135.191605,-67.958115,79.465897,1.028540,5.588318,-0.676195
4149612127,266.830078,3.655052,-172.736160,0.657642,2.459276,0.053953
4149632088,56.210079,-102.198700,-250.192688,0.857717,1.038181,-0.155314
4149652048,16.597456,-112.987854,-251.491409,1.357448,1.956023,-0.142516
4149672009,-10.659306,-124.595505,-303.361847,1.741889,2.056038,0.505156
4149691970,-166.440002,-152.584518,-351.595001,2.495021,1.092594,0.168772
4149711931,-176.928589,-152.144760,-383.885315,2.128339,0.253405,-0.302099
4149731891,-73.867203,-123.888710,-384.687439,1.462941,-0.190386,-0.071183
4149751852,14.357925,-109.673637,-364.919891,0.754436,-0.394126,-0.015367
4149771813,84.998611,-115.202438,-336.066101,0.254869,-0.361866,-0.102551
4149791775,116.686142,-139.151978,-283.034973,0.150252,-0.239563,-0.024518
4149811736,124.992317,-160.067093,-184.139420,0.468628,-0.133576,0.176097
4149831697,112.374252,-141.378876,-63.393200,0.715986,-0.062111,0.296569
4149851658,71.381874,-85.519592,30.435833,0.664497,0.060756,0.569165
4149871619,1.084649,-14.340686,83.344460,0.683478,0.084733,0.662094
4149891579,-58.169113,58.663227,112.228424,0.649500,0.122801,0.798533
4149911540,-74.332695,66.371719,122.879730,0.431706,0.351729,0.372906
4149931501,-17.589108,58.942608,133.984329,0.734850,0.704077,0.352296
4149951462,79.268425,36.770454,112.092995,1.745293,2.194435,-0.074472
4149971423,164.674606,89.618919,18.468349,1.227607,1.022880,0.546886
4149991384,27.515640,92.840370,41.006187,0.683048,-0.428386,0.003190
4150011347,54.297119,32.670433,94.720322,0.317722,0.189214,-0.385341
4150031304,143.942230,40.898994,134.833496,0.392785,0.863891,-0.337738
4150051264,103.250961,92.324905,150.256348,0.769596,0.823204,0.050205
4150071225,-16.893805,130.236267,190.314941,0.895790,0.614719,0.055388
4150091186,-67.989365,145.623901,212.580170,0.999141,0.421693,-0.029888
4150111147,-123.334808,157.348816,225.775055,1.109189,0.381561,-0.011003
4150131108,-142.331879,168.200623,248.229004,1.161869,0.206791,0.178046
4150151068,-134.286438,196.738602,278.130402,1.287312,-0.138633,0.173620
4150171029,-122.749702,226.171692,327.478485,1.503466,-0.483355,-0.011004
4150190990,-166.477249,166.812119,411.095947,1.394845,-0.809872,0.640348
4150210951,-45.224892,-86.637985,346.394012,2.596705,0.552653,-1.046939
4150230911,394.696777,-40.951439,-51.446293,1.739006,6.339407,-0.473128
4150270833,95.428154,-128.138443,-251.860947,1.031880,1.708922,-0.045546
4150290794,-57.430809,-65.007965,-315.604340,2.457262,2.925038,0.861915
4150310754,-345.101105,-145.848022,-393.884064,2.604477,1.731283,-0.020075
4150330715,-348.805634,-165.345551,-391.476562,2.767787,0.116146,-0.639258
4150350676,-154.669250,-88.187225,-427.645111,1.797029,-0.400368,-0.120716
4150370637,12.766224,-61.978142,-443.971863,0.932081,-0.547233,-0.071978
4150390599,125.697105,-68.208199,-420.563080,0.480923,-0.559529,-0.269005
4150410560,185.249847,-116.892090,-351.381653,0.197969,-0.460843,-0.278816
4150430521,191.695892,-187.079880,-240.579071,0.357880,-0.233293,0.066516
4150450482,162.931305,-202.739197,-102.030159,0.673110,-0.162669,0.414080
4150470442,77.223267,-146.761749,9.690962,0.577447,-0.214848,0.769505
4150490403,-45.191078,-58.270325,83.667007,0.461854,-0.158574,1.042745
4150510364,-102.636009,20.401226,131.438507,0.349245,0.018795,0.790086
4150530325,-116.280365,72.969444,160.283646,0.632373,-0.037732,0.649322
4150550286,-97.086205,118.981323,195.440063,0.825525,0.120206,0.502848
4150570247,30.967854,63.956852,189.448914,1.217715,1.403957,0.304613
4150590207,251.250702,95.801445,42.287563,2.025310,1.859498,0.792496
4150610172,75.712021,110.166367,88.064896,1.165126,-0.757864,0.104848
4150630128,127.009789,59.372791,135.129395,0.598070,0.196033,-0.329681
4150650088,206.193390,73.683670,165.431335,0.464392,0.666651,-0.373079
4150670049,135.350815,135.429688,185.991013,0.640455,0.759362,-0.055839
4150690010,25.974873,174.025238,227.890427,0.978828,0.764760,-0.012750
4150709971,-100.957321,211.595261,257.658630,1.254525,0.719876,0.047223
4150729931,-184.363922,227.420303,290.995605,1.326797,0.341753,0.100182
4150749892,-209.644150,241.822983,329.558594,1.501114,-0.194505,0.121998
4150769853,-195.576050,231.709747,397.598541,1.782032,-0.741614,0.123636
4150789814,-142.744324,9.305166,459.177551,1.492767,-1.307966,-0.413937
4150809775,349.453766,-120.413040,51.238037,2.851532,6.219266,-2.458669
4150829735,454.195282,-1.585291,-128.978531,0.265122,3.851856,0.745062
4150849696,65.421196,-131.393570,-220.375687,0.346009,1.254879,0.047659
4150889618,-283.703217,-135.507401,-327.964752,3.027006,1.820848,0.287622
4150909578,-424.274445,-194.419022,-330.071655,2.773817,0.541162,-0.419638
4150929539,-247.410187,-135.084869,-403.959686,1.650086,-0.377611,-0.284963
4150949500,-55.694668,-107.530273,-427.342255,1.046589,-0.553750,0.042235
4150969462,105.461388,-78.696449,-404.152832,0.767571,-0.351803,0.028801
4150989423,233.063690,-87.535629,-346.577240,0.598967,-0.303849,-0.280407
4151009384,275.930969,-131.228958,-261.513092,0.485437,-0.166836,-0.265793
4151049305,174.546326,-173.279434,-43.111614,0.635299,0.401949,0.277379
4151069266,37.602772,-101.785446,26.493093,0.629623,0.560487,0.547682
4151089227,-105.336990,-40.459080,60.354645,0.394214,0.362232,0.704513
4151109188,-177.889816,4.845389,85.881538,0.462205,0.046543,0.759649
4151129149,-208.072510,71.181015,116.169312,0.589629,-0.030735,0.780736
4151149109,-165.581940,118.053223,135.941788,0.567799,0.016113,0.587063
4151169070,-1.623192,88.723610,136.717178,1.131274,0.958725,0.193670
4151189031,168.365829,175.337769,131.556091,1.678257,-0.026288,0.487558
4151208991,120.589211,156.463882,184.734436,1.051805,-0.553754,-0.215739
4151228951,177.373184,87.331467,238.796387,0.833201,0.135627,-0.303161
4151248912,183.883209,140.214447,278.378357,0.793934,0.778584,-0.423505
4151268873,95.754654,225.247742,290.937927,0.900207,1.021526,-0.195058
4151288834,-50.234310,269.412170,302.350403,1.240526,0.710236,0.329507
4151308794,-235.484009,233.822021,337.347809,1.807137,0.458222,0.778574
4151328755,-327.571320,198.891479,401.954773,1.953817,-0.341037,0.225129
4151348716,-296.501801,161.785675,375.117401,1.396957,-1.262758,0.173828
4151368677,80.040192,-135.502151,163.050278,3.848735,4.701503,-2.024682
4151388638,488.016907,69.633659,-113.703300,0.964413,4.703382,0.124081
4151408598,200.576935,-63.372337,-182.205093,0.161847,1.236256,-0.119416
4151448520,-126.011276,-124.590965,-280.238647,2.254833,2.080652,0.226314
4151468481,-299.721649,-200.356628,-290.338013,2.754737,0.871073,-0.194550
4151488442,-272.112610,-188.467270,-335.596130,1.928255,-0.176927,-0.568900
4151508402,-122.122543,-142.781555,-371.757263,1.121825,-0.119879,0.070656
4151528363,-23.479397,-109.270050,-371.784912,0.826244,-0.157551,0.070132
4151568286,91.148849,-98.193726,-297.964783,0.684477,-0.301192,0.043112
4151588247,112.203453,-135.475281,-239.454147,0.908061,-0.051183,0.334516
4151608208,97.921844,-149.526245,-170.272507,1.144419,0.061004,0.509302
4151628169,20.441311,-87.148384,-103.425133,1.044554,0.088864,0.790125
4151648129,-46.960777,-59.802109,-78.765114,0.412930,0.083434,0.655241
4151668090,-25.771505,-33.801373,-56.800556,0.566487,0.059026,0.536799
4151688051,-1.502391,12.420360,3.660223,0.810159,-0.109587,0.454971
4151708012,39.947662,66.317619,81.060333,0.842845,-0.327673,0.464698
4151727973,80.904922,106.734856,144.362671,0.727842,-0.139732,0.492292
4151747933,120.225746,99.065979,174.869308,0.702242,0.953183,0.257011
4151767894,254.482300,72.020088,58.301907,1.290942,2.339978,-0.395892
4151787855,124.453255,147.240555,74.904274,1.258204,0.185055,-0.127894
4151807822,40.404076,127.884270,159.436768,0.473785,0.578113,-0.428734
4151827775,15.531002,172.427612,222.386353,0.129624,0.574142,-0.708075
4151847736,-48.554031,202.034653,275.901276,0.148419,0.603591,-0.508241
4151867697,-134.357468,226.108093,341.655212,0.673026,0.458228,-0.162042
4151887658,-197.740067,262.339172,403.897980,1.345384,0.020326,0.405928
4151907618,-250.734650,238.283371,518.859741,2.273370,-0.498509,0.704723
4151927579,-313.449524,180.410599,559.304382,2.920089,-1.504905,0.843800
4151947540,60.282387,-25.605272,243.814926,2.949622,1.771577,-1.410930
4151967501,364.213257,61.651093,-44.687752,1.311398,6.131054,-0.428202
4151987461,203.234634,40.525745,-76.562782,0.301169,1.903384,0.297106
4152007422,103.896881,-20.418205,-112.234940,0.627609,0.217067,-0.107110
4152027383,112.597755,-8.861399,-111.092636,1.766089,0.388261,0.508969
4152047344,-56.221317,-27.949013,-110.392509,2.845673,0.632228,0.962325
4152067304,-259.516052,-38.468369,-78.861908,1.560856,0.277911,0.407300
4152087265,-278.417450,-41.285793,-87.943970,0.690424,0.047677,0.034229
4152107226,-218.927536,-55.597153,-106.259331,0.363349,0.018180,0.004673
4152127187,-155.240402,-49.493240,-112.364792,0.185412,-0.070645,-0.072626
4152147148,-82.597946,-33.351830,-101.045547,0.070373,-0.180615,-0.078125
4152167109,-18.290739,-15.778768,-79.366089,0.131274,-0.207978,0.033443
4152187071,22.187029,0.989240,-57.194969,0.346302,-0.098724,0.191495
4152226992,58.865868,-0.424819,-29.097075,1.083147,0.265139,0.376711
4152246953,23.875677,-12.786337,-25.938374,1.245960,0.345708,0.488015
4152266914,-45.134041,-21.545601,-36.383862,1.158735,0.389474,0.609634
4152286875,-104.104912,-30.987400,-41.308010,0.974778,0.411535,0.589325
4152306835,-123.890060,-38.774010,-34.538872,0.913909,0.357612,0.457781
4152326796,-107.470375,-37.362679,-21.448114,0.946259,0.250416,0.385733
4152346757,-63.491161,-28.450283,-4.900203,0.925255,0.119814,0.316368
4152366718,-5.974765,-17.576956,9.906001,0.825739,0.052970,0.299701
4152386679,39.763363,-16.141266,21.181082,0.764448,0.088141,0.330419
4152406640,63.580170,-20.056684,29.272469,0.773737,0.177136,0.330953
4152426599,68.506248,-23.283812,35.752155,0.801715,0.246226,0.313761
4152446560,60.618038,-25.274372,46.817196,0.778494,0.232066,0.267581
4152466520,48.100651,-25.721729,61.560669,0.781736,0.253740,0.303710
4152486481,34.663788,-15.919538,70.153542,0.812224,0.334386,0.338918
4152506442,23.059446,-0.020069,69.431145,0.807967,0.360954,0.368728
4152526403,9.329064,12.675044,71.544975,0.833589,0.311903,0.383115
4152546364,3.188947,13.177025,76.919998,0.887274,0.211647,0.384375
4152566325,1.826864,14.024557,72.679337,0.961312,0.116865,0.320538
4152586285,8.002143,19.278404,63.053341,1.001478,0.055563,0.253253
4152606246,31.374256,28.028160,68.156876,0.976770,0.034904,0.221631
4152626207,47.220573,28.619715,81.110352,1.076791,0.133764,0.258635
4152646168,42.937241,45.925865,88.082947,1.223667,0.235818,0.311016
4152666129,19.034201,64.470520,93.607597,1.244060,0.111258,0.323721
4152686089,-22.321169,60.324604,106.652336,1.029365,-0.061801,0.284736
4152706050,-51.586014,40.370289,117.332054,0.736605,-0.151519,0.326276
4152726011,-62.361965,37.236092,114.872520,0.564709,-0.290754,0.442692
4152745972,-66.971252,32.265766,101.689499,0.421535,-0.526251,0.579697
4152785894,38.872723,-18.205393,-0.623155,0.591075,-0.436362,0.151249
4152805855,133.830887,-28.747444,-39.492905,1.227111,-0.069133,-0.070938
4152825816,243.810745,-19.640581,-59.467510,1.720041,0.334618,-0.439588
4152845777,294.000183,-1.681514,-53.492237,1.421232,0.419254,-0.271161
4152865738,241.720413,-2.999146,-16.687426,1.103804,0.443122,-0.019577
4152885698,151.692764,-7.139595,12.445400,0.997119,0.577703,0.063681
4152905659,53.202477,-3.800347,15.158290,1.013554,0.794950,0.105955
4152925620,-48.154808,-5.595212,-2.105955,1.030331,0.788400,0.161098
4152945581,-124.372116,-14.630257,-17.409304,1.076034,0.585085,0.108444
4152965541,-112.305504,-10.702337,-15.280621,1.184121,0.280014,-0.039473
4152985503,-14.139850,2.261416,-0.654374,1.174317,0.027865,-0.089249
4153005464,83.484497,7.848271,9.290852,1.064652,-0.043887,-0.057121
4153025423,124.484329,10.485867,9.475525,1.002073,0.059644,0.028912
4153085305,31.917059,19.350307,4.724160,0.911456,0.408012,0.321866
4153105266,-11.495124,13.694236,8.588771,0.927271,0.350903,0.319085
4153125227,-31.135046,10.453544,10.919374,0.997958,0.238693,0.260752
4153145188,-16.022137,7.432451,11.269821,1.061232,0.119764,0.135464
4153165148,33.380276,8.671679,6.384267,1.031649,0.056284,0.050090
4153185109,88.531143,12.789378,4.943823,0.962928,0.073089,0.062851
4153205070,120.251671,14.478116,10.146208,0.976605,0.160856,0.094446
4153225031,120.740524,14.855792,13.410707,1.014836,0.300681,0.135292
4153244992,96.144844,11.373785,12.681940,1.083167,0.423309,0.152749
4153264952,57.951252,4.492752,5.697591,1.015486,0.484232,0.149690
4153284913,20.680977,2.791671,4.430968,0.928421,0.436468,0.128751
4153304874,6.375908,7.594048,13.741851,0.886376,0.338890,0.127210
4153324835,9.065285,5.840080,23.126284,0.933345,0.260233,0.133731
4153344796,14.003285,4.773023,22.233465,0.960687,0.222971,0.122550
4153364756,16.904234,5.540853,19.160604,0.934261,0.210535,0.154778
4153384719,18.413015,5.751757,20.538960,0.982845,0.221615,0.163683
4153404679,24.192675,8.710207,22.215717,1.029556,0.250988,0.147758
4153424640,27.126810,9.761981,20.463099,0.932157,0.268865,0.182468
4153444601,19.298622,4.148545,15.117851,0.833454,0.249046,0.230611
4153464562,6.727904,-2.752433,12.422741,0.927286,0.187184,0.237717
4153484523,1.543801,-1.918751,10.340043,1.015840,0.125820,0.206744
4153504483,9.538296,-0.994221,10.069093,1.045924,0.098957,0.162569
4153524444,23.226694,-2.820668,8.500514,0.991726,0.119867,0.136828
4153544405,31.946209,-3.435006,8.052114,0.948158,0.163980,0.163718
