Timestamp (us),Gyroscope X (deg/s),Gyroscope Y (deg/s),Gyroscope Z (deg/s),Accelerometer X (g),Accelerometer Y (g),Accelerometer Z (g)
4731703395,-0.328954,0.583176,-0.599004,0.870260,0.064644,0.480197
4731723441,-0.306066,0.499576,-0.538154,0.872603,0.062976,0.481411
4731743485,0.294272,0.354642,-0.542620,0.876200,0.058889,0.478375
4731763529,0.430776,0.438073,-0.673256,0.878648,0.058128,0.479037
4731783574,0.438937,0.856080,-0.727042,0.874590,0.061197,0.479073
4731803620,0.393551,0.726962,-0.604679,0.872540,0.064419,0.479031
4731823665,0.637272,0.521629,-0.393041,0.872195,0.065508,0.477654
4731843710,0.569768,0.643381,-0.209800,0.872605,0.062406,0.478229
4731863754,0.995997,0.719059,-0.121720,0.873155,0.062860,0.479049
4731883799,0.988239,0.506274,-0.060513,0.872976,0.063139,0.479500
4731903844,1.230877,0.232422,-0.100206,0.876497,0.060524,0.478182
4731923888,1.141170,0.893797,-0.016342,0.878364,0.064631,0.482623
4731943933,0.625191,0.993150,0.200833,0.869241,0.062061,0.473928
4731963976,0.836246,-0.131908,0.261224,0.875204,0.065553,0.477494
4731984021,0.708013,0.582634,0.185349,0.881983,0.067252,0.474434
4732004066,0.830327,1.494494,-0.075473,0.878718,0.064086,0.483631
4732024110,0.953015,1.638894,0.129144,0.877255,0.063743,0.483624
4732044155,0.990210,1.205619,0.121650,0.872182,0.066293,0.485295
4732064200,0.746272,0.749809,0.169661,0.866332,0.065763,0.488170
4732084244,0.851025,0.080802,0.047598,0.864660,0.062941,0.485268
4732104288,0.956355,-0.223382,-0.097670,0.869259,0.066258,0.487004
4732124333,0.644619,-0.352299,-0.041830,0.870935,0.061181,0.481869
4732144378,1.108869,-0.208261,0.015421,0.869038,0.061453,0.477665
4732164422,1.214960,-0.413568,0.022420,0.867679,0.068495,0.477961
4732184467,0.910303,-0.702134,0.017410,0.872107,0.065689,0.477379
4732204513,1.282785,-0.710061,0.006944,0.871443,0.064160,0.478752
4732224558,1.373221,-0.763427,-0.176538,0.874709,0.068831,0.475915
4732244603,0.505838,-0.967931,-0.253496,0.877447,0.069345,0.477024
4732264647,0.613215,-0.610757,-0.178474,0.880312,0.065935,0.477892
4732284692,0.765755,-0.230879,-0.233331,0.877825,0.064434,0.479434
4732304737,0.476974,-0.549775,-0.047976,0.877942,0.066162,0.479148
4732324781,0.242315,-0.260687,0.083061,0.876292,0.065268,0.478141
4732344825,0.850424,-0.344815,0.093715,0.871876,0.068892,0.478534
4732364870,0.340870,-0.557169,0.151150,0.872442,0.070062,0.477618
4732384914,0.119802,-0.739425,0.084453,0.877715,0.069071,0.477483
4732404958,0.227252,-0.389841,0.182336,0.874656,0.064904,0.474946
4732425003,0.341928,-0.215087,0.265093,0.871847,0.066887,0.478551
4732445048,0.364308,-0.465926,0.272777,0.872782,0.067948,0.475909
4732465093,0.462954,-0.488831,0.233951,0.874166,0.069019,0.475637
4732485137,0.486176,-0.405212,0.302258,0.876407,0.067187,0.479037
4732505182,0.538288,-0.549770,0.081065,0.874420,0.067835,0.476286
4732525226,0.142210,-0.815482,0.015788,0.874986,0.069477,0.477551
4732545271,-0.071042,-0.944526,-0.020546,0.877747,0.064405,0.475337
4732565316,0.324920,-0.678828,0.014258,0.877759,0.064752,0.472967
4732585362,0.378478,-0.428065,-0.016863,0.875224,0.066354,0.474938
4732605407,0.043504,-0.936966,0.108079,0.874817,0.069825,0.474997
4732625451,-0.024916,-0.967303,0.123869,0.878827,0.069200,0.472483
4732645496,-0.024631,-0.906477,0.169519,0.875423,0.066781,0.471385
4732665541,0.127413,-0.990199,0.206524,0.876309,0.064472,0.469135
4732685585,0.409291,-0.542030,0.142993,0.879435,0.067471,0.474140
4732705630,-0.015989,-0.351630,0.176547,0.879701,0.067012,0.474328
4732725674,-0.319672,0.005838,0.117591,0.881267,0.062547,0.477836
4732745718,-0.022325,0.104468,0.290439,0.878633,0.062849,0.476357
4732765762,0.350614,0.172586,0.363698,0.878019,0.064309,0.475248
4732785807,0.380407,-0.070683,0.317990,0.876018,0.064048,0.472778
4732805852,0.691521,-0.124216,0.186144,0.879166,0.068593,0.477498
4732825896,-0.098031,0.104572,0.374820,0.875085,0.061946,0.470148
4732845941,0.381012,-0.169400,0.523772,0.876488,0.063724,0.466866
4732865986,0.379950,-0.481086,0.394564,0.885129,0.069448,0.469522
4732886031,0.464325,0.582797,0.080561,0.885275,0.068022,0.474269
4732906075,0.640605,0.932369,0.284573,0.880855,0.064994,0.474990
4732966211,0.244983,0.438739,0.448057,0.869735,0.066015,0.479635
4732986255,0.548537,-0.260702,0.636849,0.870906,0.064240,0.476108
4733006300,0.510107,-0.298713,0.545760,0.877629,0.061832,0.472262
4733026344,1.050816,0.035286,0.625099,0.875406,0.059028,0.470812
4733046389,1.332128,-0.002951,0.645834,0.872704,0.061821,0.473227
4733066434,0.989245,-0.504282,0.687028,0.873756,0.065173,0.472479
4733086479,0.913909,-0.412946,0.824649,0.874186,0.063345,0.472679
4733106523,1.148098,-0.816076,0.625158,0.874607,0.060875,0.472430
4733126566,1.094237,-0.930091,0.511405,0.880596,0.064964,0.470345
4733146611,1.223089,-0.778268,0.335053,0.880811,0.067240,0.470328
4733166656,1.276971,-0.413481,0.334295,0.883150,0.065297,0.471181
4733186701,1.155767,-0.253744,0.373164,0.881884,0.066047,0.471530
4733206745,0.966002,-0.344733,0.496598,0.879639,0.068736,0.473039
4733226790,0.251027,-0.321356,0.403020,0.878804,0.066993,0.469860
4733246835,0.516147,-0.374894,0.172489,0.879217,0.064353,0.471251
4733266879,0.250950,0.050989,0.204593,0.878041,0.065011,0.471510
4733286924,0.258445,0.119361,0.143524,0.879351,0.067078,0.470137
4733306969,0.053826,0.317191,0.221089,0.875879,0.066962,0.472115
4733327013,0.266242,-0.108594,0.303664,0.878849,0.063519,0.468615
4733347058,0.418696,0.096496,0.309920,0.877182,0.068105,0.468929
4733367104,0.144455,0.066272,0.182540,0.874842,0.065271,0.475582
4733387149,0.006938,-0.222452,0.145776,0.876956,0.066326,0.474587
4733407193,0.113858,-0.116101,0.221038,0.881404,0.064509,0.472085
4733427238,0.783332,0.035353,0.261472,0.879858,0.063960,0.468619
4733447283,0.752883,-0.017818,0.276992,0.873790,0.067731,0.473277
4733467327,0.296723,-0.579754,0.547661,0.873875,0.067558,0.474645
4733487372,0.258398,-0.974908,0.654985,0.879044,0.064995,0.471426
4733507415,1.080173,-0.367614,0.541454,0.883670,0.062808,0.468565
4733527460,1.612632,-0.102075,0.483792,0.884126,0.062612,0.467568
4733547504,1.786616,-0.231513,0.314978,0.879062,0.065706,0.468962
4733567549,1.808770,-0.558369,0.299881,0.882614,0.064338,0.463628
4733587594,2.670325,-0.224466,0.780531,0.887087,0.061710,0.450026
4733607639,5.928080,0.221511,1.555052,0.884255,0.055200,0.451516
4733627684,9.872060,0.157093,1.098250,0.870887,0.088113,0.474454
4733647728,4.205784,-4.125042,0.574370,0.882825,0.093656,0.471400
4733667773,4.474374,-4.900982,-0.394479,0.918282,0.056109,0.446112
4733687817,10.132977,3.233872,-1.733048,0.894864,0.069031,0.444742
4733707862,8.330504,4.572789,-2.535652,0.824093,0.092290,0.475989
4733727906,5.913911,-1.749208,-3.212029,0.794725,0.114195,0.494167
4733747953,4.976594,-8.293242,-4.638514,0.825316,0.119168,0.526397
4733767997,3.444357,-7.464105,-6.105499,0.849347,0.115948,0.521774
4733788042,1.202451,-7.409768,-7.886279,0.856767,0.167927,0.513842
4733808086,-7.854335,-8.946577,-11.632153,0.858133,0.215850,0.499982
4733828131,-18.288475,-10.923092,-15.496561,0.871981,0.196765,0.474111
4733848175,-22.934286,-10.175334,-17.983305,0.886959,0.185301,0.470491
4733868220,-28.002050,-9.039209,-19.659641,0.877556,0.203305,0.469819
4733888270,-36.243835,-10.234589,-23.175920,0.856554,0.226796,0.472567
4733908308,-43.782127,-12.175704,-27.268257,0.853673,0.217834,0.450223
4733928353,-47.459900,-12.531250,-30.568920,0.860928,0.205869,0.437082
4733948397,-51.699318,-14.474401,-32.858158,0.869933,0.216932,0.434871
4733968442,-58.414078,-16.969770,-34.053711,0.889860,0.239755,0.405057
4733988487,-61.899658,-18.671162,-38.146881,0.926125,0.207452,0.350416
4734008531,-54.985512,-17.212833,-43.983559,0.907303,0.136008,0.303252
4734028576,-57.310833,-18.062687,-45.275272,0.927010,0.198009,0.344946
4734048621,-81.108505,-25.555021,-35.966629,1.104328,0.379210,0.341468
4734068666,-108.519241,-1.917815,-40.022205,1.039021,0.451490,0.392836
4734088711,-121.185799,21.311291,-61.202099,0.783785,0.393800,0.458639
4734108755,-126.462120,-6.802950,-69.675171,0.749853,0.379456,0.459693
4734128801,-138.542969,-23.071495,-65.887527,0.949526,0.332531,0.373317
4734148846,-140.576035,-2.014430,-62.821674,0.958719,0.198979,0.380586
4734168890,-145.334167,7.543630,-63.098953,0.841139,0.200855,0.446448
4734188935,-156.387863,1.951862,-62.216621,0.785864,0.253491,0.437415
4734208981,-158.401459,-6.893365,-61.674778,0.793041,0.223670,0.425787
4734229024,-146.969421,-18.906944,-66.565834,0.799987,0.044023,0.445894
4734249069,-117.774666,-23.440180,-68.354759,0.884994,0.024787,0.370378
4734269124,-99.854645,-17.380375,-63.203163,0.900263,0.037037,0.381496
4734289157,-88.365654,-25.109894,-57.196926,0.978808,0.111926,0.323365
4734309201,-95.448837,-21.400032,-52.308510,0.947222,0.210651,0.294733
4734329246,-107.317780,-32.874771,-53.059914,0.940363,0.150602,0.347256
4734349291,-102.190155,-40.271381,-62.599857,1.042977,0.120767,0.304824
4734369335,-101.697182,-33.442204,-70.175072,1.040975,0.113186,0.298772
4734389380,-98.007675,-30.414907,-75.043831,1.064168,0.012136,0.291217
4734409425,-87.620499,-19.676802,-75.727859,1.016530,-0.016561,0.296204
4734429469,-78.958710,-16.650196,-72.605064,0.905752,-0.019678,0.378909
4734449514,-72.559662,-23.357481,-68.053955,0.868965,0.031505,0.396153
4734469559,-70.897346,-21.851925,-63.497143,0.852235,0.086413,0.315186
4734489604,-58.064911,-24.841057,-60.347313,0.834236,0.116628,0.321087
4734509650,-51.075550,-35.287010,-52.719402,0.895344,0.256303,0.360258
4734529694,-59.928345,-30.617020,-45.814705,0.925568,0.391690,0.347889
4734549739,-67.361824,-27.158590,-42.949837,0.868594,0.404836,0.295651
4734569784,-67.981850,-40.983028,-41.423588,0.915285,0.364024,0.333475
4734589828,-73.271202,-45.406654,-34.743313,1.102173,0.315024,0.273790
4734609873,-81.014656,-25.845757,-23.175955,1.101814,0.384527,0.240073
4734629917,-88.417244,-13.204040,-16.602270,0.964886,0.447346,0.272059
4734649962,-100.803833,-18.237514,-10.644070,0.909737,0.461802,0.253328
4734670005,-113.912094,-20.278067,-9.947411,0.867681,0.339272,0.204049
4734690050,-108.879982,-25.630058,-19.595224,0.820247,0.131636,0.174734
4734710095,-110.265091,-31.844654,-32.941219,0.939875,0.179975,0.261064
4734730139,-122.346275,-29.190695,-36.302185,1.125912,0.320799,0.201717
4734750184,-133.675140,-16.831635,-40.417072,1.248855,0.300413,0.171464
4734770229,-142.902237,6.883898,-55.056824,1.117732,0.168005,0.197547
4734790274,-143.283768,18.071671,-56.786217,0.913487,0.121039,0.326181
4734810318,-145.553192,8.974012,-43.458668,0.862891,0.243326,0.389353
4734830363,-154.780228,8.738734,-26.673157,0.817775,0.315913,0.399168
4734850407,-163.683014,11.914334,-30.173265,0.738039,0.361049,0.424069
4734870452,-172.497635,-12.639055,-37.159863,0.732230,0.326376,0.433053
4734890498,-175.484024,-31.667030,-33.637413,0.818599,0.246284,0.316261
4734930588,-174.763809,9.308407,-65.754707,0.815975,0.288661,0.158384
4734950632,-174.386993,-4.582979,-75.922501,0.606513,0.187712,0.224514
4734970677,-156.768448,-45.538956,-83.477180,0.833342,0.226795,0.123970
4734990721,-169.745895,-59.655731,-96.528748,1.239884,0.365840,0.048586
4735010766,-207.679626,-38.173058,-111.715744,1.432292,0.258662,-0.001657
4735030811,-216.885300,3.469859,-115.364159,1.227299,-0.139919,0.190055
4735050854,-169.802811,-8.600275,-109.977173,0.983022,-0.191142,0.277735
4735070899,-163.129532,-24.406502,-106.912750,1.036947,0.194005,0.208942
4735090943,-169.694061,-28.450626,-103.856979,1.030280,0.153192,0.174269
4735110988,-153.255264,-23.690622,-101.724884,1.009952,0.180332,0.153685
4735131033,-148.820679,-15.599402,-101.042793,0.908149,0.223854,0.174433
4735151077,-149.390289,-23.579645,-101.053726,0.895557,0.223234,0.176167
4735171122,-152.609299,-29.186226,-101.160889,0.956509,0.208078,0.173278
4735191167,-149.821259,-29.498655,-97.593742,1.025958,0.217441,0.187273
4735211211,-145.432373,-16.936462,-93.091148,1.031488,0.208620,0.214154
4735231256,-133.039703,-13.556170,-90.682938,0.997511,0.229609,0.272365
4735251300,-139.892746,-25.194151,-89.872810,1.007087,0.250923,0.251865
4735271345,-137.242966,-27.236509,-79.865517,1.030295,0.265076,0.239991
4735291391,-131.881805,-26.889641,-75.724495,1.026850,0.367161,0.204981
4735311436,-139.040985,-28.516045,-72.262688,1.019352,0.339077,0.201334
4735331481,-144.427612,-33.526325,-68.879845,1.014069,0.418669,0.241154
4735351526,-151.726242,-37.812584,-64.827835,1.066149,0.432188,0.176599
4735371570,-148.124847,-20.416334,-61.801731,1.030740,0.242441,0.199848
4735391614,-147.003357,-21.615694,-56.217365,0.899893,0.250855,0.197184
4735411659,-160.790192,-33.473869,-51.331394,0.868313,0.281915,0.178488
4735431703,-161.743378,-32.804665,-52.391285,0.872411,0.138343,0.251719
4735451747,-161.957642,-36.643963,-54.907669,0.918003,0.109830,0.260937
4735471792,-158.671005,-31.385292,-50.854431,0.975534,0.111087,0.289024
4735491837,-144.056931,-16.490585,-45.617279,0.984742,0.181838,0.233608
4735511881,-141.858719,-6.012367,-48.371395,0.940076,0.252571,0.265201
4735531926,-150.469666,-7.599978,-62.778625,0.902987,0.239191,0.317026
4735551971,-155.139877,-19.828472,-69.442978,0.925017,0.164907,0.364688
4735572015,-153.098099,-20.886904,-69.823311,1.011450,0.183187,0.323562
4735612104,-165.669662,-13.183599,-68.621933,0.869484,0.260906,0.288106
4735632149,-162.097900,-14.388418,-70.446098,0.901329,0.312743,0.223269
4735652194,-174.288254,-23.752394,-76.750763,1.034219,0.348665,0.184065
4735672240,-177.940018,-18.681854,-81.801346,1.140919,0.185080,0.148776
4735692285,-164.041595,-6.276939,-87.602882,1.077603,0.010829,0.189447
4735712329,-156.057083,-8.960311,-89.886101,1.001643,-0.044186,0.240240
4735732374,-148.724274,-13.524734,-84.727104,1.001447,-0.010056,0.282020
4735752419,-142.603729,-13.224218,-80.797562,0.993867,0.034508,0.314372
4735772464,-136.485596,-12.278968,-79.809273,0.955196,0.058901,0.316984
4735792508,-129.716263,-14.055054,-78.206329,0.927707,0.046786,0.336913
4735812574,-124.314941,-16.377033,-76.219078,0.927883,0.074653,0.320569
4735832596,-120.252731,-15.984216,-73.805122,0.925858,0.098960,0.349306
4735852641,-116.759811,-16.944328,-72.490181,0.911726,0.103876,0.344246
4735872685,-112.854355,-16.050392,-71.545822,0.924382,0.107737,0.337205
4735892730,-108.609810,-13.651598,-70.125534,0.917957,0.080437,0.343301
4735912774,-105.899620,-14.169348,-66.938522,0.904000,0.099755,0.375998
4735932819,-102.698746,-15.849688,-62.116241,0.907569,0.106141,0.371328
4735952864,-97.676224,-16.407301,-58.626957,0.910917,0.122959,0.396706
4735972908,-94.154564,-16.637226,-56.109230,0.918857,0.177700,0.381199
4735992953,-95.163383,-14.675524,-56.430939,0.908160,0.228425,0.389260
4736012998,-95.042381,-13.095098,-57.355175,0.925714,0.233116,0.393447
4736033042,-94.170830,-10.352021,-57.402538,0.914192,0.228861,0.386387
4736053088,-97.177818,-11.466947,-57.888855,0.903176,0.229875,0.415251
4736073133,-97.636429,-11.655916,-56.445305,0.918443,0.249617,0.403455
4736093178,-99.187279,-8.462060,-55.948860,0.928445,0.273722,0.404148
4736113222,-97.161827,-6.268213,-58.175770,0.901523,0.231951,0.371520
4736133267,-95.108879,-7.920758,-61.321072,0.880682,0.193021,0.416028
4736153312,-95.419617,-13.210216,-60.529003,0.905579,0.223190,0.403579
4736173356,-97.871208,-12.416411,-57.836929,0.904911,0.232665,0.426439
4736193401,-99.726128,-12.725451,-55.651203,0.908429,0.225442,0.405766
4736213445,-92.502510,-9.592265,-54.902004,0.899249,0.139084,0.383742
4736233489,-92.592278,-15.703453,-55.581192,0.897012,0.156448,0.447495
4736253534,-94.760315,-18.436487,-52.606087,0.952788,0.183238,0.397789
4736273578,-95.702362,-15.112107,-48.031029,0.945342,0.173730,0.403731
4736293623,-93.183624,-13.068074,-44.441200,0.945222,0.150228,0.393636
4736313668,-92.949829,-12.345688,-43.285694,0.944911,0.158490,0.413323
4736333713,-104.074989,-11.925106,-42.096138,0.980561,0.190147,0.464671
4736353757,-102.800308,-9.765681,-37.826473,0.984561,0.129615,0.398191
4736373802,-75.375511,-11.060016,-40.778107,0.914121,0.207127,0.368631
4736393847,-87.406990,-0.077053,-47.057522,0.767858,0.294220,0.322049
4736413891,-120.940910,0.948506,-45.049171,0.786823,0.155155,0.581629
4736433936,-95.398705,-15.457479,-38.014969,0.758358,0.064623,0.359747
4736453982,-77.776176,-25.250063,-27.528540,0.869335,0.015239,0.379174
4736474026,-75.207649,-26.078022,-21.468050,1.021649,-0.124777,0.294039
4736494071,-70.218185,-19.912554,-25.877419,1.095050,-0.156760,0.171838
4736514116,-59.268742,-5.897083,-22.234035,1.072202,-0.108838,0.233186
4736534161,-43.371716,1.130369,-15.727028,1.125022,-0.151818,0.311315
4736574250,-13.390642,19.057041,0.496910,1.041136,-0.170055,0.438770
4736594293,4.635684,15.875388,8.040950,1.083523,-0.233711,0.410289
4736614338,20.343796,32.727417,24.108696,1.029066,-0.147975,0.378774
4736634383,16.698235,22.795048,37.828495,0.780376,0.159574,0.424039
4736654427,16.979031,6.961416,35.304424,0.937594,0.242865,0.342013
4736674472,7.480377,13.406587,33.481819,1.152015,0.079125,0.281564
4736694517,20.694454,43.286808,29.268848,1.145434,-0.309581,0.322053
4736714562,60.316933,63.811760,44.532688,0.934933,-0.202674,0.385458
4736734606,70.682182,49.723877,55.962543,0.940283,0.128376,0.387225
4736754651,45.871223,62.945389,50.815083,0.933756,0.279470,0.365537
4736774696,37.946983,72.045853,57.860828,0.718201,0.132363,0.477890
4736794740,52.851978,52.592316,62.122608,0.659656,0.056225,0.518332
4736814785,57.021629,45.451797,62.424976,0.689483,0.038876,0.575960
4736834831,62.732090,46.244858,62.250931,0.698707,0.043588,0.591102
4736854876,64.240822,44.834534,55.833710,0.652603,0.042946,0.583305
4736874920,68.332306,29.984791,51.291115,0.682818,-0.022592,0.646978
4736894965,67.256714,17.263577,54.442505,0.840152,-0.016898,0.638339
4736915009,69.212196,26.209761,58.548168,0.851676,0.071014,0.703432
4736935054,60.693825,29.124470,50.314404,0.773164,0.192336,0.827043
4736955099,23.228214,7.175057,49.083511,0.676667,0.129280,0.908252
4736975151,7.151482,-21.322840,45.599792,0.595756,0.000257,0.838895
4736995187,23.569336,-27.726112,35.614273,0.542744,0.029459,0.646072
4737015231,34.805485,-37.057743,27.918652,0.486100,0.091933,0.370006
4737035276,33.359940,-69.055428,11.062607,0.482635,0.226773,0.401097
4737055321,19.691380,-82.618988,9.900355,0.789760,0.379072,0.038178
4737075366,23.968817,-126.508072,12.194543,1.216971,0.522633,0.187515
4737095410,-72.508263,-127.283295,-20.775982,1.593185,0.672176,0.264596
4737115454,-149.536469,-81.618095,-49.795177,2.078318,0.210780,0.298442
4737135499,-41.258106,47.620464,-35.975674,2.019533,-0.443207,0.120593
4737155544,34.050827,117.502144,-24.650803,1.096609,-0.383297,0.439661
4737175588,22.801050,88.737213,-4.287923,0.470513,-0.150881,0.909059
4737195633,-25.405331,35.519993,-5.993507,0.369492,0.074920,0.786187
4737215679,-20.904217,23.129181,-17.938938,0.595611,0.143474,0.725090
4737235724,-15.603594,57.045658,-19.824799,0.617251,0.199133,0.563184
4737255769,-34.812870,64.849426,-10.824817,0.381142,0.261852,0.627860
4737275813,-36.059395,44.506573,12.957821,0.124348,0.139496,0.636372
4737295858,-25.189960,-3.304764,27.203991,0.230687,0.183479,0.698058
4737315903,-42.957134,-26.671251,22.570398,0.620310,0.270457,0.636455
4737335947,-56.731297,-9.391462,-13.077758,0.907431,0.040992,0.776831
4737355992,-62.650566,29.275726,-52.661221,0.794301,-0.639315,0.828963
4737376035,-32.602837,21.860586,-38.729794,0.542820,-0.477935,0.839451
4737396080,-36.955795,-0.465769,-37.113556,0.479843,-0.202102,1.068059
4737416124,-39.701786,-10.296739,-32.771252,0.396501,-0.259792,0.711031
4737436169,-15.315424,-39.376575,-35.680939,0.267672,-0.084866,0.818537
4737456214,-16.587744,-64.581955,-58.212746,0.392289,0.128581,0.765517
4737476259,-32.624340,-70.538628,-83.894958,0.497227,0.317400,0.657657
4737496303,-42.682087,-81.345108,-82.520119,0.622852,0.549536,0.431232
4737516347,-111.943405,-155.930542,-96.682831,1.342031,0.430967,0.401319
4737536392,-208.668274,-182.771332,-136.300446,2.029241,-0.312284,0.204255
4737556437,-119.902328,-2.524408,-125.937302,2.046587,-1.112679,-0.204448
4737576482,-27.979757,49.541218,-99.684448,0.857427,-0.872033,0.462069
4737596528,52.940578,-65.365189,-77.531815,0.693031,-0.196633,0.554714
4737616572,-23.631525,-70.267586,-72.391960,0.857058,0.354726,0.514306
4737636617,-100.167023,-18.299271,-78.893585,0.699183,0.234819,0.298913
4737656662,-68.858124,-33.523033,-85.389107,0.575054,0.269328,0.250469
4737676706,-56.124283,-37.428440,-91.707207,0.731283,0.530877,0.245263
4737696751,-106.056503,-31.155069,-80.017120,0.958733,0.497894,0.340336
4737716796,-112.520416,-32.975643,-67.586105,1.279232,0.037696,0.387718
4737736841,-95.018974,34.800987,-48.220585,1.267020,-0.101035,-0.084931
4737756884,-112.716751,75.522980,-3.510651,0.653904,-0.139060,0.392986
4737796973,-43.513897,-8.865496,15.579473,1.106075,0.396014,0.637237
4737817018,-150.686172,24.898331,-51.372631,1.059906,-0.473866,0.709359
4737837063,-102.621124,21.523180,-27.740330,0.835396,-0.431900,0.363862
4737857107,20.695856,31.839500,-22.715212,0.582265,0.280125,0.521199
4737877152,-7.269144,35.563251,-27.014355,0.416354,0.897403,0.629153
4737897197,-105.233871,-16.035580,-40.986332,0.324800,0.922792,0.359147
4737917241,-179.125275,-72.281372,-65.918381,0.663063,0.609829,0.042359
4737937286,-246.954437,-160.921524,-96.541916,1.438400,0.108796,0.438551
4737957331,-261.423706,-131.748001,-102.842690,1.901202,-0.800759,0.102923
4737977377,-122.802650,58.203300,-68.218178,1.486479,-1.134800,-0.125415
4737997421,7.254199,7.799509,-63.042572,0.786809,-0.740705,0.273099
4738017466,42.846413,-84.763672,-49.690243,1.030445,-0.070975,0.489405
4738037511,-89.772232,-36.556862,-43.759506,1.261490,0.380999,0.397137
4738057555,-114.657700,16.884089,-39.840549,1.003324,-0.029850,0.234398
4738077600,-106.482254,2.490512,-36.293789,0.829002,0.049762,0.404906
4738097645,-117.916153,-2.134958,-33.901024,0.844497,0.072099,0.249058
4738117689,-94.937355,6.886655,-41.368824,0.974392,-0.069649,0.155398
4738137733,-75.372658,34.672829,-41.979343,1.028357,-0.215549,0.186677
4738157777,-67.531403,50.134964,-38.679180,0.805600,-0.321425,0.312475
4738177822,-71.076683,36.992676,-46.973988,0.656111,-0.252071,0.339763
4738197867,-87.528008,23.785057,-56.320145,0.726109,-0.170684,0.530523
4738217911,-77.782150,21.666697,-49.559258,1.028823,-0.278014,0.586244
4738237956,-15.477338,26.469204,-33.890705,0.923249,-0.168232,0.684534
4738258000,-34.071564,-6.801943,-25.374651,0.938259,0.069217,0.810146
4738278045,-50.070122,-11.144861,-11.938719,0.831848,0.145140,0.763948
4738298090,-32.252075,-33.892956,-9.775954,0.716703,0.051291,0.584159
4738318135,-20.007538,-46.293106,-10.749452,0.750284,-0.310227,0.472126
4738338179,2.012667,-61.620811,-12.709331,0.796582,-0.456198,0.365144
4738358224,18.984823,-65.838303,-11.959367,0.875449,-0.365626,0.333107
4738378270,21.218668,-65.180573,1.324430,0.883219,-0.115826,0.299510
4738398315,16.851694,-70.449509,23.006474,0.955867,0.059614,0.366238
4738418359,23.357050,-58.511024,30.563602,0.940640,0.106714,0.067294
4738438404,8.886502,-27.888935,17.252636,0.788948,0.159781,0.282161
4738458449,-11.846658,-88.875877,30.389889,0.979241,-0.004450,0.042091
4738478493,14.780285,-146.898209,50.718578,1.801062,0.116674,0.163085
4738498538,19.896427,-24.692711,63.872974,2.086071,0.232042,-0.033626
4738518586,-20.158844,71.183098,72.804764,1.241976,0.159952,0.186048
4738538626,-12.012005,24.323391,68.436554,0.888430,-0.123029,0.347588
4738558671,22.094084,23.341366,62.934605,0.971555,-0.207370,0.341789
4738578716,0.624227,43.354866,57.442764,0.915223,-0.255203,0.442832
4738598760,-8.162071,40.404911,55.524536,0.826567,-0.289707,0.479889
4738618805,-2.802163,46.767387,50.472210,0.755571,-0.059090,0.366483
4738638849,25.391287,64.178658,32.786068,0.670380,0.023579,0.213589
4738658894,70.689812,84.560043,-6.570954,0.282114,-0.071452,0.186136
4738678939,42.579426,34.579796,-39.249687,0.354161,-0.352158,0.459109
4738698984,15.664894,-27.062979,-25.881582,1.191887,-0.582710,0.368439
4738719028,101.621384,61.918060,3.185645,1.349522,-0.279156,0.112524
4738739073,109.060181,117.296730,17.421505,0.935109,0.425484,0.789428
4738759119,78.737572,62.469913,36.964882,0.687572,0.444117,0.698152
4738779164,51.858170,23.440660,36.758389,0.700676,-0.151769,0.784742
4738799208,83.103935,28.675631,41.800968,0.766785,-0.566535,0.638607
4738819253,145.837463,34.795448,63.597717,0.641461,-0.487670,0.506665
4738839297,152.487000,37.051685,73.722641,0.599240,-0.198662,0.433593
4738859342,182.032898,-25.432968,98.055618,1.011167,0.180190,-0.026118
4738879387,204.298233,-45.941425,103.039040,1.480994,0.885750,0.442919
4738899432,100.330887,6.644084,97.966080,1.445135,1.444356,0.322966
4738919475,32.763126,45.373787,78.929436,1.101700,0.951291,0.575446
4738939519,-15.730817,-4.339452,59.944450,0.780766,0.322882,0.629182
4738959564,42.393970,11.927514,56.557987,0.738309,0.050945,0.581134
4738979609,67.848877,38.622604,57.952663,0.635420,0.196874,0.628433
4738999653,41.436584,13.319935,58.034340,0.533840,0.110673,0.600542
4739019698,56.435413,-6.106571,54.989433,0.634869,-0.027885,0.597599
4739039743,70.147263,11.469879,55.614277,0.765016,0.105112,0.650531
4739059787,86.708099,29.304691,61.557457,0.869936,0.225240,0.499171
4739079832,110.774658,48.567661,63.297386,0.767951,0.389201,0.345393
4739099877,131.421127,53.211235,34.451817,0.396240,0.367155,0.396576
4739119921,85.196915,-16.762560,26.240849,0.493558,0.184872,0.616388
4739139966,50.243633,-84.668411,23.975204,1.177608,-0.176581,0.712317
4739160013,85.790359,8.227673,42.310131,1.442211,-0.245061,0.378223
4739180057,177.415710,121.271889,47.161144,0.616378,0.691928,1.005320
4739200102,106.398491,41.147919,51.689583,0.319194,0.914834,1.045375
4739220146,12.368521,-97.045532,62.307835,0.449359,-0.041374,0.830066
4739240191,46.581566,-98.175072,66.983238,0.617803,-0.862848,0.617021
4739260236,153.568344,-1.700713,66.810715,0.341487,-0.702324,-0.267815
4739280280,205.650131,19.140541,99.439873,0.632241,-0.203587,-0.212723
4739300323,266.957153,-187.175232,143.891876,1.258859,0.528722,-0.367783
4739320368,62.530777,-215.662399,106.899521,2.210963,1.711818,0.393361
4739340413,-127.907135,-92.015945,58.731438,2.257672,0.595114,-0.400458
4739360458,-91.401207,60.928974,52.638927,1.903848,-0.562200,0.393227
4739380502,125.361877,122.026428,19.501350,1.014255,-0.442153,-0.087876
4739400546,84.824104,88.372551,13.734105,0.781374,0.629602,0.948407
4739420591,-19.847208,-19.091051,38.224476,0.868958,0.179396,0.373719
4739440636,-9.583255,-32.324543,22.677919,1.220942,-0.099107,0.448420
4739460681,19.644714,74.167114,24.311047,1.080989,0.170496,0.551786
4739480725,26.002792,76.288712,21.868145,0.981581,0.306955,0.495124
4739500770,63.862160,104.416931,5.766170,0.724242,0.262274,0.139450
4739520815,72.260208,138.419083,-19.280287,-0.028698,0.050695,0.445977
4739540861,29.139084,42.721745,-10.882838,-0.387831,-0.156688,0.724117
4739560906,9.227448,-42.201088,17.812071,0.141452,-0.169814,0.749214
4739580950,53.804695,-39.284191,14.991587,0.799078,-0.083845,0.699955
4739600995,119.146286,-16.150997,14.765845,1.310225,0.292882,0.553269
4739621040,91.441864,63.765095,34.367451,0.899602,0.622630,0.885232
4739641084,105.897354,83.025925,29.819798,0.452189,0.734696,0.781528
4739661129,42.259029,6.078686,13.993513,0.448427,0.328279,0.774203
4739681179,-18.491875,-59.393459,16.174372,0.594268,-0.460507,0.959953
4739701217,64.335983,-23.662655,39.800282,0.479400,-1.127678,0.195568
4739721261,175.209167,52.342865,29.850658,0.541117,-0.610847,0.073121
4739741306,313.786163,-59.275372,71.624725,1.071867,0.473082,0.308135
4739761351,228.221207,-67.450348,100.590462,1.345278,1.876709,0.724180
4739781395,37.927635,27.360636,56.227200,1.276997,1.828262,0.089956
4739801440,-138.087555,-58.750237,16.801226,1.084554,0.965523,0.641757
4739821484,-161.956589,-134.759125,34.212498,1.273071,0.231761,0.584093
4739841529,1.363791,-13.350269,33.287369,1.501625,-0.506198,0.132352
4739861574,71.621552,48.531715,9.781974,0.958903,-0.003808,0.614607
4739881618,20.171558,-2.441946,21.690176,0.815049,0.186975,0.590131
4739901664,-11.479806,-10.915379,31.463734,0.837201,-0.070137,0.357065
4739921709,21.508228,12.670450,45.990856,0.621844,0.388835,0.457770
4739941754,3.748774,30.847195,53.408169,0.318235,0.607920,0.523302
4739961799,22.990932,-6.188564,45.090740,0.423782,0.178269,0.404709
4739981843,13.545936,-37.892540,23.755249,0.897619,-0.006361,0.500921
4740001888,17.459435,12.707355,18.969296,0.858393,-0.130658,0.640595
4740021933,33.988377,59.873470,8.490420,0.385503,-0.112879,0.757081
4740041977,11.292152,10.181925,-14.097763,0.063699,0.363896,0.905207
4740062022,-9.953964,-82.294678,-18.730762,0.441820,0.326199,0.750500
4740082065,3.777748,-97.413818,-29.152161,0.829535,0.149209,0.679408
4740102110,32.674450,-27.688034,-31.001389,0.727358,0.224842,0.251220
4740122154,15.255516,-34.374573,-26.061985,0.455275,0.296320,0.317928
4740142199,-50.594585,-182.828827,-45.384300,1.174908,0.321333,0.188050
4740162244,-80.177231,-223.554932,-71.821114,2.323131,0.076749,-0.039079
4740182289,-14.384033,36.135784,-68.822876,2.014665,-0.259532,-0.243680
4740202333,-0.436802,62.631084,-60.582355,1.002342,-0.109554,0.554615
4740222378,-10.675262,-60.101604,-39.071827,1.017742,0.060902,0.432596
4740242422,-16.523952,-33.703499,-48.285320,1.114914,0.207196,0.340507
4740262467,-12.884981,10.619216,-68.231247,0.789416,0.453687,0.531568
4740282512,-21.999048,3.013030,-64.154579,0.760499,0.414369,0.393475
4740302558,-9.351377,20.838991,-51.629654,0.825147,0.365337,0.253142
4740322603,-52.525261,47.594910,-29.939375,0.665828,0.202527,0.352925
4740342647,-95.630829,20.561958,11.486917,0.492248,-0.113520,0.212327
4740362692,-41.931553,-13.242804,53.822941,0.358549,-0.258622,0.104752
4740382737,44.430195,-49.587540,37.798584,0.941621,-0.089459,0.309642
4740402781,-10.679101,-53.214115,-19.445961,1.689016,-0.030304,0.568810
4740422826,-110.142349,75.016174,-10.020700,1.143814,-0.424061,0.460008
4740442871,60.189426,81.276810,-9.237547,0.586342,-0.129409,0.414992
4740462914,112.111366,2.229213,-28.545700,0.720990,0.774910,0.784980
4740482958,-38.957825,16.571041,-16.011635,0.686844,1.008341,0.194656
4740503003,-141.438950,-63.494179,-76.271790,1.197373,0.770473,0.492055
4740523048,-254.486298,-103.048820,-125.587456,1.636939,0.249243,0.089959
4740543092,-243.505096,-11.608168,-128.736847,1.662018,-0.738546,0.016447
4740563137,-119.883217,107.008606,-93.587067,0.906015,-1.006157,0.121112
4740583182,-2.419616,31.610836,-85.221115,0.324555,-0.502692,0.608629
4740603226,-24.320862,-53.768253,-77.636047,0.522101,0.205382,0.900304
4740623271,-120.667175,-23.897633,-77.016998,0.572431,0.290970,0.537972
4740643316,-104.440384,-29.359474,-89.706444,0.507375,0.205392,0.520632
4740663360,-91.828430,-53.166729,-86.565712,0.747403,0.427409,0.442163
4740683405,-129.534637,-55.197090,-76.683258,1.013086,0.354315,0.515995
4740703451,-146.017242,-33.288563,-67.176620,1.177100,-0.100593,0.442103
4740723496,-128.713577,12.016929,-39.073006,1.038960,-0.251524,0.301130
4740743540,-116.496910,-6.319458,-6.626831,0.601577,-0.128198,0.274520
4740763585,-78.956017,-90.792847,-0.511613,0.752574,0.085980,0.438828
4740783630,-95.394501,-84.748253,6.229008,1.069482,0.245319,0.437096
4740803674,-110.740585,-38.277027,-5.018054,1.096982,0.158937,0.374370
4740823719,-111.203934,-21.170208,-11.102457,1.024789,0.233626,0.254049
4740843762,-121.311920,-15.485449,-14.847099,1.029651,0.205596,0.233375
4740863807,-135.379562,-17.137892,-48.616241,0.913767,-0.077404,0.493158
4740883852,-109.949165,-32.983883,-47.242107,0.818308,-0.341137,0.411150
4740903902,-48.684963,-57.619099,-17.230591,0.959108,0.118263,0.214006
4740923941,-89.519379,8.840500,-13.125481,0.804274,0.926213,0.074920
4740943986,-82.171280,53.704823,-21.634834,0.514955,1.375683,-0.192292
4740964030,-192.190216,-59.592163,-82.849480,1.227622,0.991070,-0.113079
4740984075,-362.070801,-232.149796,-186.813446,1.871287,0.449377,0.037031
4741004120,-283.077423,-84.398926,-117.798058,2.617028,-1.071532,-0.153369
4741024164,-186.419067,144.450317,-84.633148,1.104708,-1.274727,-0.245589
4741044209,-54.277813,5.169747,-96.408791,0.492605,-0.885433,0.563032
4741064254,9.866718,-126.780327,-79.131866,0.957038,0.191397,0.387647
4741084300,-126.150192,-50.583641,-70.596077,1.067213,0.683136,0.361996
4741104344,-158.246063,11.879258,-63.803986,0.724683,0.071338,0.261117
4741124389,-100.830856,-48.531620,-73.024307,0.768780,-0.184667,0.350591
4741144434,-74.173462,-36.853645,-82.061722,1.096052,-0.119145,0.281517
4741164479,-112.561340,20.815151,-66.181549,0.962839,-0.185489,0.173568
4741184523,-148.442932,29.480976,-31.518028,0.468233,-0.418756,0.148937
4741204568,-65.280571,-70.837273,-16.557571,0.426120,-0.427677,0.139235
4741224627,-11.694648,-108.573364,-12.041800,0.911975,0.011765,0.340365
4741244656,-78.764656,-60.855690,-4.533371,1.163974,0.303653,0.391783
4741264700,-111.126534,-40.378326,-13.515127,1.157231,0.105483,0.193708
4741284745,-101.995956,-43.642643,-4.066795,1.189661,0.063745,0.212590
4741304790,-86.124054,-27.099230,-14.686903,1.055849,-0.054266,0.344692
4741324835,-96.214928,-35.743973,-56.936237,1.061551,-0.212355,0.280487
4741344879,-63.514645,-57.614502,-52.252476,1.051454,0.127555,0.165167
4741364923,-85.629295,-51.672825,-48.637447,0.955192,0.621572,-0.135327
4741384968,-159.835403,-67.049980,-58.018688,1.136589,0.632071,-0.123072
4741405013,-228.002243,-142.703049,-111.643944,1.549172,0.307516,-0.163357
4741425058,-187.062103,-43.301563,-101.599503,1.869681,-0.155464,-0.272729
4741445102,-159.631424,33.966209,-84.779800,1.093215,-0.126993,0.024178
4741465148,-150.031128,-22.751858,-70.119324,0.799299,-0.195539,0.222349
4741485193,-116.973045,-56.219704,-61.762943,0.959053,0.067105,0.174460
4741505238,-121.008064,-37.296528,-58.314045,0.967442,0.361190,0.427200
4741525283,-144.380219,-24.706751,-62.664398,1.008821,0.074314,0.290299
4741545327,-110.693138,15.281680,-46.131672,0.937914,-0.045163,0.100120
4741565372,-123.313446,21.028700,-0.940029,0.570230,0.115217,-0.065584
4741585417,-79.215515,-38.030617,11.858315,0.587288,0.171722,0.179985
4741605461,-72.463860,-36.114239,26.995625,0.902046,0.283095,0.322393
4741625504,-88.937111,-5.955634,27.032463,0.937113,-0.090118,0.234867
4741645549,-84.154724,-36.485634,23.764030,1.038022,-0.239582,0.248947
4741665594,-64.688095,-23.283270,10.392169,1.136743,-0.234536,0.494081
4741685639,-43.027832,11.845447,-2.445869,1.034998,0.007319,0.158119
4741705684,-27.246883,18.366322,9.753375,0.950644,0.540210,0.350670
4741725728,-37.387733,4.954796,-1.446509,0.843072,0.868813,-0.028296
4741745773,-123.763374,7.372426,-30.657883,0.953742,0.932630,-0.063430
4741765817,-241.528549,-136.736923,-104.780823,1.445855,0.362172,0.093913
4741785862,-252.478027,-146.598007,-132.357193,2.118876,-0.344386,-0.176484
4741805907,-156.159454,109.252235,-75.613747,1.416275,-0.635298,-0.370136
4741825951,-120.272690,63.986881,-81.422699,0.511125,-0.547872,0.296534
4741845997,-74.376129,-94.549683,-63.729324,0.772472,-0.208525,0.174097
4741866042,-85.561073,-70.509659,-53.633003,1.131883,0.173648,0.413197
4741886086,-122.659370,-4.296985,-50.577156,0.973355,0.242210,0.300581
4741906131,-103.153244,-24.364040,-49.625938,1.046850,0.114411,0.291248
4741926176,-87.805046,3.996063,-49.717106,1.185056,0.117684,0.211292
4741946221,-134.522202,37.743027,-21.500237,0.761255,-0.116882,0.128829
4741966265,-127.168839,-13.158010,11.227325,0.578615,-0.456573,0.178098
4741986310,-34.437927,-57.745758,32.537281,0.791136,-0.248722,0.200968
4742006353,-57.538521,-27.785835,51.213768,1.011969,-0.005082,0.348336
4742026398,-78.449356,-10.245739,6.081978,1.032773,-0.246132,0.265169
4742046443,-86.432304,16.587112,-20.729061,0.897842,-0.445589,0.327740
4742066487,4.103641,-0.065651,1.752151,0.783243,-0.108205,0.188735
4742086532,1.717021,3.615329,2.155503,0.863484,0.796771,0.361664
4742106576,-96.034431,42.577988,-13.183609,0.915906,0.918499,-0.178943
4742126621,-212.507568,-107.009743,-114.714294,1.436337,0.499808,0.120840
4742146666,-271.149933,-177.935638,-151.123489,1.974799,-0.189263,0.134922
4742166711,-137.145401,68.698318,-82.250069,1.716461,-0.733911,-0.424578
4742186755,-86.665749,95.106705,-95.620796,0.603303,-0.516284,0.342014
4742206800,-45.694687,-66.579979,-78.122849,0.702813,-0.128925,0.420573
4742226845,-114.232468,-80.749176,-61.044643,1.160038,0.360663,0.337931
4742246890,-121.112976,-7.917809,-54.029060,1.141922,0.272214,0.222993
4742266935,-100.648384,-3.633762,-54.631878,1.128628,0.274557,0.342145
4742286980,-108.199959,14.932110,-58.065475,1.158392,0.154715,0.334065
4742307025,-124.468262,44.019527,-39.653858,0.898549,-0.122797,0.149820
4742327069,-129.434723,41.344830,3.018737,0.476712,-0.398100,0.211103
4742347114,-54.023033,-25.513798,22.996971,0.577873,-0.225133,0.385129
4742367159,-76.932083,-28.088619,33.703537,1.054480,0.024545,0.297781
4742387212,-92.770470,14.533541,-19.078680,1.055953,-0.330100,0.337410
4742407247,-88.535866,63.960419,-28.817877,0.662976,-0.584296,0.502248
4742427291,7.981914,5.063563,-10.448853,0.663367,-0.124051,0.407862
4742447336,-0.098396,-6.153592,-22.649370,0.852600,0.850837,0.527841
4742467381,-57.771572,35.094452,-34.031685,0.646843,0.934265,0.118225
4742487425,-162.600250,-46.923698,-80.939980,1.091712,0.425643,0.219266
4742507470,-257.264160,-163.584930,-123.284378,1.646886,0.065072,0.346568
4742527515,-193.223907,-36.086456,-92.020973,2.022243,-0.802739,-0.245696
4742547559,-86.080193,119.306610,-79.245972,1.086078,-0.975351,0.014650
4742567604,0.724961,39.420097,-71.791069,0.493697,-0.472369,0.438450
4742587649,-4.708288,-80.012024,-53.786831,0.900352,0.399191,0.399721
4742607693,-104.396049,-106.762222,-33.052521,1.549788,0.699527,0.162811
4742627739,-91.649544,9.259624,-31.637241,1.618329,0.124722,0.053432
4742647784,-80.327835,99.876411,-40.806923,1.026292,-0.021388,0.554973
4742667829,-84.728867,57.456104,-34.204197,0.720351,0.057402,0.667259
4742687873,-89.356125,18.379797,-28.715168,0.860576,-0.041113,0.472258
4742707918,-60.521515,57.155853,-30.039467,0.826773,-0.346607,0.503667
4742727963,-37.230759,76.632233,-28.484245,0.334520,-0.319138,0.421091
4742748007,-38.277126,33.545918,-9.115490,0.281672,-0.085826,0.740531
4742768052,-40.931023,-25.147442,0.894606,0.828101,-0.001904,0.569388
4742788095,-38.986042,29.027176,14.495700,0.904209,0.079397,0.560533
4742808140,-33.321728,75.875885,4.100422,0.469626,0.216424,0.743597
4742828184,-27.851957,14.110343,-7.325800,0.409040,0.189968,0.816846
4742848229,-48.002522,-44.966980,-5.812721,0.685961,-0.165076,0.880250
4742868274,-50.371861,-45.242676,-14.936249,0.819777,-1.005923,0.777458
4742888319,27.913258,-1.317125,-14.199091,0.522067,-0.813915,0.391584
4742908363,115.884705,-39.978016,-5.733166,0.362067,0.086314,0.595210
4742928408,77.226074,-74.062408,14.959166,0.308662,0.438598,0.199419
4742948453,16.819916,-89.056625,21.584450,0.846551,0.291707,-0.124202
4742968497,-4.171711,-164.926392,15.928184,1.483976,0.300775,-0.071458
4742988542,22.922779,-166.266846,28.063353,2.242179,0.443230,0.143855
4743008589,-37.837193,-43.453098,33.456409,2.541675,0.538374,0.141888
4743028633,-50.304298,84.506424,30.414173,1.747691,0.252287,0.297869
4743048677,-38.519157,71.297180,21.003887,0.966594,0.174872,0.403968
4743068722,-60.402153,9.645389,24.010635,0.721694,-0.017423,0.485251
4743088767,-65.490059,-21.777903,26.654339,0.862200,-0.315492,0.480180
4743108812,-29.110949,7.037177,30.766783,1.047052,-0.180938,0.308436
4743128856,-29.182352,52.272354,38.243824,0.974630,0.191032,0.498944
4743148901,-9.834553,84.130440,32.633514,0.778163,-0.056751,0.408783
4743168944,36.143791,96.141052,6.093171,0.375452,-0.005941,0.247824
4743188989,66.705536,94.089050,-19.218643,-0.149948,0.070226,0.399681
4743209033,26.465933,13.213585,-37.841305,-0.003441,-0.039304,0.808715
4743229078,-2.294321,-38.825279,-18.640129,0.837386,-0.284418,0.539923
4743249123,69.128304,29.728968,24.887857,0.931991,0.113527,0.547071
4743269168,58.912769,90.537331,28.367395,0.424009,0.714266,0.922701
4743289212,12.918603,-5.683570,33.237240,0.408710,0.284786,0.829353
4743309257,-4.384053,-64.345772,33.730095,0.894435,-0.194905,0.768304
4743329302,30.425957,-2.347220,49.105896,0.950512,-0.486284,0.519108
4743349346,74.933159,45.620842,50.220104,0.499380,-0.319753,0.651005
4743369391,98.850784,-59.351830,80.342514,1.032549,-0.166323,0.319954
4743389435,149.869308,-108.069557,116.656654,1.587373,-0.029008,0.211981
4743409482,160.021713,-38.975708,110.213158,1.955966,0.648917,0.408466
4743429527,71.526802,91.061790,86.214951,1.271073,0.848671,0.339995
4743449571,35.443626,62.253490,64.006767,0.631317,0.517768,0.718437
4743469616,16.585455,-14.801227,64.132797,0.568110,0.309631,0.575297
4743489660,19.241098,3.040229,58.183765,0.624670,-0.042868,0.584811
4743509705,58.602592,23.519018,54.868622,0.568754,-0.324226,0.542386
4743529750,74.584534,9.780532,59.688114,0.672524,-0.189699,0.613412
4743549793,62.962646,10.008166,70.275017,0.896573,-0.040054,0.591690
4743569838,89.857689,41.571587,66.191727,0.845081,0.183432,0.390537
4743589882,128.725800,73.733643,13.624658,0.319862,0.376385,0.380191
4743609927,95.429352,4.793618,-20.207699,0.308587,0.116198,0.720578
4743629971,61.677429,-66.730408,-20.711691,1.007575,-0.264428,0.480183
4743650016,104.327393,7.457232,21.127001,1.230443,0.255520,0.341134
4743670061,165.459671,92.511566,25.849735,0.682448,0.811572,0.632260
4743690106,75.413170,13.546640,35.931973,0.416748,0.366679,0.761818
4743710150,56.757938,-63.348442,53.319344,0.765809,-0.313566,0.759240
4743730195,95.582504,5.114373,67.667870,0.972718,-0.524091,0.192641
4743750239,135.814636,66.968025,75.490601,0.862027,-0.334077,0.055700
4743770284,271.389404,-81.293755,127.066116,1.306471,0.348751,0.155007
4743790330,240.422073,-93.086388,126.408112,1.863003,1.551496,0.947696
4743810375,52.169792,40.252789,86.518044,1.472575,1.605227,-0.126920
4743830420,-27.189831,59.366524,64.916344,0.797147,0.836809,0.703358
4743850465,-20.658022,-43.884346,70.738548,0.661662,0.081762,0.461233
4743870509,47.691689,-51.590618,68.644806,1.027144,-0.194600,0.231562
4743890554,53.830627,19.686817,59.373158,1.011464,-0.071950,0.379020
4743910599,57.558182,25.254866,59.278362,0.867570,0.060134,0.531472
4743930642,60.702026,24.204842,62.797760,0.826249,0.307669,0.561539
4743950687,74.654922,47.548500,60.070877,0.746013,0.371752,0.570803
4743970731,104.245018,58.572384,38.868027,0.447281,0.327699,0.391630
4743990776,114.550377,48.072224,16.919195,0.048731,0.316384,0.446625
4744010820,69.771568,-39.238853,11.258051,0.139558,0.155113,0.709098
4744030865,42.929192,-77.701019,4.537096,0.808943,-0.135621,0.520733
4744050910,96.819588,-41.115700,47.353622,1.427374,0.345183,0.464743
4744070955,166.794037,74.313438,57.518353,0.902395,1.034673,0.511027
4744090999,79.851334,61.347935,62.417747,0.467992,0.545994,0.728119
4744111044,38.778900,-99.130981,72.841492,0.831000,-0.263506,0.832229
4744131089,45.773270,-27.523056,56.462719,1.121613,-0.794779,-0.116593
4744151133,196.755569,34.228828,84.417191,1.490142,-0.504611,0.138902
4744171179,271.628448,-56.832619,132.183502,1.619443,0.583721,0.691242
4744191224,99.202896,-0.698159,112.715446,1.636672,1.266450,-0.052366
4744211269,34.988499,98.695572,72.759705,0.844658,1.002604,0.495484
4744231313,0.087159,30.708624,76.176987,0.407687,0.357936,0.706742
4744251358,59.566738,-34.000626,62.092045,0.751286,-0.106205,0.497945
4744271403,100.782318,52.653114,52.765472,0.829176,-0.271798,0.428138
4744291447,90.510887,81.591682,72.792038,0.351798,-0.112285,0.669154
4744311495,100.969528,17.635365,100.685760,0.369388,0.378560,0.605688
4744331535,87.224289,11.706142,89.712135,0.589554,0.530156,0.581008
4744351580,91.547394,52.355209,65.513405,0.449776,0.146796,0.655896
4744371624,93.533081,16.351536,71.139290,0.320706,-0.060723,0.787770
4744391669,83.683289,-32.234707,63.383423,0.542506,0.022740,0.661876
4744411714,69.158798,-42.823723,49.669968,0.823741,0.224558,0.661081
4744431758,70.368507,-42.005363,29.562855,1.080300,0.216804,0.687601
4744451804,70.023209,-14.495967,17.555914,1.122760,0.076755,0.609767
4744471848,65.210526,11.733010,22.916058,0.970913,-0.186923,0.744852
4744491893,83.518524,-14.576365,33.649017,0.965948,-0.198966,0.733353
4744511937,74.741386,-18.790680,42.717499,0.909954,-0.044482,0.662293
4744531982,75.461922,-13.743033,45.830708,0.799452,-0.034240,0.576821
4744552028,83.957542,-25.995651,44.588699,0.616307,0.190560,0.648466
4744572073,75.501480,-40.218987,23.015783,0.485243,0.334614,0.492909
4744592117,65.481781,-66.644753,7.941947,0.495300,0.449222,0.452615
4744612162,53.335781,-56.604034,1.991888,0.348607,0.357768,0.060988
4744632206,35.461758,-74.303375,-9.449382,0.476749,0.554587,0.198232
4744652251,-26.229174,-149.807053,-39.644829,1.107951,0.463171,0.210699
4744672296,-32.736240,-109.250969,-54.831783,1.541881,-0.131511,0.101512
4744692350,36.768021,10.916513,-38.649475,1.428348,-0.343520,0.086773
4744712384,87.899429,-22.218094,-32.039444,1.492466,0.199698,0.212860
4744732429,85.957008,-31.069254,-10.829700,1.711288,1.000224,0.562014
4744752473,32.369804,60.465797,-29.467319,1.394346,1.368150,0.445132
4744772518,14.328565,60.674061,-23.546904,1.021643,1.204131,0.515689
4744792562,-39.962517,37.688747,5.490170,0.928980,1.056102,0.190659
4744812607,-53.021858,17.822561,35.526127,1.162379,0.924494,0.124984
4744832652,-80.555054,41.723446,9.195345,1.105811,0.435254,-0.097181
4744852696,-99.764687,93.352219,-16.836939,0.640586,-0.153048,0.447813
4744872741,-58.260986,57.831409,-27.711004,0.613658,-0.131282,0.188779
4744892786,-57.099190,53.724945,-30.108173,0.500670,0.713447,0.491989
4744912830,-115.658508,88.777840,-27.665867,0.087598,0.806802,0.255491
4744932876,-100.059616,79.849533,-25.910538,-0.020197,0.803648,0.289145
4744952921,-137.672897,13.711273,-40.735268,0.492661,0.735510,0.387958
4744972966,-288.026215,-32.115185,-96.798279,0.815321,-0.123003,0.350968
4744993010,-266.207733,3.759734,-106.377602,0.958724,-1.070667,0.760707
4745013055,-92.875755,65.468735,-97.000252,0.956220,-1.093749,0.615481
4745033100,-19.173033,38.830070,-69.916222,0.700164,-0.811280,1.308226
4745053144,-68.343246,6.346909,-41.214161,0.581165,-0.372428,1.060008
4745073189,-74.787750,-22.849079,-40.504822,0.670338,-0.308830,0.962989
4745093232,-76.271889,-39.866768,-42.747612,0.773380,-0.112611,0.627807
4745113277,-78.712631,-32.254936,-56.426170,0.714587,-0.005523,0.452234
4745133322,-87.682938,-41.784393,-69.558510,0.782865,-0.018756,0.390477
4745153367,-96.638893,-63.907784,-64.920807,0.922945,-0.064702,0.303293
4745173411,-94.959404,-52.531738,-66.567131,0.998611,-0.208462,0.285002
4745193456,-82.164253,-35.296974,-66.925308,0.937299,-0.331129,0.327538
4745213500,-78.747398,-37.769638,-48.947147,0.838818,-0.283652,0.410097
4745233545,-78.451614,-60.586338,-30.240158,0.866477,-0.096299,0.405111
4745253590,-82.405304,-65.846390,-21.801891,0.984337,-0.035371,0.388626
4745273635,-89.264824,-51.014038,-27.385622,0.991619,-0.003322,0.335335
4745293679,-85.743187,-36.251030,-32.050888,0.997440,0.097917,0.390899
4745313725,-90.004929,-34.559059,-29.970490,0.953000,0.190112,0.390633
4745333770,-112.445580,-41.792057,-49.721062,0.997125,0.099599,0.496130
4745353815,-119.455856,-50.529972,-73.588120,1.136056,-0.255184,0.361413
4745373859,-79.418991,-28.880760,-75.804893,1.195889,-0.402155,0.207468
4745393904,-29.362743,-20.036240,-70.178589,1.089697,-0.146157,0.352435
4745413949,-36.668064,-0.334372,-65.402618,0.890765,0.077941,0.370346
4745433993,-37.351547,-16.529476,-45.483082,0.771545,0.093002,0.352872
4745454038,-36.719624,-42.147224,-34.980934,0.791897,0.031680,0.186460
4745474081,-18.733255,-19.873547,-26.173161,0.736157,-0.067556,0.102837
4745494126,12.942362,-7.828808,-21.323153,0.699906,-0.012661,0.055049
4745514171,46.683216,-13.522868,-26.642630,0.818137,0.288987,-0.030429
4745534216,19.021593,9.903082,-44.553764,0.857605,0.422229,-0.205682
4745554260,-53.663422,18.299911,-53.214935,1.095478,0.365271,-0.226690
4745574305,-74.251289,-106.878571,-31.066608,1.809260,0.148621,-0.203118
4745594349,-21.365829,-186.441086,23.119659,2.130741,0.232529,-0.062620
4745614394,-45.470913,-52.715614,41.736221,2.459471,0.284488,0.600700
4745634439,-29.161020,152.447495,33.776047,1.478728,0.018881,-0.396384
4745654484,16.961975,134.580719,9.624513,0.556344,0.018768,0.507872
4745674528,-17.637302,-12.369492,14.409245,0.576790,0.058510,0.561500
4745694574,-40.736851,-47.754314,12.791415,0.919812,-0.082237,0.179867
4745714619,-28.499947,35.114082,-1.885990,0.977901,-0.012319,0.536427
4745734664,-46.747093,57.807659,9.058058,0.754715,0.026251,0.641638
4745754708,-54.185047,53.978973,16.234194,0.830110,-0.027305,0.540661
4745774753,-35.228355,85.556725,11.868933,0.636859,0.141696,0.390271
4745794797,-25.904230,117.707336,-4.696092,0.218915,0.046029,0.377264
4745814842,-57.593513,72.689102,-13.301115,-0.039319,-0.296692,0.593618
4745834887,-52.539726,-25.110538,-6.908977,0.282858,-0.648781,0.655052
4745854930,27.328487,-41.692120,1.308706,0.972713,-0.449264,0.440393
4745874975,34.741638,6.574424,20.198647,1.186120,0.027489,0.472249
4745895020,-6.355938,59.802845,27.418928,0.884240,0.167182,0.668461
4745915064,-6.863788,42.566113,30.090286,0.658661,-0.104784,0.765656
4745935109,-2.846097,-17.264404,25.727909,0.765825,-0.386975,0.769132
4745955154,20.308836,-26.265549,15.258950,0.871149,-0.294187,0.682552
4745975199,12.400532,4.743953,14.002776,0.629893,-0.142639,0.615899
4745995243,40.469845,-22.530107,11.070763,0.447498,-0.092928,0.444267
4746015288,52.130657,-99.429512,9.507547,0.784364,-0.031095,0.351622
4746035332,23.944458,-111.029350,20.331673,1.107313,0.001171,0.288891
4746055377,22.863632,-57.805599,26.437605,1.182378,-0.012195,0.185213
4746075423,67.535698,-25.445120,20.434580,1.072588,0.203193,0.191920
4746095468,44.122581,-21.093536,1.305216,1.041993,0.604724,0.346435
4746115512,-44.971912,-48.558495,-8.841788,1.005644,0.578020,0.222569
4746135557,-90.535751,-95.434059,-16.424482,1.038308,0.212836,0.181119
4746155602,-82.761856,-91.088753,-23.474171,1.130698,-0.032989,0.065283
4746175646,-53.703316,-46.105858,-30.854984,1.095279,-0.078914,0.020610
4746195691,-68.686020,-22.979422,-31.333347,0.956695,-0.091262,0.092899
4746215754,-86.208626,-64.308327,-23.046438,1.015309,-0.209545,0.132907
4746235779,-64.331825,-100.449188,-30.722115,1.334445,-0.207443,-0.010997
4746255824,-33.093296,-53.288399,-41.664215,1.577427,-0.134559,0.031419
4746275868,-40.487686,43.588997,-41.356285,1.265766,0.020961,0.165154
4746295913,-36.361610,58.324238,-39.024944,0.831572,0.052387,0.269702
4746315958,-24.008324,22.781551,-36.290138,0.660211,0.154616,0.271977
4746336002,-15.485399,1.247396,-39.885250,0.638792,0.228462,0.315732
4746356047,-22.468626,-13.942043,-43.603642,0.752784,0.186619,0.337850
4746396137,-28.835836,-10.413220,-34.294312,0.865078,0.010417,0.434356
4746416181,-19.221895,-10.543529,-35.167820,0.904010,0.000908,0.473139
4746436226,-2.531910,-13.199987,-45.364662,1.004905,-0.050379,0.473298
4746456272,-4.750891,0.864801,-41.856529,1.008914,0.043389,0.237749
4746476317,-15.345397,13.667300,-5.120546,0.873606,0.199690,0.265516
4746496361,-14.864982,-7.323731,17.270552,0.748944,0.272911,0.298962
4746516406,-28.875458,-40.755405,15.703081,0.977627,0.139272,0.245197
4746536450,-60.853073,-39.714958,3.148538,1.089111,-0.254072,0.141916
4746556496,-22.252731,-12.526949,10.353756,0.936689,-0.450001,0.302476
4746576540,60.287155,6.100445,12.499212,0.840777,0.092651,0.221730
4746596583,53.647713,1.017249,20.333204,0.742332,0.537866,0.326407
4746616628,-4.183584,-18.231857,18.372185,0.675169,0.517966,0.121959
4746636673,-43.389824,-57.899410,11.770022,0.824752,0.351140,0.030197
4746656717,-59.910130,-75.514481,4.386464,1.057003,0.278918,-0.095428
4746676762,-78.906845,-56.606533,-3.980162,1.280339,0.063936,-0.150837
4746696806,-69.635887,-41.602428,-2.351313,1.434064,-0.081200,-0.272518
4746716851,-30.266077,-34.751366,-4.937516,1.556113,-0.193750,-0.291274
4746736896,-1.999304,-32.062950,-6.314764,1.470307,-0.109562,-0.161583
4746756941,30.268482,-20.339785,-5.521925,1.239107,0.049988,0.052553
4746776985,28.279591,-11.201846,-5.111545,1.088020,0.203688,0.128843
4746797030,0.347229,-8.197071,-2.500461,0.954804,0.179477,0.123154
4746817075,-5.415297,-25.771362,0.028665,0.968862,0.076710,0.086321
4746837121,5.345170,-25.842047,-1.265080,1.067414,0.082070,-0.039100
4746857165,-2.312279,1.693568,-2.862718,1.066782,0.125232,0.178136
4746877210,-25.311598,36.220222,-3.678926,0.829556,0.049073,0.173572
4746897255,-21.691772,50.276352,-8.176672,0.629038,-0.021221,0.173507
4746917299,-15.295628,25.683653,-5.795080,0.581702,-0.021212,0.240170
4746937344,-15.543806,-0.163794,-0.687337,0.743840,-0.006443,0.223205
4746957389,-14.587055,6.265838,-0.091287,0.881541,-0.057766,0.256591
4746977432,0.925375,16.132441,-2.093653,0.909881,-0.067374,0.272537
4746997477,13.009344,9.373522,-0.023934,0.959956,0.028685,0.233598
4747017521,3.317636,-0.772029,1.324602,1.104209,0.035231,0.214932
4747037566,1.725993,-4.021566,6.169878,1.227829,0.028400,0.119476
4747057611,10.712884,10.474218,9.309809,1.202004,0.100334,0.079453
4747077655,1.905499,9.645528,8.821984,1.102465,0.108680,0.119354
4747097700,-2.277782,0.916719,10.545954,1.067242,0.048261,0.062692
4747117745,3.522689,4.544005,8.692516,0.997316,0.031656,0.079890
4747137790,5.174056,2.853975,5.923628,0.921114,0.052768,0.118127
4747157834,1.665820,0.416411,4.215859,0.889594,0.041046,0.146217
4747177879,1.425038,-0.595559,1.369420,0.917481,0.050017,0.158546
4747197923,-1.868274,0.804456,-1.638736,0.941536,0.063580,0.192661
4747217969,-3.934283,4.331532,-4.810678,0.918815,0.063802,0.201415
4747238014,-3.680641,0.925462,-6.447336,0.922857,0.109653,0.196423
4747258059,-9.455414,-4.519478,-6.954047,0.925784,0.129882,0.226140
4747278104,-13.701982,-10.452972,-9.208984,0.953724,0.066558,0.213575
4747298148,-8.944250,-16.895470,-10.534483,0.999835,0.041162,0.188629
4747318193,-6.042904,-20.872625,-9.394987,1.053853,0.057068,0.155387
4747358280,-11.434555,-17.409651,-9.395014,1.025924,0.100422,0.104751
4747378325,-10.956336,-20.747036,-9.989752,1.004609,0.077998,0.086389
4747398370,-9.715888,-20.884750,-9.610599,1.027254,0.077364,0.070900
4747418415,-9.612636,-11.832045,-8.797174,0.997670,0.067606,0.072222
4747438459,-8.150117,-6.375956,-8.684034,0.946627,0.091030,0.091685
4747458504,-9.587336,-6.975075,-8.474373,0.933944,0.110119,0.095441
4747478549,-10.808831,-7.140898,-7.725877,0.945087,0.082037,0.105496
4747498593,-7.213134,-5.433364,-6.658025,0.961167,0.061450,0.115798
4747518638,-3.975477,-4.439917,-5.434388,0.962626,0.076730,0.126335
4747538682,-5.032721,-6.893553,-4.380255,0.976424,0.072880,0.126832
4747558727,-3.476215,-9.372433,-3.734672,0.996702,0.073972,0.118139
4747578773,-0.662657,-9.785149,-3.397794,1.011252,0.096146,0.113328
4747598818,-0.801216,-11.411430,-3.067607,1.010651,0.103014,0.103799
4747618863,0.519023,-13.479824,-2.771042,1.006821,0.068817,0.094675
4747638908,3.440713,-13.216117,-2.313740,1.005353,0.088830,0.073104
4747658952,4.004116,-12.099448,-2.639084,1.001401,0.114938,0.057200
4747678997,2.813985,-11.832939,-3.841520,0.996556,0.136427,0.043513
4747699042,0.289083,-10.675796,-4.600322,0.984635,0.137321,0.041597
4747719086,0.967053,-9.794734,-4.674917,0.990971,0.147546,0.044108
4747739129,-0.733886,-7.976844,-4.998799,1.003833,0.161685,0.046635
4747759174,-3.414554,-6.439152,-4.918754,0.999445,0.135693,0.048820
4747799263,-3.695850,-4.371066,-3.912937,1.005421,0.151823,0.047729
4747819308,-4.548299,-5.441907,-3.646367,1.001193,0.133110,0.060781
4747839353,-4.363285,-4.917431,-3.229275,1.002409,0.123457,0.064785
4747859397,-3.213594,-4.523075,-2.979440,0.989119,0.110956,0.060876
4747879442,-1.702915,-5.938072,-2.898266,0.989973,0.123250,0.048308
4747899487,-1.684721,-5.413400,-2.365621,0.986305,0.121380,0.046840
4747919531,-0.596386,-5.839752,-1.863136,0.984074,0.125353,0.049522
4747939576,-0.356473,-5.763468,-0.790868,0.986174,0.130659,0.043849
4747959621,-0.846029,-5.002593,0.057797,0.982567,0.126597,0.042035
4747979667,-0.392982,-4.782080,1.128295,0.978486,0.129533,0.048627
4747999712,-0.963572,-5.351562,1.300811,0.981080,0.131655,0.044987
4748019756,-1.360810,-5.632608,0.938444,0.982907,0.144192,0.042711
