Timestamp (us),Gyroscope X (deg/s),Gyroscope Y (deg/s),Gyroscope Z (deg/s),Accelerometer X (g),Accelerometer Y (g),Accelerometer Z (g)
675977414,0.048372,-26.479624,2.227791,1.213306,0.059926,0.127556
675997459,-1.750046,-16.561615,0.517983,1.339455,0.141540,0.132895
676017504,-4.756196,-3.114682,-0.874479,1.191832,0.060491,0.156334
676037547,-4.517818,4.658299,-1.073095,1.055358,-0.004095,0.064360
676057592,-4.335030,6.647164,-1.182602,1.015399,-0.032185,-0.046568
676077636,-3.961459,8.354079,-1.302514,1.026870,-0.083304,-0.051762
676097682,-1.900017,7.684650,-1.019345,0.975431,-0.133367,0.027085
676117726,0.347797,6.260240,-0.974163,1.058932,-0.032355,-0.024253
676137771,0.581500,4.569149,-0.675052,0.951759,-0.000224,-0.028652
676157816,0.406852,0.912489,-0.055814,0.969383,-0.017522,-0.102907
676177860,0.666426,-1.418322,0.428320,1.005783,-0.026753,-0.105872
676197905,1.950541,-1.814287,0.420004,1.023363,-0.020205,-0.069237
676217951,2.892704,-0.899372,0.482732,1.062197,-0.012049,-0.068006
676237995,4.271516,0.526331,0.573494,1.067991,-0.029415,-0.066987
676258041,6.256158,3.293610,0.716807,1.097945,-0.052927,-0.063918
676278086,7.397303,5.990770,0.303612,1.104763,-0.015817,-0.073083
676298131,7.397763,8.367382,-0.178079,1.078623,0.007782,-0.082208
676318176,6.688991,9.669575,-0.520168,1.079073,-0.010076,-0.098254
676338221,6.713303,10.157461,-0.461132,1.016838,-0.024007,-0.105612
676358265,7.276706,9.212380,-0.560616,0.993910,-0.022156,-0.120111
676378310,7.948516,7.109214,-0.543725,1.014297,-0.025317,-0.124266
676398353,8.035070,4.465299,-0.315001,0.958459,0.046963,-0.101829
676418398,5.977215,2.154650,-0.718223,1.054593,0.110622,-0.090774
676438443,2.381061,3.554502,-1.333192,1.158315,0.171456,-0.035817
676458488,-3.226687,7.794123,-2.934894,1.123498,0.202269,0.081919
676478532,-8.466344,13.292331,-4.097085,1.131695,0.148391,0.218307
676498577,-12.770920,20.680927,-5.199656,1.086936,0.050021,0.343417
676518622,-10.091634,26.558336,-4.805085,0.921881,-0.228733,0.316465
676538667,-4.842535,29.974171,-4.704350,1.163203,-0.127606,0.147512
676558712,-0.199268,37.185532,-4.413461,0.358380,-0.029470,0.702559
676578757,1.661743,-0.596868,-0.373156,1.106223,0.050201,0.013566
676598802,1.080482,3.684590,-0.956881,0.580543,0.037506,0.007663
676618847,0.015828,-6.959562,0.161376,1.016288,0.044884,-0.038269
676638892,0.772829,-5.479023,0.959393,0.911008,-0.086055,0.344555
676658938,2.911774,-1.888528,1.150461,1.073950,0.057352,0.488870
676678982,1.913091,3.252336,-0.138680,1.062252,0.163672,0.587477
676699027,0.396928,7.840069,-0.002271,0.907056,0.042219,0.662311
676719072,1.291005,7.520190,-0.018555,0.760635,0.172833,0.563465
676739117,-1.737166,2.920297,-1.572110,0.759431,0.081333,0.522878
676759160,-3.776386,0.406322,-0.935780,0.736557,0.158197,0.433271
676779205,-6.030034,-6.084578,0.245212,0.781202,-0.032716,-0.206790
676799249,-7.475667,-13.711010,1.330249,0.823105,-0.182745,-0.251283
676819294,0.407884,-16.920944,-0.218065,1.292509,0.036626,0.107181
676839339,1.984037,-10.158168,0.875054,1.006828,-0.112477,0.449991
676859384,3.152888,-14.566189,2.670430,1.046466,0.042857,0.182263
676879429,0.685667,-9.303861,1.348249,1.139779,0.088566,-0.132949
676899474,-2.131465,-4.719603,0.149736,1.289697,0.005885,-0.146443
676919518,-2.558851,4.402918,0.295770,1.319455,-0.009680,-0.124140
676939563,-4.052387,13.294123,-0.583616,1.330499,0.093135,-0.176605
676959608,-6.832543,24.591743,-2.087931,1.396480,0.141872,-0.089212
676979654,-7.134560,16.079248,-2.000240,0.335722,-0.017992,0.105067
676999699,-5.429167,4.850355,-0.314829,0.994365,-0.099837,-0.115270
677019744,-2.898516,1.401978,1.068856,0.989383,-0.050918,-0.124616
677039789,-1.300367,0.236515,1.118140,1.005325,-0.054534,0.135377
677059834,1.011099,2.619635,-0.103789,1.012701,-0.122149,0.324453
677079878,2.024344,5.019838,-0.391250,0.655610,0.037798,0.424866
677099923,-0.449930,-4.652626,-0.731317,0.728238,-0.018658,0.125427
677119966,-0.808439,-6.440415,0.649412,1.319332,-0.079512,-0.052398
677140011,0.497799,-1.045025,0.392142,1.238066,0.015944,0.134923
677160056,2.827227,3.557948,0.087091,1.215781,-0.023789,0.322188
677180101,6.529453,5.435735,0.956540,0.868403,0.076802,0.337930
677200146,6.706359,3.050754,1.098594,0.765365,0.072250,0.317999
677220191,6.520943,0.193822,1.516700,0.796270,0.045427,0.352012
677240236,6.333084,-1.498508,1.334943,0.932148,0.058032,0.423657
677260280,5.731704,1.062107,1.391578,0.949386,0.089562,0.492302
677280325,3.804790,2.797024,0.475652,1.018443,0.135063,0.495225
677300370,0.729517,5.354439,-0.550634,0.883142,0.174435,0.545034
677320415,-1.275984,1.871113,-0.553612,0.777771,-0.014574,0.443022
677340461,2.459689,-1.325863,0.653025,0.779355,-0.157015,0.401837
677360506,12.425873,-3.251351,3.881778,0.649707,-0.272735,0.091512
677380550,16.120638,-13.671097,2.652707,0.861648,0.192140,-0.238038
677400595,10.565763,-11.919111,6.185674,1.449765,0.012432,0.186421
677420640,7.857169,-5.089923,0.331579,1.004779,0.174551,0.353779
677440685,3.043815,-5.323328,-1.156025,1.172682,0.108635,0.131799
677460730,2.914183,4.387966,-0.207735,1.383279,0.028857,-0.093883
677480773,2.766519,14.974247,0.134317,1.208663,0.084581,0.027830
677500818,3.017293,11.591677,0.591558,0.837437,0.106104,0.004258
677540907,1.246180,3.429186,0.607251,0.977275,0.023068,-0.151947
677560952,-1.097766,1.120030,0.874382,0.975355,0.121934,-0.058396
677580997,-4.383878,1.793603,-0.752857,1.132600,0.101477,0.025377
677601042,-7.901917,4.543482,-0.900066,1.043146,0.085091,0.197772
677621087,-9.698860,5.930874,-0.533593,0.975430,0.058609,0.301368
677641131,-10.790812,4.333155,-2.516787,0.614391,-0.089885,0.274727
677661176,-8.129481,-4.024577,-1.768817,0.779194,-0.109935,0.012146
677681221,-5.207413,-6.932606,-0.746033,1.158842,-0.141819,-0.017423
677701267,-3.143996,-2.832439,-0.944910,1.261783,-0.128182,0.099990
677721312,-1.675732,0.406629,-1.045315,1.043260,-0.057982,0.160970
677741357,-0.187648,0.019011,-0.767242,0.925970,0.000828,0.178850
677761402,-0.169615,-0.855975,-0.161004,0.972155,0.071006,0.161878
677781447,-2.133361,-0.789740,-0.940755,0.942680,0.148717,0.250850
677801491,-4.747685,-1.741915,-0.451293,0.949992,0.100170,0.262698
677821536,-6.274920,-1.301085,-0.782274,0.860273,0.064724,0.356607
677841579,-7.262914,-2.886596,-0.818956,0.941672,0.013589,0.388166
677861624,-7.040618,-2.626380,-0.373291,0.946381,0.023088,0.406043
677881669,-6.194211,-2.016823,-0.521648,0.961066,0.020810,0.443651
677901714,-5.045060,-1.359881,0.004051,1.007572,-0.091487,0.539450
677921759,-3.920670,2.517245,-0.955291,0.829381,0.105315,0.601167
677941804,-3.812609,0.277027,-0.820025,0.825320,-0.170117,0.518723
677961848,1.782588,-1.227533,0.413668,0.753603,-0.133929,0.515438
677981893,6.555528,-4.303632,1.049590,0.890498,-0.097642,0.394670
678001938,10.236177,-5.659672,0.837497,0.724531,0.033067,0.106341
678021983,10.775651,-14.189468,6.456610,1.035963,0.213853,-0.035617
678042028,5.036656,-10.967520,3.126233,0.975301,0.210872,0.391440
678062074,0.630581,-17.572144,1.552598,0.884645,0.167565,0.308635
678082118,-1.431405,-18.463961,1.717842,1.034237,0.024673,0.094175
678102163,-0.793912,-17.761353,2.276241,1.036818,-0.067277,-0.051233
678122208,0.919691,-14.751735,1.797408,1.248481,-0.068553,-0.020889
678142253,0.535967,-5.413459,-0.304710,1.445884,0.007103,0.003852
678182343,-4.166206,32.403709,-5.443859,1.707107,0.045309,0.044269
678202386,-4.921703,58.643169,-8.405024,1.665904,-0.013944,0.322122
678222431,-4.081938,46.983128,-8.489481,-1.208251,0.044567,1.221344
678242475,-1.062345,-2.237240,-0.857379,0.823972,-0.036518,-0.128083
678262520,-0.480972,-2.007446,-0.426221,1.092233,-0.065886,-0.655486
678282565,-0.223014,-5.366220,0.428156,1.055894,0.025608,-0.430254
678302610,0.262057,-7.283001,1.953416,1.143750,0.022690,-0.090969
678322655,-0.622029,-3.566129,1.132920,0.914419,0.062481,0.277619
678342700,-1.154426,-4.266978,1.313696,0.981615,0.100677,0.370637
678362745,-2.454175,-2.044165,0.391617,1.029415,0.045587,0.300650
678382789,-3.853369,-0.790159,-0.922661,0.983291,0.017657,0.182474
678402834,-4.274892,0.265849,-2.285817,0.957630,-0.046167,0.174030
678422880,-2.614850,-3.021609,-0.427287,0.882367,-0.070210,0.221287
678442925,-2.794269,-5.383431,-0.117926,0.859703,-0.036786,0.261651
678462970,-1.470259,-6.321206,-0.438512,0.950703,-0.018990,0.322343
678483015,-0.624640,-7.491934,0.702836,0.960880,0.039640,0.391154
678503060,-0.003383,-4.466242,0.703632,1.015622,0.075697,0.467775
678523104,-0.379487,-3.728351,0.173572,0.917432,0.104793,0.489190
678543149,-2.716019,-1.368253,-0.583658,1.012733,0.185298,0.510398
678563193,-6.326287,1.350066,-1.179818,1.017983,0.165311,0.521235
678583237,-8.520513,2.239093,-2.049533,0.898437,0.007085,0.502839
678603282,-6.630535,1.905483,-1.534912,0.872039,-0.213113,0.498934
678623327,0.261659,2.298370,-0.523739,0.883837,-0.211969,0.519247
678643372,3.842651,0.875670,0.099241,0.800573,0.162976,0.199419
678663417,-0.121925,-5.143315,-2.027453,0.757454,0.009509,0.029203
678683462,3.673198,-9.398418,2.933505,1.195999,-0.117046,0.124060
678703506,2.814381,-4.356291,1.771883,1.108975,0.132642,0.335279
678723552,1.903955,-0.542788,-0.087661,1.182916,0.052281,0.254903
678743596,1.531631,6.048013,-0.614356,1.212096,0.090518,0.142867
678763641,2.024573,14.186140,-1.124784,1.055890,0.003656,0.282748
678783687,2.422436,10.109403,-0.966103,0.724938,-0.017169,0.251298
678803732,2.824116,7.261027,-0.215552,0.830030,0.080323,0.250161
678823776,0.772614,1.133416,-0.132420,0.777551,0.140788,0.120055
678843821,-1.602538,-2.653182,0.575797,0.893899,0.061325,-0.002713
678863866,-2.587792,-5.945292,0.751063,1.007774,0.026278,-0.006412
678883911,-3.041354,-4.490247,0.563984,1.182308,-0.016977,0.135656
678903956,-1.275765,0.539567,0.352508,1.213692,-0.037318,0.234465
678923999,-0.150427,5.346497,-0.587023,1.011963,-0.044810,0.280219
678944044,0.676255,5.293496,-0.534114,0.883373,0.002338,0.245296
678964089,1.339216,1.130020,1.606489,0.732726,0.055477,0.169527
678984134,0.867675,-4.150674,1.931236,0.796890,0.100444,0.130776
679004178,0.463928,-8.180756,2.579086,0.931019,0.029986,0.201409
679024223,1.688746,-7.073303,3.468606,0.969489,0.009330,0.322429
679044268,2.216202,-6.986693,1.341402,1.077285,0.030545,0.295229
679064313,2.970445,-4.137826,0.667758,1.039695,-0.051975,0.321607
679084358,3.444370,-2.248865,0.170862,1.076852,-0.019601,0.283700
679104403,4.444596,-0.494115,0.879191,1.056291,-0.049218,0.271664
679124447,5.668659,1.595270,1.268763,1.008582,-0.060396,0.318066
679144494,8.070856,2.091415,1.327479,0.942528,0.008141,0.341047
679164538,11.680493,2.696472,2.195321,1.002561,-0.016343,0.335797
679184583,16.154419,2.769368,3.521934,0.910435,0.057443,0.313189
679204628,17.764633,2.579885,3.781694,0.863945,0.074429,0.285268
679224673,19.186071,1.089565,5.065762,0.950480,0.035337,0.279773
679244718,21.403923,2.028522,5.485729,0.968309,0.054143,0.354783
679264763,22.661125,2.515001,4.802550,0.933038,0.074562,0.355350
679284806,24.837397,1.885707,5.939199,0.904870,0.009505,0.320354
679304851,26.998539,0.470544,6.689045,0.882132,0.131517,0.245557
679324895,26.052662,-1.382155,6.453758,0.946995,0.090438,0.214381
679344940,27.153507,-1.144659,6.859527,1.036197,0.086893,0.246090
679364985,27.648594,1.026031,6.254302,1.027180,0.082311,0.286103
679385030,29.171751,2.367829,6.296694,0.956585,0.090107,0.277490
679405075,30.664286,1.433117,7.264233,0.926952,0.078455,0.245607
679425120,33.032150,0.735349,8.427959,0.909441,0.064372,0.270439
679445165,35.887009,-0.145480,9.468223,0.998887,0.055620,0.237065
679465209,39.568249,0.795253,10.478746,0.954760,0.057394,0.299906
679485254,43.032726,2.330959,11.743661,1.027443,0.124818,0.351297
679505300,47.790394,4.142469,13.479260,0.967753,0.054301,0.393282
679525345,52.980885,4.540969,13.828062,0.950746,-0.001111,0.350000
679545390,59.225163,4.400517,14.968203,0.876417,-0.001186,0.317226
679565435,65.155960,3.016875,15.728852,0.942999,0.029627,0.245868
679585479,70.694962,3.410408,17.171278,0.990607,0.036820,0.261929
679605524,76.297142,4.824353,18.265213,0.992972,0.110387,0.295082
679625569,80.041740,5.636834,19.825117,1.028593,0.147070,0.277801
679645613,82.294640,6.798361,20.908470,0.994422,0.202402,0.266128
679665657,83.725670,6.198884,21.845520,0.890234,0.127316,0.229267
679685702,86.942444,3.540961,22.242794,0.889605,0.102632,0.160237
679705747,90.494499,1.607905,22.975019,0.890556,0.122033,0.173170
679725792,93.978592,0.255077,24.157475,0.956979,0.207439,0.159913
679745837,95.852180,0.142309,24.602905,0.998333,0.369692,0.154037
679765881,95.957375,0.506883,24.064747,0.942850,0.338577,0.198698
679785926,97.012634,-0.100460,24.940344,0.946494,0.277359,0.199282
679805971,98.183746,0.181971,25.000734,1.007073,0.302336,0.177511
679826016,99.654427,-0.266887,25.164728,0.950383,0.288177,0.139557
679846060,99.520752,-0.677909,25.397930,0.952007,0.399389,0.111295
679866107,97.180389,-2.341846,24.570120,0.937885,0.367795,0.159882
679886151,98.479286,-2.181589,24.513817,1.029721,0.243784,0.178493
679906196,101.052673,-0.480998,24.695107,1.028522,0.217669,0.176287
679926241,104.282875,1.067266,24.841230,1.016013,0.165800,0.178220
679946286,108.762177,1.864794,26.440422,0.984139,0.167440,0.154251
679966331,112.044495,1.906047,27.408190,0.999701,0.253899,0.161377
679986375,113.729668,1.291634,28.447336,1.016769,0.249985,0.145842
680006419,115.210754,2.131964,29.141739,1.039786,0.281590,0.147757
680026464,116.222046,2.788840,29.654829,1.025607,0.281865,0.161252
680046509,117.797180,4.192404,30.032227,1.023880,0.296776,0.157716
680066554,118.736832,5.176569,30.377506,1.012249,0.292165,0.131506
680086598,120.431824,5.954978,30.640041,0.982196,0.302146,0.141806
680106643,122.130585,5.880401,31.142231,0.957486,0.255696,0.131502
680126688,124.526718,5.951993,32.150017,1.031510,0.269421,0.114876
680146733,126.052948,5.686298,32.419304,0.942260,0.317800,0.127119
680166777,127.073624,4.116280,32.259537,0.930794,0.276934,0.073461
680186822,128.380447,2.630584,32.277332,0.929994,0.290309,0.075450
680206867,129.560196,2.265420,32.416126,0.942219,0.283255,0.088779
680226913,130.268051,1.406080,33.115906,0.998094,0.326078,0.080311
680246958,129.788498,0.879432,32.828949,0.996270,0.346669,0.047719
680267003,128.222961,0.923985,32.507671,1.002018,0.358587,0.043244
680287048,127.349709,-0.257611,32.459774,1.012815,0.345239,0.048256
680307092,126.960899,0.275856,32.503754,1.028435,0.321029,0.080801
680327137,127.113953,0.732142,32.071342,0.978403,0.276178,0.069564
680347194,127.256454,-0.031205,31.520937,0.974174,0.320469,0.066022
680367225,126.284538,-1.669953,31.529968,0.997484,0.350685,0.054228
680387270,124.440483,-1.945951,31.039410,0.969647,0.359307,0.065672
680407315,121.577606,-3.237958,29.632103,0.977745,0.375801,0.074766
680427360,119.309952,-3.256372,28.537592,1.020932,0.328338,0.104882
680447405,117.656532,-3.098026,28.003681,0.973655,0.270268,0.127662
680467450,117.370995,-3.540424,27.873148,0.978513,0.249334,0.117537
680487494,117.471657,-4.121362,27.116625,0.949647,0.245877,0.141547
680507539,117.901939,-4.997313,27.264023,0.993395,0.256008,0.175915
680527584,118.085594,-5.073444,27.275995,1.004432,0.278020,0.268827
680547629,118.058327,-4.243398,27.006310,0.954213,0.375768,0.232121
680567675,109.388344,-5.304211,24.106211,0.872893,0.613450,0.075342
680587720,99.497246,-10.124546,23.580608,0.806403,0.288541,-0.104812
680607765,94.310814,-20.353743,23.379078,1.090529,0.382027,0.107872
680647854,86.668358,-14.811028,18.717731,1.109028,0.217375,0.148862
680667899,86.519402,-11.381405,18.816183,1.124844,0.149573,0.067640
680687944,84.728073,-6.371955,16.824564,1.042845,0.214165,-0.019304
680707987,79.706650,-3.665169,14.719891,1.047680,0.316930,-0.042433
680728032,73.800652,0.184735,12.704996,1.090136,0.348381,0.011983
680748077,67.833229,4.242322,11.515875,1.066947,0.328344,0.069693
680768122,61.985756,7.819550,10.211403,1.116931,0.341918,0.091058
680788167,55.598900,11.466660,9.520840,1.054749,0.402656,0.125151
680808212,48.668774,13.854232,8.004453,0.999079,0.389236,0.092898
680828256,43.595631,14.317206,7.772768,1.009234,0.229369,0.015830
680848301,40.337528,15.977445,7.662350,1.073657,0.222733,0.016830
680868346,37.667065,20.311443,6.973803,1.380614,0.123700,-0.011115
680888391,35.413654,30.596584,5.882918,1.378941,0.052742,0.094787
680908436,36.567791,42.598873,5.438492,1.342767,-0.025236,0.221078
680928482,41.894997,38.042400,8.452720,-0.009846,-0.141707,0.762311
680948527,48.276161,15.424877,11.613607,0.884106,-0.092110,0.025668
680968571,54.207909,7.289740,12.664166,0.613322,0.134400,-0.327299
680988616,51.739033,-4.228127,11.841086,0.907018,0.201913,-0.253443
681008661,48.465042,-6.657115,13.112410,0.989411,0.347327,0.013249
681028706,41.910080,-4.925717,11.224137,1.071670,0.347751,0.239606
681048750,34.110909,-2.321020,8.149752,0.968437,0.355835,0.370529
681068794,27.787964,-1.646460,7.292090,0.949050,0.316697,0.323175
681088839,22.099909,-0.819286,6.444528,0.862835,0.153765,0.342890
681108884,19.441616,-4.067923,5.849761,0.874764,0.104433,0.318440
681128928,19.583834,-5.591356,6.157731,0.930702,0.024257,0.359195
681148973,20.365606,-5.430875,6.256649,0.919147,0.106034,0.468734
681169018,21.340090,-5.208184,6.863597,0.947023,0.092514,0.517392
681189063,22.209040,-4.796802,6.700179,0.935945,0.105193,0.545973
681209108,23.795551,-2.730771,6.838269,1.013581,-0.035063,0.546788
681229152,28.273281,0.288714,7.001139,0.932791,0.022119,0.227173
681249197,24.799681,-0.734640,6.483557,0.798655,0.186272,-0.003293
681269242,26.104691,-7.060162,9.535873,0.864192,-0.499112,0.151140
681289288,35.396564,-9.965393,11.023439,1.089189,0.217994,0.415358
681309333,34.649174,-11.800179,8.652276,0.962401,0.017520,0.329799
681329378,35.517239,-13.293002,8.930777,0.921915,0.087022,0.206554
681349423,36.387199,-14.617933,9.308022,0.929803,0.048086,-0.008023
681369468,36.604488,-15.366236,8.664414,0.983898,0.084088,-0.014452
681389512,35.455635,-15.504957,8.136984,1.213361,0.107573,-0.041552
681409557,35.030609,-7.275692,7.598216,1.195156,0.091411,0.043481
681429601,34.143818,-1.755136,5.717247,1.115059,0.132337,0.051405
681449646,32.466255,4.430732,4.903928,1.179765,0.108857,-0.059954
681469690,31.783234,11.600954,4.511238,1.129954,0.020833,-0.100988
681489735,31.167463,15.952462,4.554548,1.217015,0.133117,-0.108015
681509780,28.756104,24.842388,3.234488,1.424960,0.161951,-0.127858
681529825,26.657473,36.545197,2.197012,1.447945,0.126503,-0.024886
681549870,25.701569,52.048332,-0.052074,0.586076,0.168605,0.684550
681569914,21.360802,6.583844,4.630840,0.331183,0.271208,0.056371
681589959,13.572515,4.237731,2.757151,0.962964,0.343863,-0.281230
681610004,4.994639,2.974217,1.154988,1.063693,0.153141,-0.182322
681630049,6.528661,5.295806,3.035496,0.949490,-0.160534,0.015680
681650095,12.572720,0.772430,3.827325,0.804902,-0.158912,0.127984
681670140,17.999233,-3.818473,5.143339,0.883486,-0.063814,0.028446
681690185,19.633404,-5.713781,5.943216,1.069034,0.028299,-0.046766
681710229,17.357046,-4.565428,5.173569,1.111359,0.134849,0.034489
681730274,15.370268,-1.421588,3.856760,1.068866,0.076572,0.195169
681750319,15.994872,-2.167528,4.175705,0.972622,0.133438,0.176018
681790407,10.298960,-6.026891,3.481443,0.937829,0.092838,0.242039
681810452,8.596233,-6.020419,3.185880,1.007787,0.109947,0.291108
681830497,7.283258,-4.772744,2.412492,0.961868,0.069284,0.382373
681850542,9.320533,-2.590349,3.374367,1.007307,0.009945,0.434438
681870587,10.566963,-1.956516,3.783633,0.868251,0.113194,0.443900
681890631,9.948489,-3.123475,3.448012,0.885525,0.077638,0.437401
681910676,10.269451,-5.887609,4.383243,0.778519,0.109159,0.500176
681930721,8.810469,-11.041152,3.794471,0.704636,0.134942,0.531621
681950766,8.041801,-16.193232,3.750124,0.795523,0.016138,0.563221
681970811,10.839950,-18.919605,4.255089,0.806489,0.042260,0.613735
681990855,9.905005,-21.153883,3.791617,0.816555,0.053959,0.323783
682010902,10.047121,-31.522556,5.252330,0.692951,-0.080329,0.003400
682030947,10.049311,-32.749149,5.416842,1.278875,0.012034,-0.002568
682050992,10.045727,-30.141476,5.973697,1.241915,0.075892,0.494145
682071036,9.458855,-18.526329,3.126720,1.344389,0.069110,0.327830
682091081,9.948599,-0.331758,1.237978,1.389570,0.072756,0.190161
682111126,9.147800,14.136333,-0.429921,1.076514,0.050262,0.177653
682131171,9.067540,16.217161,-0.290103,0.940041,0.083854,0.096681
682151214,6.933513,12.063399,-0.189017,0.892969,0.110969,0.087000
682171259,4.690016,10.240124,-0.727805,0.978816,0.056967,0.087713
682191304,3.891277,10.993860,-0.951701,1.041370,0.049332,0.091289
682211349,2.884663,14.506910,-0.928581,1.149897,-0.009382,0.083454
682231393,2.558455,23.016096,-2.356607,1.169380,0.070476,0.162783
682251438,1.798301,23.213604,-2.541192,1.092938,0.004404,0.159294
682271483,3.038074,23.161732,-2.053099,1.146222,-0.055833,0.055180
682291528,4.486103,29.167330,-2.101191,1.220256,-0.035423,0.063779
682311573,5.681906,40.689987,-2.338509,0.678636,-0.008988,0.650859
682331617,7.395649,12.195491,0.840813,0.800098,0.095245,0.276882
682351662,6.652806,17.590336,0.585099,0.757464,0.154820,0.097044
682371708,3.592133,6.828310,0.412867,0.767748,0.134793,-0.022833
682391753,0.920860,3.138982,0.385286,1.031405,0.069321,-0.175278
682411798,-0.612943,3.290378,0.124169,0.982802,0.011730,-0.033467
682431843,-1.768271,0.865706,-0.257979,0.862892,-0.017846,0.165159
682451888,-0.478265,-0.314387,0.087708,1.069719,-0.114861,0.126663
682471933,1.790296,0.563256,0.354066,0.946658,-0.035490,0.149781
682491977,3.437151,-0.105513,0.966219,0.927364,-0.039773,0.109539
682512021,5.271643,-2.207310,1.434314,0.847149,0.037949,0.142641
682532066,5.231514,-4.742163,2.689088,0.974445,0.075599,0.133327
682552110,4.616246,-3.211107,2.436120,1.013654,0.123674,0.176424
682572155,2.242387,-3.653201,2.674691,0.972391,0.121798,0.231053
682592200,-0.472363,-3.168270,1.785856,1.025728,0.136717,0.289941
682612245,-2.648771,-1.442658,0.179430,1.032810,0.010349,0.279863
682632290,-3.187614,-0.714696,-1.317903,0.986976,0.005709,0.266037
682652334,-3.045742,-1.263764,-1.486940,0.982265,-0.122704,0.240731
682672379,-0.865282,0.627834,-1.054136,1.027373,-0.094071,0.241730
682692424,0.201074,-0.186792,-0.827590,0.906837,-0.003284,0.288116
682712469,1.680582,-0.621248,-1.022964,0.899340,-0.030508,0.281208
682732515,2.534067,-2.707378,-0.260793,0.940269,0.030798,0.241646
682752560,2.724330,-2.484468,0.529484,0.956696,0.109602,0.240872
682772605,1.535665,-3.649174,1.221232,0.944701,0.101394,0.238821
682792650,0.727688,-2.072650,0.880155,0.971469,0.087035,0.277060
682812695,-0.064925,-3.339489,0.219664,0.984783,-0.014541,0.289075
682832739,1.132405,-2.075585,-0.419093,0.971766,-0.036928,0.294962
682852784,1.801240,-2.639830,-0.621229,0.937819,-0.038226,0.257689
682872828,3.131953,-2.744132,0.247346,0.968923,-0.021023,0.236977
682892872,4.000243,-3.955966,0.104628,0.926519,0.022437,0.257962
682912917,4.685071,-3.221683,1.166339,1.047791,0.035778,0.242619
682932962,5.113107,-1.894656,1.535688,1.009829,0.074512,0.315007
682953007,4.693770,-0.561055,1.554668,0.993081,0.066569,0.312764
682973052,4.161036,-0.616203,0.846892,0.902753,0.114955,0.277368
682993096,2.943860,-1.895945,1.233919,0.910614,0.073056,0.241083
683013142,2.295498,-3.206616,1.365486,0.955018,0.081062,0.256744
683033186,0.890275,-3.389670,1.462135,0.968981,0.086922,0.266209
683053231,0.599547,-2.100943,1.830276,1.028165,0.090209,0.275815
683073276,-0.075370,-1.324119,1.687957,0.968820,-0.003965,0.315201
683093322,0.846197,0.084432,1.015862,0.977643,0.002751,0.299062
683113367,1.532844,-0.403278,0.950672,0.938304,-0.038444,0.288364
683133412,2.900196,-0.714517,1.314889,0.937112,-0.017455,0.274823
683153457,4.061161,-2.124126,1.297055,0.948159,-0.015819,0.264919
683173501,5.252885,-2.145810,1.663717,0.992175,0.003376,0.280113
683193546,5.635159,-1.231270,1.630330,0.987667,0.051803,0.300807
683213591,5.624317,-0.217191,1.841125,1.004220,0.041531,0.291555
683233634,5.782035,0.581625,1.231730,0.939531,0.055802,0.286552
683253679,5.431581,0.054899,0.896419,0.962903,0.066594,0.247737
683273724,4.678607,-0.075325,0.697503,0.943403,0.059672,0.259519
683293769,4.120903,-0.593599,0.740616,0.941251,0.043361,0.246057
683313814,3.869872,-0.669703,0.814513,0.992211,0.014121,0.234071
683333858,3.990720,-0.167914,0.290879,0.959982,0.020703,0.279000
683353903,4.135603,0.441702,0.247831,1.009171,-0.012017,0.255158
683373948,4.660269,0.990130,0.067712,0.976621,0.037981,0.261439
683393993,4.197331,0.975214,0.260140,0.978197,0.061161,0.249482
683414038,4.082048,1.174227,0.643787,0.958666,0.063053,0.255350
683434083,3.592391,0.564428,0.647677,0.962207,0.056679,0.248945
683454129,3.710698,0.930705,0.835198,0.977619,0.045872,0.246976
683474174,3.036268,1.357057,0.732244,0.971449,0.069812,0.260385
683494219,2.531216,1.996975,0.686423,0.984293,0.053914,0.262372
683514263,2.107076,2.171660,0.480111,0.951729,0.041878,0.273749
683534308,1.660044,1.827170,-0.129025,0.952621,0.026104,0.252155
683554353,1.964069,1.363168,0.210485,0.946590,0.003531,0.250662
683574398,2.277029,0.883103,0.198369,0.952627,0.017313,0.271415
683594469,2.698537,0.792891,0.679544,0.992799,0.012423,0.250676
683654576,3.320609,1.159191,0.819082,0.933693,0.074642,0.244409
683674621,2.056043,-0.007447,0.694675,0.883332,0.103034,0.239592
683694665,1.146550,-1.728847,1.199466,0.925587,0.069338,0.235569
683714710,0.654039,-2.506665,1.051141,0.968941,0.047977,0.261645
683734755,0.841376,-2.201303,1.252809,0.980429,0.010616,0.267956
683754800,1.072156,-1.301860,1.298826,0.986539,0.002410,0.252342
683774845,1.612785,-0.776201,1.156681,0.997367,-0.048386,0.276117
683794890,3.142408,-0.044182,1.155129,1.000387,-0.001850,0.250116
683814934,3.734907,0.655552,0.491779,0.983188,0.006718,0.273544
683834980,3.711176,0.357258,0.034745,0.992985,0.018445,0.260921
683855025,3.796649,1.348102,0.075637,1.006562,-0.002637,0.262721
683875070,5.117239,1.759675,-0.058339,0.954125,0.010768,0.272943
683895115,4.701443,1.713463,-0.218228,0.983854,0.065419,0.234854
683915160,4.214536,2.529024,-0.112157,0.987669,0.085151,0.278693
683935205,2.975580,3.009724,0.277073,0.948757,0.082629,0.273641
683955250,1.934408,2.948309,0.205784,0.954130,0.082775,0.248495
683975293,1.218622,2.231194,-0.030108,0.900770,0.052797,0.265250
683995338,0.931402,0.882749,0.201557,0.925600,0.054774,0.230509
684015383,0.259787,-0.031712,0.301690,0.928443,0.040628,0.254540
684035427,0.175249,-0.595696,0.297566,0.955048,-0.005044,0.282213
684055472,1.217505,-0.328392,0.421640,0.970103,-0.023734,0.246130
684075517,2.252573,-0.228678,0.576976,0.936694,-0.006477,0.258109
684095562,3.390509,-0.745733,0.946331,0.962226,-0.002151,0.265746
684115607,3.899695,-0.432572,1.187576,0.965815,0.050999,0.275310
684135651,4.081162,-0.981451,1.094185,0.961371,0.070721,0.268544
684155696,2.861720,-0.791755,0.880330,0.970352,0.097088,0.252280
684175741,2.009719,-0.815273,0.698263,1.008824,0.028232,0.278063
684195787,2.372249,0.258711,0.412561,0.973152,0.000361,0.288340
684215832,3.459737,0.632628,0.497195,0.988330,0.002855,0.245594
684235877,3.094940,1.028082,0.182016,0.943490,0.034396,0.267457
684255922,3.096650,0.747344,0.710177,0.982213,0.023170,0.266452
684275967,3.210319,1.304519,1.057624,0.963895,0.039268,0.279356
684296011,3.114618,0.990555,0.426285,0.959772,0.028235,0.268279
684316056,3.499166,0.343222,0.573808,0.920511,0.067805,0.247278
684336100,3.393103,-0.174862,0.646363,0.936655,0.012742,0.271785
684356144,4.538869,-1.088149,1.039810,0.942168,-0.002996,0.267723
684376189,5.148951,-1.568273,0.968439,0.969635,0.027487,0.248686
684396234,5.106646,-1.004909,0.722857,0.959090,0.035178,0.285890
684416279,5.117255,-1.018770,1.311089,0.988664,0.010091,0.273535
684436324,5.713661,-0.614729,1.298172,0.957096,0.033869,0.267226
684456368,5.659904,-0.576672,1.283805,0.977234,0.068103,0.266735
684476413,5.373585,-0.462888,1.090304,0.976539,0.078833,0.264459
684496458,4.733611,0.002077,1.200513,0.994916,0.067961,0.274422
684516503,4.324274,0.534859,0.954515,0.967808,0.006097,0.295957
684536548,5.117050,0.679546,0.816386,0.945282,0.039663,0.261063
684556594,5.206764,0.549760,0.708097,0.962254,0.001863,0.272365
684576639,5.915287,0.489649,0.992566,0.946207,0.027798,0.290116
684596684,6.054607,0.642313,1.081052,0.957013,0.040016,0.297174
684616728,5.861191,0.657208,0.954850,0.948830,0.049991,0.285223
684636773,5.190044,0.214276,0.640766,0.949783,0.087827,0.279970
684656818,4.424016,-0.006114,0.992587,0.949517,0.060905,0.283559
684676863,3.779637,-0.142736,1.303562,0.972808,0.088672,0.275491
684696906,2.745038,0.572987,1.145502,0.981904,0.075384,0.316389
684716951,2.179799,1.441626,1.145937,0.996702,0.080483,0.307051
684736996,0.947629,2.141222,0.632615,0.957380,0.053491,0.302955
684757041,0.735340,1.539392,0.753360,0.924118,0.018032,0.290327
684777086,0.619843,0.784843,0.735189,0.946516,0.034063,0.282657
684797130,0.174917,0.609266,0.660351,0.980339,0.036952,0.293967
684817175,-0.153979,1.774081,0.189085,0.975940,0.038442,0.317551
684837220,-0.086735,1.964404,0.095449,0.956892,0.020509,0.274968
684857265,0.122503,2.399183,0.235129,0.955490,0.015674,0.268100
684877310,0.265006,2.467445,0.079307,0.945045,0.042538,0.292381
684897355,-0.281045,2.344959,-0.093084,0.945168,0.040721,0.293925
684917401,-0.562471,1.857373,0.005698,0.947040,0.028750,0.261596
684937446,-0.697708,1.133715,0.163560,0.940179,0.014762,0.279619
684957490,0.022463,0.501609,0.266312,0.932319,-0.000262,0.278417
684977535,0.875841,0.045225,0.541647,0.961576,0.013488,0.261283
684997580,1.385046,0.152639,0.791218,0.981924,0.024913,0.275441
685017625,1.722295,0.838668,0.812956,0.974686,0.029839,0.289173
685037670,1.780062,1.196398,0.611966,0.950372,0.015601,0.282531
685057713,2.426129,0.777947,0.837708,0.954457,0.000211,0.270504
685077758,3.223473,0.953709,0.951556,0.942478,0.006959,0.289669
685097803,3.849464,0.359365,0.918463,0.948966,0.027059,0.281356
685117848,4.106985,0.451553,1.203535,0.967542,0.007446,0.286790
685137892,4.613298,0.566212,1.292667,0.939883,0.030226,0.279417
685157937,4.869099,0.307642,1.494884,0.934488,0.043973,0.289653
685177982,4.910336,-0.674981,1.696032,0.914595,0.059660,0.277076
685198027,4.740160,-1.695414,2.046597,0.918249,0.060533,0.252866
685218071,4.388652,-2.510858,2.086698,0.957529,0.042784,0.266477
685238116,4.567054,-1.917086,1.783243,0.974692,0.003737,0.292757
685258162,5.592446,-1.756675,1.823944,0.958872,-0.002492,0.281690
685278208,6.491799,-1.771054,2.089274,0.964579,0.004111,0.255256
685298252,7.187063,-1.663258,2.480421,0.964346,0.014148,0.272672
685318297,7.487120,-1.594352,2.581350,0.984953,0.033753,0.281639
685338342,8.054069,-1.167312,2.630059,0.976547,0.024989,0.271266
685358387,8.836876,-0.884770,2.782040,0.981989,0.018087,0.273636
685378432,9.640436,-0.312934,2.802751,0.980195,0.022935,0.290271
685398476,10.524046,-0.267405,2.617342,0.953688,0.005964,0.283398
685418520,11.467889,-0.746793,2.822225,0.950877,0.002752,0.269744
685438565,12.398317,-1.088774,3.126251,0.955193,0.022941,0.262465
685458610,13.077066,-0.822106,3.020495,0.984203,0.021320,0.299283
685478654,13.984643,0.169476,3.282317,1.004669,0.019092,0.309195
685498699,14.874612,0.962624,3.422878,0.974650,0.038496,0.297511
685518744,15.708857,1.008679,3.467668,0.952984,0.025518,0.281199
685538789,16.740156,1.131756,3.836961,0.956267,0.018360,0.295044
685558834,17.622400,1.063794,4.003462,0.954459,0.025456,0.296515
685578879,18.843307,1.262926,4.284767,0.965377,0.017734,0.293709
685598923,20.095383,1.294494,4.604231,0.958859,0.015339,0.282114
685618968,21.590481,1.493561,4.826725,0.955999,0.015350,0.290333
685639014,23.265478,1.632238,5.275173,0.947587,0.015328,0.285030
685659059,24.547821,1.137971,5.595801,0.936542,0.018761,0.280764
685679104,26.018936,0.224327,5.799541,0.937201,0.018184,0.262326
685699149,27.447632,0.012191,6.169880,0.948137,0.023401,0.271027
685719194,28.716518,0.059201,6.573022,0.958083,0.026161,0.280385
685739238,30.113932,0.060336,6.897409,0.966394,0.023972,0.270442
685759283,31.691406,0.283054,7.446809,0.968513,0.033431,0.267123
685779327,32.841187,0.489487,7.599564,0.973376,0.066392,0.280057
685799372,33.290260,0.688464,7.903487,0.962759,0.061908,0.273800
685819417,33.763840,0.742864,8.299114,0.965437,0.064354,0.265762
685839461,34.579792,0.698072,8.604372,0.954045,0.057616,0.271596
685859506,35.361893,0.957662,8.718236,0.973357,0.047648,0.277910
685879551,36.478924,1.217147,8.749187,0.959028,0.041069,0.273263
685899596,37.792671,0.966845,9.106601,0.948344,0.030583,0.267925
685919640,38.813019,0.617030,9.309568,0.950074,0.029658,0.257821
685939685,40.327190,0.443196,9.754536,0.969993,0.022781,0.262576
685959730,41.884945,0.863463,10.051492,0.972368,0.041908,0.273488
685979777,42.745819,1.115753,10.293757,0.969617,0.050447,0.268619
685999821,43.470058,1.078561,10.600769,0.946681,0.045772,0.267838
686019866,44.827446,0.576511,10.843553,0.952004,0.063308,0.250833
686039911,45.741001,0.104773,11.064281,0.958880,0.058399,0.247002
686059956,46.266167,0.197039,11.351799,0.973449,0.067540,0.259720
686080000,47.003834,0.517765,11.542737,0.972373,0.063710,0.255659
686100045,47.730804,0.579001,11.574275,0.954715,0.059133,0.253880
686120100,48.574074,0.389007,11.703732,0.955046,0.043018,0.246185
686140134,49.797077,0.161672,12.116322,0.962974,0.051406,0.250575
686160178,50.725849,0.048085,12.320280,0.955771,0.057683,0.256497
686180223,51.576466,-0.408658,12.442841,0.952422,0.057755,0.248384
686200268,52.178242,-0.491620,12.744740,0.965853,0.059578,0.238984
686220313,52.977333,-0.407075,12.958196,0.974054,0.053583,0.237583
686240358,53.924198,-0.048824,12.877499,0.980010,0.058606,0.243737
686260403,54.715309,0.660544,13.050822,0.989474,0.069725,0.247369
686280447,54.980053,0.973668,13.304452,0.974780,0.066321,0.238094
686300492,55.477577,1.027215,13.332828,0.965441,0.061037,0.241439
686320537,56.051731,0.692166,13.383932,0.958514,0.056826,0.232305
686340583,56.765457,0.464092,13.538954,0.958513,0.057363,0.227402
686360628,57.677025,0.136883,13.644619,0.966725,0.053644,0.226724
686380673,58.504810,0.320255,13.750210,0.967443,0.058847,0.236053
686400718,58.890594,0.389395,13.941171,0.977989,0.070768,0.229317
686420762,59.062943,0.496663,14.166714,0.972736,0.079945,0.227395
686440807,59.359966,0.328944,14.108019,0.967386,0.079842,0.224581
686460852,59.352051,-0.158796,14.109797,0.959352,0.071906,0.219466
686480924,59.789921,-0.394642,14.231989,0.960930,0.060538,0.220094
686500940,60.281826,-0.668509,14.383826,0.974228,0.060008,0.218052
686520985,60.853027,-0.386695,14.249541,0.988946,0.065871,0.228775
686541030,61.046844,0.299534,14.373400,0.984184,0.068592,0.228307
686561075,61.079479,0.528419,14.478986,0.983042,0.076857,0.221505
686581120,61.095718,0.505685,14.532235,0.972778,0.081107,0.215137
686601165,60.910294,0.398701,14.429211,0.978543,0.083672,0.220663
686621209,60.856857,0.520623,14.429841,0.983576,0.084317,0.221211
686641254,60.403229,0.901191,14.276907,0.981427,0.084500,0.223517
686661299,59.996460,1.206689,14.604723,0.988216,0.085687,0.220313
686681344,59.344036,1.465278,14.456051,0.975955,0.082764,0.223885
686701389,59.095345,1.518032,14.231458,0.967359,0.081750,0.223307
686721435,58.633568,1.258425,14.073171,0.970438,0.075284,0.216639
686741480,58.358643,1.189811,14.094016,0.968393,0.073557,0.219491
686761524,57.919090,1.135866,13.888763,0.970667,0.080019,0.219350
686781570,57.182068,0.960009,13.727898,0.969050,0.078481,0.225553
686801614,56.432205,0.974976,13.696549,0.975389,0.079395,0.222721
686821659,55.924416,0.928708,13.523162,0.979478,0.085040,0.221915
686841704,55.018646,1.164235,13.318353,0.975369,0.083124,0.221898
686861747,54.043201,1.292947,13.069401,0.974426,0.081945,0.225093
686881792,53.319756,1.261657,12.808450,0.969776,0.076480,0.225181
686901837,52.296513,1.138636,12.461925,0.968028,0.074020,0.224398
686921882,51.560230,0.825710,12.347349,0.971296,0.073560,0.218443
686941927,50.859818,0.733477,12.093796,0.973237,0.073291,0.219590
686961972,49.791428,0.877249,11.777824,0.978476,0.080680,0.226660
686982016,49.041794,1.044652,11.753607,0.979120,0.076769,0.226655
687002061,48.257538,1.127699,11.508738,0.974628,0.074578,0.225646
687022106,47.121521,1.149681,11.263256,0.974554,0.079120,0.222009
687042165,46.302143,1.088335,11.195305,0.973452,0.084676,0.226921
687062197,44.820900,1.041492,10.887980,0.977811,0.083324,0.230298
687082242,43.561409,1.162358,10.575793,0.968734,0.076037,0.232916
687102287,42.469452,1.168876,10.230169,0.976047,0.074402,0.228255
687122331,41.508846,1.236570,9.958209,0.971042,0.071585,0.233973
687142376,40.425117,1.304129,9.642789,0.968689,0.072493,0.235192
687162421,39.136501,1.059400,9.424082,0.962355,0.068213,0.238121
687182466,38.384369,0.715916,9.279349,0.961632,0.060827,0.228342
687202511,37.754192,0.509582,9.108871,0.969207,0.065568,0.228296
687222554,36.669861,0.485618,8.763201,0.970805,0.066857,0.235619
687242599,35.580070,0.660066,8.531599,0.975884,0.063040,0.233451
687262644,34.435024,0.910477,8.201477,0.970994,0.068677,0.236067
687282689,33.275276,0.970452,7.910481,0.971958,0.067765,0.233873
687302734,32.530365,0.855525,7.734282,0.969047,0.060756,0.234025
687322778,31.370373,0.968810,7.427831,0.968598,0.056753,0.234221
687342823,30.739256,0.808076,7.203728,0.970241,0.054663,0.234015
687362868,29.832256,0.814832,6.938571,0.970098,0.056850,0.236283
687382913,28.935623,0.768603,6.826219,0.972030,0.054762,0.236889
687402958,28.145077,0.798481,6.658064,0.973217,0.055127,0.236868
687423002,27.535664,0.896683,6.356263,0.970193,0.052856,0.241099
687443049,26.714611,1.040867,6.188321,0.972957,0.053672,0.237511
687463094,25.962048,0.910697,6.012320,0.966857,0.053401,0.243425
687483138,25.180103,0.933081,5.897514,0.966750,0.052398,0.242521
687503183,24.536236,0.856496,5.810924,0.968325,0.051311,0.243676
687523228,23.806505,0.794901,5.626611,0.968482,0.053956,0.247300
687543273,22.900307,0.999890,5.398986,0.967831,0.052498,0.246587
687563318,22.326040,0.900565,5.356969,0.970546,0.049679,0.245093
687583361,21.616997,1.013951,5.041768,0.969604,0.050503,0.248466
687603406,20.941591,0.944854,4.902275,0.968962,0.048591,0.248208
687623451,20.228910,0.830149,4.817147,0.963648,0.041576,0.246949
687643496,19.784748,0.784218,4.780070,0.964220,0.036393,0.247855
687663540,19.435665,0.722510,4.504315,0.963915,0.039210,0.246403
687683585,19.052488,0.638470,4.458540,0.966112,0.038486,0.246640
687703630,18.500227,0.607612,4.362378,0.966062,0.041757,0.244184
687723675,18.094669,0.523638,4.347603,0.965780,0.043211,0.243823
687743720,17.762783,0.424081,4.178621,0.966109,0.043126,0.246723
687763764,17.223726,0.370096,3.967659,0.970952,0.041586,0.246733
687783809,16.597298,0.446201,3.994844,0.970076,0.044864,0.248922
687803856,16.171675,0.437805,3.712756,0.967600,0.043131,0.248331
687823900,15.666050,0.323235,3.661817,0.962791,0.037941,0.249693
687843945,14.961425,0.444816,3.591029,0.967059,0.039127,0.248438
687863990,14.492668,0.383422,3.462783,0.968134,0.042502,0.252408
687884035,13.916677,0.405798,3.321056,0.970048,0.043323,0.252193
687904080,13.508635,0.306260,3.168835,0.963421,0.041770,0.254305
687924125,13.002408,0.344019,3.079193,0.964491,0.040132,0.252837
687944168,12.425690,0.297718,2.899502,0.963118,0.043496,0.252855
687964213,11.674249,0.198174,2.784509,0.967416,0.042593,0.253056
687984257,11.144276,0.251062,2.649429,0.972349,0.044602,0.253241
688004303,10.468639,0.258139,2.494404,0.968935,0.043328,0.256206
688024347,9.846736,0.425284,2.345444,0.964701,0.041954,0.254374
688044392,9.101810,0.279873,2.169347,0.967208,0.042135,0.251698
688064437,8.922937,0.203231,2.004961,0.966754,0.040233,0.256611
688084482,7.989811,0.271521,1.984633,0.965989,0.042776,0.254895
688104526,7.252192,0.263235,1.785013,0.967720,0.042960,0.254684
688124571,6.774472,0.300732,1.580198,0.964544,0.042229,0.255738
688144617,6.152300,0.239232,1.424363,0.966086,0.042140,0.255167
688164662,5.458697,0.139272,1.124855,0.964390,0.043506,0.257372
688184707,4.922729,0.184753,1.081614,0.965588,0.044509,0.257986
688204752,4.008342,0.161060,0.831985,0.966538,0.041503,0.254888
688224797,3.348411,0.175814,0.699553,0.965871,0.042509,0.258347
688244842,2.605031,0.083947,0.607304,0.965629,0.039046,0.254998
688264886,2.281386,0.068293,0.468448,0.961804,0.036494,0.255431
688284932,1.714384,0.029883,0.403164,0.963769,0.036219,0.253038
688304975,1.283729,0.006585,0.266410,0.964845,0.036856,0.252020
688325020,0.776766,-0.039576,0.138855,0.969543,0.040051,0.254295
688345065,0.368456,0.119943,-0.037148,0.968295,0.037041,0.250871
688365109,-0.373474,0.150189,-0.053418,0.964327,0.034575,0.248583
688385154,-0.705639,0.050596,-0.237677,0.967065,0.031932,0.243457
688405199,-0.897342,-0.071453,-0.264117,0.967868,0.027928,0.242179
688425243,-1.203026,-0.231542,-0.250011,0.966024,0.026923,0.241214
688445289,-1.295715,-0.239309,-0.301677,0.970217,0.024654,0.240601
688465333,-1.326831,-0.224146,-0.331689,0.968929,0.025834,0.240167
688485378,-1.441311,-0.170807,-0.322004,0.968192,0.026560,0.239906
688505423,-1.449210,-0.376591,-0.328807,0.971671,0.024655,0.240213
688525469,-1.678834,-0.224278,-0.347783,0.971952,0.025012,0.235760
688545514,-1.839738,-0.193884,-0.367686,0.972611,0.021648,0.236571
688565559,-1.863113,-0.247289,-0.389979,0.971858,0.017551,0.235138
688585604,-1.724306,-0.269960,-0.323824,0.972999,0.019186,0.232756
688605648,-1.646468,-0.224038,-0.249073,0.970913,0.018365,0.233519
688625693,-1.670755,-0.186118,-0.325142,0.970952,0.018278,0.235607
688645738,-1.602758,-0.125243,-0.372513,0.971432,0.018181,0.231967
688665782,-1.417398,-0.140193,-0.269080,0.972797,0.019275,0.231761
688685826,-1.355727,-0.185833,-0.239558,0.974214,0.019090,0.229377
688705871,-1.142134,-0.193460,-0.266602,0.973327,0.017272,0.230666
688725916,-1.082176,-0.102157,-0.336842,0.972951,0.016543,0.230038
688745961,-0.849131,-0.299747,-0.126746,0.972776,0.016080,0.225594
688766006,-0.698140,-0.200892,-0.236985,0.974330,0.017720,0.225746
688786050,-0.825847,-0.162530,-0.112372,0.976619,0.016905,0.225981
688806095,-0.435071,-0.154696,-0.066490,0.972478,0.016350,0.224327
688826140,-0.472870,-0.147030,-0.042858,0.973289,0.016805,0.223768
688846185,-0.243865,-0.177499,-0.062483,0.974766,0.013806,0.224383
688866230,-0.119229,-0.177167,0.065002,0.975862,0.016719,0.224541
688886276,-0.258138,-0.093547,-0.008996,0.972840,0.016805,0.224139
688906321,-0.212839,-0.108850,-0.040389,0.975670,0.017264,0.224090
688926366,-0.089387,-0.009607,0.018016,0.976095,0.017898,0.222447
688946410,-0.080765,0.013382,0.071263,0.972846,0.018716,0.224589
688966455,0.102126,0.020973,0.037123,0.971208,0.017896,0.224891
688986500,0.141616,-0.161741,0.113379,0.970923,0.016984,0.224262
689006545,0.125498,-0.169473,0.067869,0.976317,0.017811,0.224532
689026588,0.355364,-0.138867,0.093872,0.976813,0.021356,0.221976
689046633,0.156732,0.021128,0.097194,0.976094,0.022902,0.222712
689066678,-0.065457,0.051490,0.070839,0.974262,0.020625,0.222293
689086723,0.063807,0.081913,0.030022,0.974337,0.019895,0.221385
689106768,-0.142953,0.119918,0.010983,0.975381,0.019537,0.223455
689126812,-0.136581,0.066412,-0.057736,0.974713,0.022263,0.222101
689146857,-0.004965,0.112382,0.031255,0.972449,0.019714,0.222961
689166902,0.155145,-0.101004,0.013576,0.972387,0.019981,0.219693
689186947,-0.105256,-0.063029,-0.012064,0.973027,0.018898,0.224495
689206992,0.063848,-0.085729,0.038221,0.977122,0.021723,0.223876
689227036,-0.051571,0.013210,-0.005718,0.977128,0.022725,0.224237
689247083,-0.281862,0.203538,-0.063015,0.973855,0.023631,0.225109
689267128,-0.428792,0.111840,-0.151556,0.974161,0.021997,0.226740
689287172,-0.511902,0.111946,-0.096453,0.976575,0.021640,0.228788
689307217,-0.397284,0.058626,-0.098500,0.974877,0.023088,0.226000
689327262,-0.375484,0.012762,-0.159902,0.973178,0.019541,0.227760
689347307,-0.381824,0.119614,-0.091361,0.973474,0.018179,0.228846
689367352,-0.314059,0.256662,-0.154264,0.972275,0.018813,0.228230
689387422,-0.442570,0.096792,-0.067182,0.974892,0.018367,0.231363
689407440,-0.373297,0.218795,-0.046008,0.974841,0.021092,0.228818
689427485,-0.174927,0.081627,-0.064684,0.972558,0.020907,0.228857
689447530,-0.298296,0.127182,-0.123573,0.972344,0.019903,0.227138
689467574,-0.427533,0.142485,-0.082909,0.971287,0.019268,0.229154
689487619,-0.475358,0.081256,-0.188757,0.972850,0.018543,0.229673
689507664,-0.235957,0.043527,-0.055731,0.972363,0.019631,0.228136
689527709,-0.197874,0.051139,-0.064137,0.973114,0.020180,0.229212
689547754,-0.189835,0.020711,-0.041267,0.973265,0.019632,0.227486
689567799,-0.297144,0.211156,-0.062743,0.972808,0.020094,0.232395
689587844,-0.352608,0.157546,-0.168469,0.974766,0.021457,0.229726
689607889,-0.267598,0.104344,-0.116451,0.973227,0.022912,0.230567
689627934,-0.559988,0.317396,-0.226109,0.972921,0.018359,0.228583
689647979,-0.150925,0.028430,-0.003841,0.971259,0.021358,0.227789
689668024,-0.266245,0.058798,-0.039911,0.972244,0.021184,0.231585
689688069,-0.266081,0.104541,-0.032425,0.971202,0.020633,0.229607
689708114,-0.343306,0.165384,-0.076978,0.973909,0.022090,0.227924
689728159,-0.205482,0.112104,-0.064192,0.974750,0.022184,0.228909
689748205,-0.382698,0.279528,-0.145367,0.973007,0.019815,0.228397
689768247,-0.182940,0.157781,-0.087706,0.971702,0.019447,0.226968
689788292,-0.289492,0.226399,-0.062943,0.973442,0.019449,0.227211
689808336,-0.259519,0.142504,-0.093811,0.973219,0.018817,0.229848
689828381,-0.098378,0.043558,-0.058401,0.973160,0.017993,0.226673
689848426,-0.214143,0.020526,-0.117209,0.971086,0.018538,0.228160
689868471,-0.305040,0.012992,-0.069572,0.972751,0.020726,0.229399
689888516,-0.188335,-0.009576,0.042860,0.974796,0.022725,0.226547
689908560,-0.053105,-0.017471,-0.089642,0.973828,0.020908,0.228382
689928605,-0.105564,0.119819,-0.035591,0.974248,0.022096,0.231368
689948650,-0.273849,0.127385,-0.039992,0.971501,0.018725,0.230785
689968697,-0.221992,0.142423,-0.132746,0.973576,0.019181,0.229478
689988741,-0.473690,0.104334,-0.097169,0.972962,0.020092,0.230849
690008786,-0.244303,0.020573,-0.093700,0.973484,0.020363,0.229478
690028831,-0.144341,0.104497,-0.065353,0.970532,0.020720,0.227984
690048876,-0.297077,0.089239,-0.054697,0.973396,0.021819,0.229749
690068920,-0.328357,0.058659,-0.092196,0.972381,0.022272,0.229221
690088966,-0.204432,0.020797,-0.002777,0.975402,0.021003,0.229535
690109009,-0.242160,0.150397,0.020448,0.974185,0.020362,0.227923
690129054,-0.335013,0.096887,-0.038704,0.975378,0.020091,0.228175
690149098,-0.144087,0.066428,-0.049949,0.971888,0.021085,0.227234
690169143,-0.183087,0.142521,-0.095294,0.972996,0.020542,0.227852
690189188,-0.227753,0.058842,-0.025375,0.973795,0.019995,0.226568
690209233,-0.160481,0.058661,-0.110736,0.972736,0.020906,0.228582
690229278,-0.152597,-0.002269,-0.095403,0.972197,0.021634,0.229135
690249322,-0.212178,0.081744,-0.010471,0.974037,0.021274,0.229830
690269368,-0.482820,0.157482,-0.181225,0.973311,0.022002,0.230113
690289412,-0.165927,0.043704,0.011682,0.974411,0.019820,0.230189
690309459,-0.326498,0.173206,0.006726,0.974313,0.020092,0.229827
690329503,-0.189537,0.058851,-0.026117,0.972930,0.018451,0.229037
690349548,-0.281355,0.127401,-0.032205,0.971094,0.020722,0.228701
690369593,-0.251653,0.051091,-0.078376,0.971042,0.020180,0.230791
690389638,-0.420369,0.028119,-0.105592,0.973441,0.020914,0.232110
690409683,-0.336488,-0.070952,-0.114531,0.972267,0.020723,0.227955
690429727,-0.181583,0.119856,-0.011192,0.973997,0.021271,0.227652
690449772,-0.091683,0.073918,-0.112122,0.974558,0.021182,0.228369
690469816,-0.136021,0.081726,-0.027232,0.974388,0.020273,0.229009
690489861,-0.167351,0.203546,-0.072878,0.972454,0.020086,0.228134
690509905,-0.152406,0.089200,-0.088070,0.973325,0.018628,0.225762
690529950,-0.037219,0.066434,-0.059664,0.972133,0.019263,0.225599
690549995,-0.127951,0.104644,-0.004540,0.974018,0.020090,0.228743
690570040,-0.265604,-0.024942,-0.001438,0.973812,0.021634,0.227564
690590085,-0.175901,0.066260,-0.118104,0.972547,0.021270,0.228312
690610130,-0.342606,-0.055515,-0.030408,0.973414,0.021275,0.230658
690630175,-0.313515,0.005262,-0.115230,0.974145,0.020366,0.230647
690650219,-0.244112,0.112042,-0.086367,0.974662,0.020455,0.229004
690670264,-0.426822,0.180679,-0.044843,0.971538,0.022450,0.228146
690690310,-0.107797,0.073807,-0.157658,0.972112,0.020361,0.229410
690710355,-0.221373,0.020578,-0.094145,0.971124,0.019360,0.230246
690730400,-0.305539,0.104372,-0.100432,0.969643,0.018265,0.229093
690750445,-0.335724,0.058693,-0.076770,0.973276,0.019095,0.232933
690770490,-0.175772,0.051036,-0.110414,0.974360,0.020179,0.227466
690790534,-0.228248,0.157842,-0.056261,0.975617,0.020998,0.226354
690810579,-0.410432,0.180826,0.015970,0.973724,0.021270,0.227747
690830622,-0.175487,0.066314,-0.095188,0.973224,0.022448,0.225485
690850667,-0.318774,0.074153,0.014547,0.972600,0.019628,0.226135
690870712,-0.335551,0.119678,-0.069335,0.973347,0.021451,0.227118
690890757,-0.304858,0.089219,-0.062188,0.974452,0.021726,0.227643
690910802,-0.211863,0.150368,0.004577,0.973999,0.019269,0.227655
690930847,-0.435034,0.150122,-0.075147,0.972428,0.020539,0.226772
690950892,-0.328451,0.134850,-0.100089,0.971491,0.019907,0.230329
690970936,-0.267228,0.028189,-0.093281,0.973747,0.022182,0.229016
690990981,-0.167443,0.043507,-0.072343,0.974470,0.021000,0.228552
691011026,-0.327166,0.211220,-0.031595,0.975312,0.020184,0.229538
691031071,-0.336009,0.043415,-0.091997,0.972549,0.021452,0.228403
691051117,-0.236158,0.173047,-0.071441,0.973649,0.018815,0.228479
691071162,-0.182056,0.256960,-0.042205,0.972455,0.020360,0.228224
691091207,-0.312217,0.104495,-0.046813,0.971309,0.022272,0.230510
691111252,-0.183752,-0.055694,-0.125187,0.973375,0.020725,0.228571
691131296,-0.076582,-0.009927,-0.119777,0.973043,0.021638,0.230391
691151341,-0.037228,0.051192,-0.059613,0.975955,0.022460,0.229886
691171386,-0.257908,0.066510,-0.001892,0.972602,0.021002,0.231217
691191430,-0.204276,0.051298,0.004760,0.973209,0.019726,0.229393
691211474,-0.137391,0.096788,-0.103670,0.974435,0.020996,0.226646
691231519,-0.189355,0.135078,-0.018733,0.972818,0.019632,0.228038
691251564,-0.228684,0.119684,-0.079050,0.970574,0.021171,0.225350
691271609,-0.365608,0.058776,-0.037983,0.969749,0.021988,0.225272
691291653,-0.128017,-0.009670,-0.004158,0.971260,0.021540,0.227880
691311698,-0.213774,-0.055629,-0.094039,0.974205,0.020818,0.229011
691331743,-0.097271,0.051322,0.002683,0.975120,0.019364,0.228998
691351788,-0.311971,0.051185,-0.031357,0.972906,0.020815,0.227944
691371833,-0.167003,0.089286,-0.049580,0.972850,0.020363,0.229761
691391877,-0.089490,0.051342,0.010174,0.971086,0.021449,0.228337
691431969,-0.412949,0.119536,-0.121323,0.971846,0.022636,0.229956
691452014,-0.166758,0.035975,-0.034124,0.971463,0.021542,0.228966
691472058,-0.320304,0.051094,-0.069403,0.972692,0.021275,0.231124
691492103,-0.435798,0.020477,-0.112908,0.972876,0.019637,0.231123
691512148,-0.457999,0.089149,-0.074499,0.975270,0.018360,0.227181
691532193,-0.165977,0.196104,0.003535,0.975806,0.021271,0.226713
691552236,-0.459489,0.134678,-0.158677,0.973393,0.022356,0.224756
691572281,-0.350523,0.188299,-0.053990,0.972832,0.020444,0.223951
691592326,-0.321453,0.210971,-0.138686,0.974400,0.020083,0.224742
691612371,-0.442927,0.195810,-0.090429,0.970204,0.023262,0.225262
691652460,-0.343420,-0.032759,-0.076316,0.972137,0.024367,0.230947
691672505,-0.373846,-0.017507,-0.068135,0.971679,0.021272,0.230687
691692550,-0.328574,-0.078535,-0.099376,0.972528,0.022905,0.227402
691712595,-0.511567,-0.025176,-0.073079,0.972122,0.018997,0.229866
691752685,0.002372,0.059001,0.016007,0.974225,0.012367,0.234380
691772731,0.170451,0.173334,0.004724,0.973676,0.014996,0.229665
691792776,0.485674,0.272709,0.097615,0.975460,0.013266,0.227277
691812820,0.937329,0.295762,0.126982,0.974575,0.015079,0.224021
691832865,1.059520,0.120508,0.125194,0.965166,0.015429,0.224000
691852910,1.429130,-0.161007,0.279430,0.967860,0.010061,0.221239
691872955,1.813042,-0.236898,0.371572,0.968969,0.003976,0.226405
691893000,2.793018,-0.159271,0.864275,0.978128,-0.006016,0.227082
691913043,4.078619,-0.128304,0.923282,0.974378,-0.022035,0.225811
691933088,5.577808,-0.012529,1.375217,0.969846,-0.026496,0.227439
691953133,7.703828,0.011953,1.822935,0.974925,-0.042588,0.229376
691973178,9.954711,-0.047027,2.413695,0.981817,-0.038107,0.236695
691993222,11.918634,0.091518,2.772481,0.973484,-0.014929,0.232169
692013267,13.620668,0.077336,3.029876,0.972050,-0.016294,0.233557
692033312,14.930363,0.315200,3.569139,0.971955,-0.022754,0.232934
692053357,16.596172,0.407953,3.933861,0.977457,-0.032942,0.228591
692073402,18.944304,0.508747,4.399939,0.971884,-0.043504,0.227886
692093447,21.371338,0.343167,5.010561,0.970298,-0.047877,0.225833
692113492,24.034435,0.337554,5.562579,0.968745,-0.048343,0.220958
692133538,26.793365,0.286773,6.342131,0.978563,-0.056786,0.222802
692153583,29.687466,0.609107,6.972632,0.982771,-0.056233,0.223183
692173627,32.789272,0.863078,7.675742,0.983548,-0.059966,0.220543
692193672,35.713360,1.116759,8.275324,0.982478,-0.052422,0.217553
692213717,38.569626,1.141941,8.938112,0.976129,-0.047432,0.215384
692233762,41.343128,1.045349,9.679328,0.977435,-0.054888,0.216373
692253807,44.208225,1.215473,10.402594,0.976542,-0.053804,0.212664
692273850,47.063210,1.179526,10.996840,0.976680,-0.051823,0.200676
692293895,49.728329,1.082730,11.663744,0.976320,-0.042552,0.196672
692313940,52.091331,0.939623,12.115062,0.975299,-0.044102,0.195694
692333985,54.641167,0.705554,12.754094,0.973712,-0.044934,0.189005
692354030,56.577419,0.859711,13.273836,0.980696,-0.036740,0.186875
692374074,58.875465,0.907595,13.932097,0.979385,-0.022370,0.186056
692394119,60.049915,0.778963,14.192470,0.984452,-0.016735,0.178971
692414164,61.499844,0.741880,14.462477,0.980988,-0.009643,0.179744
692434209,62.704197,0.651270,14.683934,0.996558,-0.008069,0.182109
692454254,64.213600,1.071204,14.844282,0.993725,-0.008619,0.181977
692474299,65.105637,1.392161,15.116281,0.997953,-0.003425,0.183711
692494345,65.859818,1.697810,15.375721,0.988457,-0.003066,0.188775
692514390,66.642563,1.881280,15.528032,0.992585,0.009307,0.185597
692534434,67.254189,1.911918,15.523704,0.974388,0.014936,0.194613
692554479,67.322006,1.904186,15.468925,0.977659,0.016404,0.198640
692574524,67.222656,1.683176,15.479228,0.968845,0.009935,0.200707
692594569,67.907852,1.568675,15.321127,0.979655,0.003295,0.192273
692614632,68.682411,1.744451,15.443057,0.981804,-0.007888,0.194161
692634657,70.353119,1.952145,16.074753,0.991495,-0.043802,0.197233
692654702,72.989349,2.160376,16.825260,0.993780,-0.060656,0.181699
692674747,75.931686,2.063911,17.601406,0.980943,-0.045494,0.175175
692694792,78.290016,1.791641,18.221357,0.973813,-0.023768,0.171357
692714836,80.205292,1.755538,18.856760,0.985060,-0.022551,0.181784
692734881,82.181442,1.719413,19.475702,0.985121,-0.027376,0.179885
692754926,83.840561,1.774185,19.894169,0.983354,-0.016299,0.169185
692774971,85.608032,1.783435,20.387102,0.974592,-0.012407,0.164880
692795016,86.924835,1.586874,20.912390,0.982714,-0.019947,0.164028
692815061,88.570526,1.535201,21.438456,0.978867,-0.023022,0.177896
692835107,90.357437,1.223947,21.748684,0.975452,-0.028316,0.170792
692855152,92.292557,1.332235,22.207468,0.993887,-0.037141,0.154788
692875196,94.191025,1.516920,22.750763,1.003626,-0.034756,0.157977
692895241,95.742714,1.815465,23.139940,0.998152,-0.022199,0.163950
692915286,96.497620,1.586792,23.034357,0.968737,0.008939,0.151146
692935331,96.521477,0.809644,23.112896,0.966649,0.004206,0.151553
692955376,96.656487,0.292150,23.410015,0.991910,0.002038,0.139506
692975422,96.799271,0.589057,23.261068,1.018369,0.010263,0.138406
692995464,96.385590,1.014590,22.778625,1.011686,0.045197,0.144635
693015509,95.014008,1.637714,22.168924,1.003527,0.070839,0.144640
693035553,91.869957,1.573719,21.236759,0.977096,0.096637,0.144503
693055598,89.383400,1.313749,21.155968,0.976199,0.043967,0.146966
693075643,87.223999,0.961221,20.564804,0.976413,0.035037,0.138354
693095688,85.898338,0.715643,19.987669,0.998784,0.021959,0.132275
693115733,85.060013,1.011973,19.704933,1.027794,0.024099,0.135317
693135778,84.258247,1.788178,19.312908,1.030682,0.036243,0.158487
693155822,83.508759,2.823326,18.842594,1.012139,0.051700,0.169126
693175867,82.258362,3.317780,18.597761,0.979000,0.051835,0.170145
693195914,80.669907,3.141340,18.285305,0.971786,0.056812,0.160819
693215958,79.006500,2.690745,18.066914,0.965107,0.048530,0.164577
693236003,77.528000,2.126075,17.929371,0.963460,0.046708,0.164336
693256048,76.194008,1.751852,17.742542,0.976746,0.039717,0.161216
693276093,75.602516,1.408422,17.602333,0.972165,0.029809,0.169571
693296138,74.879807,0.980971,17.396179,0.979472,0.033268,0.164902
693316183,74.214417,0.729297,17.394646,0.975085,0.030905,0.169520
693336226,73.445847,0.522824,17.181004,0.979489,0.039300,0.180778
693356271,72.364883,0.613605,17.018280,0.985947,0.041309,0.179484
693376316,71.476562,0.757971,16.935698,0.987750,0.035586,0.182731
693396361,70.674805,0.833107,16.568932,0.990905,0.036223,0.180498
693416406,69.758598,0.999685,16.211723,0.987542,0.027577,0.180842
693436450,68.958046,0.991152,15.913988,0.982419,0.035657,0.176104
693456495,67.759956,0.845354,15.624421,0.981286,0.045379,0.169844
693476540,65.997452,0.736694,14.986535,0.984262,0.063394,0.168946
693496584,63.747475,0.681486,14.449629,0.992839,0.067127,0.163801
693516629,61.249084,1.166769,13.686498,0.995519,0.083702,0.171353
693536674,57.951077,1.476988,13.107580,0.972069,0.069533,0.152350
693556721,53.283073,0.468341,12.498502,0.989789,0.186727,0.149856
693576765,48.960136,1.002878,10.196473,1.020301,0.089185,0.216946
693596810,48.772743,2.010192,10.792789,0.970042,-0.034385,0.242245
693616855,50.973858,2.203156,11.582355,0.952380,-0.041709,0.230304
693636900,52.698807,1.205953,11.873145,0.959971,-0.014454,0.203350
693656945,53.679340,0.818812,12.413233,0.959314,-0.005506,0.222409
693676990,54.380169,0.667249,12.698155,0.973960,0.029182,0.226187
693697033,53.862560,0.666417,12.402544,0.995580,0.041221,0.225435
693717078,52.766407,1.404935,12.222677,0.997609,0.035329,0.235850
693737123,52.186146,1.899216,11.827293,0.983112,0.036939,0.232463
693757167,51.918461,2.089643,11.816570,0.969202,0.020432,0.220382
693777212,51.962566,1.914158,11.724601,0.973536,0.008325,0.212068
693797257,52.718338,1.633248,12.092945,0.960727,-0.013350,0.209599
693817302,53.462200,1.367022,12.224584,0.975795,-0.012336,0.204620
693837347,54.323376,1.184992,12.498856,0.983912,-0.007486,0.214005
693857391,54.921806,1.741702,12.592369,0.988170,0.003998,0.222537
693877436,55.512417,2.245046,12.678573,0.995885,0.004004,0.219954
693897481,56.139824,2.672010,12.687901,0.988717,-0.013089,0.231180
693917527,57.651451,2.978920,13.398768,0.982953,-0.028466,0.234572
693937572,59.421993,2.949475,13.639603,0.980006,-0.026298,0.228536
693957617,61.160671,2.843653,13.812537,0.955057,-0.034242,0.232243
693977662,63.221096,2.418934,14.454060,0.960213,-0.042610,0.229082
693997707,65.056526,1.963253,14.916654,0.951183,-0.028900,0.220862
694017751,66.721436,1.682491,15.244431,0.952338,-0.041986,0.228036
694037796,67.719543,1.332761,15.486036,0.950967,-0.030806,0.223865
694057839,68.799919,0.823779,16.055159,0.953638,-0.029361,0.215374
694077885,69.801842,0.390720,16.510931,0.969541,-0.020165,0.206736
694097929,70.805885,0.177935,16.652626,0.968109,-0.020628,0.203403
694117974,71.982193,-0.057138,17.020298,0.981469,-0.038066,0.208469
694138019,73.776985,0.286990,17.320549,0.986875,-0.035327,0.209552
694158064,74.946686,0.538759,17.304655,0.990824,-0.019986,0.187310
694178109,75.719849,0.319088,17.787079,0.984232,-0.022246,0.200952
694198153,76.215622,0.661978,17.707542,0.995679,-0.004121,0.203632
694218198,76.476509,1.005084,17.747189,0.996433,-0.003407,0.195175
694238243,76.758018,1.249821,18.084776,0.978626,-0.009346,0.195035
694258288,77.350082,1.181830,18.272192,0.978963,-0.005817,0.184039
694278335,77.471756,1.547554,18.222765,0.985098,-0.006253,0.189654
694298379,77.769951,1.479050,18.224850,0.984641,-0.009629,0.184584
694318424,78.208336,1.426159,18.369347,0.971089,0.000447,0.183437
694338469,77.650566,1.022181,18.404438,0.969815,0.010974,0.169734
694358514,76.860023,0.579598,18.253141,0.978440,0.015978,0.162407
694378558,75.922783,0.449225,18.011951,0.985799,0.005630,0.169379
694398603,75.204704,0.891096,18.032055,0.994181,0.005219,0.187665
694418647,74.792740,1.156823,17.649450,0.997559,0.020665,0.173965
694438691,74.018478,1.499269,17.525787,0.979688,0.010808,0.170201
694458736,73.910721,1.140991,17.498507,0.992299,0.005806,0.160463
694478781,73.139671,1.208530,17.138811,0.979698,0.008005,0.180282
694498826,72.334999,1.329999,17.031757,1.001537,0.016474,0.166642
694518871,71.353004,1.435989,16.844141,0.991611,0.026652,0.168882
694538916,70.170021,1.694049,16.530012,0.982198,0.030567,0.178568
694558960,69.184326,1.365200,16.152878,0.979881,0.026549,0.171715
694579005,68.185844,1.074774,15.913410,0.980300,0.023370,0.174345
694599050,67.033157,1.081333,15.591890,0.979705,0.022472,0.181529
694619095,66.166313,1.095970,15.432909,0.987211,0.022567,0.177497
694639141,64.788818,1.140171,14.939872,0.990631,0.029035,0.180060
694659186,63.651371,1.062903,14.618336,0.981417,0.035938,0.181114
694679231,62.193882,1.008552,14.356425,0.978543,0.036202,0.178893
694699276,60.970879,0.763426,13.960690,0.978258,0.039840,0.178529
694719320,59.336849,0.602253,13.664353,0.985932,0.034492,0.183127
694739365,58.174435,0.837150,13.219997,0.994095,0.024863,0.184275
694759410,57.131256,1.362241,13.016890,1.003439,0.028345,0.190827
694779454,56.038345,1.871578,12.600838,0.991877,0.031880,0.193106
694799498,55.092648,2.244040,12.297008,0.987730,0.030406,0.186190
694819543,53.948574,2.258347,12.028785,0.984096,0.030121,0.182349
694839588,52.842049,2.082067,11.729902,0.976628,0.033479,0.183741
694859633,51.695114,1.784561,11.737864,0.983261,0.032303,0.181815
694879678,50.551918,1.890426,11.515168,0.970697,0.033752,0.188926
694899722,49.759758,1.752446,11.263548,0.972834,0.031302,0.190709
694919767,49.161121,1.538624,11.145970,0.967812,0.024844,0.195253
694939812,48.379589,1.073359,11.070989,0.966475,0.032570,0.192631
694959857,47.243462,0.668590,10.834572,0.974616,0.033584,0.193307
694979902,46.154442,0.507843,10.657561,0.976034,0.048693,0.196798
694999948,44.995876,0.468907,10.435645,0.982338,0.041870,0.191618
695019993,43.659817,0.589738,10.117303,0.983614,0.050160,0.196848
695040038,42.745388,0.741308,9.859449,0.986500,0.042063,0.194361
695060082,41.592766,0.869801,9.537521,0.983145,0.037966,0.195424
695080127,40.302223,1.112524,9.194966,0.978474,0.037785,0.199589
695100172,39.387852,0.875463,8.953689,0.982690,0.031879,0.199981
695120217,38.191277,0.958472,8.739746,0.975077,0.042964,0.199003
695140272,36.993313,0.782208,8.457920,0.970711,0.052322,0.195703
695160306,35.328659,0.544819,8.162429,0.974742,0.068971,0.192520
695180350,33.539333,0.474740,7.731255,0.982078,0.060076,0.198310
695200395,32.241844,0.496562,7.435418,0.979679,0.036896,0.210191
695220440,31.750683,0.625740,7.329896,0.977024,0.028248,0.209342
695240485,31.281216,0.526152,7.163584,0.971934,0.022693,0.210346
695260529,30.813063,0.556280,7.065588,0.976736,0.023433,0.213168
695280574,30.354847,0.495265,7.097607,0.976285,0.030629,0.218792
695300619,29.547676,0.357318,6.861560,0.977762,0.042269,0.215479
695320664,28.632824,0.485971,6.580868,0.976814,0.045722,0.213856
695340709,27.711662,0.530972,6.376990,0.978122,0.052641,0.215819
695360755,26.422215,0.529987,6.103997,0.978136,0.057820,0.211998
695380800,25.200518,0.635566,5.768203,0.979087,0.051638,0.213626
695400844,24.055164,0.588744,5.431436,0.976914,0.045632,0.214308
695420890,23.080233,0.648939,5.213268,0.974671,0.045541,0.216435
695440939,21.906319,0.503308,4.992005,0.973470,0.043901,0.215641
695460979,20.669201,0.372635,4.657298,0.973887,0.047264,0.213722
695481024,19.572258,0.448081,4.456729,0.978518,0.049915,0.217269
695501067,18.434464,0.492694,4.111869,0.979578,0.050377,0.220246
695521112,17.220669,0.567827,3.791307,0.975936,0.050910,0.216041
695541157,16.076780,0.673602,3.530417,0.978139,0.053189,0.216726
695561202,14.810907,0.588882,3.295453,0.974935,0.055094,0.216505
695581247,13.747423,0.541792,2.834835,0.973476,0.051717,0.211543
695601291,12.699221,0.587140,2.793891,0.975867,0.051995,0.212409
695621336,11.402400,0.570947,2.536376,0.978812,0.051092,0.213541
695641381,10.397829,0.577915,2.372450,0.974599,0.051903,0.212976
695661426,9.275753,0.416838,2.058536,0.973656,0.046895,0.211094
695681471,8.400241,0.339897,1.846537,0.971735,0.038340,0.210415
695701516,8.062961,0.316834,1.799668,0.973913,0.036431,0.209564
695721562,7.433666,0.202058,1.674715,0.974988,0.032609,0.208190
695741607,6.881852,0.232221,1.601267,0.977740,0.036254,0.209045
695761652,6.260982,0.277576,1.513824,0.979570,0.037622,0.209284
695781696,5.576324,0.284471,1.282560,0.978507,0.040708,0.206392
695801747,5.021988,0.245724,1.071843,0.976263,0.039344,0.208429
695821786,4.500023,0.214838,0.959811,0.975778,0.030242,0.206365
695841831,3.995266,0.168964,0.954475,0.973946,0.035516,0.206387
695861874,3.440823,0.183545,0.735942,0.977284,0.034070,0.208965
695881919,2.973046,0.145140,0.661090,0.976081,0.032065,0.207991
695901964,2.710551,0.137120,0.521023,0.975605,0.032890,0.211901
695922009,2.337931,0.083941,0.635411,0.976415,0.026885,0.210898
695942054,1.890869,0.030012,0.437946,0.976766,0.027703,0.210165
695962098,1.998732,0.083490,0.481524,0.975706,0.029161,0.212178
695982143,1.528153,-0.031483,0.254153,0.977295,0.032433,0.209422
696002188,1.169853,0.151446,0.306345,0.979540,0.028893,0.212022
696022233,1.093015,0.166617,0.284861,0.976783,0.021617,0.215530
696042278,1.067487,0.204376,0.140043,0.978736,0.021441,0.217404
696062323,0.865217,0.272454,-0.054936,0.978974,0.021893,0.215493
696082369,0.839011,0.433042,0.181923,0.974233,0.021523,0.215937
696102414,1.137330,0.356935,0.191670,0.972659,0.025340,0.215050
696122459,0.900310,0.219706,0.196726,0.973182,0.030525,0.214034
696142504,0.431136,0.150637,0.045590,0.973459,0.031708,0.214300
696162548,0.354032,0.181014,0.008777,0.975535,0.031717,0.217804
696182606,0.079387,0.112436,0.044901,0.970985,0.025707,0.218346
696202638,-0.195668,0.051426,0.058083,0.972953,0.025343,0.216134
696222681,-0.219762,-0.055416,-0.002226,0.972823,0.026075,0.218949
696242726,-0.734592,-0.010163,-0.145216,0.973908,0.027995,0.223376
696262770,-0.629223,0.020129,-0.239058,0.978671,0.019997,0.223580
696282816,-0.527922,0.035644,-0.134096,0.974835,0.021819,0.228545
696302860,-0.551734,0.180311,-0.187605,0.972798,0.023906,0.227214
696322906,-0.689201,0.134573,-0.177144,0.974109,0.028915,0.229271
696342950,-0.719774,0.134566,-0.176551,0.974397,0.029099,0.229992
696362995,-0.844423,0.111371,-0.303960,0.970391,0.029185,0.230696
696383040,-0.904031,0.149659,-0.218874,0.963613,0.004691,0.223318
696403085,0.204390,-0.207238,0.204010,0.959200,-0.012522,0.215887
696423129,1.622768,-0.511167,0.429667,0.968982,-0.013244,0.211455
696443176,2.728313,-0.594107,0.683583,0.982352,-0.008680,0.208678
696463221,3.847610,-0.227642,0.836398,0.989697,0.005436,0.211525
696483266,4.355852,0.123498,1.024044,0.990316,0.011639,0.220581
696503311,4.731775,0.405716,1.084583,0.980356,0.014453,0.225376
696523355,4.704535,0.688095,1.259925,0.980470,0.020179,0.222097
696543400,5.030809,0.855506,1.115491,0.982221,0.012813,0.222442
696563445,5.505287,0.931892,1.136595,0.975569,0.006618,0.222929
696583488,6.378932,0.879045,1.249724,0.969456,0.000522,0.227764
696603533,7.379975,0.834509,1.643086,0.964858,-0.009578,0.230401
696623578,8.615504,0.599199,1.902628,0.971200,-0.000020,0.228189
696643623,9.508444,0.562117,2.236932,0.969665,0.006621,0.229566
696663668,9.945604,0.524306,2.312631,0.970959,0.010718,0.230626
696683712,10.529037,0.395221,2.446927,0.967135,0.010342,0.226425
696703757,11.035264,0.121232,2.544997,0.967047,0.010259,0.231420
696723802,11.512835,0.060854,2.742250,0.967755,0.004072,0.229875
696743847,12.381033,-0.006950,2.977797,0.974662,0.005261,0.228030
696763892,13.070782,0.100129,3.063395,0.979051,0.005814,0.228318
696783938,14.068072,0.245614,3.242237,0.980980,0.003452,0.228743
696803983,14.950483,0.467247,3.407772,0.975468,0.002167,0.227023
696824028,15.565804,0.467885,3.609790,0.973716,0.002254,0.226145
696844073,16.693317,0.384825,3.809790,0.976314,0.004073,0.223556
696864117,17.200911,0.568234,3.967442,0.977164,0.005078,0.225083
696884162,18.091755,0.485157,4.187317,0.973741,0.001165,0.227417
696904207,19.165890,0.386862,4.396046,0.970744,-0.004487,0.223121
696924266,20.233160,0.441073,4.642606,0.971730,-0.010310,0.221752
696944296,21.592436,0.335524,4.975730,0.973405,-0.004027,0.223801
696964340,22.606882,0.374571,5.261573,0.977121,-0.004389,0.222195
696984385,23.981091,0.375665,5.571129,0.977131,-0.009028,0.222475
697004430,24.855354,0.437202,5.714429,0.976911,-0.005665,0.220657
697024475,26.284290,0.644216,6.083369,0.978591,-0.004394,0.217812
697044520,27.598019,0.599660,6.432457,0.977115,-0.005853,0.216932
697064564,28.665611,0.737737,6.694015,0.975933,-0.008675,0.217048
697084609,30.087309,0.693331,7.094497,0.970871,-0.010497,0.219770
697104654,31.383938,0.374204,7.353133,0.968304,-0.012495,0.223992
697124699,32.726570,0.306577,7.610039,0.969634,-0.011314,0.221971
697144745,34.226490,0.262421,8.108342,0.971935,-0.014493,0.222663
697164790,35.775867,0.370157,8.375936,0.983977,-0.013658,0.221912
697184835,37.211502,0.615151,8.691128,0.989398,-0.007296,0.214274
697204880,38.353313,0.973946,8.820606,0.987669,-0.001665,0.210118
697224924,39.459496,1.287348,9.096115,0.986916,-0.001304,0.208951
697244969,40.550026,1.433051,9.357203,0.982149,-0.003042,0.207945
697265014,41.285683,1.631591,9.441605,0.980513,0.001406,0.203790
697285059,41.947960,1.617141,9.703895,0.979817,0.003675,0.200893
697305103,42.691517,1.533763,9.812008,0.975262,0.002404,0.206329
697325147,43.530975,1.298543,10.155651,0.968476,0.000290,0.199912
697345192,44.405033,1.001899,10.300147,0.970951,0.001751,0.200503
697365237,45.364975,0.735989,10.542215,0.971626,0.001655,0.197496
697385282,46.164768,0.622498,10.802166,0.975953,0.007306,0.199682
697405326,46.783234,0.462526,10.760132,0.979175,0.010671,0.196354
697425371,47.436413,0.569811,10.938137,0.980803,0.010853,0.195509
697445416,48.050617,0.783674,11.070694,0.989753,0.009220,0.190457
697465461,48.506256,1.020614,11.313231,0.989778,0.010670,0.187005
697485506,49.235252,1.249761,11.451152,0.993294,0.011762,0.184583
697505552,49.582535,1.760833,11.610825,0.993522,0.010220,0.186941
697525597,50.302303,1.867847,11.665275,0.986966,0.003298,0.187609
697545642,51.053841,1.906442,11.788110,0.976890,0.009831,0.186499
697565687,51.604889,1.739012,11.823824,0.975856,0.014112,0.190050
697585736,52.319729,1.770174,12.031450,0.982141,0.008032,0.193584
697605777,52.927387,1.976557,12.225291,0.979886,0.017130,0.195696
697625821,53.311729,1.931204,12.340247,0.981145,0.020587,0.194851
697645865,53.375019,2.061042,12.453209,0.982805,0.028697,0.201073
697665909,53.190823,2.190449,12.410503,0.978839,0.039614,0.204572
697685954,52.806931,2.052972,12.326713,0.972167,0.035683,0.199246
697705999,52.717213,2.182758,12.435002,0.981803,0.041524,0.201977
697726044,52.594372,2.182659,12.406821,0.973343,0.043525,0.208835
697746089,51.981899,1.854716,12.373948,0.971236,0.044778,0.198884
697766133,51.822762,1.595767,12.461954,0.971342,0.019734,0.183491
697786178,51.884338,1.153857,12.500438,0.979616,0.031579,0.187052
697806223,51.732609,1.451164,12.555882,1.003172,0.026153,0.186206
697826268,52.024223,2.053388,12.594068,0.996403,0.012239,0.194514
697846313,52.216290,2.327891,12.635276,0.984085,0.018483,0.185909
697866359,52.659500,2.160330,12.627234,0.964197,0.014362,0.186981
697886404,52.937576,1.467319,12.807539,0.950287,0.019153,0.181037
697906449,53.199131,0.568397,12.927720,0.959303,0.026252,0.175153
697926494,53.619835,-0.063955,12.959869,0.967728,0.024910,0.181093
697946547,53.750572,-0.353395,13.011786,0.982015,0.026307,0.188019
697966583,53.658115,-0.193484,12.967198,0.994370,0.031241,0.189615
697986628,53.420761,0.042639,12.940453,0.991305,0.039883,0.192286
698006692,53.185913,0.224755,12.631104,0.985407,0.043526,0.199461
698026716,52.687275,0.407295,12.533192,0.971537,0.050621,0.210397
698046761,51.948402,0.132134,12.273353,0.973711,0.068273,0.210513
698066806,50.820850,0.382835,12.065153,0.979920,0.057918,0.214600
698086851,49.737450,0.298030,11.773159,0.975209,0.060917,0.216854
698106896,48.361824,0.472020,11.378993,0.975738,0.061371,0.215845
698126940,47.163864,0.310998,11.097116,0.969185,0.054449,0.216695
698146985,45.979229,0.324991,10.699777,0.978057,0.058475,0.222437
698167030,44.714226,0.308966,10.510416,0.977747,0.064658,0.220889
698187075,43.537949,0.368776,10.150970,0.977738,0.068032,0.225513
698207120,41.901794,0.595965,9.723474,0.975779,0.073046,0.233345
698227166,40.335270,0.617530,9.348803,0.968681,0.075131,0.234915
698247211,38.400898,0.616025,8.927855,0.967777,0.077405,0.235562
698267256,36.687672,0.454477,8.480225,0.968549,0.072952,0.237463
698287300,34.855217,0.346642,8.202842,0.956950,0.071033,0.242294
698307354,33.080917,-0.173067,7.772872,0.957930,0.103132,0.233237
698327390,29.930565,-0.297851,6.917443,0.986306,0.100904,0.236297
698347435,27.308054,0.233882,6.477508,0.979255,0.079628,0.248617
698367478,26.473356,0.363036,6.401577,0.961188,0.015237,0.221344
698387523,26.171148,-0.094786,6.195004,0.964916,0.025695,0.216180
698407568,26.474333,-0.445585,6.060385,0.968384,0.012399,0.205522
698427613,27.031208,-0.543673,6.416696,0.990462,-0.017149,0.197388
698447657,27.896355,-0.162274,6.467411,1.004465,0.016100,0.210620
698467702,27.834146,0.630089,6.381925,0.993745,0.036370,0.210133
698487747,27.182404,1.109757,6.263070,0.980957,0.051273,0.211053
698507792,26.454782,1.117019,6.193109,0.967437,0.045976,0.210657
698527837,25.501753,0.834171,5.929809,0.968935,0.031060,0.211654
698547882,25.240482,0.559599,5.867020,0.972491,0.017872,0.210526
698567927,25.523830,0.308261,5.900565,0.970753,0.012229,0.210021
698587973,25.707642,0.239768,5.920151,0.978952,0.002686,0.208263
698608018,26.420366,0.430682,6.005025,0.986438,0.010330,0.203674
698628063,26.530066,0.796832,6.139223,0.987847,0.014066,0.206004
698648107,26.666195,0.918600,6.052120,0.987738,0.026901,0.210705
698668152,26.222204,1.169883,6.014050,0.977679,0.037340,0.205867
698688197,25.953194,0.963880,5.943542,0.968397,0.044418,0.203290
698708242,25.109913,0.650931,5.831042,0.966809,0.048771,0.196865
698728285,24.411524,0.246527,5.700752,0.970782,0.047052,0.199160
698748330,23.712914,0.177390,5.546426,0.975502,0.033054,0.201554
698768375,23.160910,0.116085,5.465645,0.977745,0.032143,0.199338
698788420,22.760784,0.016584,5.328552,0.973635,0.036686,0.199673
698808465,22.168198,-0.319369,5.127209,0.974893,0.041326,0.198827
698828510,21.442156,-0.441448,5.149345,0.973726,0.040417,0.199847
698848554,20.674410,-0.640192,4.981509,0.978225,0.039888,0.205944
698868599,19.900555,-0.556785,4.889267,0.984999,0.041901,0.206824
698888644,19.367157,-0.466241,4.563092,0.988388,0.043089,0.207399
698908689,18.814091,0.020980,4.404090,0.986494,0.035992,0.208260
698928734,18.468494,0.272160,4.310621,0.987785,0.034358,0.208786
698948780,17.829613,0.614350,4.062069,0.986368,0.033623,0.206269
698968825,17.351290,0.804175,3.818551,0.982382,0.028708,0.207707
698988869,17.074156,0.963884,3.708775,0.978918,0.028968,0.203227
699008915,16.528875,0.742434,3.582547,0.973674,0.029957,0.201318
699028959,16.168444,0.574551,3.528968,0.971586,0.028500,0.201900
699049004,15.763588,0.269678,3.560764,0.971023,0.028407,0.201093
699069049,15.853461,-0.065836,3.468440,0.968867,0.034767,0.198577
699089092,15.220589,-0.302011,3.573203,0.971547,0.041234,0.200609
699109137,14.860264,-0.523223,3.527442,0.976288,0.040148,0.200076
699129182,14.512367,-0.676219,3.320741,0.977890,0.042239,0.197957
699149227,13.884816,-0.638362,3.286943,0.980150,0.042877,0.196738
699169271,12.941605,-0.738038,3.137465,0.979087,0.042051,0.193580
699189316,12.334004,-1.081579,2.951722,0.978171,0.033688,0.197785
699209361,11.798608,-1.241773,2.947361,0.975884,0.028680,0.197288
699229406,11.196537,-1.425561,2.638714,0.973868,0.022407,0.201418
699249451,10.959557,-1.494202,2.643541,0.974391,0.018675,0.199872
699269496,10.696791,-1.494636,2.488171,0.976162,0.017225,0.201659
699289540,10.664671,-1.548187,2.404917,0.979259,0.020414,0.201420
699309587,10.403757,-1.441695,2.348493,0.979063,0.030420,0.201316
699329632,10.211205,-1.601956,2.276349,0.982204,0.032339,0.203347
699349676,10.033758,-1.358360,2.179642,0.982311,0.036616,0.204427
699369721,9.475516,-1.373762,2.175242,0.983378,0.038162,0.202954
699389766,9.045645,-0.993081,2.067695,0.988451,0.039448,0.205680
699409811,8.607574,-0.620094,1.929766,0.986142,0.032792,0.199012
699429856,8.330260,-0.292761,1.804152,0.989061,0.030430,0.198694
699449899,8.075453,0.255511,1.646801,0.993050,0.021807,0.206266
699469944,8.036191,0.834512,1.569221,0.990695,0.020349,0.207216
699489989,7.963217,1.230210,1.324793,0.985847,0.024436,0.207111
699510034,7.810102,1.512096,1.303901,0.992029,0.028264,0.205819
699530079,7.450202,2.030112,1.255670,0.984315,0.031896,0.208667
699550123,7.011596,2.433511,1.087085,0.997516,0.035551,0.206621
699570168,6.426802,3.072981,0.859418,0.995162,0.040744,0.212916
699590213,6.051425,3.979607,0.787269,0.998401,0.034929,0.214777
699610258,5.614145,5.008045,0.670067,1.002426,0.028394,0.219530
699630303,5.314594,6.059395,0.557758,1.005785,0.030216,0.218562
699650348,5.013021,7.430535,0.322160,1.012842,0.028773,0.219715
699670394,4.900189,7.368791,0.003614,0.913024,0.038350,0.265065
699690438,4.601384,4.306249,0.501019,0.910473,0.028220,0.196770
699710483,4.319212,1.562946,0.637891,0.899005,0.041564,0.190044
699730528,3.637278,-0.167241,0.618676,0.940631,0.032476,0.212407
699750573,3.362745,-0.281526,0.662591,0.984461,0.022920,0.225655
699770618,3.255181,0.427069,0.608829,0.995520,0.019306,0.230647
699790663,3.558213,1.249782,0.424456,0.989268,0.016100,0.223406
699810706,3.757413,1.356573,0.443160,0.972697,0.021779,0.207158
699830766,3.704702,0.815620,0.507115,0.959741,0.028949,0.208365
699850796,3.252576,0.213361,0.472044,0.963493,0.031784,0.213743
699870841,2.825228,-0.053359,0.527074,0.975242,0.033543,0.221801
699890885,2.319384,0.167338,0.452098,0.981787,0.040655,0.225399
699910930,1.922863,0.478812,0.076683,0.982784,0.039209,0.229742
699930975,1.517424,0.836832,0.052792,0.977689,0.038211,0.235640
699951020,0.950320,0.859372,-0.020334,0.970413,0.039568,0.237396
699971064,0.536196,0.843859,-0.088661,0.962011,0.044113,0.242615
699991109,-0.361549,0.538393,-0.253619,0.962891,0.042383,0.240697
700011154,-0.389402,0.233926,-0.091595,0.963516,0.000596,0.222781
700031200,0.344622,0.226505,-0.090530,0.984779,0.007193,0.231849
700051245,1.110607,0.714592,-0.030604,0.984949,0.005381,0.235934
700071290,1.701902,0.966554,0.102271,0.975163,0.004629,0.230383
700091335,2.440393,0.814927,0.355897,0.962777,0.008245,0.227683
700111380,2.603563,0.647661,0.506117,0.956729,0.012056,0.226872
700131425,3.254080,0.190695,0.556147,0.963254,0.013980,0.229118
700151470,3.652897,-0.068130,0.633326,0.965842,0.024813,0.231416
700171523,3.867296,-0.113754,0.652242,0.970494,0.035282,0.231683
700191558,3.693068,-0.265996,0.747827,0.970630,0.036469,0.234129
700211602,3.570091,-0.258492,0.711981,0.971547,0.037199,0.234385
700231647,3.192146,-0.220919,0.528153,0.968307,0.034378,0.236805
700251692,2.548556,-0.289847,0.456815,0.967575,0.035742,0.236815
700271737,2.154429,-0.130469,0.219406,0.980448,0.035214,0.236415
700291782,1.794229,0.105556,0.164478,0.985093,0.035501,0.240602
700311827,1.273173,0.455804,0.089366,0.982946,0.039406,0.238363
700331872,0.688796,0.622868,-0.098528,0.977354,0.045583,0.237721
700351916,-0.141624,0.888753,-0.366034,0.978848,0.044686,0.244233
700371961,-0.909119,1.132021,-0.535346,0.972325,0.041134,0.246892
700392007,-1.409741,0.979008,-0.731441,0.957876,0.041020,0.245959
700412052,-2.153359,0.711842,-0.830744,0.949814,0.037830,0.249370
700432097,-2.591026,0.109479,-0.911944,0.950291,0.039379,0.250539
700452142,-2.866470,-0.149712,-0.913377,0.960999,0.042217,0.251804
700472187,-3.219688,-0.104280,-0.998372,0.970082,0.043326,0.254008
700492232,-3.626407,0.184991,-1.090782,0.974759,0.045965,0.250292
700512276,-4.317823,0.291065,-1.276397,0.972828,0.036052,0.253882
700532331,-4.341212,0.451027,-1.307041,0.973625,0.028317,0.252066
700552365,-4.188312,0.512028,-1.310211,0.974161,0.016225,0.255526
700572409,-4.250257,0.801484,-1.363463,0.966348,0.055371,0.226183
700592454,-5.197208,0.670840,-1.719084,0.971511,0.048014,0.228285
700612499,-6.079403,0.586402,-1.877438,0.979535,0.040473,0.227072
700632544,-7.315879,0.615840,-2.182126,0.977012,0.029554,0.228222
700652589,-7.521433,0.593039,-2.132213,0.962228,0.025448,0.233565
700672634,-7.589997,0.265379,-2.106867,0.956703,0.006355,0.244584
700692678,-6.830670,0.067762,-1.968114,0.948967,0.006975,0.241265
700712723,-5.970104,-0.701113,-1.707161,0.931411,-0.001497,0.249476
700732768,-4.614965,-1.423455,-1.157942,0.953832,-0.012204,0.246207
700752814,-2.837690,-1.726355,-0.534256,0.966658,-0.028013,0.247285
700772859,-0.050338,-1.678344,0.122153,0.978682,-0.050884,0.268360
700792904,3.221729,-1.119249,0.927925,0.972422,-0.052154,0.275459
700812949,6.895003,-0.842520,1.520533,0.964131,-0.038335,0.277393
700832994,8.918839,-1.305137,2.254589,0.912466,0.053349,0.207134
700853039,6.786644,-3.469752,2.387225,0.918942,0.096523,0.180172
700873084,3.839196,-4.957988,1.807491,0.969762,0.067389,0.228737
700893131,3.010927,-4.890945,1.242589,1.016604,0.018897,0.239457
700913172,3.860020,-4.646815,1.255866,0.995111,0.001625,0.212619
700933217,4.673995,-4.531837,1.446008,0.954764,0.005182,0.199684
700953262,5.106379,-5.338930,1.707756,0.939329,0.012803,0.200207
700973306,5.230604,-6.771275,1.862943,0.919928,0.023134,0.194075
700993351,4.619683,-8.950757,1.981392,0.909338,0.037850,0.190419
701013396,3.608353,-11.481251,1.955950,0.909362,0.047562,0.177694
701033441,2.298673,-14.469060,1.937821,0.884300,0.056694,0.166759
701053486,0.904313,-17.548412,1.891073,1.041166,0.056312,0.129498
701073530,-0.284321,-18.387424,1.725894,1.027594,0.041341,0.111145
701093575,-1.723767,-17.245020,1.574269,0.998931,0.052824,0.146836
701113620,-3.138714,-14.914631,1.043782,1.063537,0.044443,0.138033
701133666,-3.942194,-11.136235,0.450761,1.096576,0.038327,0.150824
701153711,-4.088227,-6.176527,-0.189517,1.101995,0.020778,0.151305
701173756,-3.634637,-0.972386,-0.658848,1.100604,0.013752,0.140084
701193801,-3.369278,3.431948,-0.938469,1.071967,0.016435,0.137754
701213846,-3.156734,6.396116,-1.128215,1.037933,0.021012,0.130247
701233890,-3.019651,7.691539,-1.203961,1.004064,0.033511,0.127173
701253935,-3.775844,7.584749,-1.158366,0.973799,0.039105,0.125864
701273979,-4.711425,6.021969,-1.257273,0.950961,0.044348,0.126063
701294023,-5.190314,3.652280,-1.018489,0.936864,0.038775,0.124134
701314068,-5.991166,1.076647,-0.818621,0.934084,0.035392,0.116925
701334113,-6.717340,-1.194383,-0.728196,0.941900,0.039139,0.119963
701354158,-7.498800,-2.970336,-0.752969,0.970787,0.029994,0.120575
701374203,-8.110563,-3.496315,-0.739347,0.992182,0.025569,0.121398
701394247,-8.987414,-3.024765,-1.044843,1.009668,0.028783,0.123727
701414292,-9.755695,-1.989084,-1.285551,1.020119,0.027701,0.120827
701434337,-10.392785,-0.450269,-1.476990,1.020862,0.028522,0.121539
701454382,-10.956200,0.851975,-1.814258,1.015696,0.024325,0.118548
701474427,-11.614864,2.109009,-1.920284,1.023840,0.022609,0.119229
701494473,-12.024389,2.794173,-2.182069,1.007933,0.014942,0.118060
701514518,-12.280331,3.288955,-2.400352,1.000907,0.011112,0.118186
701534563,-12.461743,3.212974,-2.281957,0.990395,0.004818,0.117378
701554608,-12.432623,2.847016,-2.350077,0.978864,0.004716,0.121115
701574653,-12.425065,2.458369,-2.341288,0.985440,-0.001270,0.125551
701594697,-12.281115,1.924813,-2.395795,0.987713,-0.000523,0.134771
701614742,-12.021038,1.802972,-2.385153,0.983072,0.004658,0.136021
701634786,-12.253931,1.787213,-2.579260,0.996034,-0.001048,0.140076
701654830,-11.818585,1.947296,-2.611164,0.995505,-0.011592,0.145277
701674875,-11.320612,2.290473,-2.568480,0.990800,-0.013869,0.147540
701694920,-10.623734,2.466070,-2.513813,0.998200,-0.005571,0.152937
701714965,-10.209794,2.641586,-2.461298,1.002491,-0.009733,0.162312
701735010,-9.600393,3.136776,-2.604676,1.003703,-0.023350,0.177383
701755055,-8.695951,3.472602,-2.493440,0.989575,-0.034269,0.187990
701775099,-7.362400,4.022034,-2.337751,0.999280,0.004903,0.211090
701795144,-7.344309,4.822537,-2.210862,1.009481,0.033410,0.221035
701815189,-7.224200,6.644534,-1.974732,1.045878,0.024278,0.222699
701835234,-7.220226,8.655827,-2.248956,1.013466,0.045365,0.239376
701855280,-7.477316,10.750731,-2.587166,1.028146,0.029454,0.232162
701875325,-7.974504,12.731857,-2.668170,1.033938,0.050531,0.211149
701895370,-9.150643,15.328266,-3.532759,1.068497,0.032778,0.226294
701915415,-9.727444,19.113989,-4.275391,0.984930,0.010746,0.390792
701935459,-10.318249,11.217904,-4.535655,0.803336,0.002959,0.146986
701955504,-9.253039,6.457778,-3.386618,0.786788,-0.036498,0.070809
701975549,-8.473891,-0.375565,-2.339750,0.831796,-0.032347,0.118419
701995592,-7.652556,-2.432418,-2.089030,0.991357,-0.014858,0.206265
702015638,-7.187510,-0.428320,-2.234631,1.011826,0.022438,0.291639
702035682,-7.031200,1.621040,-2.542503,1.015007,0.039793,0.277303
702055727,-7.372842,2.032761,-2.422622,0.923167,0.038098,0.216690
702075772,-7.526571,-0.084847,-1.969386,0.877260,0.031200,0.159931
702095817,-7.892527,-3.177673,-1.378879,0.913703,0.017242,0.158970
702115861,-7.843155,-4.983226,-1.121658,0.974677,0.020613,0.215205
702135906,-7.696784,-4.182909,-1.088955,1.026579,0.034687,0.260865
702155951,-7.771714,-2.049037,-1.079323,1.039607,0.007923,0.291461
702175996,-6.684507,0.473779,-1.085894,1.016909,0.017174,0.294465
702196041,-6.213772,1.715590,-1.313123,0.970151,0.009655,0.299360
702216087,-5.559518,1.281971,-1.056924,0.920886,0.008662,0.292758
702236132,-5.483669,0.268407,-1.055021,0.927851,0.014050,0.299166
702256177,-4.953511,-0.424565,-0.887248,0.947039,0.005834,0.318461
702276222,-4.431997,-0.218470,-0.806356,0.952402,0.010257,0.346503
702296266,-2.508757,0.186458,-0.592855,0.932981,-0.054945,0.324883
702316311,0.315924,-1.548797,0.076407,0.837198,-0.035809,0.162632
702336356,2.139927,-6.232275,1.325087,0.847688,0.015235,0.106722
702356400,-0.679959,-9.722957,1.528972,0.957770,0.090959,0.243427
702376445,-2.349946,-11.325079,0.985960,0.965757,0.069463,0.273374
702396489,-3.218301,-12.591846,0.365146,0.952894,0.019955,0.169099
702416534,-2.762086,-14.229435,0.705610,0.907802,-0.001656,0.125696
702436579,-2.246207,-16.286318,0.977540,0.932934,-0.004257,0.126179
702456624,-1.759833,-18.884115,1.328258,1.188847,-0.002672,0.090767
702476669,-1.349127,-12.582270,0.986009,1.024481,0.006657,0.152378
702496713,-1.323341,-10.357747,0.641879,1.111532,0.016610,0.153056
702516758,-1.289996,-5.161302,0.188369,1.099815,0.012389,0.141734
702536803,-1.192353,-0.102593,-0.510457,1.082602,0.006239,0.124608
702556848,-1.189768,4.529916,-0.953851,1.082456,0.005869,0.121707
702576894,-0.888039,8.362493,-1.316330,1.064771,0.004971,0.142979
702596939,-0.599644,10.793178,-1.521055,1.019206,0.015724,0.139562
702616984,-0.536147,11.044969,-1.400862,0.981781,0.017384,0.131302
702637029,-0.347067,9.482581,-1.460461,0.967056,0.018981,0.120657
702657074,-0.385484,7.935619,-1.416358,1.010779,0.016321,0.123728
702677119,-0.460341,6.358397,-1.272108,0.926014,0.009979,0.157410
702697163,-0.381739,4.857491,-1.100525,0.972999,0.010927,0.139904
702717207,-0.677523,4.545290,-0.956200,0.983461,0.012783,0.152341
702737252,-0.287590,5.246464,-0.981384,1.010773,0.011137,0.176570
702757296,-0.034037,6.831723,-0.968657,1.038059,0.024219,0.195509
702777341,0.123369,9.109835,-1.223822,1.037858,0.029007,0.228820
702797386,0.515556,11.571599,-1.186138,1.035938,0.039891,0.263421
702817431,0.730239,14.657970,-1.261710,1.020966,0.019327,0.325802
702837475,-0.004493,9.597776,-1.123626,0.712059,0.103340,0.297614
702857520,-1.377124,4.774208,-0.752351,0.882784,0.029288,0.050362
702877565,-2.008707,-0.895098,-0.384997,0.861824,0.019413,0.091223
702897610,-1.938932,-2.777178,-0.265463,1.039019,-0.003104,0.176838
702917655,-1.608088,-0.042112,-0.670703,1.093644,0.013770,0.260664
702937701,-1.559532,4.064618,-1.090314,1.080892,0.033796,0.278369
702957746,-1.844329,6.586627,-1.284220,0.968225,0.045405,0.247681
702977791,-2.293618,5.161739,-1.133212,0.879173,0.031899,0.193757
702997836,-2.587150,1.573087,-0.748780,0.845172,0.016139,0.157598
703017880,-2.474920,-2.289720,-0.325459,0.887223,0.012052,0.178584
703037925,-2.324282,-3.660645,0.020047,0.988204,0.021122,0.235126
703057970,-2.479199,-2.434071,-0.133859,1.021512,0.042824,0.288262
703078013,-2.459236,-0.399822,-0.370262,1.017689,0.040198,0.298499
703098058,-2.622263,0.735245,-0.546631,0.973675,0.032641,0.279291
703118103,-2.498399,0.590690,-0.456856,0.933462,0.020661,0.277364
703138148,-2.250134,-0.201292,-0.229793,0.927737,0.014213,0.288275
703158193,-1.872868,-0.940024,-0.058901,0.945046,0.011638,0.309952
703178238,-1.367398,-0.612105,-0.023952,0.966114,0.045917,0.334681
703198283,-1.720432,0.369660,-0.555272,0.981506,0.055696,0.347474
703218327,-2.265092,1.466609,-0.693543,0.960364,0.049608,0.369178
703238372,-2.412975,2.113960,-0.860940,0.938055,0.003022,0.331146
703258417,-0.832402,0.531061,-0.076346,0.851982,-0.025406,0.220914
703278462,0.908317,-2.880730,0.749436,0.892091,-0.057525,0.131957
703298508,1.388304,-5.211653,1.160521,0.960656,0.073091,0.167426
703318553,-1.071286,-5.245460,0.023935,1.021957,0.119943,0.272967
703338598,-2.416380,-4.559913,0.032470,1.039562,0.032200,0.232235
703358642,-2.876095,-2.670318,-0.087164,1.008077,0.018407,0.174516
703378687,-2.606467,-1.733674,-0.431738,0.997469,0.022294,0.169243
703398732,-2.946676,-0.614068,-0.681032,1.011083,0.020529,0.188804
703418777,-2.629458,0.796264,-0.523770,1.031937,0.020198,0.190264
703438821,-2.744292,2.152634,-0.579548,1.032656,0.021662,0.194607
703458865,-3.010181,3.675861,-0.961532,1.024529,0.018102,0.194479
703478910,-3.135795,5.092785,-1.193056,1.013016,0.008797,0.188881
703498955,-3.147178,6.502059,-1.449694,1.017154,0.008251,0.185452
703519000,-3.079286,7.340195,-1.530217,0.920930,0.023866,0.247434
703539046,-3.137347,4.071457,-1.243115,0.939587,0.017590,0.180224
703559090,-2.966038,2.128720,-1.003087,0.908158,0.019255,0.170227
703579134,-2.932715,0.437370,-0.791783,0.965604,0.006808,0.183610
703599179,-2.595440,0.689042,-0.753317,0.994885,0.016013,0.220950
703619224,-2.873431,1.755459,-0.942510,0.999249,0.045720,0.245972
703639269,-3.737309,2.280053,-1.378339,0.968629,0.047948,0.245038
703659315,-4.132633,1.899224,-1.239495,0.933805,0.037779,0.233484
703679360,-4.346528,0.900927,-1.193814,0.900968,0.035080,0.226060
703699404,-4.358067,-0.973191,-0.919900,0.910892,0.032618,0.214457
703719449,-4.481156,-2.496397,-0.484519,0.929414,0.009599,0.197386
703739494,-4.597386,-3.327245,-0.540629,0.995022,0.026719,0.204590
703759539,-4.668812,-2.397923,-0.718091,1.042714,0.012796,0.214058
703779584,-4.747977,-0.676099,-0.928606,1.049762,0.003973,0.209413
703799627,-4.535701,0.863031,-1.083037,1.006581,0.005641,0.210782
703819672,-4.450325,1.206134,-1.024704,0.955308,0.013206,0.209647
703839717,-4.280727,0.124272,-0.909771,0.931748,0.026712,0.201130
703859762,-4.590523,-1.086966,-0.662843,0.924975,0.032367,0.215307
703879807,-4.728689,-2.108198,-0.656762,0.949128,0.017229,0.226176
703899851,-4.507157,-2.321534,-0.660350,0.971582,0.014838,0.244588
703919896,-4.418362,-2.131385,-0.830818,0.976820,0.003765,0.255320
703939941,-4.224746,-2.039569,-0.697335,0.966438,0.006738,0.247413
703959986,-3.930114,-2.291423,-0.885608,0.959716,0.011182,0.244797
703980031,-3.822021,-2.557969,-0.818045,0.973858,0.003467,0.243479
704000077,-3.173525,-2.215063,-0.908185,0.998994,0.004532,0.259026
704020122,-2.745041,-1.170921,-0.927617,1.013881,0.002751,0.268579
704040167,-2.055610,0.063926,-0.899257,1.009028,-0.000078,0.267758
704060212,-1.216029,0.894577,-1.010011,0.984454,-0.000916,0.277257
704080257,-0.517923,1.047473,-0.886520,0.971822,0.023074,0.272439
704100302,-0.228840,1.421749,-0.557152,0.959317,0.037730,0.288423
704120346,-0.292862,1.695694,-0.724934,0.949904,0.051562,0.298728
704140391,-0.787857,1.497690,-0.607689,0.947469,0.047467,0.300138
704160434,-0.962396,1.284445,-0.527178,0.939665,0.042357,0.297738
704180479,-1.321249,0.507140,-0.471778,0.935139,0.035869,0.284935
704200524,-1.047902,0.340311,-0.147944,0.938873,0.021888,0.298058
704220569,-1.105572,0.286415,-0.375889,0.957881,0.058898,0.325087
704240614,-2.128892,0.986379,-0.755718,0.974695,0.050089,0.320094
704260659,-2.539269,0.773225,-0.609500,0.911040,0.008564,0.245177
704280703,-1.519930,-0.993113,0.010842,0.925467,0.007152,0.205899
704300748,-2.416460,-2.404361,-0.471399,0.951889,0.064518,0.162144
704320793,-2.603300,-2.701045,-0.222260,1.020997,-0.013974,0.218467
704340838,-2.211643,-1.161410,-0.181495,1.040638,0.031489,0.240842
704360883,-2.408121,1.100094,-0.979922,1.045201,0.029840,0.230781
704380929,-2.106883,3.118967,-1.305788,0.998341,0.022866,0.235132
704400974,-1.744415,3.470003,-1.145879,0.941631,0.016324,0.235474
704421019,-1.290281,1.673110,-0.491544,0.915846,0.012603,0.209504
704441063,-1.320807,-0.163392,-0.423706,0.917873,0.014873,0.205744
704461108,-1.173763,-1.550024,-0.276755,0.952350,0.007657,0.212339
704481153,-1.044285,-1.626258,-0.301938,0.975888,0.009543,0.230363
704501198,-0.522926,-0.970582,-0.245464,1.008575,0.010499,0.229713
704521242,-0.310831,0.492321,-0.407279,1.003018,0.024122,0.221615
704541286,-0.463310,1.162926,-0.406553,0.989262,0.031532,0.204590
704561331,-0.524148,0.980065,-0.381839,0.962236,0.034678,0.205408
704581376,-0.805937,0.340025,-0.297826,0.954686,0.031221,0.211716
704601421,-0.827646,-0.414235,-0.203196,0.967176,0.032420,0.210502
704621466,-0.775295,-0.498196,-0.265064,0.984501,0.033733,0.218738
704641510,-1.019848,0.035177,-0.277378,0.996001,0.023212,0.227274
704661555,-1.136703,0.514946,-0.414253,0.992586,0.019218,0.234873
704681600,-0.742545,0.888995,-0.193904,0.975247,0.019459,0.230902
704701645,-0.817424,0.713912,-0.100170,0.945542,0.038255,0.235916
704721690,-1.124941,0.004920,-0.168257,0.947291,0.045182,0.241957
704741736,-1.559004,-0.430320,-0.479326,0.955629,0.029019,0.252008
704761781,-1.504090,-0.613012,-0.395728,0.950431,0.008831,0.260936
704781826,-0.974760,-0.826011,-0.290668,0.961367,0.001615,0.234890
704801870,-0.470025,-0.954416,0.143169,0.969934,0.014181,0.234632
704821915,-0.375051,-0.673012,-0.111778,1.009250,0.020511,0.232226
704841960,-0.402561,0.233207,-0.396995,1.031373,0.033539,0.224293
704862005,-0.747783,1.612246,-0.509509,1.008687,0.036621,0.237293
704882049,-0.930161,2.496301,-0.478348,0.977613,0.038121,0.236459
704902093,-1.074722,2.206782,-0.428730,0.945349,0.031413,0.225219
704922138,-1.085958,1.338587,-0.173454,0.920250,0.033016,0.226370
704942183,-1.130021,-0.093813,-0.022642,0.917894,0.032924,0.227409
704962228,-1.422744,-1.420112,-0.096603,0.942116,0.032960,0.228267
704982272,-1.369117,-1.923026,-0.073045,0.966547,0.023737,0.239667
705002317,-1.496835,-1.663676,0.043192,0.969226,0.032304,0.246688
705022362,-1.803152,-1.724782,0.018773,0.968922,0.046386,0.236230
705042407,-2.663053,-1.717854,-0.178525,0.967049,0.054113,0.234252
705062452,-3.301598,-1.749017,-0.395274,0.976000,0.046029,0.233750
705082496,-4.144971,-1.741925,-0.524120,0.974880,0.037853,0.241680
705102543,-4.552664,-1.468021,-0.669950,0.971982,0.028207,0.242381
705122588,-4.683792,-1.384381,-0.736457,0.979730,0.017845,0.240904
705142632,-4.631532,-1.148300,-0.814672,0.980066,0.008844,0.243637
705162677,-4.378503,-0.713781,-0.790462,0.970154,0.019032,0.251505
705182725,-4.152975,-0.690367,-0.580956,0.969398,0.030947,0.250863
705202767,-4.852494,-0.424328,-0.797512,0.970236,0.058080,0.263149
705222812,-5.812703,-0.143213,-1.054908,0.966405,0.046702,0.262688
705242860,-6.251046,-0.378896,-0.762884,0.956713,0.037299,0.251885
705262900,-6.627943,-0.676482,-0.876843,0.954833,0.041741,0.244466
705282945,-6.991773,-0.997214,-1.113241,0.959767,0.028018,0.248581
705302990,-7.163682,-1.058702,-1.316020,0.977771,0.024597,0.253726
705323034,-7.178159,-0.609001,-1.286671,0.986173,0.019150,0.253319
705343079,-7.495424,0.161069,-1.099683,0.990858,0.029895,0.255400
705363124,-8.184586,0.831340,-1.180239,0.982098,0.036252,0.256265
705383169,-8.386462,1.105219,-1.360629,0.972633,0.029136,0.252807
705403214,-8.958535,0.983318,-1.280349,0.957654,0.028850,0.257693
705423259,-8.985662,0.639852,-1.500282,0.958998,0.012646,0.250435
705443303,-8.871661,0.472146,-1.532501,0.965099,0.001579,0.263330
705463349,-8.260076,0.449437,-1.536651,0.968122,-0.004321,0.268281
705483395,-7.837606,0.487905,-1.430355,0.960496,0.000113,0.261323
705503439,-7.700743,0.442120,-1.471066,0.959830,0.009390,0.260502
705523484,-7.437469,0.366417,-1.284886,0.963857,0.014855,0.261242
705543529,-7.271738,-0.007257,-1.409121,0.951155,0.028740,0.252085
705563574,-7.545609,-0.167178,-1.326860,0.960895,0.025657,0.250109
705583619,-7.424223,-0.304434,-1.374607,0.973654,0.009413,0.262173
705603663,-6.949867,0.038648,-1.369671,0.971069,0.006959,0.265398
705623707,-6.643034,0.038860,-1.314494,0.966728,0.013573,0.253569
705643752,-6.549308,-0.067544,-1.201337,0.962400,0.014274,0.242023
705663797,-6.446573,-0.196629,-1.011864,0.961940,0.012388,0.256286
705683841,-6.371014,-0.036698,-1.067353,0.973579,0.010771,0.258269
705703886,-5.805379,0.260625,-1.086960,0.972893,0.004769,0.260287
705723931,-5.429586,0.558068,-1.034111,0.966881,0.002669,0.261029
705743976,-5.224352,0.504624,-1.099047,0.960199,0.025387,0.251936
705764021,-5.123534,0.398150,-1.016593,0.962464,0.008193,0.249929
705784066,-4.867676,0.238652,-0.814707,0.975403,0.001029,0.252625
705804111,-4.193937,0.528522,-0.775255,0.980434,-0.004314,0.262443
705824155,-3.413714,0.871690,-0.768613,0.971908,0.005770,0.261392
705844202,-2.830853,0.948279,-0.673198,0.953566,0.006737,0.257527
705864246,-2.261934,0.483996,-0.484014,0.956042,0.004996,0.248229
705884291,-1.540106,0.095956,-0.298051,0.955995,-0.000624,0.259949
705904336,-0.871308,0.050881,-0.096917,0.969769,0.002306,0.259165
705924381,-0.133241,0.120189,0.125415,0.968845,0.005025,0.253911
705944426,0.526250,0.059655,0.235083,0.962215,0.004109,0.255841
705964471,1.025366,-0.008518,0.355530,0.958908,0.007651,0.255074
705984516,1.723142,-0.190960,0.472502,0.967390,0.002931,0.254120
706004559,2.522954,-0.037737,0.723923,0.972693,0.006678,0.259471
706024604,3.035740,0.198697,0.743752,0.971350,0.008680,0.261033
706044649,3.871337,0.199205,0.865082,0.967885,0.013406,0.261629
706064693,4.072828,0.214850,1.013949,0.962824,0.014214,0.259717
706084738,4.405461,0.169718,1.229247,0.960748,0.019118,0.256476
706104783,4.751739,0.147237,1.352507,0.968409,0.022768,0.256067
706124828,4.742555,0.345163,1.260329,0.973591,0.024965,0.259788
706144873,5.087180,0.566318,1.283472,0.972435,0.020508,0.261177
706164918,5.096310,0.513170,1.367527,0.959920,0.020117,0.256216
706184963,5.334736,0.460074,1.447134,0.957572,0.018925,0.252718
706205007,5.588802,0.300342,1.549716,0.961008,0.023939,0.256010
706225053,5.579016,0.170516,1.435716,0.968207,0.030408,0.255513
706245098,5.444231,0.231811,1.590957,0.968349,0.028949,0.253244
706265143,5.165554,0.345598,1.397308,0.972404,0.042233,0.251156
706285188,4.942413,0.398697,1.317405,0.969584,0.033768,0.251218
706305233,4.682982,0.444419,1.345211,0.967227,0.025032,0.251636
706325277,4.711701,0.337500,1.245671,0.969885,0.020852,0.251870
706345322,4.857061,0.337550,1.250491,0.970225,0.018758,0.250415
706365366,4.977747,0.421192,1.156173,0.968659,0.024668,0.250069
706385411,4.678307,0.466672,1.085418,0.968586,0.031220,0.251421
706405455,4.315734,0.412815,0.909238,0.967301,0.032773,0.256070
706425500,4.132926,0.550022,0.942894,0.963600,0.034045,0.258491
706445545,3.454790,0.526292,0.650474,0.962052,0.040611,0.268855
706465590,3.150395,0.450195,0.733048,0.949561,0.024491,0.269095
706485635,3.268388,0.031536,0.930830,0.934615,0.014638,0.265462
706505679,3.711725,-0.638951,0.947384,0.944226,0.019732,0.257120
706525724,3.559026,-0.829472,0.966264,0.971115,0.026871,0.259373
706545769,3.805010,-0.554903,1.029350,0.985177,0.024989,0.263857
706565814,3.435553,-0.006656,0.874223,0.980751,0.037361,0.267271
706585860,3.080801,0.488176,0.688423,0.977518,0.037708,0.260517
706605905,2.873025,0.678456,0.607766,0.970768,0.031959,0.255830
706625950,2.527242,0.601937,0.515391,0.966037,0.026677,0.256464
706645995,2.319900,0.586523,0.465976,0.961433,0.023937,0.254369
706666039,2.317895,0.456717,0.359466,0.966111,0.022308,0.255290
706686084,2.065250,0.448986,0.341470,0.962735,0.011567,0.254821
706706129,2.403619,0.205479,0.457978,0.957356,0.015655,0.255632
706726175,2.670693,0.159759,0.430024,0.959657,0.015469,0.251690
706746217,2.704123,0.091555,0.590073,0.967616,0.015837,0.247469
706766263,2.902346,-0.060873,0.563809,0.969586,0.025208,0.245967
706786307,2.918254,0.061137,0.593660,0.972892,0.029490,0.247174
706806352,2.872834,0.106906,0.617314,0.976870,0.028045,0.249741
706826397,2.872846,0.365998,0.608809,0.974084,0.023223,0.251885
706846441,3.011593,0.480486,0.666868,0.976011,0.019497,0.252130
706866487,3.064693,0.739537,0.634409,0.965870,0.017580,0.256755
706886531,3.308109,0.625135,0.568935,0.962410,0.015028,0.257181
706906576,3.486114,0.633082,0.687718,0.963743,0.014026,0.255163
706926621,3.854597,0.549549,0.772543,0.966388,0.015204,0.250123
706946668,3.816092,0.526641,0.758084,0.965301,0.023391,0.251127
706966712,3.915420,0.465696,0.756359,0.968129,0.030219,0.251339
706986757,3.667810,0.480489,0.593003,0.962783,0.030479,0.248797
707006802,3.623196,0.488261,0.662615,0.964622,0.027663,0.249315
707026847,3.607524,0.297699,0.648271,0.963385,0.024844,0.251338
707046891,3.424788,0.320611,0.689948,0.965632,0.020841,0.249128
707066936,3.379294,0.236824,0.714034,0.966416,0.018018,0.246941
707086981,3.440703,0.214011,0.728201,0.968698,0.021661,0.247077
707107025,3.869415,0.214196,0.758089,0.966915,0.024847,0.249644
707127069,3.714309,0.152908,0.639040,0.962824,0.026025,0.250711
707147114,3.507572,-0.007213,0.628301,0.960405,0.030112,0.248657
707167159,3.431604,-0.159576,0.660848,0.964467,0.029394,0.250858
707187204,3.064581,-0.174918,0.660380,0.969949,0.030858,0.251035
707207249,3.008822,-0.022816,0.531051,0.966892,0.026945,0.253363
707227293,2.925503,-0.144662,0.578922,0.963214,0.026574,0.252065
707247338,2.595473,-0.129673,0.508861,0.960061,0.025200,0.249488
707267383,2.648203,-0.274548,0.470113,0.965634,0.024571,0.249485
707287428,2.459853,-0.319957,0.626748,0.968719,0.029305,0.248698
707307473,2.244605,-0.312545,0.562127,0.970953,0.033042,0.251105
707327519,2.036381,-0.183287,0.458757,0.968640,0.027577,0.249247
707347564,1.952956,-0.251804,0.498811,0.967799,0.028302,0.248262
707367609,1.913809,-0.190971,0.445878,0.968562,0.025213,0.249797
707387654,1.845438,-0.183312,0.470104,0.971074,0.021391,0.247128
707407698,1.983288,-0.190866,0.482737,0.967241,0.024934,0.247551
707427743,1.929949,-0.145135,0.491261,0.967231,0.024751,0.247006
707447788,1.793492,-0.114538,0.554939,0.970237,0.027120,0.246679
707467831,1.753634,-0.091899,0.463939,0.968719,0.028577,0.248609
707487876,1.548619,-0.137491,0.544484,0.969431,0.025119,0.247422
707507921,1.560784,-0.290300,0.376644,0.966820,0.024928,0.244562
707527966,1.539299,-0.175813,0.453095,0.966510,0.019747,0.247209
707548011,1.430176,-0.259935,0.340870,0.969298,0.020293,0.244891
707568056,1.577066,-0.236825,0.429641,0.971833,0.018566,0.243579
707588100,1.598446,-0.054133,0.336920,0.973482,0.020752,0.244002
707608145,1.683087,-0.031180,0.365767,0.972781,0.021664,0.245646
707628190,1.629356,0.052602,0.351248,0.967596,0.024024,0.246911
707648235,1.752868,0.014686,0.417751,0.966206,0.022382,0.245757
707668280,1.867330,-0.069136,0.408167,0.967101,0.020844,0.249557
707688326,1.730873,-0.038540,0.471845,0.968845,0.023759,0.250158
707708371,1.836908,-0.046262,0.416323,0.967571,0.028215,0.250717
707728416,1.668560,0.090840,0.403850,0.965070,0.030400,0.253842
707748460,1.483859,0.052534,0.338789,0.962566,0.030675,0.256698
707768505,1.045293,0.044439,0.186855,0.964191,0.028045,0.260397
707788550,1.070105,-0.039135,0.293632,0.967813,0.022779,0.263249
707808595,1.160984,-0.062084,0.246096,0.966533,0.016681,0.262827
707828638,1.251541,0.074951,0.175110,0.966031,0.016222,0.260385
707848683,1.235009,0.067165,0.106684,0.966181,0.017675,0.258746
707868728,1.368814,0.082938,0.317995,0.964276,0.019038,0.259503
707888773,1.460231,0.037197,0.301091,0.961398,0.024488,0.257364
707908817,1.544213,0.113407,0.291566,0.963734,0.024488,0.255327
707928862,1.237460,0.014142,0.244359,0.965081,0.024852,0.254123
707948907,1.551048,-0.092445,0.253911,0.968418,0.022578,0.251710
707968952,1.583547,-0.099808,0.360286,0.968721,0.022118,0.248347
707988997,1.684527,0.075692,0.441798,0.969888,0.021936,0.247238
708009042,1.566466,0.136185,0.252851,0.974230,0.017571,0.244720
708029087,1.634929,0.288565,0.228091,0.977386,0.017208,0.242488
708049133,2.003845,0.479420,0.327277,0.978194,0.018663,0.241837
708069178,1.759010,0.761286,0.308165,0.980305,0.020114,0.237623
708089222,1.767275,0.883293,0.338165,0.976856,0.023023,0.238948
708109267,1.643626,0.921191,0.264023,0.971547,0.021922,0.238314
708129312,1.673380,0.936332,0.217547,0.969069,0.023456,0.232907
708149357,1.727590,0.966918,0.254600,0.970059,0.025094,0.232252
708169402,1.497150,0.898135,0.198169,0.972422,0.024823,0.231576
708189446,1.450725,0.875190,0.168581,0.969210,0.023907,0.230725
708209490,1.158299,0.783424,0.067580,0.971445,0.026635,0.228322
708229535,1.081754,0.829114,0.061272,0.969946,0.025629,0.226261
708249579,1.075652,0.631184,0.153747,0.968138,0.019615,0.222036
708269625,0.958650,0.615612,0.026164,0.973318,0.020711,0.220675
708289669,1.105864,0.722588,0.129932,0.987282,0.022940,0.234776
708309714,0.666988,1.133572,-0.053957,0.983142,0.052989,0.254495
708329759,-0.338963,1.620441,-0.311150,0.970845,0.052272,0.270864
708349804,-0.874787,1.673561,-0.346778,0.958211,0.012790,0.281494
708369849,-0.369139,1.590004,-0.287539,0.946395,0.004689,0.288971
708389893,0.359900,1.171429,-0.124538,0.938279,0.016060,0.295263
708409940,0.584271,0.859397,0.032617,0.951478,0.026629,0.293478
708429985,0.077432,0.790392,-0.087223,0.956769,0.039291,0.298722
708450029,-0.185859,0.835611,-0.273301,0.963503,0.034849,0.301974
708470074,-0.522272,1.125095,-0.283020,0.967827,0.039581,0.299078
708490119,-0.506983,1.368949,-0.291770,0.957246,0.027358,0.289384
708510164,-0.143594,1.163821,-0.061253,0.953529,0.019514,0.280655
708530209,0.125043,0.958277,0.002992,0.948398,0.019778,0.279834
708550259,0.473102,0.676936,0.234059,0.949553,0.011506,0.282461
708570297,0.796229,0.509635,0.350610,0.954427,0.022542,0.294614
708590342,0.726660,0.593342,0.305832,0.953449,0.046033,0.307210
708610387,0.111081,0.623151,0.088434,0.956056,0.046397,0.304986
708630431,-0.218744,0.516242,0.034059,0.952671,0.044282,0.294880
708650476,-0.708803,0.645563,-0.010353,0.951309,0.019940,0.318092
708670521,-0.608274,0.516191,0.056900,0.946477,0.019976,0.342866
708690566,-0.819679,0.629795,-0.222110,0.951114,0.050898,0.333930
708710611,-1.613238,0.697383,-0.558443,0.954999,0.054547,0.336763
708730655,-2.241521,0.902793,-0.638633,0.951721,0.039730,0.346103
708750700,-2.456320,0.971226,-0.680542,0.942057,0.041836,0.361787
708770747,-2.598572,1.237299,-0.946118,0.946625,0.040379,0.356900
708790791,-2.766432,1.504011,-0.936107,0.955881,0.031735,0.348224
708810836,-2.665535,1.534714,-0.854111,0.939487,0.023973,0.345430
708830881,-2.387986,1.138829,-0.712991,0.932815,0.032780,0.340899
708850926,-2.656126,1.009142,-0.737922,0.945533,0.050715,0.338292
708870971,-3.399008,1.062126,-0.807740,0.947775,0.044619,0.335722
708891015,-3.630236,1.061824,-0.910232,0.947756,0.047603,0.325187
708911059,-4.085975,1.129684,-1.169066,0.946276,0.040511,0.328583
708931104,-4.152628,1.008021,-1.045104,0.938734,0.028593,0.334814
708951148,-3.922040,0.855834,-0.972657,0.929911,0.020040,0.341151
708971193,-3.721297,0.528466,-0.853199,0.925551,0.020118,0.337594
708991238,-3.725817,-0.035035,-0.660199,0.926716,0.031465,0.322487
709011283,-4.096955,-0.492891,-0.873076,0.927598,0.046046,0.336336
709031328,-4.514000,-1.034587,-1.084782,0.937928,0.047717,0.346597
709051373,-4.246209,-1.270722,-1.066267,0.921403,0.033898,0.365602
709071417,-3.574010,-1.499235,-1.093833,0.929596,0.038465,0.369267
709091462,-2.563494,-1.718799,-0.593092,0.935481,0.003094,0.374037
709111507,-1.728070,-1.779275,-0.479196,0.948021,0.007208,0.375631
709131553,-0.339960,-1.313518,-0.263156,0.964322,0.008874,0.377983
709151599,1.178074,0.197245,0.336599,0.970002,0.013342,0.379150
709171643,1.643503,1.051713,0.676230,0.947764,0.035323,0.378312
709191688,2.096406,1.326399,0.765866,0.938216,0.033866,0.385377
709211733,2.297691,1.463943,0.899048,0.921605,0.044297,0.381830
709231778,1.994021,0.968820,1.036494,0.909381,0.016299,0.351765
709251823,2.543547,0.421168,1.425009,0.908669,-0.001277,0.342003
709271867,3.170340,-0.218794,1.437902,0.932732,0.018124,0.335569
709291911,2.993213,-0.479090,0.953152,0.939997,0.021736,0.314106
709311956,3.431829,-1.103477,1.130115,0.944854,0.002249,0.299168
709332000,3.908970,-1.430622,1.312982,0.948794,0.008360,0.305082
709352045,3.849216,-1.407593,1.390479,0.956562,0.038660,0.302267
709372090,3.131704,-1.050466,1.021141,0.975575,0.046778,0.298661
709392135,2.678603,-0.951781,0.907341,0.953384,0.017160,0.287379
709412180,2.510457,-1.180428,0.919006,0.948330,0.021690,0.281194
709432224,2.507868,-1.607504,0.790574,0.951787,0.021720,0.295024
709452269,2.288236,-1.447263,0.901282,0.973581,0.026215,0.298185
709472314,1.903128,-0.815243,0.723256,0.966613,0.030569,0.297116
709492359,1.308086,-0.389482,0.358954,0.985783,0.029149,0.301240
709512405,0.843999,0.371735,0.036842,0.957668,0.042683,0.312772
709532450,-0.071373,0.553663,-0.274584,0.959779,0.053787,0.313988
709552495,-1.038052,0.956855,-0.471129,0.951822,0.053146,0.318301
709572539,-1.499756,0.346722,-0.612968,0.931533,0.035001,0.311687
709592584,-1.730816,-0.080297,-0.691119,0.925486,0.021286,0.329333
709612629,-2.055033,-0.370358,-0.851974,0.928073,0.026652,0.326375
709632674,-2.363259,-0.873693,-0.966580,0.919081,0.057015,0.321213
709652717,-3.473218,-1.515259,-1.439601,0.924043,0.080018,0.309652
709672762,-5.094994,-1.905432,-1.895885,0.942621,0.079056,0.316327
709692807,-6.064273,-2.324584,-1.783985,0.994165,0.043079,0.300983
709712852,-6.635247,-1.013718,-1.693213,0.967904,0.034021,0.293094
709732897,-6.801612,-0.648739,-2.027424,0.991370,0.008455,0.271586
709752941,-6.403362,-0.214187,-2.006033,0.957220,0.014303,0.262899
709772986,-6.126147,-0.472950,-1.888287,0.974212,0.028692,0.205577
709793031,-6.204790,-0.960956,-1.992117,0.930153,0.008478,0.231780
709813076,-6.316304,-1.845525,-2.208610,1.000242,0.056124,0.211987
709833121,-5.980169,-1.554907,-1.811103,0.975021,0.029860,0.248681
709853166,-5.343839,-1.059192,-1.733404,0.962879,0.008090,0.242842
709873212,-4.508533,-1.325433,-1.618821,0.977581,0.020922,0.233674
709893257,-3.543203,-1.195376,-1.515722,0.950423,0.036645,0.247636
709913301,-3.189004,-1.454050,-1.368905,0.975135,0.041648,0.226328
709933346,-3.495345,-1.317031,-1.401624,0.994220,0.048035,0.221544
709953391,-4.568099,-0.838531,-1.970793,0.970101,0.058579,0.236553
709973436,-5.806184,-0.489248,-2.375853,0.981253,0.042202,0.226223
709993481,-5.874496,-0.618747,-2.343530,0.973459,0.010973,0.217874
710013524,-5.935668,-0.664486,-2.342191,0.973130,0.005210,0.200006
710033569,-5.163585,-0.602345,-1.929458,1.021561,0.003099,0.200909
710053614,-4.413513,0.236194,-1.916239,1.012513,0.026939,0.211826
710073659,-3.899598,0.998578,-1.852335,0.996410,0.035011,0.210907
710093703,-3.799388,1.753123,-1.833867,0.998339,0.029630,0.201442
710113748,-3.837079,2.187542,-1.819299,0.956942,0.032058,0.220027
710133793,-4.147211,1.829738,-1.621054,0.971623,0.047229,0.195333
710153838,-4.800709,1.417598,-1.805679,0.951926,0.060196,0.188112
710173883,-6.063902,0.615923,-2.290476,0.954722,0.059643,0.181348
710193927,-6.722407,0.234605,-2.329919,0.957343,0.046841,0.193670
710213972,-7.035855,0.104980,-2.323405,0.994123,0.035701,0.191337
710234019,-7.026600,0.028988,-2.231634,0.968776,0.043857,0.194297
710254063,-7.268276,-0.427909,-2.049670,0.953829,0.059643,0.182453
710274108,-8.072624,-0.931265,-2.116442,0.992147,0.061225,0.170359
710294153,-8.740269,-1.038446,-2.248318,0.989878,0.052349,0.194922
710314198,-9.054149,-0.718528,-2.281500,1.004337,0.055400,0.211101
710334243,-9.424565,-0.162785,-2.490123,0.974565,0.056384,0.226041
710354288,-9.827611,0.279370,-2.384435,0.962987,0.045980,0.216905
710374331,-9.689295,0.363320,-2.349192,0.952053,0.046240,0.218362
710394376,-10.137832,-0.094678,-2.614056,0.981899,0.048018,0.222117
710414421,-10.413970,-0.125349,-2.662085,0.978028,0.058026,0.225707
710434465,-10.946517,-0.125145,-2.514206,0.975644,0.060569,0.225380
710454510,-11.418849,0.172144,-2.429616,0.992973,0.066415,0.224349
710474555,-11.785854,0.323460,-2.858561,0.974524,0.058672,0.233754
710494600,-12.385504,0.033302,-3.029355,0.953702,0.041801,0.228055
710514645,-12.095608,-0.575339,-2.620315,0.977912,0.034078,0.213221
710534690,-12.228023,-0.331840,-2.763744,0.984305,0.039108,0.223180
710554734,-12.058996,-0.111691,-3.149829,1.001298,0.029597,0.232528
710574779,-11.722987,0.574176,-3.196840,0.968755,0.037488,0.246233
710594825,-11.252012,0.658720,-2.946450,0.962779,0.036003,0.234355
710614870,-10.933455,0.560399,-2.661930,0.956601,0.039429,0.221746
710634915,-10.780055,0.293791,-2.625812,0.955507,0.038527,0.226668
710654960,-10.896436,0.156374,-2.714793,0.975206,0.053664,0.230846
710675005,-11.097786,0.148368,-2.856047,0.957392,0.058377,0.235862
710695050,-11.363812,-0.141071,-2.758224,0.968280,0.051000,0.221800
710715101,-11.506438,-0.286544,-3.030064,0.958528,0.042353,0.227245
710735138,-11.747108,-0.774783,-3.214805,0.958822,0.031537,0.232523
710755183,-11.329069,-1.383628,-2.907591,0.960313,0.028977,0.224241
710775227,-11.303579,-1.489975,-2.762543,0.994370,0.038488,0.224099
710795272,-11.239576,-1.078092,-2.619969,1.009245,0.040419,0.223479
710815317,-10.839450,-0.018429,-2.516639,0.988447,0.045222,0.230089
710835362,-10.684252,0.202898,-2.398124,0.973362,0.058937,0.230233
710855407,-10.820196,0.028804,-1.875288,0.960235,0.065627,0.217464
710875452,-10.928706,-0.428635,-1.940433,0.955444,0.058338,0.214835
710895497,-11.139499,-0.344441,-1.760869,0.968709,0.039369,0.229346
710915541,-10.839197,-0.092616,-1.652913,0.973611,0.040110,0.232620
710935588,-10.979279,0.112778,-1.796066,0.965645,0.030552,0.235858
710955633,-10.497052,-0.108014,-1.758840,0.966647,0.020701,0.220516
710975677,-9.805723,-0.366505,-1.572716,0.978339,0.027087,0.220942
710995722,-9.167299,-0.304876,-1.363707,0.975139,0.021450,0.225272
711015767,-8.349745,-0.540960,-1.386427,0.979658,0.020269,0.222655
711035812,-7.420147,-0.410589,-1.145089,0.980781,0.017353,0.219010
711055857,-7.205000,-0.113201,-1.096764,0.989271,0.027283,0.219393
711075900,-7.264979,0.373647,-1.471652,0.983532,0.033744,0.225472
711095945,-7.274077,0.480141,-1.555886,0.973476,0.024258,0.219577
711115990,-7.301361,0.206230,-1.363409,0.967768,0.020498,0.207244
711136034,-7.157540,-0.312103,-1.425605,0.979882,0.024234,0.200767
711156080,-6.700919,0.091620,-1.558073,1.007150,0.021376,0.208023
711176124,-6.657399,1.059109,-1.722609,0.987575,0.039484,0.227118
711196169,-7.308754,1.393049,-2.238342,0.978112,0.057289,0.220441
711216214,-7.946822,1.232402,-2.424103,0.970658,0.045974,0.207061
711236259,-8.712810,0.980545,-2.492458,0.967449,0.039327,0.206038
711256304,-9.314208,0.766363,-2.762809,0.965962,0.048810,0.219846
711276349,-10.220389,0.521755,-2.973654,0.970425,0.057549,0.219664
711296395,-11.463917,-0.096459,-3.222559,0.949270,0.075866,0.203291
711316439,-13.053778,-0.791265,-3.594392,0.949818,0.091681,0.194541
711336484,-14.575871,-1.105171,-4.037582,0.983942,0.049247,0.194756
711356529,-14.843368,-1.074746,-4.032493,0.995374,0.048611,0.185757
711376574,-15.349749,-1.067489,-4.129672,0.960957,0.041523,0.166929
711396619,-14.593988,-1.607492,-3.752825,0.978977,-0.017223,0.164631
711416664,-12.001587,-1.711441,-2.878166,0.996401,-0.033997,0.181882
711436707,-9.370080,-1.092327,-2.404030,0.996802,-0.017244,0.189654
711456752,-7.520379,-0.450810,-2.037060,1.010041,0.038515,0.226827
711476797,-7.941724,0.745364,-2.124564,0.979078,0.043145,0.246683
711496841,-7.859027,0.609029,-1.774208,0.944743,0.019588,0.226247
711516886,-6.914937,-0.159899,-1.545441,0.935984,-0.003451,0.220534
711536931,-5.389063,-1.050507,-1.274068,0.954108,-0.012602,0.226867
711556976,-3.547390,-1.315862,-0.896282,0.970701,-0.008205,0.230299
711577021,-1.667558,-1.444049,-0.527335,0.984028,-0.005192,0.225165
711597066,0.076324,-1.137697,-0.080782,0.982800,-0.024915,0.236384
711617111,1.959172,-0.815893,0.439437,0.967433,-0.021300,0.235460
711637156,3.427695,-0.860163,0.892500,0.978155,-0.023764,0.222572
711657202,5.199808,-0.790339,1.217030,0.979128,-0.011903,0.241055
711677247,5.711136,-0.211180,1.144048,0.993565,0.004867,0.247226
711697292,6.113799,0.223946,1.409878,0.980863,0.004931,0.242086
711717337,6.813166,0.171257,1.610444,0.968465,-0.000760,0.223607
711737381,7.586739,-0.156037,1.695862,0.970328,-0.004220,0.220404
711757426,8.723157,-0.193208,1.964309,0.973512,-0.026333,0.213487
711777471,10.552564,-0.244804,2.502091,0.991367,-0.034418,0.205571
711797515,12.082142,0.511062,2.920740,0.989851,-0.019825,0.227904
711817559,12.970005,0.999123,2.955378,0.984417,0.021221,0.242634
711837604,12.643871,1.555663,3.082116,0.968278,0.026650,0.239632
711857649,12.062354,1.182055,3.071720,0.946218,0.013058,0.236309
711877694,12.587792,0.535183,3.399901,0.950291,0.005136,0.228991
711897738,12.933052,-0.058956,3.486877,0.965884,0.015628,0.233065
711917783,13.787541,-0.019874,3.806390,0.977681,-0.020928,0.231563
711937828,15.612951,0.171861,4.114197,0.985304,-0.061409,0.226416
711957873,17.503378,0.379354,4.634649,0.978924,-0.073253,0.221552
711977918,19.829685,0.244056,5.170710,0.974931,-0.068807,0.218345
711997963,21.963120,0.344713,5.602747,0.973314,-0.041148,0.221504
712018009,23.745197,0.376739,6.057114,0.966937,-0.030767,0.232761
712038054,25.211012,0.179710,6.365551,0.965139,-0.025316,0.229787
712058099,26.342430,-0.299099,6.796036,0.955959,-0.030984,0.222146
712078143,27.709055,-0.679016,7.122289,0.966529,-0.033154,0.220607
712098188,28.761396,-0.723827,7.392394,0.999562,-0.030652,0.219042
712118233,29.490873,0.099769,7.535968,0.992002,-0.022812,0.235225
712138278,29.709803,0.876739,7.353380,0.992240,-0.013543,0.229033
712158321,29.917040,1.189332,7.386525,0.978534,-0.034788,0.212871
712178366,30.567924,1.236347,7.862791,0.982103,-0.035063,0.208362
712198411,31.141733,1.259410,7.882145,0.976484,-0.018708,0.201986
712218456,31.957474,1.092665,8.180172,0.964088,-0.042842,0.197063
712238501,33.461922,0.415617,8.527665,0.958907,-0.048505,0.188355
712258545,35.252628,0.013415,9.052082,0.980081,-0.078798,0.170978
712278590,37.608940,-0.160052,9.557121,0.984314,-0.104736,0.161327
712298635,40.490334,-0.149820,10.341737,1.001599,-0.054180,0.185004
712318680,40.682697,0.779078,9.952839,1.011053,0.005830,0.210615
712338725,40.295288,1.350828,10.073074,0.976841,0.000853,0.202764
712358771,39.070095,0.755874,9.991849,0.953560,0.006783,0.179459
712378816,38.376923,-0.273711,9.748918,0.948877,-0.001861,0.182458
712398861,38.060875,-0.853275,9.627075,0.987399,-0.028456,0.184387
712418906,38.736549,-0.547912,9.773417,0.994746,-0.041319,0.209973
712438950,39.391666,0.175880,9.613108,1.007666,-0.047128,0.206948
712458995,40.186317,0.709449,9.565347,0.998801,-0.049160,0.196845
712479040,40.368595,1.082735,9.484153,0.985125,-0.028897,0.194593
712499084,40.337601,1.311283,9.453426,0.993276,-0.019702,0.191443
712519129,40.395851,1.554772,9.283375,0.990753,-0.017221,0.208004
712539173,40.185974,1.683815,9.088340,0.983046,-0.009502,0.206670
712559218,39.811974,1.386606,9.134793,0.962712,-0.005650,0.189309
712579263,39.897003,0.883806,9.203591,0.965076,-0.009841,0.183647
712599308,39.580833,0.586180,9.065529,0.978052,-0.008895,0.193682
