Timestamp (us),Gyroscope X (deg/s),Gyroscope Y (deg/s),Gyroscope Z (deg/s),Accelerometer X (g),Accelerometer Y (g),Accelerometer Z (g)
2261002932,2.601463,2.398097,-0.324773,0.878959,0.341552,0.360331
2261012912,1.903301,2.277601,-0.842980,0.874758,0.348755,0.365054
2261022892,0.171215,2.053350,-1.652847,0.872260,0.343030,0.369655
2261032872,-1.820080,1.586353,-2.569458,0.870858,0.335458,0.373031
2261042852,-3.005600,0.827618,-3.574044,0.876812,0.323349,0.369696
2261052832,-3.400371,0.249463,-4.287889,0.884873,0.315525,0.362505
2261062812,-2.695696,0.610840,-4.984326,0.889597,0.318602,0.364909
2261072793,-1.625767,1.351974,-5.346190,0.883936,0.323256,0.368371
2261082773,-0.785923,1.850852,-5.526306,0.878807,0.327002,0.372223
2261092753,0.219183,1.740658,-5.780860,0.873653,0.325270,0.374524
2261102733,1.484611,1.705100,-6.323062,0.878349,0.321040,0.374497
2261112713,2.263183,1.731995,-6.836610,0.881828,0.318605,0.372051
2261122693,2.508824,1.836914,-7.215425,0.893526,0.321745,0.371304
2261132673,2.054490,1.715487,-7.808720,0.895119,0.326169,0.376542
2261142653,1.433913,1.639791,-8.615134,0.898784,0.330876,0.377807
2261152633,1.028963,1.806058,-9.770311,0.906592,0.346052,0.376791
2261162613,0.382118,2.566646,-10.745030,0.909293,0.351733,0.381847
2261172594,0.132166,3.493032,-11.840117,0.917757,0.358718,0.380613
2261182574,0.567749,4.904498,-12.660442,0.935699,0.362664,0.377235
2261192554,0.913033,6.376754,-13.648127,0.939521,0.369776,0.381378
2261202532,0.315879,7.653458,-15.048459,0.933373,0.390146,0.390037
2261212513,-0.998268,7.973279,-16.920273,0.923364,0.418838,0.405593
2261222492,-3.407509,7.046874,-20.038509,0.931856,0.454758,0.418819
2261232473,-7.191980,6.897698,-24.574081,0.936144,0.480104,0.427043
2261242453,-11.730531,7.555482,-29.887474,0.922058,0.490364,0.447378
2261252433,-17.086676,8.320683,-36.023380,0.905813,0.491642,0.461083
2261262413,-21.014004,8.457330,-42.350956,0.910490,0.481563,0.458966
2261272393,-21.257362,8.627371,-48.909267,0.923686,0.474754,0.450214
2261282373,-18.291973,9.473835,-54.365108,0.936676,0.479928,0.427784
2261292353,-13.041301,11.027996,-59.753738,0.946936,0.495988,0.389463
2261302333,-6.771152,12.365632,-65.305641,0.935122,0.510110,0.352226
2261312314,-1.748910,12.198778,-72.195160,0.885189,0.516361,0.346473
2261322294,3.029633,11.453778,-79.555161,0.841111,0.483051,0.349852
2261332274,10.294361,12.237287,-86.787804,0.827504,0.429900,0.360672
2261342254,19.198109,12.728058,-93.286011,0.839931,0.393900,0.381706
2261352234,25.991627,12.879625,-97.862961,0.854694,0.385077,0.397966
2261362214,29.289526,12.468106,-100.598816,0.857856,0.380931,0.402645
2261372194,30.464832,11.959951,-101.823662,0.843782,0.368291,0.398587
2261382175,29.648186,13.148797,-101.888855,0.829922,0.343157,0.385631
2261392155,25.926273,15.397696,-101.312538,0.801646,0.313775,0.382862
2261402135,20.050966,16.849304,-99.770699,0.780508,0.287037,0.379452
2261412115,14.070251,19.915913,-97.032509,0.763727,0.270899,0.382869
2261422095,10.531439,22.673605,-92.767899,0.744353,0.245821,0.394763
2261432075,11.770823,18.618578,-87.839806,0.699169,0.174408,0.377620
2261442055,18.105972,13.679734,-83.197121,0.702856,0.103717,0.357355
2261452035,31.206989,16.296656,-77.131744,0.743693,0.035574,0.338822
2261462015,50.108555,15.646662,-67.839584,0.742213,-0.006525,0.305792
2261471995,69.863029,9.262679,-57.139591,0.730360,-0.006276,0.252208
2261481975,91.565880,2.521801,-46.857628,0.718127,0.039128,0.202977
2261491956,112.217484,-3.566735,-39.069443,0.683781,0.129369,0.183203
2261501935,127.830414,-10.269987,-34.848831,0.661585,0.273052,0.196469
2261511916,135.877457,-18.630789,-34.900814,0.667398,0.471168,0.209722
2261521896,134.563995,-26.106022,-40.540508,0.693501,0.691782,0.209319
2261531876,125.231079,-28.495310,-48.430412,0.719548,0.874963,0.235025
2261541857,108.957764,-24.797501,-50.675461,0.730789,0.926648,0.234202
2261551838,90.746758,-21.130220,-48.509838,0.728346,0.839834,0.201158
2261561818,74.424744,-23.222803,-48.575829,0.754074,0.696373,0.205619
2261571798,61.155399,-21.572313,-50.625748,0.793159,0.575996,0.219235
2261581778,50.426689,-12.529323,-55.926590,0.754245,0.586935,0.330713
2261591758,37.867561,-9.917212,-62.696220,0.615977,0.721614,0.429417
2261601738,31.070057,-10.803444,-67.923691,0.481852,0.851887,0.353795
2261611718,48.263264,-6.168975,-73.095314,0.436826,0.898234,0.196494
2261621698,69.841881,4.303144,-80.310310,0.472126,0.846941,0.257172
2261631678,71.162766,4.317236,-86.301598,0.567564,0.713082,0.346167
2261641659,62.364906,-1.574366,-87.824570,0.690696,0.566965,0.362292
2261651639,58.919109,-1.895666,-86.681892,0.740413,0.496823,0.399867
2261661619,60.655441,1.069402,-84.358223,0.709203,0.530358,0.346112
2261671599,72.681862,5.097449,-81.668205,0.644442,0.618827,0.183388
2261681579,87.878311,10.538822,-82.081482,0.565412,0.741367,0.152613
2261691568,90.400543,15.891006,-86.452652,0.478742,0.832018,0.223481
2261701539,83.094223,18.896576,-93.433182,0.428066,0.889362,0.279892
2261711519,72.522530,19.432777,-100.709221,0.460965,0.914511,0.319786
2261721499,62.900433,20.305229,-105.675446,0.537404,0.881869,0.304967
2261731480,57.395630,18.842979,-107.892380,0.632039,0.867911,0.312577
2261741460,55.562405,18.699606,-106.471413,0.727730,0.884810,0.230461
2261751440,62.618179,25.102829,-102.905815,0.731852,0.902466,0.135179
2261761418,67.650558,31.938889,-99.089523,0.654779,0.897181,0.166816
2261771399,66.369553,37.590469,-96.795013,0.533456,0.842904,0.148725
2261781379,66.295311,36.956676,-94.426422,0.365096,0.806439,0.208885
2261791359,62.019905,29.935383,-90.863029,0.284320,0.768779,0.236978
2261801339,61.076206,25.030352,-88.521286,0.299283,0.723347,0.199022
2261811319,65.253944,21.537613,-86.711151,0.379438,0.742360,0.175958
2261821299,70.088905,21.866079,-82.111664,0.486087,0.764870,0.149680
2261831279,69.474205,23.111687,-76.347603,0.530603,0.804253,0.189008
2261841259,64.235931,22.649065,-72.706123,0.544988,0.862781,0.123659
2261851240,60.212811,25.789768,-75.365234,0.501711,0.908695,0.112279
2261861219,49.971371,23.682402,-80.662979,0.410772,0.957990,0.099423
2261871200,43.128891,17.339340,-84.227951,0.353581,1.002439,0.015144
2261881180,45.001675,12.250416,-85.640968,0.339391,1.018793,-0.020352
2261891160,43.441429,9.446823,-83.046356,0.359912,1.011300,-0.020946
2261901140,35.948311,11.232442,-76.835289,0.387211,0.967891,-0.011174
2261911120,27.799805,15.230019,-68.428764,0.395038,0.898964,0.005214
2261921100,18.295525,17.883183,-57.580933,0.383057,0.878276,0.111330
2261931080,8.792459,18.356865,-48.945934,0.373040,0.939141,0.101589
2261941060,5.022361,21.749844,-46.792892,0.350804,1.066685,0.130053
2261951040,0.703669,26.250469,-46.829063,0.307857,1.158450,0.146339
2261961020,-5.879821,30.298311,-41.179993,0.266079,1.186855,0.144561
2261971000,-13.698107,35.226341,-30.937130,0.257977,1.186033,0.182126
2261980981,-20.784267,44.944290,-20.122211,0.292495,1.091535,0.134587
2261990961,-26.360535,54.815075,-6.555169,0.346329,0.914141,0.138480
2262000941,-27.501160,63.288643,7.529523,0.375515,0.678630,0.091696
2262010921,-18.242023,70.065491,18.827858,0.362723,0.492369,0.088502
2262020901,-3.336044,69.333839,26.558695,0.329956,0.424877,0.049850
2262030882,15.386340,62.907948,29.939152,0.305269,0.533846,0.062000
2262040862,27.992132,56.098209,29.399014,0.354620,0.776729,0.121578
2262050842,28.705564,53.125458,27.144169,0.467393,1.019235,0.113117
2262060822,19.382782,56.513348,25.529699,0.520953,1.148139,0.151509
2262070802,-3.921446,64.920052,24.180283,0.543508,1.122798,0.237389
2262080782,-32.640846,75.034325,23.812218,0.501186,0.980514,0.249325
2262090763,-54.899109,80.657837,24.215981,0.418018,0.813564,0.261280
2262100744,-60.587456,84.705734,23.781305,0.322644,0.728514,0.220856
2262110724,-51.673779,89.312904,22.119028,0.288850,0.720387,0.287755
2262120704,-46.427788,91.737686,18.535358,0.264020,0.763086,0.293339
2262130684,-42.472622,87.367844,14.972758,0.312135,0.842859,0.237731
2262140664,-38.466194,78.124443,15.849826,0.394298,0.938947,0.290116
2262150644,-47.266979,70.221115,19.854942,0.508690,0.997911,0.387774
2262160624,-70.290009,80.260849,21.706745,0.595558,0.836106,0.461771
2262170604,-76.517044,91.141197,22.019018,0.636626,0.550901,0.493786
2262180585,-58.214203,90.534386,29.153740,0.518588,0.102594,0.386412
2262190565,-38.969650,78.615845,39.951393,0.376068,-0.135000,-0.024456
2262200545,-21.475714,72.334190,52.556305,0.403582,-0.043337,-0.301371
2262210525,19.306841,83.036583,69.219994,0.530923,0.341777,-0.481093
2262220505,82.989395,91.601608,88.026886,0.663196,0.857591,-0.359629
2262230485,128.685822,97.419792,104.015884,0.761025,1.209071,-0.273988
2262240465,125.525955,101.097946,112.773308,0.725593,1.385970,-0.223991
2262250445,95.496887,92.400352,119.198784,0.576356,1.392633,-0.085145
2262260425,71.903534,70.116501,133.877563,0.404280,1.366377,0.061471
2262270405,39.678253,53.362404,154.211639,0.307305,1.259181,0.159249
2262280386,-9.833167,39.833969,170.385483,0.214276,1.111169,0.216061
2262290366,-55.121353,15.451387,188.517197,0.182083,1.037550,0.106856
2262300370,-87.183762,2.311728,206.387436,0.307098,0.921097,0.113970
2262310324,-109.948975,-2.718762,225.050385,0.503016,0.766264,0.282008
2262320305,-126.468330,-4.040672,252.289291,0.838329,0.631730,0.370313
2262330285,-138.408600,7.492244,288.009064,1.327224,0.488883,0.309499
2262340265,-140.460587,36.016869,332.980042,1.892769,0.388909,0.263411
2262350245,-135.928772,87.702316,386.499023,2.341211,0.294202,0.121478
2262360225,-125.450829,152.623718,436.041016,2.488708,0.234511,-0.139100
2262370205,-105.990784,201.698517,470.685242,2.243854,0.195279,-0.484430
2262380185,-68.747375,195.529739,457.460144,1.857298,0.189834,-0.832548
2262390165,-25.648455,45.386353,386.623108,1.936129,1.338835,-0.091196
2262400145,-57.664543,-173.046509,311.283569,2.293551,3.868393,-0.463004
2262410126,-15.086249,-137.001328,196.891754,1.014790,6.481881,-1.874614
2262420106,70.599579,131.928284,41.007927,-0.230097,6.176463,0.356056
2262430085,-89.921371,158.928329,-38.356155,-0.829629,4.250181,1.755290
2262440066,-326.226624,-6.992476,-56.481346,-0.353681,2.765211,1.033804
2262450046,-391.816650,-101.977173,-54.415928,0.332439,1.348031,0.459851
2262460026,-343.073364,-132.243683,-74.685837,0.924889,0.511003,0.343828
2262470006,-273.450226,-127.853004,-117.615715,1.393832,0.188729,0.145169
2262479986,-209.059875,-101.176277,-174.545532,1.757072,0.145141,-0.254137
2262489966,-121.573997,-66.266655,-222.911179,2.115316,0.375946,-0.790251
2262499946,-20.489267,-20.858704,-240.510452,1.869406,0.701341,-0.792442
2262509926,20.289059,-0.847762,-231.313492,1.259254,0.917626,-0.071214
2262519907,-14.244131,-39.604641,-211.728302,1.044407,0.904210,0.189874
2262529887,-39.564137,-85.472374,-196.519058,1.125796,0.659732,-0.097848
2262539867,-3.276129,-85.075729,-191.254105,1.158904,0.478873,-0.283687
2262549847,54.206497,-57.537849,-194.247330,1.046786,0.458077,-0.168844
2262559827,75.881798,-36.864475,-203.556747,0.819596,0.478363,0.075803
2262569807,52.570484,-38.700840,-215.834808,0.596346,0.543804,0.327795
2262579787,4.591783,-56.546059,-225.954361,0.451096,0.619086,0.462494
2262589767,-43.396935,-77.549400,-233.352219,0.425589,0.657646,0.495452
2262599747,-76.612221,-92.525597,-237.978058,0.550873,0.618142,0.431193
2262609727,-92.017700,-95.758682,-236.475891,0.766810,0.522790,0.316878
2262619708,-94.268600,-89.726578,-228.052917,1.032568,0.378442,0.169311
2262629688,-93.273735,-82.045914,-219.105606,1.245523,0.161865,0.067854
2262639669,-98.355568,-76.757980,-214.607025,1.333206,0.032760,0.078498
2262649649,-110.139267,-70.545273,-214.670410,1.253832,-0.029790,0.183334
2262659629,-113.796562,-61.028328,-215.106567,1.130797,-0.080613,0.313403
2262669609,-102.271591,-51.687946,-211.181488,1.037474,-0.182332,0.402781
2262679590,-81.709305,-44.876114,-202.335175,0.986291,-0.348271,0.419494
2262689570,-53.702328,-43.112732,-188.645035,0.859916,-0.564728,0.384480
2262699550,-19.906839,-46.110893,-173.759872,0.677154,-0.755665,0.326522
2262709530,21.402685,-54.085300,-155.821869,0.564725,-0.876681,0.251225
2262719510,68.044952,-64.664909,-131.593475,0.552749,-0.905373,0.232535
2262729490,107.034882,-69.309006,-102.587585,0.672918,-0.795424,0.339844
2262739471,126.624298,-68.406708,-69.191498,0.812537,-0.593145,0.533782
2262749451,117.145691,-57.968647,-36.983429,0.872108,-0.386653,0.735471
2262759431,92.822983,-33.180767,-17.277308,0.744122,-0.250114,0.819399
2262769411,82.218872,-10.959154,-11.440999,0.517457,-0.203313,0.763663
2262779391,90.940987,2.011132,-7.014523,0.309190,-0.181978,0.682637
2262789371,114.510216,9.715112,3.995782,0.198170,-0.102764,0.612828
2262799352,139.797989,24.545143,21.603903,0.282257,0.041395,0.609459
2262809332,158.272552,38.204762,43.866333,0.414062,0.198091,0.514970
2262819312,171.706085,51.851749,66.962143,0.553988,0.335178,0.403103
2262829292,181.431671,69.989746,86.229095,0.639910,0.437904,0.364932
2262839272,179.110352,88.248344,100.978317,0.723528,0.540232,0.409956
2262849266,160.290344,106.279732,112.683121,0.828371,0.639530,0.523898
2262859231,131.576843,124.985237,118.692520,0.900061,0.765958,0.555013
2262869211,101.051880,131.242798,103.676689,0.793988,1.225225,0.619123
2262879191,79.073761,101.033005,37.317753,0.490523,2.180968,0.466773
2262889171,77.667175,78.475861,-78.270264,0.654756,3.375886,0.590994
2262899151,44.254112,120.528854,-162.291351,0.879564,3.890042,0.863705
2262909131,-58.236481,178.388336,-188.201736,1.129815,3.083177,0.566255
2262919111,-131.263031,194.525742,-138.164581,1.023684,1.388772,-0.480645
2262929091,-80.260757,170.384277,-44.200371,0.655874,-0.031703,-1.093725
2262939071,13.508031,123.861252,15.619295,0.432125,-1.175935,-0.515595
2262949051,24.698595,84.097603,15.715701,0.145891,-1.486502,0.124771
2262959032,3.098443,76.125717,-26.905182,0.037184,-0.970938,-0.091103
2262969012,66.910851,86.755737,-54.806194,0.070345,-0.307897,-0.453037
2262978992,149.846268,88.535278,-59.194675,0.046292,0.199447,-0.387482
2262988972,163.380371,84.289207,-54.104240,0.193593,0.690784,-0.176101
2262998952,130.026627,95.972672,-37.945045,0.340818,1.061969,-0.038153
2263008932,89.813622,115.051140,-16.081974,0.394029,1.269360,0.021348
2263018912,39.399292,128.076401,4.860877,0.441149,1.389656,-0.061168
2263028893,-33.833397,142.274628,28.261433,0.481710,1.496575,-0.118269
2263038873,-92.321259,143.552429,63.842728,0.362369,1.421543,-0.037455
2263048853,-119.139435,121.880905,105.482712,0.232214,1.063149,-0.034336
2263058833,-141.707733,100.004402,142.720001,0.188485,0.708305,-0.100354
2263068813,-147.024170,73.290581,176.834015,0.161585,0.463404,-0.120330
2263078793,-123.925690,40.083241,211.233734,0.218121,0.338453,-0.096302
2263088773,-84.707481,21.325237,241.005280,0.383573,0.287722,-0.041806
2263098753,-41.094856,10.771108,265.527161,0.627954,0.346405,-0.082906
2263108733,-12.950430,8.081116,288.498657,1.003220,0.465989,-0.031358
2263118714,-0.152319,19.571535,312.187561,1.389094,0.368804,0.409490
2263128693,4.735281,30.383352,341.315735,1.988949,0.335524,0.560180
2263138674,-9.194494,52.451530,378.865021,2.802620,0.525280,0.399341
2263148654,-39.642612,104.737061,418.136047,3.675287,0.819591,-0.029668
2263158634,-78.312668,176.427658,435.554047,3.363232,0.523165,-0.256915
2263168614,-116.501419,199.740723,411.031006,2.756731,0.331617,-0.669580
2263178594,-101.904259,100.446602,431.977081,2.365008,1.937343,-0.944016
2263188576,-40.470753,-49.574745,435.455261,1.131106,4.970474,-1.262561
2263198556,95.819664,-60.103107,273.007080,0.625768,8.319464,-1.570367
2263208536,91.156250,103.632401,33.103729,0.623811,7.163325,1.262892
2263218516,-110.563370,132.126984,-64.249023,0.127932,5.186419,1.235914
2263228496,-257.236572,32.534801,-69.381393,0.324700,3.326648,0.969117
2263238476,-315.652435,-24.001362,-64.465759,0.504098,1.736243,0.922149
2263248456,-324.957458,-45.585209,-102.289871,0.733293,0.722800,0.494200
2263258436,-280.663971,-40.114914,-162.821411,1.308226,0.290314,-0.179877
2263268416,-209.922028,-9.885297,-227.841034,2.294019,0.434750,-0.682852
2263278396,-158.128357,12.660031,-279.296387,2.936400,0.518312,-1.028855
2263288376,-149.259216,27.095005,-302.497070,2.181278,0.385629,-0.939452
2263298357,-163.051224,-2.326343,-274.341949,1.154034,0.545665,-0.456613
2263308337,-188.559845,-80.900452,-216.856995,0.579504,0.724910,-0.067957
2263318317,-182.878601,-139.383240,-193.299530,0.430664,0.657414,-0.201621
2263328297,-99.639465,-127.825356,-205.518723,0.598939,0.424029,-0.440033
2263338277,12.791086,-70.797470,-227.939926,0.712107,0.242893,-0.326626
2263348257,84.183388,-23.708977,-243.621063,0.688277,0.110531,-0.107622
2263358237,104.223412,-5.663335,-253.751617,0.641008,0.091707,0.051360
2263368217,87.765213,-18.332241,-256.746948,0.619213,0.118348,0.204418
2263378198,49.393929,-52.666725,-252.572357,0.727579,0.115595,0.279483
2263388177,5.987254,-87.207703,-245.636398,0.999631,0.075482,0.314997
2263398158,-33.325233,-109.072662,-244.200562,1.188155,-0.044379,0.345369
2263408136,-67.224258,-121.783539,-250.380310,1.206555,-0.301669,0.256128
2263418116,-80.536652,-128.646683,-250.581009,1.162861,-0.571088,0.039187
2263428096,-65.273857,-125.300598,-234.021011,1.019946,-0.713190,0.054557
2263438076,-43.132103,-108.611847,-212.312592,0.870246,-0.861960,0.156237
2263448057,-18.147697,-92.386215,-197.014755,0.758459,-1.118195,0.283503
2263458037,2.885737,-98.867706,-179.859375,0.643676,-1.292141,0.428853
2263468017,9.846859,-115.306953,-152.520294,0.555045,-1.184689,0.528368
2263477997,22.788937,-119.780426,-117.893486,0.482162,-0.852666,0.617207
2263487977,47.972057,-112.481544,-94.051132,0.414464,-0.524915,0.840437
2263497957,66.347061,-103.136871,-77.171066,0.441704,-0.236669,0.940572
2263507937,75.443893,-89.850380,-51.159538,0.447805,-0.173623,0.904866
2263517918,84.021736,-71.556923,-16.990999,0.459284,-0.308721,0.861941
2263527898,95.222565,-49.129730,19.669353,0.555526,-0.488387,0.877212
2263537878,105.594315,-24.722563,56.354362,0.686890,-0.589854,0.894214
2263547858,120.002090,2.445162,88.115471,0.777334,-0.599232,0.839022
2263557838,144.890228,33.324856,114.243965,0.805706,-0.505627,0.708154
2263567818,179.469330,61.934959,138.996246,0.784288,-0.311548,0.550142
2263577799,215.890076,79.061943,166.807526,0.758270,-0.056983,0.472281
2263587779,242.743973,94.647720,192.069824,0.866681,0.297785,0.591392
2263597759,234.868576,100.207474,198.714172,0.946631,1.156358,0.929018
2263607738,200.263397,-7.999239,111.969025,0.976862,3.570945,0.432345
2263617719,186.885498,-75.507729,-78.331902,3.113804,6.225632,0.976974
2263627699,107.580322,188.960159,-68.606911,2.950388,3.714812,0.877054
2263637679,-27.747355,385.474426,35.158382,1.123157,0.392261,0.183859
2263647659,-208.665314,291.269196,22.360920,0.490891,-1.201700,0.226784
2263657639,-345.349243,118.271011,23.837446,0.452565,-1.900561,0.310742
2263667619,-362.831482,16.778387,102.876404,0.688132,-1.346209,-0.453474
2263677600,-184.165741,17.971596,192.989746,0.745939,-0.491948,-1.323299
2263687580,68.153900,85.984589,212.832062,0.543384,-0.067104,-0.833861
2263697560,179.439301,116.841743,191.265839,0.636745,0.074074,-0.325061
2263707540,134.758438,105.506119,201.304947,1.059273,0.445326,-0.062046
2263717520,117.016060,98.088837,251.059097,1.165984,0.736170,-0.051375
2263727500,113.412247,104.092339,295.876495,0.961239,0.757212,0.049246
2263737480,73.884613,119.997284,321.465363,0.942953,0.776351,0.238916
2263747462,42.186859,155.656906,342.937134,1.284882,0.834956,0.311431
2263757442,33.470333,191.741547,377.735352,1.750401,0.889565,0.309968
2263767422,24.367430,220.336655,423.851654,2.434695,0.964263,0.034086
2263777402,3.238130,249.640869,448.115234,2.870905,0.744471,-0.241340
2263787382,-19.675295,261.096008,420.488007,3.104887,0.441991,-0.832192
2263797362,-49.872711,124.588524,373.158386,2.475043,1.905791,-0.013743
2263807342,-219.886597,-171.820892,285.017578,1.763249,5.911229,-0.844214
2263817322,-235.908951,-242.860931,104.169601,0.401061,7.416681,-1.913203
2263827303,11.655397,84.019958,-80.955666,0.222119,5.161106,-0.580267
2263837282,18.057829,179.262177,-131.941071,-0.612637,3.007473,1.243088
2263847262,-172.142914,-7.214700,-133.626663,-0.358849,1.895726,0.661849
2263857243,-151.698593,-70.287689,-167.951126,0.608261,1.169652,0.366935
2263867223,-63.209511,-73.656906,-250.226440,1.778735,1.060376,0.399116
2263877203,-33.780384,-82.831192,-317.964813,3.071141,0.911298,0.032967
2263887183,-54.495026,-45.448914,-367.496216,2.935817,0.384813,-0.435505
2263897163,-92.900940,14.436337,-388.537994,1.937251,0.261346,-0.410455
2263907143,-118.295639,15.978395,-358.038879,1.531866,0.376803,-0.174096
2263917123,-119.815971,-37.194191,-322.309387,1.265993,0.284719,0.154001
2263927103,-109.527863,-91.000107,-310.355469,0.971544,0.050587,0.445291
2263937083,-91.640549,-122.259407,-306.181763,0.856945,-0.026062,0.393814
2263947064,-47.927361,-120.418121,-289.328125,0.976472,-0.100109,-0.097793
2263957044,28.772823,-85.128830,-264.719879,1.067590,-0.247428,-0.423171
2263967022,107.299530,-46.554298,-237.256866,0.987812,-0.387722,-0.239301
2263977003,133.638672,-36.294357,-213.991913,0.799274,-0.340185,0.454724
2263986983,74.329842,-59.219635,-196.849792,0.626004,-0.017586,1.184045
2263996963,-26.470615,-97.180321,-181.552704,0.559298,0.275027,1.404591
2264006943,-90.824997,-124.093155,-166.136490,0.625342,0.379331,1.248742
2264016923,-111.973618,-126.021950,-145.469238,0.705173,0.424975,1.019801
2264026903,-117.193161,-109.608368,-107.488068,0.711640,0.495732,0.802761
2264036883,-98.770851,-75.314308,-65.357201,0.657309,0.355507,0.673297
2264046863,-61.521355,-32.389435,-42.772884,0.497832,0.068123,0.650493
2264056844,-27.753407,5.916333,-38.422935,0.335949,-0.217073,0.576614
2264066824,9.621243,40.773682,-33.813053,0.132434,-0.355270,0.405588
2264076804,59.254135,61.693584,-19.943462,0.003875,-0.246065,0.235709
2264086784,97.806648,72.498161,-1.389940,0.045534,0.106700,0.108125
2264096764,110.705559,76.456802,13.491659,0.141452,0.532715,0.055190
2264106744,103.224991,67.872002,21.054001,0.243747,0.881816,-0.018952
2264116725,83.994156,53.687836,24.032232,0.358657,1.084910,-0.035652
2264126705,53.584141,43.393482,22.459599,0.479988,1.142846,0.071256
2264136685,21.592516,37.996593,18.339556,0.526013,1.032075,0.187378
2264146665,11.014515,33.551300,14.683504,0.509384,0.802448,0.237094
2264156645,21.382826,31.282875,14.948841,0.434429,0.636728,0.314197
2264166625,26.270765,32.324066,18.575996,0.391641,0.655083,0.432767
2264176605,15.447367,34.622070,24.699396,0.418121,0.765568,0.435631
2264186585,7.909248,38.640667,29.419451,0.482068,0.799365,0.355206
2264196565,18.151745,46.852676,29.911570,0.514878,0.749188,0.303813
2264206545,37.614353,58.092041,30.217131,0.511808,0.682110,0.264789
2264216525,55.044876,66.353256,36.318733,0.489144,0.596771,0.156497
2264226506,70.608131,71.599731,45.408901,0.504571,0.515202,-0.027651
2264236486,83.026245,74.751282,51.531937,0.487850,0.581764,-0.112642
2264246466,82.415054,71.171852,55.557655,0.488780,0.752268,-0.138730
2264256446,71.675217,67.423813,57.986732,0.539901,0.939936,-0.161446
2264266426,60.002960,70.051498,60.327309,0.619349,1.063049,-0.127767
2264276406,47.888191,75.782791,62.358208,0.685914,1.064825,-0.033692
2264286386,33.494881,76.756989,62.567226,0.709164,0.961468,0.076063
2264296366,17.585642,71.310036,59.092377,0.690592,0.832024,0.112628
2264306348,4.899823,63.263672,53.916862,0.672439,0.762875,0.070447
2264316328,-2.655378,56.418941,49.348476,0.681268,0.789214,0.025375
2264326308,-1.750555,54.157833,45.803001,0.705869,0.856283,0.029280
2264336288,8.829121,57.589943,44.846214,0.730894,0.906274,0.096488
2264346269,24.920958,69.148209,47.098221,0.745965,0.900364,0.237825
2264356249,39.039444,86.341591,49.942448,0.744105,0.851916,0.354962
2264366229,45.739716,101.230522,52.264694,0.752591,0.785015,0.398466
2264376209,48.195362,108.862579,54.523048,0.780157,0.706266,0.328869
2264386189,48.324135,109.179039,53.263157,0.786401,0.663903,0.171230
2264396169,46.481804,102.389503,47.408188,0.767067,0.712582,-0.007311
2264406149,44.432796,94.668312,39.322647,0.742899,0.800580,-0.136135
2264416129,46.780037,92.808701,33.519695,0.717586,0.842103,-0.211404
2264426109,54.579796,99.782555,34.627922,0.664321,0.792394,-0.179695
2264436090,60.965950,106.362297,41.697346,0.611333,0.685552,-0.076381
2264446069,64.439056,107.490768,48.643856,0.555685,0.579086,0.001016
2264456050,69.448730,106.968895,54.216644,0.562420,0.468449,0.048665
2264466030,78.729561,107.068840,58.132942,0.645429,0.389629,0.050932
2264476010,83.946770,99.348267,61.834995,0.654565,0.429374,0.027683
2264485990,79.249725,83.441254,63.163803,0.687719,0.559663,-0.052703
2264495970,78.815071,76.687836,62.352802,0.747677,0.641253,-0.249451
2264505950,83.968117,79.220306,59.224033,0.755180,0.674981,-0.374620
2264515930,88.027176,82.373489,52.933525,0.743989,0.730661,-0.404149
2264525912,99.039429,87.196411,48.454597,0.661268,0.776829,-0.289135
2264535889,109.951569,91.344666,48.651424,0.575288,0.736204,-0.081879
2264545869,110.077919,97.467606,53.105267,0.578903,0.634124,0.113821
2264555849,100.286568,106.302078,58.994629,0.671840,0.487671,0.247415
2264565829,93.248299,118.900436,65.206207,0.797791,0.337917,0.190802
2264575810,108.011818,132.559143,73.628471,0.872289,0.197645,0.024909
2264585790,143.263885,145.638763,83.773804,0.908021,0.081374,-0.118412
2264595770,189.998047,159.203094,96.020676,0.974387,-0.008921,-0.216613
2264605750,236.815323,173.441223,110.665070,1.052077,-0.118102,-0.218135
2264615730,267.838196,185.998734,126.716942,1.148607,-0.210682,-0.040555
2264625710,262.500641,190.009552,146.122192,1.207936,-0.273366,0.265524
2264635690,219.820023,186.289993,164.838806,1.196128,-0.323652,0.312026
2264645670,176.353287,186.061676,178.842163,1.147476,-0.367302,0.114427
2264655651,162.337509,190.728470,193.011444,1.168486,-0.449055,0.021265
2264665631,160.459793,202.986191,211.930069,1.387526,-0.507321,0.145528
2264675611,138.193405,211.703110,230.240204,1.638601,-0.099158,0.760482
2264685591,87.393219,172.584717,225.865540,2.062135,0.756530,0.807960
2264695571,89.585419,70.947784,121.594383,3.368120,2.422658,-0.974000
2264705551,243.689056,157.276886,-19.628609,3.365762,2.810334,-1.194752
2264715531,331.831085,370.902435,31.025490,1.442600,0.605669,-0.525335
2264725511,160.908875,340.718903,95.987206,0.182046,-0.749994,0.650271
2264735491,-137.845566,234.759476,146.796646,0.148020,-1.068595,0.732450
2264745471,-257.698975,180.508209,214.346161,0.205440,-0.968832,0.097714
2264755451,-163.828064,139.057510,262.956604,0.453828,-0.935145,-0.033782
2264765432,-22.235592,104.826660,301.832550,1.312829,-1.139689,0.001350
2264775412,48.805870,110.196609,339.292969,2.453158,-1.642638,-0.453400
2264785392,88.332397,184.651306,357.860840,2.926061,-1.993610,-1.145436
2264795372,154.217834,267.582855,360.352844,2.145795,-1.529517,-1.104333
2264805352,226.327515,279.447754,369.559296,1.743105,-0.847745,-0.778855
2264815332,248.597824,256.517639,377.787842,2.089398,-0.434788,-0.901109
2264825312,211.294266,211.038437,378.157532,2.540796,-0.712673,-1.060385
2264845272,37.668755,-16.667210,292.300323,3.824447,1.462676,-0.281512
2264855253,66.827858,-40.290688,194.103592,3.250370,4.677949,-0.943166
2264865234,143.123398,75.200165,75.120438,1.442167,7.711341,-0.866658
2264875214,-4.707148,166.351868,6.585629,0.078695,6.413888,1.433453
2264885194,-320.431702,84.126549,18.870735,-0.003395,3.780920,1.728956
2264895174,-520.680908,-40.159668,60.333809,0.635608,1.857324,0.890888
2264905154,-444.944550,-76.534821,85.562080,1.935821,0.196936,0.643249
2264915134,-169.046875,-58.923351,39.226185,3.217932,-1.799788,0.681440
2264925115,86.644836,4.918770,-50.171276,2.925454,-2.426502,0.122668
2264935095,231.359650,47.151608,-87.263031,1.803934,-1.965817,-0.485875
2264945075,282.596283,48.702179,-81.950417,1.119213,-0.811263,-0.938961
2264955055,294.682434,31.589533,-71.153473,0.716952,0.097404,-0.861784
2264965035,293.832306,-0.464674,-83.524651,0.481710,0.966776,-0.643031
2264975015,299.392303,-27.991573,-125.981010,0.223228,1.865602,-0.652296
2264984995,318.059448,-37.025230,-186.302353,0.035324,2.438934,-0.466801
2264994984,291.541077,-38.824253,-222.801300,0.122662,2.213732,-0.139880
2265004955,203.346863,-49.126175,-244.191101,0.461524,1.712591,0.044101
2265014935,85.529778,-69.511505,-259.364502,0.908840,1.389637,0.082364
2265024915,-38.006645,-92.756218,-260.967468,1.139845,1.133311,0.023049
2265034896,-129.896484,-112.381165,-257.796204,1.128491,0.873138,0.001605
2265044876,-164.052017,-119.476402,-262.786072,1.100323,0.629872,-0.006947
2265054856,-142.358154,-100.509438,-281.033203,1.210898,0.442383,0.018186
2265064836,-91.256302,-64.897034,-302.577759,1.335269,0.258871,0.113806
2265074816,-40.772427,-44.096081,-308.589417,1.379547,0.075078,0.195578
2265084813,3.963450,-38.182598,-292.117981,1.306446,-0.137112,0.179319
2265094775,57.454361,-28.491564,-266.607086,1.223561,-0.390624,0.115112
2265104755,127.279839,-16.730526,-237.129150,1.115696,-0.692283,0.134830
2265114735,189.451752,-13.571529,-208.893127,0.953945,-0.930597,0.395657
2265124716,207.072189,-20.422901,-184.477814,0.865825,-0.900184,0.847213
2265134695,177.574738,-32.946388,-151.178375,0.823408,-0.725924,0.997840
2265144676,150.621613,-37.244392,-107.834404,0.813020,-0.663861,0.858219
2265154656,149.516220,-20.086155,-63.662975,0.741057,-0.748808,0.692011
2265164636,172.953522,3.428932,-26.280764,0.587069,-0.867923,0.456016
2265174616,202.088745,25.025064,11.335648,0.508845,-0.895212,0.337013
2265184596,221.902954,44.260399,55.178459,0.611331,-0.846359,0.182012
2265194576,236.193405,52.874153,102.813599,0.728983,-0.777592,-0.030223
2265204557,243.453156,66.128998,147.898880,1.021899,-0.700428,0.021055
2265214537,226.842148,100.156509,183.387466,1.394651,-0.593946,0.368722
2265224517,180.359116,145.918823,205.721191,1.766940,-0.403083,0.692961
2265234497,128.306061,195.603210,218.240311,1.971071,-0.147327,0.772650
2265244477,94.022583,233.019470,224.279251,1.771438,0.109451,0.611252
2265254457,74.411423,226.099594,223.693527,1.276410,0.286737,0.349396
2265264437,44.061539,141.709503,202.909180,0.742563,1.203704,0.490864
2265274417,-45.161850,-103.089211,41.098042,1.877799,4.490331,-0.534179
2265284397,39.187256,27.591585,-105.112007,4.278886,3.612633,0.087908
2265294378,220.979401,427.792480,39.043926,1.411325,0.462241,-0.783086
2265304357,76.160538,320.271912,57.411167,0.173856,-1.113651,0.043231
2265314338,-237.176086,135.085831,48.228218,0.469558,-1.844157,-0.010226
2265324318,-309.297791,77.503799,161.218872,1.121691,-1.540166,-0.293732
2265334298,-153.959854,73.679909,283.259583,1.219956,-0.835933,-0.888629
2265344278,74.657394,135.214981,349.146545,1.269200,-0.377400,-0.789605
2265354258,176.331635,183.568573,375.138336,1.168048,-0.249863,-0.070518
2265364238,146.406067,196.255112,381.274170,1.322962,-0.096287,0.260180
2265374218,93.856583,200.521011,392.068420,1.641019,0.288258,0.002374
2265384199,73.592667,226.708282,380.593384,1.900453,0.404684,-0.319138
2265394179,112.717606,268.753754,354.825470,2.206742,0.580081,-0.665160
2265404159,179.610291,293.325165,321.297668,2.276594,0.320935,-0.869987
2265414139,206.327545,267.220276,285.891327,2.710939,-0.085164,-0.297342
2265424118,109.865601,128.191010,270.798828,2.399666,0.010740,0.422234
2265434100,-57.299454,-68.747711,254.086914,2.063215,1.264637,-0.239177
2265444080,-123.210442,-158.449921,167.635666,1.871583,3.489155,-1.397005
2265454060,39.615044,-48.482590,33.737534,1.342885,5.308068,-1.748291
2265464041,244.936172,141.785339,-36.631973,0.768545,4.066105,0.018466
2265474021,183.106476,150.132904,-52.877609,0.194622,2.656417,1.492028
2265484000,-8.259901,20.158848,-42.220047,0.405670,1.959127,1.138337
2265493981,-54.066895,-58.222622,-41.920341,1.196604,1.289645,0.572636
2265503961,24.007309,-79.932350,-79.182297,2.106238,0.881728,0.374174
2265513941,108.459244,-85.821251,-142.706177,2.347038,0.474071,0.254685
2265523921,138.936035,-77.830421,-204.622879,1.890461,0.337096,0.099942
2265533901,116.591583,-60.222099,-234.731567,1.435722,0.498440,-0.129407
2265543881,66.697021,-45.890778,-236.526825,1.037110,0.764365,-0.203906
2265553861,19.640623,-55.821346,-234.921936,0.767522,1.048497,-0.010801
2265563841,-8.323654,-80.216118,-248.122742,0.564486,1.171902,0.240977
2265573822,-9.233291,-97.155228,-277.365204,0.514855,1.081520,0.316035
2265583802,7.794548,-87.521507,-315.270386,0.715277,0.840871,0.188153
2265593782,32.717800,-55.959877,-343.012451,1.097238,0.579947,0.008202
2265603762,60.450104,-17.063461,-349.460266,1.417773,0.293932,-0.128390
2265613742,84.946823,17.736721,-340.809753,1.468644,0.011287,-0.125741
2265623722,102.512901,26.360411,-320.713379,1.270205,-0.238859,-0.041324
2265633702,105.491379,1.449771,-291.902405,0.968242,-0.400381,0.162312
2265643683,89.558441,-51.781170,-262.671478,0.751968,-0.417408,0.299588
2265653661,61.512321,-88.322487,-235.342148,0.963141,-0.316649,0.340056
2265663641,47.999397,-81.151924,-215.740936,1.163530,-0.277352,0.359479
2265673621,57.423698,-63.408791,-204.185242,1.076556,-0.231934,0.357869
2265683601,83.182014,-51.307201,-188.742035,0.857128,-0.212045,0.169938
2265693581,124.221573,-43.860615,-164.589478,0.628762,-0.354262,0.067000
2265703562,150.335861,-37.961060,-139.284790,0.504590,-0.438714,0.159171
2265713542,154.457214,-32.790707,-110.682007,0.491909,-0.376138,0.189968
2265723522,154.355408,-21.972336,-78.671196,0.531173,-0.227784,0.168224
2265733502,162.367676,-4.803521,-44.958214,0.568905,-0.036023,0.142463
2265743483,176.609619,14.765664,-10.302324,0.583303,0.123947,0.089294
2265753462,189.195679,31.535206,21.225441,0.530695,0.198794,-0.001591
2265763443,190.996033,39.941719,44.412064,0.455888,0.245513,-0.054905
2265773423,174.974487,45.817326,58.997902,0.536859,0.306279,0.005504
2265783403,141.260529,54.552155,68.086983,0.757252,0.406753,0.082753
2265793383,100.604156,77.020775,73.383423,1.010351,0.504294,0.119308
2265803363,68.374161,116.435432,78.075226,1.145938,0.568088,0.226563
2265813343,33.736629,154.914459,82.608696,1.071027,0.612157,0.439920
2265823323,-11.119276,178.403595,81.985168,0.899665,0.708369,0.644826
2265833303,-61.098724,182.601212,63.052711,0.729691,1.069763,0.870910
2265843283,-96.610214,155.953125,14.220809,0.516280,1.726531,0.776104
2265853263,-93.395081,137.297424,-60.132095,0.674813,2.373637,0.532379
2265863243,-69.044159,148.829636,-110.401833,0.956177,2.509823,0.446615
2265873223,-79.697929,171.110794,-120.336571,1.213320,2.092344,0.226326
2265883204,-87.174164,178.020416,-99.895378,1.272259,1.075119,-0.369688
2265893184,-31.871359,170.210983,-53.466255,0.932537,-0.018938,-0.857563
2265903164,48.325562,146.095337,-21.001266,0.610417,-0.919017,-0.524001
2265913144,62.009438,119.560974,-18.578854,0.313785,-1.305393,0.009599
2265923124,42.752289,101.316879,-30.151131,0.019754,-1.016260,-0.032401
2265933104,88.384712,86.574730,-35.169456,-0.033183,-0.467844,-0.548659
2265943084,170.594513,90.111786,-29.028866,0.188139,0.156425,-0.780477
2265953064,203.111649,118.963814,-15.774130,0.538233,0.669683,-0.430600
2265963045,182.285202,147.324722,1.297088,0.711591,1.072236,-0.018408
2265973025,127.740540,155.110794,12.246457,0.647346,1.287801,0.131688
2265983006,37.890293,147.855301,13.022896,0.521746,1.325819,0.006739
2265992986,-60.170174,146.191101,20.472885,0.521979,1.386255,-0.137214
2266002966,-118.865997,137.822052,46.323101,0.433171,1.288943,-0.054018
2266012947,-141.915192,109.749557,80.031403,0.358769,1.021598,-0.001284
2266022926,-157.220673,81.546638,114.129791,0.403739,0.758736,-0.005078
2266032907,-163.236420,56.876549,149.908096,0.535954,0.536659,-0.029976
2266042887,-146.203735,33.065285,187.992554,0.690378,0.341901,-0.060743
2266052867,-104.272942,11.711620,224.637756,0.852228,0.198836,-0.082021
2266062847,-51.671581,10.244659,251.725800,1.018828,0.126577,-0.031887
2266072827,6.467020,24.005096,266.150269,1.179098,0.136893,-0.058438
2266082808,67.641434,36.252506,274.257477,1.436433,0.132832,0.169632
2266092787,111.554512,51.460503,282.546082,1.876776,0.078001,0.437039
2266102768,128.607773,82.938133,298.644958,2.470779,0.299485,0.425729
2266112748,116.540565,140.099548,326.129913,2.889294,0.546270,0.204986
2266122728,89.182747,203.416748,365.000000,2.876467,0.639236,-0.011314
2266132708,65.154396,247.115936,410.467621,2.556070,0.586113,-0.465073
2266142688,59.949661,275.844818,446.168823,2.427444,0.443676,-1.284291
2266152668,119.086578,152.417770,449.705933,2.147825,1.441842,-0.593666
2266162648,82.174301,-126.886322,365.910645,2.254810,4.630524,-1.983454
2266172628,61.629272,-87.041946,217.865601,2.290245,9.396594,-4.240712
2266182608,197.662445,306.333435,58.197815,0.810506,8.389420,-0.159580
2266192588,9.322613,304.383514,-30.261509,-0.537273,5.916574,3.207101
2266202586,-548.841370,-15.261540,0.581131,-0.583392,3.510033,1.255427
2266212547,-691.196655,-105.855492,44.461998,0.214627,1.160194,-0.323275
2266222527,-454.525208,-71.468498,18.447636,0.837393,-0.260060,0.005176
2266232507,-263.583313,-57.155388,-55.728817,1.150597,-0.726520,0.130749
2266242488,-197.710648,-24.621391,-132.167267,1.433688,-0.798063,-0.272665
2266252468,-169.915802,17.506247,-202.917206,1.926095,-0.539125,-0.505183
2266262448,-135.957260,41.730354,-249.637512,2.524783,0.016835,-0.752455
2266272428,-92.589226,56.921909,-235.294342,2.330591,0.371732,-0.901336
2266282408,-63.898903,51.742149,-164.003113,1.321585,0.520811,-0.371542
2266292388,-81.450119,-6.582566,-91.419182,0.411817,0.639645,0.273849
2266302368,-113.275299,-82.828323,-58.350933,-0.026543,0.696934,0.325518
2266312348,-82.557571,-106.117859,-64.103996,0.015781,0.611052,-0.097557
2266322328,16.488461,-65.571106,-89.504677,0.223076,0.483851,-0.344824
2266332309,112.055344,-11.032984,-113.708275,0.354921,0.428882,-0.243341
2266342289,152.163406,24.243231,-130.826035,0.483314,0.451638,-0.000773
2266352269,129.127533,32.974945,-144.029724,0.556569,0.559609,0.286375
2266362249,59.025471,10.207789,-156.021301,0.547154,0.735509,0.435759
2266372229,-23.917713,-31.151508,-168.558777,0.500920,0.940224,0.428279
2266382209,-88.558472,-72.025398,-182.918701,0.450481,1.059443,0.352187
2266392189,-130.078857,-100.842758,-200.772064,0.446406,1.006436,0.304900
2266402169,-155.124786,-109.682861,-219.359772,0.555107,0.838923,0.289786
2266412149,-162.772095,-99.599915,-232.028900,0.710478,0.601873,0.276849
2266422129,-156.713120,-82.061729,-236.892303,0.862796,0.337462,0.267947
2266432109,-142.088623,-68.225571,-231.202972,1.013767,0.056059,0.264762
2266442089,-118.464211,-57.776524,-216.492950,1.138453,-0.200071,0.180911
2266452070,-80.227432,-50.074272,-198.209045,1.113833,-0.445676,0.089414
2266462050,-29.642706,-52.396408,-183.527451,0.970748,-0.638859,0.042784
2266472030,26.084812,-57.743103,-174.683380,0.930566,-0.711039,0.063810
2266482010,77.166306,-52.799549,-169.027222,0.957841,-0.661538,0.235970
2266491990,109.913780,-52.089165,-164.639633,0.897219,-0.519399,0.477304
2266501970,113.792862,-64.576935,-158.749130,0.764107,-0.308228,0.626209
2266511950,104.263100,-80.307243,-145.354218,0.672699,-0.143638,0.552994
2266521930,100.465927,-88.816101,-124.498344,0.642533,-0.094262,0.489163
2266531910,96.195633,-96.935150,-99.652603,0.641980,-0.074317,0.522519
2266541891,77.147186,-94.016754,-78.014198,0.727063,-0.051787,0.631710
2266551883,48.768734,-76.846352,-63.410183,0.760408,-0.058194,0.714565
2266561852,24.913151,-59.439541,-52.616634,0.692214,-0.135843,0.664866
2266571832,16.554535,-42.732956,-40.192234,0.586150,-0.249425,0.605227
2266581812,21.682049,-25.661116,-21.394241,0.482787,-0.314614,0.661768
2266591793,35.562000,-11.508229,4.373758,0.468954,-0.344609,0.589884
2266601773,62.689461,2.573394,38.397385,0.485219,-0.366802,0.475990
2266611753,93.132187,18.754936,78.136070,0.558501,-0.373032,0.424985
2266621733,116.105988,31.948746,117.854538,0.639236,-0.351029,0.445228
2266631713,126.830528,45.883789,151.262558,0.719649,-0.300373,0.522547
2266641693,125.565727,65.976456,179.597565,0.836465,-0.233487,0.653995
2266651673,110.015587,94.518791,204.472687,0.945539,-0.129022,0.888313
2266661653,71.173820,127.637619,221.811188,1.093161,0.066357,1.188142
2266671634,24.748899,154.742004,231.437973,1.098991,0.276688,1.054403
2266681614,10.812841,142.838882,219.995224,0.773613,0.824105,0.961338
2266691594,47.827026,21.996826,97.926476,0.209899,3.397504,0.149937
2266701574,219.401321,-43.563332,-175.613968,3.315684,5.441386,1.658820
2266711554,170.581100,181.592926,-84.735283,2.451005,2.582070,1.760280
2266721534,-99.966614,190.925293,94.058769,0.799292,-0.538453,0.572164
2266731514,-362.860931,75.186386,51.241741,1.288085,-1.259402,-1.976828
2266741494,-335.579865,99.106842,77.024246,1.338303,-1.161462,-2.355600
2266751475,-72.381432,93.362427,141.744736,0.609241,-1.697185,-1.051455
2266761455,156.614075,70.142014,182.562744,0.295253,-1.107104,-0.144423
2266771437,261.113434,70.516678,217.029510,0.486647,-0.483227,-0.362031
2266781413,275.734253,84.303635,243.529083,1.080565,0.121310,-0.012638
2266791394,271.262085,81.252586,277.124756,1.619385,0.523571,0.153110
2266801374,245.877594,90.090469,305.214752,1.727935,0.805178,0.441339
2266811354,162.477646,97.453316,309.496948,1.624095,0.824664,0.693725
2266821334,44.576241,119.973557,301.028900,1.558366,0.776395,0.840101
2266831314,-52.447243,143.246964,306.881653,1.510770,0.804391,0.793785
2266841294,-122.262878,163.522202,317.200256,1.521949,0.729653,0.551533
2266851274,-159.289825,191.247971,325.536621,1.589898,0.594708,0.235363
2266861254,-163.193390,214.312927,337.799255,1.523249,0.164252,-0.256553
2266871234,-124.149086,239.992188,371.920837,1.762748,-0.407296,-1.055252
2266881214,-45.104816,245.701294,446.853302,2.171722,-1.053283,-1.191611
2266891194,-2.354530,118.041634,512.712280,1.903362,-0.899128,0.634199
2266901175,-35.765648,-81.831642,459.516754,3.366311,0.911450,1.335827
2266911155,12.452442,-73.660606,281.494843,3.997474,4.117965,-0.938685
2266921135,179.965851,147.106262,32.527767,2.142373,6.666728,-0.767134
2266931115,66.013351,271.965363,-116.727142,0.499963,6.179039,1.859357
2266941095,-371.084717,94.148911,-54.124443,-0.491131,3.286726,1.703155
2266951075,-629.839050,-66.547340,46.533726,0.013983,1.367253,0.093819
2266961055,-598.811890,-54.696224,104.419510,0.799130,0.128493,-0.180918
2266971035,-474.734924,-18.073292,126.268005,0.990906,-0.980196,-0.024104
2266981016,-292.615479,17.545881,127.013931,0.958069,-1.563252,0.013802
2266990996,-80.765984,50.321449,129.911514,0.900975,-1.731138,0.154465
2267000976,99.164764,59.528244,123.191345,0.927610,-1.631345,0.458558
2267010956,212.063034,44.595436,107.573090,1.086391,-1.409161,0.672190
2267020936,287.675323,29.378035,95.399063,1.275746,-1.325846,0.809799
2267030916,349.204620,26.813183,82.537270,1.434859,-1.346689,0.802495
2267040896,355.189728,45.420628,64.770020,1.428419,-1.155467,0.509304
2267050876,299.752228,71.517616,50.871696,1.238417,-0.600071,0.286733
2267060856,227.623276,96.346176,45.253284,1.027009,-0.013020,0.262130
2267070837,158.772766,110.163338,45.065826,0.800099,0.381597,0.382451
2267080817,85.834869,110.593742,44.915222,0.588831,0.619033,0.481776
2267090796,13.117705,106.105133,42.025330,0.460140,0.786487,0.516012
2267100776,-53.667885,105.486336,36.675114,0.369099,0.855280,0.531063
2267110758,-119.820427,110.522972,31.030136,0.336193,0.785460,0.532150
2267120738,-184.988724,116.747162,27.526852,0.356905,0.631230,0.492803
2267130718,-239.706451,118.184052,27.374241,0.420399,0.447105,0.416121
2267140699,-272.963745,111.617386,29.459900,0.501946,0.213009,0.353883
2267150679,-276.723328,97.675674,33.870167,0.591129,-0.039941,0.325605
2267160659,-251.080963,78.441978,40.115894,0.694131,-0.283347,0.325835
2267170639,-205.032440,58.031250,45.595982,0.769464,-0.487756,0.325101
2267180619,-147.909943,39.508820,47.132992,0.793591,-0.653597,0.314783
2267190599,-88.674950,27.360289,44.963821,0.769317,-0.721096,0.269184
2267200579,-33.336231,25.269228,38.501499,0.713678,-0.686598,0.239188
2267210560,14.979323,30.216619,26.632145,0.627936,-0.585043,0.260538
2267220539,54.425858,34.711884,10.332297,0.529242,-0.417899,0.319734
2267230520,82.973427,34.404564,-6.299965,0.458172,-0.211147,0.371866
2267240500,100.530785,31.580530,-21.234400,0.431268,-0.014283,0.413133
2267250480,108.050163,28.518457,-34.349834,0.443133,0.146022,0.468275
2267260460,103.466644,26.868479,-45.215374,0.485777,0.284677,0.544189
2267270440,83.386490,25.163485,-55.115067,0.514464,0.380597,0.646772
2267280420,50.291470,21.749348,-65.798965,0.520882,0.446593,0.713741
2267290400,11.927677,14.650873,-79.044815,0.489024,0.437725,0.718766
2267300380,-26.216354,1.491021,-95.832726,0.442636,0.380123,0.650562
2267310360,-58.627480,-12.249039,-112.190994,0.443270,0.307155,0.571817
2267320340,-82.318405,-22.421097,-125.414124,0.471900,0.197558,0.519500
2267330320,-95.615173,-30.554226,-136.860367,0.525098,0.081423,0.497427
2267340299,-99.448914,-35.203415,-147.961807,0.627462,-0.018010,0.496198
2267350279,-96.386093,-33.955341,-157.743896,0.764833,-0.103795,0.533087
2267360259,-89.748459,-26.949886,-165.412918,0.907491,-0.175549,0.588420
2267370239,-79.019318,-18.189028,-171.037079,0.998089,-0.220895,0.634898
2267380220,-62.623711,-14.158722,-175.375580,1.004431,-0.261693,0.646792
2267390199,-40.940525,-13.204342,-180.633133,0.959199,-0.298213,0.641097
2267400180,-18.574579,-16.212940,-188.978973,0.888313,-0.312128,0.646399
2267410160,0.104558,-24.793285,-198.072433,0.848795,-0.323062,0.629098
2267420140,16.192884,-33.637955,-206.582092,0.857827,-0.323639,0.633280
2267430120,29.832840,-42.727829,-212.352081,0.889906,-0.296340,0.658008
2267440100,41.549591,-49.919579,-215.171417,0.962651,-0.256932,0.631924
2267450080,55.174053,-49.416527,-215.658401,0.997196,-0.199275,0.558582
2267460060,74.248871,-49.641327,-213.955719,0.954934,-0.127094,0.479222
2267470040,91.239243,-56.443878,-211.536682,0.895819,-0.065074,0.476393
2267480020,96.061798,-67.531097,-211.063995,0.886306,-0.021770,0.546720
2267490001,87.099869,-80.449768,-212.910950,0.959108,0.011679,0.623088
2267499981,72.265335,-92.390419,-214.232315,1.097837,0.079154,0.685903
2267509961,56.785427,-100.364510,-210.643829,1.221859,0.138587,0.697950
2267519941,46.083580,-102.341728,-204.953827,1.266546,0.184045,0.643023
2267529921,39.014008,-98.277496,-199.488525,1.212675,0.199371,0.583687
2267539901,31.953299,-95.368500,-193.657166,1.093018,0.195231,0.526559
2267549881,21.645493,-95.944427,-186.359009,0.982998,0.185459,0.489005
2267559861,8.604905,-98.390396,-175.469696,0.952904,0.158843,0.487614
2267569841,-4.415353,-99.871964,-161.500443,0.989535,0.100590,0.508363
2267579822,-15.595304,-99.134315,-145.312332,1.033371,0.047030,0.569234
2267589802,-24.902431,-98.144058,-129.118423,1.030446,0.024711,0.644763
2267599782,-32.635139,-93.862190,-114.851929,0.996665,0.025003,0.715531
2267609762,-36.993904,-88.063690,-104.932869,0.945795,0.007552,0.741839
2267619742,-36.223236,-81.405014,-97.791046,0.899582,0.001506,0.680989
2267629722,-27.475773,-73.897705,-87.102654,0.836614,0.017214,0.566660
2267639702,-8.437505,-69.604362,-70.000328,0.784121,0.034725,0.458686
2267649682,14.776666,-68.848648,-50.723541,0.750773,0.045261,0.422024
2267659663,29.839417,-71.497681,-35.688301,0.756634,0.051289,0.477945
2267669643,31.151999,-74.904930,-26.207289,0.802884,0.064612,0.551606
2267679624,22.311356,-73.300903,-21.670074,0.886158,0.072989,0.586689
2267689604,12.455121,-65.278786,-18.967270,0.927777,0.093436,0.559799
2267699584,10.863511,-54.860924,-14.388916,0.894761,0.141251,0.523989
2267709565,15.871782,-43.349731,-7.786781,0.821194,0.193052,0.508314
2267719545,24.882608,-35.852089,-1.468998,0.772394,0.220197,0.490037
2267729525,32.611824,-33.903740,3.957293,0.730383,0.227797,0.457816
2267739505,36.414692,-34.944546,6.733962,0.711048,0.204561,0.359314
2267749485,36.743576,-25.494116,9.787046,0.638866,0.182565,0.295882
2267759465,42.808624,-22.075264,17.710146,0.595656,0.105521,0.255555
2267769445,44.422375,-29.611366,24.208099,0.700478,0.186299,0.284020
2267779425,40.113426,-33.080883,31.621487,0.934570,0.366670,0.327065
2267789406,33.648739,-17.578697,38.119026,1.076822,0.565337,0.350278
2267799386,31.273430,8.231400,41.396767,1.030615,0.647659,0.414739
2267809366,28.425552,26.370523,41.345066,0.937868,0.647817,0.471861
2267819346,22.927254,32.684872,41.302284,0.908889,0.596953,0.466517
2267829326,16.898901,35.486713,40.898705,0.906839,0.525529,0.429404
2267839306,12.648339,34.313900,40.886410,0.911339,0.464859,0.398790
