Timestamp (us),Gyroscope X (deg/s),Gyroscope Y (deg/s),Gyroscope Z (deg/s),Accelerometer X (g),Accelerometer Y (g),Accelerometer Z (g)
5933781714,-8.381827,4.621582,-2.014834,0.831870,-0.095613,0.540873
5933801761,-6.656435,5.509130,-2.554565,0.824970,-0.113112,0.539966
5933821806,-4.785709,6.244674,-2.790534,0.818184,-0.101654,0.547014
5933841851,-5.460688,4.550866,-1.541975,0.824471,-0.107280,0.551112
5933881941,-1.720664,1.431060,-2.184783,0.821609,-0.153420,0.556298
5933901986,-0.329033,1.072742,-1.928474,0.828906,-0.131600,0.538053
5933922031,-1.785940,-0.301095,-0.529475,0.844929,-0.126744,0.536855
5933942076,0.721927,1.392105,0.379129,0.850033,-0.133016,0.537400
5933962120,3.012971,2.287124,0.634975,0.830715,-0.125404,0.541293
5933982165,5.221516,0.217817,0.612380,0.841779,-0.116734,0.540300
5934002210,7.443153,2.693383,-0.145969,0.840612,-0.117887,0.529831
5934022255,6.792704,2.123516,-0.978456,0.821497,-0.114423,0.565535
5934042300,7.425794,2.259997,-0.503486,0.820603,-0.094836,0.561907
5934062345,4.833365,3.782060,-1.201168,0.819482,-0.067748,0.548564
5934082390,-2.207139,3.628519,-1.215607,0.813246,-0.054799,0.561340
5934102435,-5.921275,2.818156,-1.872011,0.819042,-0.060054,0.577723
5934122480,-7.806010,2.104662,-3.327217,0.827952,-0.071418,0.562769
5934182615,-12.759761,5.177543,-7.931683,0.820270,-0.098647,0.563574
5934222707,-13.581674,2.775956,-8.989673,0.832791,-0.101465,0.540473
5934242752,-14.111055,3.019915,-8.368761,0.831075,-0.101569,0.535090
5934262797,-12.021425,3.049273,-6.685930,0.823906,-0.132120,0.531466
5934282842,-9.030617,2.355522,-5.588317,0.839312,-0.151601,0.529554
5934302887,-4.724197,3.347664,-5.210885,0.854486,-0.140188,0.538129
5934322932,-3.413098,4.258823,-4.749464,0.837770,-0.121926,0.545230
5934342996,-1.561940,2.228714,-2.811454,0.815110,-0.117605,0.553678
5934363021,-0.258940,-0.226560,-0.868840,0.814752,-0.125599,0.544364
5934383066,1.971599,-0.896856,0.219345,0.815144,-0.129035,0.549039
5934403111,5.457046,-0.549910,0.938887,0.817895,-0.126762,0.553865
5934423156,7.223897,0.778755,1.091686,0.817074,-0.111818,0.563660
5934443201,8.605366,1.690084,2.062993,0.807741,-0.105867,0.573011
5934463246,9.771304,1.795785,2.724364,0.802991,-0.092159,0.580329
5934483291,7.291425,0.650307,2.912063,0.798135,-0.074390,0.581695
5934503336,6.094821,-0.663648,2.762496,0.792737,-0.072656,0.595844
5934523381,3.255027,-2.181475,2.450498,0.810032,-0.063972,0.584518
5934543426,0.458856,-1.001012,2.318455,0.822948,-0.069008,0.570451
5934563471,-1.266111,0.338013,1.903790,0.812143,-0.073246,0.567220
5934583518,-3.790863,-0.336198,2.060915,0.804298,-0.070847,0.580072
5934603563,-6.985940,-1.739490,2.231486,0.832368,-0.082273,0.558520
5934623608,-7.198303,0.692452,1.202345,0.830623,-0.100888,0.565125
5934643653,-5.898175,-0.768583,-0.078497,0.825005,-0.125742,0.558279
5934663698,-4.406186,-0.732557,-1.606012,0.819561,-0.129555,0.561822
5934683743,-3.601798,-1.865689,-1.458742,0.814633,-0.118396,0.556686
5934703788,-3.292241,-2.709707,-1.620301,0.821650,-0.112687,0.553868
5934723833,-2.532644,-3.645127,-1.350982,0.827098,-0.122494,0.545430
5934743876,-1.697485,-3.942347,-1.509470,0.823761,-0.125704,0.548437
5934763921,-1.317760,-5.295355,-0.970204,0.830077,-0.117410,0.548597
5934783967,-0.867737,-4.550864,-0.943885,0.835024,-0.115097,0.550981
5934804012,-1.134505,-4.269547,-1.254455,0.828317,-0.105874,0.551675
5934824057,-1.521039,-3.995505,-1.068912,0.834596,-0.095447,0.544351
5934844102,-2.237108,-3.425124,-1.711516,0.837287,-0.106667,0.536361
5934864147,-1.199627,-1.389059,-1.767105,0.824001,-0.109783,0.544392
5934884192,-1.512469,-2.316007,-1.619082,0.833043,-0.108648,0.543538
5934904237,-0.674461,-0.363572,-2.107306,0.837907,-0.098557,0.549682
5934924282,-1.690570,-0.066017,-1.551280,0.823307,-0.090215,0.563527
5934944327,-1.781554,-0.552248,-1.253009,0.810951,-0.083077,0.554365
5934964372,-2.148767,-2.368375,-0.981836,0.819751,-0.085848,0.554907
5934984419,-5.457222,-2.867203,-1.070272,0.852088,-0.078346,0.537510
5935004464,-7.224983,-0.121982,-1.417374,0.843864,-0.088414,0.527609
5935024509,-7.096995,0.766847,-2.173407,0.820712,-0.098930,0.538179
5935044554,-6.541964,-1.134292,-3.250045,0.820307,-0.113947,0.540849
5935064599,-5.855640,-1.591482,-4.481421,0.816857,-0.118233,0.546140
5935084644,-3.424175,-2.764004,-4.293260,0.796956,-0.117099,0.560734
5935104689,-0.624578,-8.405609,-3.120938,0.797292,-0.107172,0.585146
5935124742,-1.752898,-11.566210,-2.423652,0.827880,-0.089570,0.561279
5935144778,-5.002076,-9.647874,-2.080585,0.859789,-0.068702,0.538033
5935164823,-7.051983,-6.142603,-3.012851,0.868230,-0.041367,0.528309
5935184868,-11.850610,-4.831573,-3.975295,0.851832,-0.029311,0.522718
5935204913,-19.010386,-5.980206,-2.890844,0.884206,-0.060464,0.492621
5935224958,-19.678097,0.366639,-3.584990,0.901457,-0.111275,0.486338
5935245003,-18.112389,3.935887,-7.409517,0.862082,-0.132702,0.505073
5935265048,-19.397552,1.587954,-8.357349,0.848482,-0.119685,0.511968
5935285093,-19.565315,1.086502,-8.248932,0.849688,-0.126698,0.502839
5935305138,-17.732393,-0.199243,-7.461849,0.852509,-0.154423,0.494712
5935325183,-15.181316,-0.619803,-8.166658,0.864383,-0.161141,0.485477
5935345228,-12.534717,0.662251,-8.561459,0.872877,-0.155026,0.478842
5935365275,-11.503782,2.766839,-8.373277,0.867087,-0.137189,0.487575
5935385320,-8.383598,4.262418,-6.295963,0.859005,-0.132895,0.497222
5935405365,-7.700376,5.524050,-5.174887,0.869368,-0.123149,0.492392
5935425410,-13.816746,11.450352,-5.004084,0.910890,-0.086566,0.468540
5935445455,-13.694388,15.432235,-6.722903,0.868696,-0.083711,0.535945
5935465500,-5.107309,9.399189,-2.905325,0.818270,-0.149798,0.533573
5935485545,-1.984915,5.709774,-3.748553,0.860931,-0.124852,0.529036
5935505590,2.717842,-2.004624,-10.908042,0.898321,-0.089967,0.564073
5935525634,9.450851,5.347786,-9.244881,0.900342,-0.128090,0.503585
5935545679,14.006014,11.335637,-3.846004,0.847289,-0.123980,0.495606
5935585769,-5.576421,10.582215,7.092358,0.856476,-0.149415,0.501984
5935605814,-4.727711,16.182552,5.671172,0.889978,-0.172542,0.524907
5935625859,-1.666102,25.648058,0.534490,0.793350,-0.099853,0.568031
5935645904,-3.979733,23.143883,5.095101,0.763067,-0.072040,0.556746
5935665949,-9.381415,19.357079,7.928393,0.813922,-0.144731,0.519388
5935685994,-0.346543,27.696070,10.647152,0.806437,-0.192529,0.537845
5935706040,17.029018,29.106070,18.793686,0.764440,-0.255151,0.565460
5935726084,26.768112,29.767269,20.455359,0.762603,-0.326719,0.536357
5935746130,42.551872,30.209631,20.349163,0.778228,-0.322625,0.542264
5935766176,63.385803,32.109577,26.030861,0.779142,-0.246494,0.595177
5935786221,81.334045,32.786266,27.202959,0.752497,-0.136518,0.581965
5935806266,86.643013,33.558849,31.404913,0.721232,-0.070944,0.646292
5935826311,82.911804,23.272263,34.795296,0.765597,-0.074895,0.720850
5935846367,73.794464,16.811752,17.524448,0.785823,0.077086,0.688151
5935866401,56.305561,17.626251,20.461302,0.647868,0.251618,0.797870
5935886446,33.608536,-15.010309,29.381510,0.644974,0.308688,0.816952
5935906503,13.607903,-33.753937,40.941925,0.841286,0.328425,0.738741
5935926535,-9.251543,-18.812107,28.357660,0.923636,0.391085,0.548907
5935946580,-42.511612,-3.391557,-4.404366,0.705785,0.098696,0.561474
5935966625,-48.073895,-23.301826,-24.013334,0.661103,-0.173467,0.665637
5935986670,-60.610497,-40.082672,-27.847630,0.897074,-0.020081,0.581241
5936006715,-90.759140,-33.470085,-51.909851,1.042820,0.166587,0.499826
5936026760,-121.368256,-14.451960,-91.018791,0.929081,0.239341,0.479093
5936046805,-163.136536,-11.094143,-124.168907,0.910137,0.204398,0.461489
5936066850,-209.042419,-17.030600,-145.348251,0.985590,0.189369,0.343078
5936086895,-243.947479,-4.833161,-165.333969,1.082444,0.090226,0.310827
5936106940,-271.230164,-3.544627,-174.961212,0.984424,-0.057196,0.208538
5936126985,-290.681915,4.625997,-161.937256,0.959505,-0.069887,0.192164
5936147032,-317.915680,6.863863,-173.142792,1.102127,0.058776,0.201339
5936167077,-337.836517,21.822815,-192.682266,1.224266,0.195090,0.067271
5936187122,-352.995422,46.811417,-210.355530,1.205872,0.193637,-0.057492
5936207167,-374.652069,55.500175,-215.545731,1.190312,0.107353,-0.107696
5936227212,-394.618958,56.172089,-196.454193,1.235604,0.024863,-0.187623
5936247257,-397.565704,67.458313,-187.071777,1.274716,-0.055522,-0.291739
5936267302,-402.021057,70.122711,-186.384949,1.374192,-0.081407,-0.474436
5936287347,-420.443268,90.073555,-190.140305,1.370456,-0.056465,-0.562436
5936307391,-429.223663,112.759506,-194.810150,1.544560,-0.071703,-0.493938
5936327436,-418.062561,82.485069,-192.208313,1.781618,-0.489373,-0.499320
5936347481,-378.583832,118.062653,-170.009720,1.560879,-1.387525,-0.487419
5936367526,-306.140594,202.620651,-165.571304,0.575541,-1.998479,0.083279
5936387571,-189.638718,100.494980,-201.229340,0.247367,-1.128761,0.721485
5936407616,-213.136948,-0.155464,-166.496445,0.727251,-0.270709,0.242746
5936427661,-194.928894,18.944460,-149.878601,1.063352,-0.062275,0.073956
5936447706,-219.855255,70.809006,-135.985504,0.954591,-0.333766,0.238827
5936467751,-212.840744,42.146076,-140.964081,0.975557,-0.363548,0.361135
5936487796,-216.426437,42.018520,-144.151382,1.063333,-0.203931,0.189021
5936507841,-230.554031,59.059101,-154.732422,1.049447,-0.144446,0.178960
5936527886,-246.060364,55.323853,-158.053467,1.028915,-0.171524,0.236756
5936547933,-255.923370,44.696533,-163.521530,1.036838,-0.180253,0.143474
5936567978,-265.504456,51.041328,-168.969727,1.017011,-0.181320,0.068864
5936588023,-270.337402,47.084885,-170.429718,1.055345,-0.230165,0.062810
5936608068,-276.064423,47.917866,-171.392227,1.130735,-0.236332,0.059678
5936628113,-277.956177,52.469692,-177.210022,1.101021,-0.179475,0.056898
5936648158,-287.051697,47.049721,-179.275909,1.113274,-0.105419,0.060929
5936668203,-298.490875,43.702068,-174.895920,1.188908,-0.182612,0.007127
5936688247,-300.094543,55.084690,-168.251236,1.206028,-0.325299,0.003241
5936708292,-287.338440,64.346176,-169.043442,1.078332,-0.265743,0.069371
5936728337,-284.633209,55.982014,-171.387482,1.027851,-0.165790,0.082927
5936748382,-283.504822,46.777161,-170.130417,1.112705,-0.163286,0.038004
5936768427,-281.835999,53.162075,-166.195343,1.134936,-0.210822,0.028452
5936788472,-278.270325,59.018764,-167.020523,1.073686,-0.181662,0.100964
5936808517,-274.279572,47.872322,-167.848114,1.040429,-0.092469,0.124476
5936828562,-272.869720,41.852146,-166.085785,1.089022,-0.072555,0.067126
5936848607,-269.826813,45.452583,-165.350693,1.111549,-0.118102,0.030885
5936868652,-265.682648,46.719925,-161.795441,1.077761,-0.181311,0.082418
5936888697,-256.378845,40.851883,-161.503174,1.041228,-0.178779,0.117091
5936908742,-256.461151,37.370846,-161.476410,0.986475,-0.104687,0.125913
5936928789,-256.945099,27.784266,-150.219009,1.025297,-0.054649,0.179135
5936948834,-254.129684,8.192663,-138.215637,1.160669,-0.122562,0.183052
5936968879,-238.544556,15.779992,-138.007111,1.118752,-0.180168,0.123405
5936988924,-224.724457,20.305387,-138.635391,1.008613,-0.259332,0.180430
5937008969,-215.990265,9.331347,-135.743698,0.927074,-0.336234,0.168815
5937029014,-196.752960,9.637767,-127.313293,1.002804,-0.299093,0.166786
5937049060,-179.567215,13.626741,-114.352959,0.996981,-0.230505,0.184113
5937069104,-166.469406,13.027893,-102.568275,0.953704,-0.208585,0.275844
5937089148,-156.794586,9.013121,-87.607765,0.983236,-0.148292,0.315986
5937109193,-156.178589,6.073174,-66.217537,1.059704,0.014675,0.330221
5937129238,-178.488632,3.699722,-46.053825,1.147351,0.279407,0.408340
5937149283,-201.245102,1.955830,-29.620256,1.270550,0.166425,0.370113
5937169328,-164.474579,10.576715,-22.863409,1.244998,-0.177654,-0.010349
5937189373,-113.747177,40.984821,-15.038097,0.977116,-0.704448,-0.102917
5937209418,-88.330414,73.603592,-24.489563,0.552523,-1.216720,0.274680
5937229463,-29.091024,35.106865,-10.424986,0.464927,-0.991129,0.539029
5937249509,-7.639660,-4.705143,31.600214,0.925049,-0.477552,0.313544
5937269554,32.183769,16.532534,43.395512,1.040025,-0.394663,0.214643
5937289599,80.067253,50.681274,31.355341,0.789899,-0.400499,0.451128
5937309645,80.704247,27.464520,40.042027,0.622139,-0.395492,0.518145
5937329690,89.316765,0.783336,50.445904,0.778078,-0.396781,0.373987
5937349735,115.912010,12.002160,51.252243,0.949420,-0.392111,0.341150
5937369780,139.840225,19.517330,42.270157,1.066099,-0.348761,0.387257
5937389825,158.461761,32.170052,38.824314,1.142920,-0.276099,0.345247
5937409870,157.641495,65.023376,27.303539,1.087345,-0.163894,0.353202
5937429915,132.450195,92.517113,17.262175,0.883972,-0.024931,0.326260
5937449960,151.439301,97.700371,2.126492,0.575450,0.053304,0.332010
5937470005,105.370552,74.716377,16.191517,0.613061,0.031604,0.358958
5937490050,45.338722,45.518520,28.091600,0.916027,0.208556,0.518856
5937510094,34.760464,69.581429,5.866442,0.984880,0.238532,0.583025
5937530139,1.818449,83.528244,-24.527342,0.643012,0.045430,0.629283
5937550184,-26.057116,71.219803,-67.490105,0.240578,-0.387485,0.845419
5937570229,-44.239491,23.279877,-107.446167,0.225915,-0.949413,1.043875
5937590274,-40.784393,5.038569,-133.708069,0.505165,-0.756940,0.882449
5937610319,-51.117817,41.834362,-151.650421,0.664948,-0.008595,0.767184
5937630364,-106.874855,71.224861,-177.236725,0.660325,0.526382,0.947100
5937650409,-176.404266,79.957787,-209.866699,0.453664,0.660424,1.126755
5937670454,-226.498566,43.779884,-218.369446,0.342446,0.109386,1.044363
5937690501,-261.457153,47.897732,-238.568069,0.419596,-0.043754,1.230920
5937710546,-258.618835,57.534683,-268.455017,0.339773,0.291596,1.435242
5937730591,-281.268799,1.280290,-281.750671,0.426166,0.588925,1.254607
5937750636,-308.662292,-4.735187,-291.019714,0.665794,0.483985,0.957778
5937770681,-331.116211,9.595976,-308.611725,0.660925,0.473949,0.783839
5937790726,-356.751099,-13.509711,-323.035736,0.762860,0.457772,0.361815
5937810771,-332.026031,-44.248142,-312.096375,1.074801,0.465285,-0.155924
5937830816,-337.950928,-104.628983,-291.774872,1.768256,0.261848,-0.413027
5937850860,-426.236908,-36.146667,-275.377594,2.118722,-1.341169,-0.435382
5937870905,-437.440704,358.591064,-222.336884,0.784195,-2.827979,-0.084977
5937890950,-266.682434,300.414276,-302.173798,-1.249195,-3.453328,1.235584
5937931040,-253.283722,28.409565,-340.788879,0.826963,0.545420,0.599095
5937951085,-61.519554,61.729446,-330.977478,0.573548,0.387174,0.305478
5937971130,-216.388901,85.143669,-264.630066,0.455849,-0.364947,0.326759
5937991175,-116.776039,34.968742,-282.144714,0.555289,-0.883325,0.919093
5938011220,-100.751518,66.444344,-265.864685,0.647821,-0.291032,0.618803
5938031265,-127.524017,83.032631,-258.673859,0.687995,0.044995,0.612043
5938051310,-151.784378,89.811844,-255.911697,0.888451,0.007923,0.778604
5938071356,-170.093948,108.921227,-237.688293,0.848101,-0.078566,0.812164
5938091402,-178.018417,110.735062,-225.219086,0.682473,-0.264552,0.645786
5938111447,-177.596649,109.603363,-205.786972,0.758047,-0.675848,0.632526
5938131492,-143.196747,114.113693,-166.759811,1.105530,-1.038127,0.460700
5938151537,-76.544708,177.438461,-149.602936,0.348842,-0.869754,0.216794
5938171582,-76.356651,192.595474,-163.369720,-0.081625,-0.451641,0.761746
5938191627,-64.288620,95.348251,-132.135284,0.089421,-0.055726,0.910497
5938211672,-59.605286,65.175964,-117.683151,0.801587,0.161168,0.523874
5938231716,-47.943165,130.233932,-121.048988,0.857688,0.009090,0.487301
5938251761,-40.389183,161.035889,-114.690941,0.288291,-0.462615,0.867237
5938271806,-36.319435,122.481354,-81.683235,-0.039147,-0.495623,1.244682
5938291851,-44.497154,77.631927,-75.414932,0.072641,-0.182480,0.946746
5938311896,-46.964630,92.547417,-73.680763,0.207759,-0.076634,0.949500
5938331941,-37.483433,82.317657,-70.635521,0.175615,-0.245174,1.099969
5938351986,-28.930721,62.364906,-73.158180,0.161960,-0.389390,1.135748
5938372031,-32.436470,49.631817,-67.291267,0.168322,-0.340773,1.214966
5938392076,-23.883781,29.793549,-51.926273,0.070904,-0.273697,1.337066
5938412121,-3.460663,1.260508,-29.749512,-0.024556,-0.366025,1.419344
5938432166,3.655942,-29.075214,-19.109783,-0.039033,-0.568995,1.535357
5938452211,2.595339,-55.001431,-21.659740,-0.002853,-0.577900,1.638848
5938472258,-11.375998,-65.355965,-20.019171,-0.089799,-0.487584,1.668696
5938492303,-49.384247,-73.547745,-4.651022,-0.352369,-0.436722,1.916093
5938512348,-88.935089,-83.681282,-0.117663,-0.547538,-0.488638,2.034729
5938552438,-8.280648,-105.798973,-30.304604,-0.120456,-0.416999,1.934286
5938572483,62.669125,-183.277237,-38.904060,0.353745,0.157049,1.340857
5938592528,58.646473,-201.304993,-10.538965,0.652857,1.045642,-0.011115
5938612573,145.732010,-226.385300,-41.526627,1.118209,0.493655,-1.254112
5938632617,167.721436,-100.137428,-15.630501,0.864988,-0.847905,-1.042405
5938652662,-108.445572,183.283340,142.835892,-0.190885,-1.809459,-0.300076
5938672707,79.099983,13.748289,60.545273,-0.541722,-1.769037,1.412672
5938692752,41.884926,-189.844360,-45.267372,0.926260,0.936079,1.381036
5938712797,157.612076,-235.846634,-99.622093,1.267939,0.519662,-0.566757
5938732843,-40.049683,-28.341835,-94.524101,1.544774,1.527309,-0.475270
5938752888,-79.299019,217.966339,-17.998816,0.962500,0.654169,-0.363882
5938772932,-167.373169,291.924652,23.425369,0.315939,-0.453983,0.782423
5938792978,-64.452728,107.432968,-15.448393,0.250796,-0.634019,1.477466
5938813023,53.331139,96.618683,28.058193,0.829868,0.035049,0.552162
5938833067,37.815998,121.853889,-33.318741,0.726531,0.203775,0.273512
5938853114,-20.215540,169.844193,-78.110909,-0.076079,-0.382147,0.450933
5938893204,17.815159,-3.042246,42.960426,-0.046719,-0.055795,0.533034
5938913249,-29.576597,35.214787,25.681742,0.458005,0.650152,0.413173
5938933294,-30.607180,81.508614,2.417690,0.328746,0.398121,1.368274
5938953340,36.727295,51.050270,8.154369,-0.268925,-1.052195,2.036772
5938973384,46.316986,2.479839,22.113956,-0.224233,-0.896753,1.866109
5938993429,6.204911,-19.261698,38.547134,-0.125153,0.051720,1.928926
5939013473,-32.761623,-36.058533,16.067835,-0.102312,0.092844,1.839347
5939033518,-58.491009,7.598665,14.692554,-0.104921,-0.105739,1.968703
5939053563,-40.817467,53.304371,4.015824,-0.021559,-0.341268,2.522258
5939073608,32.416489,-59.978294,-28.443031,0.021409,-0.283232,2.342553
5939093653,32.849518,-84.298767,-6.916908,-0.738639,0.034398,1.029255
5939113698,61.744465,-53.837906,25.522858,-0.331241,0.502097,0.529538
5939133743,223.478683,-253.161530,25.316896,0.822935,0.378455,-0.416706
5939153789,130.310883,-287.647278,62.867821,1.206471,-0.585950,-0.410041
5939173834,-244.636414,-18.165571,101.050034,-0.055540,-0.974076,-0.281310
5939193878,-8.978239,276.847504,12.359496,-0.473244,-0.263934,3.562601
5939213923,144.343277,-202.935608,9.740603,-0.465813,-0.015837,0.939253
5939233968,24.991325,-327.830811,32.691608,0.627116,0.154416,0.188977
5939254015,-115.246620,-165.261993,11.451515,1.198265,0.283127,0.322827
5939274060,-21.275589,90.818649,-15.215215,0.777694,0.027314,0.897632
5939294105,-11.864154,-22.378979,-15.081314,-0.013928,-0.080378,0.968214
5939314150,-14.855468,-149.486282,10.964000,0.357161,-0.132000,0.501561
5939334195,-0.204417,-89.925781,8.509870,0.759152,-0.163284,0.350162
5939354240,-8.379099,-34.789097,-4.369740,0.768071,-0.093174,0.381423
5939374285,-19.310379,-30.068062,-6.233057,0.802868,-0.117964,0.504246
5939394329,-14.973616,-5.867542,-14.989283,0.785622,-0.115933,0.434545
5939414374,-19.428932,23.556732,-19.127295,0.807617,-0.052177,0.396396
5939434419,-28.286451,41.556705,-15.853862,0.697960,-0.017799,0.409787
5939454464,-30.675646,49.936298,-12.392377,0.596276,-0.063935,0.450122
5939474509,-34.395863,57.519073,-8.691385,0.515981,-0.128867,0.444791
5939494554,12.529929,69.747208,-6.183017,0.457968,-0.121107,0.464606
5939514599,18.099173,74.017143,0.801932,0.807883,-0.029153,0.641755
5939534644,-0.025430,74.775345,12.512371,1.214963,-0.295856,0.472124
5939554689,27.866575,151.688278,-15.009605,0.531384,-0.286135,0.626106
5939574735,16.226271,82.480690,6.034442,-0.016379,-0.092205,1.054240
5939594780,6.758159,-2.437675,14.079875,0.099563,0.026891,0.758756
5939614825,-20.258821,3.742175,13.976443,0.505823,0.155365,0.696021
5939634871,-32.148415,55.406048,-4.470847,0.454659,-0.174869,1.225612
5939654916,3.868298,86.745918,-14.863245,-0.200833,-0.614844,2.130258
5939674961,24.234011,21.301929,-14.005232,-0.495463,-0.436601,2.226966
5939695006,33.984215,-27.825466,12.409563,-0.335630,-0.327339,2.098586
5939715059,41.702026,-106.480118,4.456015,0.102902,-0.164475,2.355551
5939735096,58.551685,-182.770660,31.504848,0.991254,0.060403,1.211293
5939755141,93.747353,-105.428879,25.029150,0.507283,-0.137529,0.050940
5939775186,115.804054,-102.819023,6.108945,0.740630,-0.000040,0.031571
5939795230,-31.930935,-135.539719,10.365615,0.936811,0.764355,0.430386
5939815275,-242.432495,29.445105,-29.650427,0.079328,0.287597,1.063640
5939835320,1.532331,31.711666,-30.898386,-0.807045,-0.656027,2.714500
5939855365,42.657494,-222.576187,-0.446770,-0.312628,-0.052597,0.700773
5939875410,-87.131966,-212.371078,-1.998195,0.384850,0.057243,0.693762
5939895455,-67.236885,-145.221268,-36.496552,0.556848,-0.096599,1.029238
5939915500,1.612733,-146.162338,-36.337898,0.351094,-0.064392,0.646812
5939935545,-14.162676,-170.587753,-42.501801,0.284396,-0.226916,0.600688
5939955590,-4.438102,-161.888458,-48.496384,0.309193,-0.341609,0.600996
5939975635,23.679478,-156.866653,-50.240376,0.200279,-0.129266,0.378939
5939995680,0.271397,-171.310944,-51.075714,0.239533,0.051290,0.253096
5940015727,-20.442316,-198.154846,-53.169392,0.492433,0.033923,0.241430
5940035772,-23.666765,-190.123566,-65.219643,0.816073,-0.112995,0.161883
5940055817,-10.570988,-153.728668,-67.685661,0.836475,-0.248604,0.047433
5940075862,-7.848823,-123.735191,-60.009937,0.776714,-0.159305,0.093694
5940095907,-13.237456,-138.741180,-58.354584,0.861799,-0.000777,0.129698
5940115952,-31.719925,-139.633118,-65.936981,0.899651,0.046040,-0.011258
5940135997,-48.019409,-112.280640,-68.831863,0.939428,-0.041059,-0.097014
5940156042,-56.998207,-95.687241,-66.782722,0.956583,-0.096893,-0.067202
5940176086,-67.161850,-84.955154,-69.594650,1.033349,-0.091822,-0.051661
5940196131,-73.359886,-67.805649,-76.275063,1.089899,-0.041647,-0.068415
5940216176,-85.008163,-46.497345,-90.680672,1.145373,0.015098,-0.061649
5940236221,-109.700233,-28.796417,-106.674103,1.279858,0.077826,0.003093
5940256266,-127.016052,-23.069283,-114.530739,1.271333,-0.011029,-0.035112
5940276311,-136.165100,-9.420622,-153.730576,0.911326,0.046594,-0.011268
5940296356,-132.915344,-22.301229,-158.649490,0.841302,0.171169,0.038086
5940316401,-138.655731,-63.862232,-136.838806,1.081346,0.241086,0.017685
5940336446,-165.164627,-78.730148,-139.173630,1.395169,0.403382,-0.060207
5940356491,-202.216156,-34.374165,-163.241486,1.526256,0.429300,-0.149962
5940376536,-241.130432,27.427364,-169.751343,1.323370,0.238505,-0.089325
5940396583,-261.731689,41.436279,-139.971466,1.052510,0.006856,0.180556
5940416628,-226.331085,4.456660,-127.698685,0.939041,-0.159544,0.432657
5940436673,-153.551605,-52.978466,-132.613388,1.116711,0.054575,0.380747
5940456718,-142.422607,-49.895439,-134.469070,1.233506,0.362665,0.175482
5940476763,-168.915390,-23.080149,-134.580795,1.190824,0.508434,0.149385
5940496808,-204.879990,-25.829363,-114.235855,1.148880,0.311945,0.247389
5940516853,-193.803513,-32.194927,-101.424606,1.210262,0.110614,0.419116
5940536898,-145.455765,-35.899216,-99.201576,1.335832,0.268268,0.530898
5940556942,-148.943268,-41.800415,-95.809593,1.445549,0.432126,0.385313
5940576987,-180.066727,-10.586246,-92.195091,1.384539,0.311857,0.344708
5940597032,-187.451752,6.426989,-83.111641,1.268065,0.044388,0.545271
5940617077,-159.189682,-8.785421,-87.123093,1.200842,-0.058179,0.644228
5940637122,-119.158218,-8.887640,-102.277985,1.123361,-0.002335,0.554250
5940657167,-122.675110,-4.355189,-103.611359,0.960489,0.040795,0.545785
5940677212,-128.369095,-13.854830,-94.942429,0.832263,-0.018449,0.647034
5940697257,-108.096733,-46.943920,-80.218513,0.897520,-0.071608,0.667342
5940717302,-96.406166,-67.812813,-68.891449,1.142962,0.006817,0.536837
5940737347,-103.089584,-41.958233,-71.447250,1.256668,0.079515,0.475522
5940757392,-116.633026,-8.188282,-80.395401,1.114807,0.054894,0.633561
5940777437,-115.685623,-9.951529,-78.328819,1.075151,-0.022811,0.773120
5940797484,-106.537727,-13.924128,-71.980598,1.064689,-0.082316,0.730198
5940817529,-100.038147,-3.794893,-65.069275,1.141678,-0.059920,0.696616
5940837574,-100.558815,12.408103,-69.803940,1.111963,-0.114579,0.653604
5940857619,-91.902580,32.889984,-74.498734,0.937665,-0.254389,0.638371
5940877664,-74.487587,41.264847,-77.291351,0.786283,-0.322898,0.671699
5940897709,-52.484531,47.095001,-67.950310,0.737634,-0.247599,0.658523
5940917754,-48.652916,47.977661,-58.450043,0.865847,-0.078830,0.649599
5940937804,-62.190392,69.517433,-52.005337,0.927222,0.018115,0.530252
5940957843,-74.185738,101.955467,-45.118038,0.788173,-0.014456,0.628926
5940977888,-77.806831,108.057281,-38.635727,0.560737,-0.248591,0.734353
5940997933,-53.060047,81.763260,-32.096504,0.418214,-0.291305,0.734940
5941017978,-53.789162,83.743835,-6.921936,0.209635,-0.142486,0.811487
5941038023,-60.700386,58.812859,28.861576,0.387094,0.083786,0.963324
5941058068,-15.834188,39.020435,46.896385,0.730940,0.371622,0.722374
5941078113,24.214190,75.775230,34.487198,0.501535,0.385778,0.754541
5941098158,-63.144547,96.946091,-8.302547,0.010447,0.206347,0.781296
5941118203,-186.099884,77.065460,-1.634929,0.087528,0.036872,1.228557
5941138248,-172.633133,60.271683,-34.892365,-0.103656,-0.446816,1.680094
5941158293,-59.163906,46.159294,-82.548203,-0.644420,-0.316485,1.889478
5941178340,-59.158096,12.830524,-65.070839,-0.720116,0.070359,2.313186
5941198385,-159.067062,-33.885887,-42.944664,-0.348621,-0.068199,2.128126
5941218430,-201.315796,-70.280777,-79.397926,-0.200246,-0.126734,1.843904
5941238475,-141.984512,-25.574678,-136.895203,-0.063549,-0.086060,2.114696
5941258520,-55.842010,-56.891106,-127.081375,0.776416,-0.382432,2.254382
5941278565,-34.602600,-148.434479,-54.067734,0.680883,-0.117333,0.715574
5941298610,-40.420033,-145.238892,-57.934334,0.737422,0.708800,-0.335568
5941318655,57.852627,-148.566162,-118.374016,0.960557,0.212274,-1.008122
5941338699,77.186623,54.666962,-18.198595,0.185392,-1.098153,-0.586894
5941358744,-27.661066,249.303619,130.498093,-1.341346,-2.515229,1.057734
5941378789,257.170593,-242.733826,21.376698,-0.384289,-0.981528,1.011915
5941398834,45.562599,-295.603424,-11.134180,1.120946,0.391366,-0.434393
5941418879,186.536392,-143.689590,-81.037613,1.340037,1.347364,-0.556037
5941438924,-25.312222,202.423706,-64.534439,0.992656,1.112015,-0.626463
5941458969,-122.712273,252.646545,12.888713,0.684219,0.206852,0.972491
5941479014,-43.906158,59.423050,-35.322399,0.427628,-0.549022,1.482335
5941499059,68.672859,123.130951,9.204964,0.672469,-0.570298,0.616280
5941519104,65.357437,133.175797,46.116295,1.015221,-0.267970,1.061497
5941539149,33.181461,142.753082,-14.577193,0.326858,0.838727,0.762910
5941559194,58.995823,179.320969,-47.263630,-0.409508,0.713474,0.663879
5941579241,-18.375830,77.530167,-31.969900,-0.790290,0.026429,0.504436
5941599285,-101.943665,-35.377686,-39.252106,0.079661,0.136281,1.054695
5941619330,-108.170471,-13.371764,-63.778938,0.361330,-0.113871,1.635766
5941639376,-21.348063,69.491898,-97.799675,-0.404902,-0.439316,1.915094
5941659420,-73.588814,20.625238,-66.978790,-0.596624,-0.099208,2.329873
5941679466,-193.322021,8.080643,-34.288246,-0.496628,-0.127766,2.257002
5941699511,-186.104691,69.905991,-51.322273,-0.669934,-0.304949,2.645504
5941719557,12.584065,15.720792,-91.754387,-0.583026,-0.246743,3.256021
5941739600,-22.906689,-182.355728,-47.055561,-0.076080,0.017999,1.768414
5941759644,-26.603065,-108.572380,-12.951771,-0.288592,0.183629,0.113127
5941779689,152.402451,-121.908516,-50.917538,0.964513,0.207890,-0.925843
5941799735,155.917786,-189.399719,-3.906269,1.122798,-0.248072,-0.442484
5941819780,-236.270050,91.898293,113.048248,-0.507125,-0.943127,-0.891676
5941839824,50.555992,123.790375,20.999245,-0.610292,-0.891367,2.700855
5941859870,29.917885,-233.171051,-40.548447,0.200542,-0.183996,0.225072
5941879915,38.680130,-298.999878,-21.987600,1.675730,0.561487,-0.356450
5941899960,-59.950127,14.647728,-48.344322,1.546148,0.494288,-0.774737
5941920005,-101.850502,326.528809,-40.486320,0.965344,0.364824,0.245794
5941940050,-151.744705,239.139221,-27.831882,-0.112430,-0.224747,1.509947
5941960096,63.114738,65.794136,38.517956,-0.308169,-0.647759,1.069441
5941980141,-12.137712,43.017128,17.465265,0.325961,-0.103078,0.440368
5942000186,-5.400980,112.533745,-35.576416,0.336874,0.068196,0.045721
5942020232,19.946224,176.529526,-8.496813,-0.683086,-0.450608,0.680230
5942040277,35.713051,20.391701,12.053608,-0.870284,-0.238680,1.104385
5942060321,-8.372712,-95.561981,34.373375,0.226443,0.268532,0.976741
5942080367,-31.690992,-20.605835,2.332085,0.683857,-0.301850,1.974900
5942100412,25.754887,58.516422,-7.805075,-0.437950,-0.443427,2.196578
5942120456,-63.150993,59.060047,16.119488,-0.484794,-0.019956,2.087949
5942140501,-104.599884,136.050430,27.502443,-0.663202,-0.260684,2.590834
5942160546,75.028870,63.419609,3.910352,-0.894292,-0.386130,3.292499
5942180591,34.807945,-166.704086,33.713409,-0.761106,-0.445676,1.635769
5942200636,49.779762,-84.704094,36.850288,-0.693184,-0.142923,-0.029891
5942220681,204.803116,-121.573845,-0.612239,0.738117,0.002839,-0.392192
5942240726,8.517927,-209.973145,54.525291,1.244660,0.377283,-0.223242
5942260771,-219.291183,65.179489,-11.265377,-1.036599,-0.150729,-0.381309
5942280816,54.756546,175.763245,-56.720161,-1.640151,-0.611319,3.434673
5942300861,73.702667,-346.639282,65.719292,-0.049096,0.014682,0.366097
5942320906,-86.095383,-345.035919,62.189148,1.522285,0.246924,-0.063723
5942340952,-65.546173,-23.656624,-52.051502,1.834637,0.285063,-0.205698
5942360997,-76.715485,191.165482,-65.363853,0.832359,-0.008440,0.293882
5942381042,-94.098343,86.716248,-65.985077,-0.099457,-0.448464,1.161639
5942401087,-109.595879,-25.892815,-38.813873,-0.074970,-0.131506,0.932501
5942421132,-63.929459,-10.984315,-10.959929,0.450930,-0.241886,0.502516
5942441177,13.060953,31.183605,0.004954,1.316385,-0.021968,0.558827
5942461223,63.001427,88.917641,-24.209236,0.682032,-0.462129,0.078477
5942481268,48.021404,157.264664,-15.717926,-0.257313,-0.600722,0.033610
5942501311,38.729443,105.204300,26.790735,-0.641800,-0.188862,0.565657
5942521357,26.779737,-20.568399,45.605148,-0.471449,0.248498,0.745654
5942541402,-29.517960,-43.794693,58.941284,0.187540,-0.149670,1.357198
5942561447,-26.701078,55.072929,42.538296,0.402286,-0.690603,2.582773
5942581492,22.113316,119.024361,33.068268,-0.346831,-0.175513,2.455966
5942601537,34.554916,82.826332,15.408837,-0.845837,0.060767,3.016304
5942621582,83.219711,-75.613739,33.271347,-0.372623,-0.057322,3.034483
5942641627,48.742439,-43.709785,26.321470,-0.654032,-0.067361,0.599890
5942661672,105.365616,-24.028706,6.327799,0.071390,-0.170747,0.000778
5942681717,167.942383,-214.752319,43.342743,1.256446,-0.080998,-0.222195
5942701762,-155.289276,-80.422050,54.904537,-0.237415,0.089779,-0.400673
5942721808,-34.014145,234.275223,-70.950539,-1.295807,0.199153,2.465061
5942741853,115.711693,-248.307175,15.632941,-0.453599,-0.242102,0.928281
5942761898,-76.339828,-308.169128,54.826885,0.890716,0.089538,0.097207
5942781943,-38.146049,-44.752491,-42.025497,1.323547,0.279774,0.094974
5942801988,-57.180969,78.512093,-52.532200,0.828234,0.250554,0.371560
5942822033,-98.722763,13.044085,-21.259604,0.642864,-0.166945,0.697497
5942842078,-61.430687,13.917126,-19.557978,0.541529,-0.193370,0.603564
5942862124,-98.641312,65.239960,-16.898582,0.168377,-0.198585,0.383922
5942882167,17.708830,48.749313,-23.679245,0.295123,-0.141088,0.791160
5942902213,14.705727,74.248634,2.000949,0.923221,-0.413200,0.458489
5942922258,55.532722,123.767418,30.171621,0.285387,-0.634069,-0.036534
5942942303,26.418221,202.442841,9.545374,-0.574424,-0.270901,0.705852
5942962348,-5.639179,94.320114,-7.575367,-1.004938,0.214666,1.224481
5942982392,-10.548511,-57.038357,37.499992,-0.337440,0.216807,1.389578
5943002438,1.403372,-36.810463,65.790245,0.745626,-0.345542,2.299284
5943022483,97.536713,148.029678,28.173466,0.123483,-0.367066,2.370302
5943042528,42.471504,128.141907,14.208263,-1.078731,-0.236138,3.717732
5943062573,74.052628,-103.011902,20.949715,-0.944209,-0.054532,1.326750
5943082618,20.559246,-23.568523,4.791136,-0.124431,0.300950,0.374473
5943102663,161.335419,-144.424484,27.587509,0.987710,-0.069279,-0.242464
5943122710,-54.813679,-164.015640,76.268166,0.823294,0.283436,-0.156078
5943142754,-161.954651,241.455490,-34.772240,-1.511764,-0.074153,1.295635
5943162799,142.732208,-79.498589,-23.229073,-1.404986,-0.238340,2.280050
5943182845,-60.400085,-334.135834,62.408463,0.264882,0.114524,0.388142
5943202890,-66.631516,-134.877014,-2.312442,1.216055,0.346206,0.483585
5943222935,-13.071529,34.916401,-48.105831,0.715155,0.278701,0.486401
5943242979,-84.633026,-6.881490,-37.171993,0.370837,-0.016600,0.727865
5943263023,-64.804573,-27.955544,-26.973688,0.469526,-0.351310,0.838144
5943283068,-68.085106,3.396147,-19.032291,0.336772,-0.255908,0.595756
5943303113,-45.902485,8.203923,-17.942280,0.039372,-0.148988,0.444480
5943323159,16.862671,6.072590,-5.836069,0.404632,0.067548,0.709936
5943343204,34.777424,12.986067,21.453524,0.691568,-0.519552,0.287694
5943363249,91.748703,43.339424,37.801598,0.311273,-0.615276,0.131295
5943383294,39.718468,147.020218,4.955293,-0.428328,-0.208903,0.756755
5943403339,-8.005768,92.984970,10.453691,-0.916483,0.180921,1.655318
5943423384,-42.703335,-63.047756,15.742950,-0.544222,0.154499,1.784990
5943443429,-21.417065,-45.202744,2.817467,0.423061,0.050328,2.014427
5943463474,44.445438,27.119236,13.976289,0.937631,-0.179210,2.763277
5943483519,9.515472,17.213100,25.955170,0.404899,-0.776672,2.098508
5943503565,52.448032,36.476292,30.613008,-0.408402,-0.398842,1.030509
5943523610,157.629135,-41.427536,37.125217,0.229950,-0.408928,-0.081042
5943543655,110.579506,-162.247803,32.183578,1.037100,0.589657,0.157697
5943563700,-240.403595,70.941154,-67.743362,-1.042901,0.625746,-0.054814
5943583746,-20.885813,113.928894,-89.556534,-1.548035,-0.113449,2.874043
5943603790,93.624283,-313.308868,56.362610,0.368994,-0.191782,0.779736
5943623836,-92.007507,-153.314987,86.820312,1.098703,-0.298511,0.306324
5943643884,9.876461,74.888550,-54.536095,0.437574,0.223039,0.622037
5943663924,-48.788525,13.020973,-27.432341,0.047728,0.082480,1.024770
5943683969,-45.372326,-71.534149,1.746156,0.241879,-0.451022,0.811356
5943704014,-20.500217,-17.846806,6.860363,0.371113,-0.351547,0.490274
5943724059,-42.653652,-6.932308,-2.076349,0.357958,-0.049589,0.590475
5943744104,-72.644333,-29.125381,-6.815407,0.520959,-0.076186,0.603539
5943764150,2.570679,-30.296995,-0.069802,0.599823,-0.194849,0.382490
5943784195,36.553814,28.603373,3.308831,0.526759,-0.269283,0.552005
5943804240,44.324554,56.956921,7.869606,-0.007187,-0.570559,0.809795
5943824285,16.306616,20.452253,24.894426,-0.047147,-0.112346,1.292536
5943844330,-36.662170,26.202551,0.139493,-0.114943,0.176347,1.574537
5943864374,-33.918701,18.829769,-28.534599,-0.397259,0.283174,1.804849
5943884421,17.331957,-27.733656,-18.118872,-0.227976,-0.182830,2.083521
5943904466,9.412703,-88.624504,-20.133707,1.146111,-0.765024,2.255962
5943924512,55.379017,-58.481850,47.181541,0.801002,-0.708944,0.845884
5943944556,68.824654,74.024811,30.650021,-0.539864,0.075407,1.185782
5943964601,94.080559,-138.120163,-9.521942,-0.262245,0.237862,0.266099
5943984646,-6.112760,-195.720428,-20.873323,0.376299,0.436709,0.216954
5944004692,-85.090836,-9.510966,-20.390507,0.228232,-0.152260,1.247898
5944024736,51.467388,-35.646568,-4.629706,-0.782879,0.214782,2.035853
5944044780,-30.046669,-230.475281,7.629773,-0.011402,0.312779,0.904716
5944064825,-70.707268,-154.493942,-9.050548,0.590388,-0.052241,0.829821
5944084870,-43.286266,-68.175125,-29.012840,-0.001684,-0.113623,1.122990
5944104915,-66.466599,-158.512405,-29.503916,-0.144547,0.056496,1.067190
5944124960,-62.041874,-180.199036,-25.129200,0.312685,0.133000,0.682686
5944145005,-52.320007,-157.689362,-14.513695,0.454095,-0.003657,0.460513
5944165051,-45.500233,-142.678131,-1.735727,0.418525,-0.350435,0.490156
5944185095,-23.814655,-157.717194,12.091798,0.393749,-0.533424,0.524443
5944205141,-11.660604,-180.642761,14.359103,0.601464,-0.369643,0.231809
5944225186,-26.673323,-149.033493,-2.041670,0.672378,-0.197941,0.169637
5944245230,-27.612984,-138.151382,-8.436504,0.764916,-0.129191,0.211262
5944265277,-21.342739,-132.777313,4.408116,0.957227,-0.213960,0.233487
5944285322,-11.619891,-104.506157,-1.437355,1.018005,-0.185337,0.195274
5944305367,-13.839506,-70.360733,-15.683597,0.828493,-0.099795,0.297521
5944325412,-21.177355,-83.576897,-9.664951,0.668752,-0.061916,0.425871
5944345457,-23.529133,-100.047211,3.540686,0.845255,-0.168955,0.362036
5944365502,-19.937561,-87.508804,4.324070,1.040181,-0.253888,0.279490
5944385547,-12.579700,-64.278748,6.736877,1.037789,-0.342876,0.260632
5944405592,-3.350134,-48.285339,10.993420,0.929773,-0.305202,0.316981
5944425636,-4.167016,-50.814621,13.310418,0.993532,-0.228856,0.328380
5944445681,-2.638807,-48.191162,2.097326,1.087746,-0.229658,0.249228
5944465726,3.626560,-26.165031,-4.279485,0.921497,-0.208998,0.340709
5944485771,0.123059,-37.500534,-0.486086,0.982902,-0.154762,0.390784
5944505816,-2.815839,-23.379452,-8.354221,1.033258,-0.125953,0.306607
5944525861,-2.155024,-12.876402,-9.557673,0.844606,-0.057140,0.379318
5944545906,-11.835471,-29.542419,-6.123263,0.901900,-0.053472,0.349934
5944565951,-18.622486,-27.552038,-4.488502,1.046869,-0.200004,0.393992
5944585996,-15.518547,-15.647661,-11.654281,0.950685,-0.371500,0.407360
5944606041,-12.268183,-19.637701,-4.712306,0.864945,-0.249862,0.484392
5944626087,-12.604342,-31.265961,-3.563609,0.987784,-0.215213,0.362276
5944646131,-7.880607,-21.039623,-3.838044,1.011907,-0.171720,0.337693
5944666178,-12.200491,-23.216103,-1.197408,1.045131,-0.102623,0.317427
5944686223,-18.824936,-10.889902,-1.752498,0.976829,-0.195225,0.342820
5944706268,-17.936859,-4.330157,0.710437,0.759429,-0.184417,0.453310
5944726313,-19.967117,-19.913202,10.080768,0.778487,-0.123086,0.439195
5944746358,-24.643429,-21.875591,14.849439,0.879140,-0.128103,0.407924
5944766403,-27.236038,-16.334549,10.186444,0.864088,-0.218801,0.378700
5944786448,-24.719101,-14.780666,5.564227,0.870546,-0.302700,0.350943
5944806494,-13.281898,-16.334639,3.009677,0.973507,-0.393696,0.298184
5944826537,-3.528015,-8.120040,0.946369,1.012998,-0.368769,0.372286
5944846582,1.242332,-11.307760,3.365899,1.022412,-0.266380,0.392814
5944866627,-3.466101,-13.515294,3.815475,1.035496,-0.155159,0.444615
5944886672,-7.514455,-12.892210,12.523164,0.981507,-0.050103,0.437982
5944906717,-17.794415,-14.563745,11.064667,0.967060,-0.129573,0.412038
5944926762,-21.368599,-12.400830,13.786903,1.033660,-0.257012,0.337827
5944946808,-13.028823,-1.423854,16.386604,0.962685,-0.301139,0.304078
5944966852,-9.418543,1.233474,16.836365,0.891866,-0.361785,0.318446
5944986898,-1.024193,-0.361872,17.832455,0.930627,-0.392980,0.370973
5945006943,8.416325,4.796182,12.810921,0.904343,-0.423337,0.417191
5945026988,15.167931,-2.558793,14.426898,0.902022,-0.270312,0.456517
5945047034,16.350887,-6.053944,19.281605,0.883777,-0.255960,0.411836
5945067080,21.784052,-5.102387,16.092693,0.867437,-0.331916,0.451402
5945087124,26.560486,-11.025052,21.417334,0.896627,-0.265388,0.370400
5945107169,27.445978,-10.371875,22.042246,0.900833,-0.242974,0.352310
5945127214,33.469913,-14.854418,20.865170,0.968706,-0.368306,0.344645
5945147259,43.536217,-8.022135,21.642397,0.965223,-0.402749,0.339987
5945167304,51.249825,-10.024126,29.736725,0.940381,-0.282206,0.379417
5945187349,52.498100,-5.936744,28.153921,0.929411,-0.245650,0.381675
5945207393,56.831726,-10.880766,28.536760,0.913432,-0.242794,0.402930
5945227438,59.794792,-11.081141,28.102840,0.890940,-0.312900,0.369385
5945247483,67.823448,-19.600800,28.224562,0.944217,-0.352525,0.320664
5945267528,80.699051,-13.499090,32.363461,0.983229,-0.352993,0.261410
5945287573,94.162674,-16.951393,37.771523,1.004399,-0.404403,0.281108
5945307618,113.821785,-11.760514,40.830811,1.005024,-0.444202,0.250395
5945327663,131.485214,-11.766109,45.395874,0.973279,-0.502631,0.311554
5945347708,151.752029,-19.533100,52.530926,1.034701,-0.528781,0.227001
5945367753,171.596909,-14.418880,54.499432,1.043773,-0.500945,0.137159
5945387798,188.460480,-13.498687,54.216908,1.018404,-0.399090,0.087879
5945407844,204.033539,-9.411439,62.908009,0.989911,-0.291594,0.043264
5945447935,219.809875,-18.849121,81.536980,0.936100,-0.161687,0.119642
5945467980,225.421982,-24.992056,88.798088,1.021807,-0.192637,0.114606
5945488025,229.924622,-21.453671,89.567764,1.024448,-0.227947,0.128664
5945508070,234.889526,-25.804583,91.727875,0.997281,-0.171093,0.155765
5945528115,236.354355,-29.780447,92.977432,0.983245,-0.096940,0.144034
5945548160,232.806381,-35.128620,92.209763,0.987108,-0.073723,0.122748
5945568205,227.475739,-39.258934,91.904099,1.036998,-0.036452,0.135642
5945608294,227.174866,-40.754402,95.465561,0.924417,-0.028567,0.260669
5945628339,221.104721,-52.906223,104.444618,0.994392,-0.046548,0.188949
5945648384,213.252533,-53.771362,109.236603,1.002520,-0.088220,0.367253
5945668429,219.086472,-63.168514,114.419296,1.040002,-0.091586,0.232444
5945688474,223.467133,-39.867126,117.609062,1.081344,0.039680,0.315697
5945708519,210.518829,-40.226593,121.563545,1.173431,0.070986,0.359813
5945728564,203.325394,-34.270466,118.398148,1.017986,0.041868,0.385685
5945748609,200.806854,-35.270706,120.338211,0.854183,0.064339,0.405243
5945768654,184.275421,-48.114388,125.695625,0.844224,0.038222,0.353763
5945788700,164.789200,-56.828907,129.791916,0.936251,-0.064455,0.389607
5945808746,164.618576,-51.826279,132.500610,1.100823,-0.156589,0.332482
5945828791,168.119385,-25.896416,130.978928,1.075329,-0.156445,0.324829
5945848836,166.962036,-13.096112,130.381470,0.983100,-0.112086,0.405183
5945868881,162.391708,-11.846947,127.512764,0.895852,-0.071077,0.423781
5945888926,154.481934,-12.400989,131.009781,0.910598,-0.130125,0.508138
5945908971,155.472092,-13.313513,131.924866,0.966966,-0.207666,0.492073
5945929016,158.443237,-3.823245,130.963699,0.890733,-0.183184,0.554863
5945949061,158.904663,-13.788081,131.129547,0.831478,-0.238869,0.623173
5945969105,161.385696,-27.242949,132.250748,0.863419,-0.242685,0.565443
5945989150,158.977539,-25.897411,128.123596,0.949566,-0.227806,0.570046
5946009195,155.059540,-24.204245,116.663651,1.078202,-0.205311,0.518541
5946029240,148.573929,-5.486722,97.619469,0.980195,-0.120614,0.505108
5946049285,142.851593,6.247861,84.693535,0.815537,-0.019849,0.570537
5946069330,126.904739,-3.038765,74.174194,0.790993,0.054998,0.570013
5946089375,111.605507,-0.210195,64.202202,0.809796,0.042704,0.535473
5946109420,96.383278,15.153763,58.453529,0.728664,0.037917,0.574980
5946129465,86.073784,13.476559,61.215797,0.732601,-0.013160,0.655003
5946149510,78.246559,12.173111,54.816727,0.808004,-0.048956,0.601678
5946169555,69.216438,27.813297,49.843105,0.859534,-0.083389,0.523767
5946189602,63.569168,49.818520,41.721638,0.786357,-0.051931,0.574322
5946209647,55.879932,55.613506,34.217766,0.641253,-0.008519,0.653751
5946229692,46.845688,52.430744,21.217047,0.519525,0.006056,0.677051
5946249737,33.679176,43.625092,3.888042,0.570428,0.000878,0.696767
5946269782,29.222967,35.035591,-6.217242,0.668538,-0.094446,0.603037
5946289827,35.778378,39.567680,-5.913728,0.753923,-0.176799,0.611898
5946329917,25.449778,63.939598,-16.645086,0.501575,-0.130859,0.805330
5946349961,30.241112,38.457314,-17.990932,0.507557,-0.032777,0.853455
5946370006,32.359520,31.251257,-15.265395,0.585375,-0.051763,0.747294
5946390051,26.563551,35.092567,-19.795567,0.585937,-0.119339,0.783090
5946410096,25.853649,40.942318,-27.330147,0.456977,-0.094193,0.891194
5946430141,21.707560,32.583931,-29.987331,0.327699,0.034598,1.047240
5946450186,7.724451,7.931488,-30.572935,0.319767,0.136828,1.160690
5946470231,-10.546160,-9.793563,-32.358757,0.421994,0.090807,1.223272
5946490276,-21.322624,-12.110863,-34.117573,0.467479,-0.012024,1.305027
5946510321,-25.279797,-2.094534,-27.925882,0.412901,-0.071922,1.430400
5946530366,-8.214443,5.951286,-2.619220,0.333927,-0.079944,1.606152
5946570456,3.929047,12.276930,24.753269,0.281082,-0.021754,1.914291
5946590502,-21.791431,-41.991337,10.770802,0.491382,0.079368,1.560556
5946610548,44.155128,-80.768242,-10.526582,0.333773,0.172316,0.591471
5946630592,-2.183334,-64.345024,-2.317124,0.414606,0.557128,0.006018
5946650638,-9.501915,-132.101913,-9.007709,0.639984,0.136766,-0.318266
5946670683,-83.813667,-106.201149,11.908888,1.132771,-0.650641,0.282713
5946690728,-30.809629,100.131294,4.214789,0.147091,-0.809628,1.261017
5946710773,60.810577,-42.732124,-7.383900,-0.320989,0.229686,1.602181
5946730818,12.179111,-219.668808,0.454574,0.411589,0.224612,0.546632
5946750862,-4.257426,-96.747726,-8.357606,1.118965,0.033642,0.465335
5946770906,-7.720428,6.202009,-18.735941,0.630487,-0.059112,0.857575
5946790951,-22.819845,-55.449608,-19.217058,0.349606,0.016385,1.070038
5946810996,-16.599125,-85.898392,-8.197055,0.591899,0.031836,0.647868
5946831042,-24.398216,-56.135811,-10.123300,0.689158,0.026967,0.567498
5946851086,-26.541962,-51.841366,-14.110529,0.605325,-0.093047,0.652639
5946871131,-23.329346,-60.599552,-12.793677,0.628230,-0.137993,0.586896
5946891177,-27.282202,-53.777912,-11.916571,0.702730,-0.107816,0.539939
5946911222,-30.872805,-44.191753,-15.059696,0.759696,-0.085883,0.551737
5946931267,-28.571232,-36.608330,-15.244498,0.794662,-0.116203,0.541409
5946951312,-25.866056,-23.339285,-13.990292,0.813712,-0.105270,0.504402
5946971357,-23.486813,-9.619696,-8.703933,0.792348,-0.069677,0.503315
5946991403,-27.722023,-0.942874,-6.996021,0.753813,-0.079155,0.512034
5947011449,-29.221840,0.184635,-4.090635,0.745777,-0.078901,0.517982
5947031493,-30.690952,4.780022,3.214612,0.741659,-0.116545,0.497960
5947051538,-26.041044,13.793530,10.080233,0.754182,-0.161680,0.485223
5947071583,-22.496637,17.315708,6.796715,0.770185,-0.158258,0.512261
5947091629,-30.057949,19.822735,6.501877,1.075939,-0.193090,0.652350
5947111674,-14.691690,35.134682,11.412897,1.157901,-0.323594,0.464107
5947131718,9.765010,75.711151,-0.408025,0.750115,-0.214699,0.494735
5947151763,17.191940,47.407944,0.917847,0.572707,-0.088141,0.670751
5947171808,13.678148,6.911359,-5.964811,0.806788,-0.163190,0.473602
5947191853,7.353162,28.804855,-10.325155,1.021331,-0.160129,0.321187
5947211897,0.444090,56.636581,-11.197453,0.969488,-0.135754,0.281822
5947231942,-3.381407,79.702461,-6.626571,0.706314,-0.173261,0.524027
5947251987,-6.884780,75.787643,-14.328578,0.564855,-0.088648,0.672701
5947272032,-14.364657,47.715744,-0.562230,0.641115,0.007558,0.682752
5947292077,-21.823528,55.519653,-2.447467,0.664653,-0.042005,0.597751
5947312122,-16.179695,71.702873,-5.530502,0.553964,-0.197443,0.658224
5947332168,-9.434574,52.566799,-3.964284,0.524631,-0.274351,0.765713
5947352213,0.646425,39.274918,2.324649,0.530946,-0.229062,0.788328
5947372259,6.096156,39.311626,9.901126,0.451587,-0.192998,0.995579
5947392304,10.397691,19.501890,12.972284,0.367493,-0.233300,1.259964
5947412349,26.029766,-10.072336,9.383594,0.330924,-0.291104,1.434706
5947432394,52.282875,-21.126547,2.900045,0.378308,-0.283425,1.585212
5947452439,58.718491,-12.932289,-0.059616,0.317682,-0.252733,1.669097
5947472484,62.148666,-36.899014,-14.164722,0.163976,-0.059048,1.659729
5947492529,59.534351,-103.677216,-15.826133,0.484027,0.290376,1.664827
5947512574,47.948959,-137.811310,30.751333,0.952379,0.166050,0.703292
5947532618,78.724548,-72.949921,49.438843,0.755647,-0.215093,-0.149270
5947552663,116.964455,-69.328140,13.267673,0.919836,-0.375934,-0.277848
5947572708,19.438484,-85.257950,31.499233,1.162637,0.205384,0.202392
5947592753,-193.153656,10.970164,2.504103,0.376800,0.564656,0.599290
5947612798,-66.452057,-16.529764,-25.851971,0.218167,-0.171233,1.939829
5947632843,89.907639,-99.039291,11.918608,0.283048,-0.219427,0.599797
5947652888,37.017776,-62.050217,20.829260,0.535424,-0.036227,0.449267
5947672933,-14.775532,-58.183159,2.184590,0.606221,0.084223,0.960824
5947692978,-6.637361,-69.027847,4.227478,0.577593,0.055245,0.778492
5947713023,-36.368343,-79.627937,4.229285,0.706204,0.100947,0.696204
5947733068,-38.929329,-76.481392,-0.964970,0.766309,-0.035380,0.702776
5947753114,-24.064583,-67.609871,-2.870009,0.738140,-0.098626,0.622973
5947773159,-21.402624,-65.940254,-3.410041,0.746901,-0.055418,0.527539
5947793204,-22.154402,-65.049515,-1.607201,0.775287,-0.029226,0.489564
5947813249,-23.300896,-65.716156,1.106714,0.805917,-0.003318,0.404538
5947833294,-26.424631,-68.069054,2.496564,0.864354,0.007637,0.363996
5947853339,-25.756645,-68.741173,-3.442575,0.909927,-0.049490,0.337305
5947873384,-20.484579,-60.691231,-8.412026,0.897320,-0.107083,0.289708
5947893429,-20.642820,-50.535896,-6.919610,0.865549,-0.131733,0.282031
5947913473,-20.054722,-47.584057,0.348563,0.867862,-0.118500,0.301331
5947933518,-15.304462,-42.417374,5.464844,0.926309,-0.138318,0.291543
5947953563,-6.367398,-29.799911,6.405246,0.968142,-0.193119,0.276095
5947973609,2.832141,-14.235571,2.990800,0.920242,-0.190850,0.301401
5947993654,7.411897,-6.174787,3.877497,0.895816,-0.121339,0.382133
5948013699,9.567907,-9.092361,10.423079,1.183119,-0.111428,0.506514
5948033744,8.162622,0.082855,10.341378,1.197168,-0.193152,0.367174
5948053788,2.106916,21.251888,1.180128,0.865953,-0.008159,0.476760
5948073833,-10.451101,-16.587549,3.803370,0.648551,0.019299,0.520012
5948093878,-17.434780,-52.244896,1.787976,0.846236,-0.066372,0.341804
5948113924,-15.958344,-37.198067,-1.033484,0.995848,-0.087652,0.318855
5948133968,-11.717230,-26.348621,-2.561826,1.002506,-0.086351,0.323445
5948154015,-9.334032,-14.174776,-3.475331,0.979598,-0.112863,0.328777
5948174060,-4.834460,-4.761784,-4.326268,0.984114,-0.157293,0.371239
5948194105,-3.627658,3.985244,-5.059911,0.950038,-0.147894,0.352431
5948214150,-9.401772,6.903840,0.573430,0.885219,-0.087961,0.424389
5948234195,-7.765028,2.160870,3.406990,0.880964,-0.118432,0.450284
5948254240,-2.885879,0.926294,5.511489,0.908238,-0.147658,0.399012
5948274285,-2.539160,-1.597248,5.930223,0.908988,-0.155486,0.414741
5948294329,0.352632,-2.678486,7.166092,0.908059,-0.169889,0.413033
5948314374,2.708652,-4.381908,9.755095,0.944812,-0.178303,0.397347
5948334419,4.067945,-0.543950,11.485635,0.941181,-0.160173,0.388157
5948354464,5.221284,-1.730668,11.455059,0.886551,-0.161441,0.364643
5948374509,6.493720,-3.508718,15.027584,0.870258,-0.175270,0.410069
5948394554,8.591276,-7.507727,16.729399,0.871843,-0.116535,0.404043
5948414599,5.409754,-8.705153,18.362385,0.925167,-0.119160,0.391161
5948434645,4.999722,-4.539555,18.498718,0.948013,-0.153889,0.388792
5948454690,7.777960,-0.460881,17.391764,0.938029,-0.153244,0.406832
5948474735,7.691423,1.422516,13.733865,0.898182,-0.125933,0.419699
5948494779,2.654833,-1.119239,14.018671,0.907829,-0.084488,0.409504
5948514825,0.521075,1.573879,15.411395,0.880479,-0.079458,0.405529
5948534871,-1.467453,0.541627,14.802917,0.838426,-0.091583,0.419252
5948554916,-1.844985,-7.689314,15.438294,0.849717,-0.138919,0.439573
5948574961,2.192137,-9.942114,16.529360,0.874217,-0.181122,0.428447
5948595006,6.533896,-12.239811,19.774111,0.938448,-0.202682,0.454313
5948615051,11.998024,-12.662744,19.382174,0.949527,-0.232523,0.447994
5948635096,18.344067,-1.946228,13.655375,0.827036,-0.218446,0.451444
5948655141,24.487427,-10.578220,13.883075,0.748930,-0.247058,0.493082
5948675186,34.255566,-23.095768,17.507269,0.816832,-0.282394,0.449986
5948695230,42.413937,-17.401651,18.924902,0.868182,-0.232221,0.434742
5948715275,40.554302,-16.561989,23.311268,0.816097,-0.142761,0.418783
5948735320,36.936840,-27.957272,29.147301,0.876082,-0.092195,0.412613
5948755365,31.555832,-32.706329,21.909958,0.999399,-0.085907,0.327880
5948775410,22.055759,-20.884794,9.165262,0.974246,-0.114254,0.314547
5948795455,14.882564,-21.703344,0.589505,0.947854,-0.096630,0.351810
5948815500,2.506752,-22.531076,-4.601922,0.975798,-0.068133,0.291416
5948835545,-9.029375,-17.414871,-7.763704,0.978053,-0.098630,0.277026
5948855590,-14.775679,-15.792946,-12.162647,0.987248,-0.162557,0.280716
5948875635,-8.615809,-11.627092,-15.725848,0.973124,-0.234473,0.216110
5948895680,0.145102,-4.862701,-16.309839,0.903179,-0.278326,0.259754
5948915725,13.119519,-12.212309,-7.732748,0.910483,-0.254425,0.276908
5948935771,19.476429,-13.095571,0.927060,0.955747,-0.145647,0.259498
5948955816,19.443596,-15.730000,7.534865,0.974452,-0.123520,0.294413
5948975861,21.972866,-16.741348,11.363668,1.034039,-0.157144,0.294124
5948995907,23.459026,-9.423416,10.804458,1.014138,-0.144497,0.274755
5949015952,23.679558,-7.463044,9.879098,0.943399,-0.101321,0.299374
5949035997,20.888994,-10.052854,9.034457,0.919388,-0.105473,0.293315
5949056041,19.421833,-9.976474,7.049641,0.933017,-0.148060,0.344751
5949076085,19.815607,-10.828995,5.051434,0.981310,-0.201804,0.337445
5949096130,20.661379,-5.260297,0.880094,0.937967,-0.212768,0.332666
5949116175,19.269022,-8.992154,-1.596885,0.870390,-0.187897,0.341436
5949136220,16.819918,-13.026157,-1.924735,0.869159,-0.155605,0.328961
5949156265,12.300097,-13.607827,-2.636124,0.911942,-0.159059,0.330758
5949176310,9.641344,-12.161449,-2.746617,0.945232,-0.160287,0.318265
5949196355,8.116880,-7.797839,-3.866563,0.933872,-0.126963,0.313992
5949216400,3.654303,-9.389757,-3.038539,0.919206,-0.119810,0.314646
5949236445,2.637945,-9.069433,-2.558716,0.906091,-0.141127,0.302435
5949256491,1.495945,-10.945601,-2.075851,0.929319,-0.146988,0.308935
5949276536,0.970986,-12.495399,-1.430424,1.006337,-0.160121,0.278924
5949296581,-1.655770,-4.864130,-6.079896,0.981658,-0.135584,0.267616
5949316627,-3.507982,-5.501412,-7.017379,0.911935,-0.125397,0.283592
5949336672,-7.825202,-9.633232,-8.724962,0.922022,-0.137891,0.266198
