Timestamp (us),Gyroscope X (deg/s),Gyroscope Y (deg/s),Gyroscope Z (deg/s),Accelerometer X (g),Accelerometer Y (g),Accelerometer Z (g)
5234849393,0.263134,0.273896,-0.809255,0.988590,-0.088465,-0.111110
5234869445,0.141924,0.106714,-0.710110,0.986016,-0.084540,-0.109446
5234889497,0.195415,0.069058,-0.717578,0.993588,-0.079846,-0.112719
5234909550,-0.178648,0.316751,-0.778932,0.990869,-0.081875,-0.114442
5234929601,0.058665,-0.007463,-0.671792,0.988838,-0.081546,-0.110188
5234949654,0.371308,-0.231773,-0.451339,0.993329,-0.081323,-0.114340
5234969706,0.715481,-0.548513,-0.473105,0.991788,-0.081167,-0.115897
5234989758,1.043445,-0.682970,-0.465178,0.992768,-0.079126,-0.113097
5235009810,0.857205,-0.075564,-0.262574,0.990006,-0.074737,-0.110713
5235029862,0.802095,0.423486,-0.521958,0.985174,-0.077994,-0.108983
5235049914,0.323778,0.304899,-0.771488,0.985479,-0.082400,-0.112202
5235069966,0.051885,-0.084529,-0.845840,0.988054,-0.085156,-0.114696
5235110070,0.487141,-0.310056,-0.943742,0.992252,-0.083172,-0.116416
5235130122,0.334279,-0.302021,-0.716348,0.989208,-0.077317,-0.113143
5235150174,0.044248,-0.301994,-0.413088,0.990399,-0.078594,-0.113665
5235170226,0.083503,-0.522133,-0.450238,0.988565,-0.079654,-0.111212
5235190278,-0.159923,-0.666570,-0.229865,0.986933,-0.076702,-0.114257
5235210332,-0.282039,-0.546576,-0.336341,0.986456,-0.075751,-0.111181
5235230384,-0.556679,-0.494365,-0.200004,0.990914,-0.078155,-0.108395
5235250436,-0.671689,-0.343093,-0.170169,0.995313,-0.078109,-0.112272
5235270489,-0.618305,-0.320498,-0.253634,0.986954,-0.083971,-0.114263
5235290541,-0.244733,-0.274526,-0.572239,0.992428,-0.086494,-0.113650
5235310593,0.417390,-0.239976,-0.595327,0.997825,-0.079218,-0.120330
5235330645,0.545592,-0.116231,-0.368430,0.988891,-0.076263,-0.121973
5235350697,0.719264,0.188278,-0.415014,0.990041,-0.071483,-0.118294
5235370749,0.885100,0.545782,-0.476935,0.990603,-0.075847,-0.118603
5235390801,0.723745,0.870876,-0.523473,0.989909,-0.080676,-0.106646
5235410853,0.201023,0.388950,-0.559524,0.986190,-0.077392,-0.111527
5235430905,-0.246407,0.014520,-0.482287,0.992269,-0.071534,-0.109462
5235450957,-1.160992,0.093924,-0.186661,0.992513,-0.070832,-0.104833
5235471009,-1.746530,0.036235,-0.299942,0.988089,-0.077171,-0.109063
5235491061,-1.997923,0.072597,-0.292400,0.987185,-0.080168,-0.108853
5235511112,-1.875096,0.055862,-0.663754,0.988313,-0.080338,-0.114568
5235531164,-1.219130,-0.115659,-0.852867,0.989788,-0.078930,-0.118028
5235551216,-1.302409,-0.327277,-0.617161,0.993892,-0.073151,-0.121156
5235571268,-1.585428,-0.273246,-0.185248,0.991425,-0.073145,-0.120355
5235591320,-1.357654,-0.195361,-0.109806,0.989597,-0.073588,-0.119272
5235611372,-0.879214,-0.054576,0.048699,0.988230,-0.079636,-0.116304
5235631424,-0.392673,0.070070,0.048100,0.987675,-0.081423,-0.114106
5235651477,0.033968,0.041915,-0.042900,0.991580,-0.079394,-0.112557
5235671529,0.248476,-0.042546,-0.414053,0.990138,-0.081511,-0.114269
5235691581,0.363781,-0.202032,-0.542386,0.992058,-0.078542,-0.116653
5235711633,0.301286,0.056442,-0.421992,0.992059,-0.077193,-0.117577
5235731685,0.193015,0.374869,-0.377577,0.987114,-0.075887,-0.114447
5235751737,0.383016,0.211836,0.054918,0.993719,-0.068986,-0.109390
5235771789,-0.168231,0.133571,1.449909,0.994573,-0.062800,-0.102548
5235791841,-1.052164,0.055194,1.973437,0.990260,-0.074149,-0.107719
5235811893,-1.135377,0.548339,0.812186,0.982128,-0.098068,-0.108136
5235831945,-0.019264,0.183932,-0.338950,0.989811,-0.096757,-0.113004
5235851997,0.114449,0.057868,1.192387,1.007970,-0.063792,-0.116893
5235872050,-1.401356,0.976588,2.773754,1.009636,-0.065202,-0.120500
5235892101,-1.867628,2.080704,1.383163,0.987366,-0.093827,-0.117418
5235912154,-0.069345,2.762672,-0.673714,0.991173,-0.092503,-0.114316
5235932206,0.641146,3.529454,-0.206710,1.008697,-0.060679,-0.102564
5235952259,-1.744596,5.115301,0.925505,1.012722,-0.046951,-0.096150
5235972311,-4.134511,7.037691,0.063295,0.993148,-0.055757,-0.111819
5235992364,-4.570405,8.925672,0.140311,0.989387,-0.065260,-0.134185
5236012416,-5.389643,10.517915,1.863113,1.015477,-0.067769,-0.135788
5236032468,-8.093165,12.284506,1.895867,1.005250,-0.091712,-0.105592
5236052520,-10.712076,13.108509,0.453943,1.005377,-0.088189,-0.113448
5236072572,-11.674381,13.406502,-1.843171,0.992518,-0.080458,-0.085363
5236092624,-10.035914,11.369072,-1.586619,1.017755,-0.070531,-0.087571
5236112676,-7.496024,11.279058,-0.442775,1.021419,-0.077732,-0.102549
5236132728,-5.063981,13.444811,-0.223721,1.001292,-0.071472,-0.093676
5236152780,-4.748010,13.602354,-2.043324,0.987240,-0.070621,-0.076426
5236172832,-3.682356,12.878265,-3.594888,0.988050,-0.087283,-0.066230
5236192884,-2.210082,13.581029,-3.234035,0.980649,-0.078468,-0.052207
5236212937,-1.020405,13.894345,-1.742477,0.956644,-0.079356,-0.047004
5236232995,0.260861,12.033222,-2.047250,0.971489,-0.108466,-0.045472
5236253039,1.591912,10.893383,-2.392420,1.017942,-0.121874,-0.062710
5236273092,2.800598,12.348538,-1.632383,1.027326,-0.077866,-0.068151
5236293144,1.520759,13.576257,-0.650901,1.012290,-0.046710,-0.053622
5236313195,0.688050,13.589643,-2.469605,1.002367,-0.052140,-0.037816
5236333248,0.439084,12.334152,-3.859720,0.979609,-0.079876,-0.029658
5236353300,2.352763,10.640573,-4.733713,0.975291,-0.108443,-0.025269
5236373352,5.027061,8.488353,-4.492286,0.957027,-0.103847,-0.037902
5236393404,10.454103,5.239702,-4.005517,0.953447,-0.094181,-0.054035
5236413456,15.621767,1.004804,-4.341366,0.962680,-0.083267,-0.048280
5236433508,17.335279,-2.180481,-4.399200,0.960580,-0.039664,-0.022897
5236453560,18.124714,-8.738615,-2.641298,1.006802,-0.006005,-0.039863
5236473612,13.432774,-5.796158,1.700528,1.016412,0.028453,-0.001386
5236493664,9.097028,-7.421412,3.678175,0.954607,0.005584,-0.021918
5236513716,8.743361,-9.589533,3.337137,0.912302,-0.005594,-0.015545
5236533768,10.906327,-14.579741,0.723678,0.924204,-0.016141,-0.049875
5236553821,7.410595,-15.471248,0.220183,0.955507,0.028089,-0.062252
5236573873,-0.960286,-14.338688,3.084058,1.032733,0.127501,-0.066763
5236593925,-15.349903,-13.261990,8.132972,1.055747,0.282990,-0.042316
5236613977,-29.389870,-14.315174,14.553315,1.004083,0.364729,-0.087707
5236654081,-53.324219,-14.205079,18.282583,1.015541,0.358378,-0.095187
5236694187,-108.431816,-0.354184,17.003624,1.156395,0.436298,-0.227963
5236714239,-144.507446,0.607834,25.130003,1.139864,0.557585,-0.283379
5236734291,-189.183060,5.342016,37.187458,1.102360,0.757043,-0.345846
5236754343,-211.492813,13.273323,77.813889,0.949325,0.509630,-0.367697
5236774395,-280.921906,34.276920,63.972122,1.063621,0.683798,-0.481418
5236794447,-313.483582,51.345161,65.539024,0.993636,0.512760,-0.774218
5236814499,-335.971191,54.084835,123.281525,1.054830,0.513649,-0.887219
5236834551,-359.003906,76.845703,111.251579,1.131096,0.283617,-1.185389
5236854604,-369.314026,91.487289,66.367622,0.779169,0.162451,-1.275457
5236874656,-368.888123,85.299332,31.108746,0.719051,0.019150,-1.305944
5236914760,-394.064575,79.685699,61.323891,1.019042,0.419711,-1.468955
5236934812,-431.388214,102.378143,107.096298,1.119749,0.464246,-1.579272
5236954864,-466.198212,136.925217,105.413017,1.042364,0.055096,-1.735133
5236994967,-450.449585,145.915100,7.986928,0.911678,-1.077915,-1.627972
5237015019,-414.085999,127.707512,13.183046,0.807423,-0.903930,-1.503577
5237035071,-386.438812,121.735260,18.582586,0.851870,-0.639471,-1.333188
5237055123,-375.921326,130.544754,8.226007,0.873330,-0.356189,-1.247611
5237075175,-375.120209,140.605362,-9.111701,0.850467,-0.205814,-1.185985
5237095227,-382.715393,142.716629,-22.705389,0.877664,-0.162393,-1.197201
5237115279,-388.272797,138.873611,-26.805571,0.892163,-0.201961,-1.100394
5237135331,-385.513855,130.638763,-32.894379,0.937755,-0.269172,-1.099474
5237155383,-384.668549,125.068871,-42.955498,0.921218,-0.269997,-1.046324
5237175436,-384.414520,119.777313,-45.627884,0.912587,-0.299974,-0.974330
5237195488,-380.211212,108.999664,-51.943378,1.019970,-0.248963,-1.013603
5237215540,-381.320923,105.329285,-51.361923,1.109905,-0.127975,-1.004187
5237235592,-381.887665,107.677689,-57.554249,1.123643,-0.116844,-0.958321
5237255644,-377.357544,102.909187,-57.577293,1.237634,-0.160860,-1.004446
5237275696,-372.734222,103.824036,-54.558067,1.223605,-0.211127,-0.965610
5237295748,-364.503204,100.823761,-70.466423,1.064973,-0.072603,-0.847462
5237315800,-370.860962,94.510933,-69.343491,1.042060,0.047679,-0.902274
5237335853,-382.671356,85.458946,-76.735542,1.088049,-0.018227,-1.218463
5237375957,-367.456543,75.779465,-84.043945,1.242888,-0.889828,-1.147839
5237396009,-352.084442,73.035812,-91.990204,1.216051,-1.063540,-0.868640
5237416061,-331.750916,66.596329,-77.309853,1.187765,-0.776606,-0.556883
5237436114,-309.165619,78.598038,-62.420990,1.156749,-0.599927,-0.439634
5237456166,-289.419678,81.385201,-50.303596,1.063144,-0.477279,-0.349106
5237476219,-276.712463,76.941696,-39.833771,1.021742,-0.360830,-0.389373
5237496270,-258.652039,65.269928,-39.815033,0.915952,-0.530111,-0.329453
5237516323,-237.820908,45.731209,-33.381096,0.965966,-0.442287,-0.211783
5237556427,-254.493515,34.820404,-26.001234,0.914725,-0.080216,-0.267141
5237576479,-268.677795,38.010136,-27.947472,0.929504,-0.338460,-0.233238
5237596531,-262.300232,39.595486,-33.533279,1.105572,-0.709642,-0.192612
5237616583,-247.426498,39.050392,-35.461662,1.081944,-0.734063,-0.162051
5237636635,-241.568512,34.953194,-35.146435,0.925362,-0.498916,-0.130710
5237656687,-248.536484,35.860901,-41.649872,0.851221,-0.278131,-0.112524
5237676739,-257.464142,39.460129,-49.086525,0.960969,-0.255033,-0.121647
5237696791,-257.086334,43.624004,-56.088806,1.166329,-0.403950,-0.134463
5237716844,-252.745331,49.112465,-49.849022,1.096270,-0.479172,-0.027300
5237736894,-251.041138,48.859257,-46.044098,0.938441,-0.452425,-0.083532
5237756946,-260.374023,49.430248,-40.957325,0.802680,-0.454941,-0.188346
5237776999,-253.088913,54.765842,-36.718887,0.819959,-0.675742,-0.179670
5237797051,-228.044144,59.291199,-31.309139,1.068506,-0.955213,-0.045435
5237817103,-198.450958,66.268135,-11.524570,0.949779,-0.914712,-0.060470
5237857207,-174.445145,75.379089,30.892948,1.026729,-0.370712,-0.177826
5237877259,-130.208649,72.461823,23.270662,0.875936,-0.807324,-0.036607
5237897311,-104.393814,66.008957,5.056465,0.932512,-0.653777,0.095254
5237917363,-72.432137,55.836037,-1.558838,0.898884,-0.825448,0.007936
5237937415,-30.918560,53.428337,-11.016038,0.779843,-0.849535,0.032000
5237957468,0.087126,46.968079,-14.202953,0.751073,-0.721000,0.085657
5237977520,32.142429,44.531925,-16.001995,0.792092,-0.704647,0.047315
5237997572,90.040466,48.822716,-13.217682,0.900793,-0.672047,0.118780
5238017624,116.709991,51.535378,-5.619514,1.024600,-0.479828,0.193140
5238037676,114.934700,64.661057,2.127046,0.906157,-0.263673,0.243965
5238057728,110.818893,66.484222,12.535693,0.987742,-0.006692,0.272561
5238077780,83.871490,74.126038,21.878809,1.169471,0.196432,0.133718
5238097832,60.539963,85.409195,21.082624,0.937812,0.209804,0.221715
5238117885,42.062813,89.788979,19.679472,0.906746,-0.034645,0.293578
5238137937,37.333405,91.762352,25.676863,0.966016,-0.291473,0.279611
5238157989,41.035728,94.733109,30.614388,0.946078,-0.342450,0.269426
5238178042,49.147907,91.656342,31.493732,0.922554,-0.253282,0.256594
5238198094,52.958897,90.018845,32.718254,0.905393,-0.218945,0.367409
5238218146,54.331207,91.255867,32.433086,0.946286,-0.268788,0.414809
5238238198,53.438046,93.359718,32.304886,0.887683,-0.204643,0.411106
5238258250,48.671528,93.130028,33.322929,0.813470,-0.098453,0.421075
5238278303,44.994560,89.766899,31.130327,0.738542,-0.141494,0.440764
5238298355,35.990810,84.727203,28.634632,0.801455,-0.163391,0.450188
5238318407,33.940552,79.464188,28.047169,0.822635,-0.207442,0.467116
5238338468,34.571098,73.712585,27.862133,0.854802,-0.264185,0.528985
5238358511,35.143475,67.072983,25.376179,0.854394,-0.260226,0.596554
5238378563,33.398113,62.755798,22.784506,0.819715,-0.201660,0.682425
5238398615,35.575092,53.712254,16.668369,0.797841,-0.147629,0.747718
5238418667,27.985476,42.323563,12.352370,0.733243,-0.008759,0.811725
5238438719,11.987000,29.360117,10.204744,0.632185,-0.037371,0.942850
5238458770,5.841794,9.530783,8.206169,0.627023,-0.221595,1.029014
5238478822,4.624413,-16.280024,4.847110,0.634378,-0.426867,1.089790
5238498874,6.463448,-57.032650,-0.667010,0.571890,-0.338779,1.083692
5238518926,-2.070713,-103.229088,-11.130535,0.493319,-0.115137,1.156435
5238538978,-1.728439,-151.657394,-23.552427,0.530778,-0.239756,0.987098
5238559030,21.155552,-166.091995,-37.994087,1.018605,-0.575550,0.190570
5238579082,45.899849,-88.072350,-28.888847,1.177260,-0.156221,-0.132254
5238619187,-21.296812,-106.995209,13.376786,-0.046103,0.421252,0.950455
5238639239,-38.489048,-168.783859,10.829401,0.125944,-0.070353,0.695163
5238659291,-38.040604,-205.909958,-11.567488,0.483511,-0.461920,0.545727
5238679343,-20.701679,-223.596222,-18.280624,0.635388,-0.377008,0.519556
5238699395,-16.755861,-223.120911,-8.453736,0.616347,-0.068682,0.379162
5238719447,-27.392050,-214.178680,-1.212605,0.373328,0.022589,0.375564
5238739499,-42.219234,-226.314209,-16.467512,0.328043,0.077499,0.250732
5238759551,-44.876324,-227.211060,-17.479069,0.515204,-0.309686,-0.177615
5238799655,-34.313114,-210.721024,1.673065,1.251523,0.215227,0.139353
5238819708,-28.631340,-199.454758,43.710629,1.237578,-0.130176,0.124621
5238839760,-19.144857,-186.503143,8.814630,1.396438,-0.458427,0.171171
5238859812,-13.406988,-159.823410,-9.893233,1.364065,-0.250773,0.115644
5238879864,-4.002387,-135.124725,-17.954697,1.169564,-0.350273,0.157587
5238899917,1.181934,-119.218674,-19.489220,1.306442,-0.393655,0.203683
5238919969,4.645005,-98.916428,-14.376383,1.562626,-0.011786,0.151366
5238940021,-4.342686,-72.472702,-13.221408,1.419851,0.244774,0.133843
5238960074,-24.113838,-47.339108,-1.637075,1.078125,-0.034676,0.124384
5238980126,-33.201744,-34.030167,1.844462,1.103975,-0.344712,0.130701
5239000178,-30.557058,-25.008272,0.774131,1.293460,-0.194307,0.110491
5239020230,-32.213062,-12.647432,-0.874622,1.322505,0.022851,0.023842
5239040282,-40.226772,-0.327271,1.207839,1.067543,-0.011318,0.005162
5239060335,-50.174652,2.245686,1.786036,0.951377,-0.153613,-0.029005
5239080386,-48.785328,-1.031811,0.690315,1.059202,-0.173400,0.000435
5239100438,-44.761093,-1.045127,7.608541,1.161070,-0.395945,0.058718
5239120491,-35.412594,5.258109,18.648825,1.010404,-0.526143,0.056340
5239140543,-24.204832,8.884199,28.204628,0.900972,-0.283334,0.018672
5239160595,-20.514416,7.265787,22.987013,1.041068,0.012507,0.061865
5239180645,-28.826344,5.101576,6.331252,1.202592,0.011438,0.019216
5239200697,-37.430618,3.366231,-1.056818,0.905951,-0.233181,0.030669
5239220749,-28.675888,-4.580378,-3.791241,0.881782,-0.528166,0.055360
5239240802,-16.332348,-7.376654,-0.155607,1.024974,-0.529899,0.045489
5239260854,-5.874569,-12.852190,7.916031,0.949376,-0.368458,0.030906
5239280906,0.578598,-23.105238,7.782365,0.851756,-0.260209,0.035959
5239300958,2.758572,-33.775902,3.665102,0.853302,-0.271062,0.026462
5239321010,4.961776,-42.846466,-0.753262,0.830389,-0.246640,0.035106
5239341062,5.435718,-52.730881,-6.024638,0.793016,-0.168981,0.026489
5239361114,5.247872,-63.389160,-12.930170,0.818108,-0.141450,-0.022002
5239381166,6.802101,-69.095901,-20.164112,0.945022,-0.118262,-0.097714
5239401219,5.563009,-67.788078,-23.351349,1.090038,-0.157628,-0.166574
5239421271,4.287178,-54.235641,-18.259068,1.242080,-0.377645,-0.161950
5239441323,12.887466,-41.077854,-13.752465,1.373290,-0.506042,-0.272867
5239461375,10.216820,-23.225746,-10.379777,1.450689,-0.223316,-0.413917
5239481427,6.398857,-9.986711,-1.806785,1.305849,-0.081529,-0.426218
5239501479,7.070395,1.478410,-1.050736,1.241609,-0.150641,-0.350349
5239521531,16.400591,17.312662,-1.426882,1.224138,-0.277045,-0.215137
5239541583,25.687912,37.391510,-5.220591,1.171989,-0.226333,-0.084675
5239561635,34.126110,55.570667,-9.613771,1.197417,-0.151336,0.112312
5239581687,26.247303,79.583153,-8.700912,1.291240,-0.028536,0.095196
5239601740,34.144569,109.231735,0.364697,1.221611,-0.002541,-0.123358
5239621793,37.305954,119.649803,5.830014,1.034474,-0.142771,-0.244120
5239641845,30.193878,125.162750,4.994980,1.032745,-0.214803,-0.255477
5239661897,15.528383,140.181824,7.358470,1.259312,-0.163012,-0.207210
5239681949,5.149180,153.179703,7.415842,1.354887,-0.161791,-0.244718
5239702001,1.381179,155.540039,8.795978,1.047418,-0.264495,-0.276428
5239722053,12.753673,135.396973,12.287095,0.817071,-0.293149,-0.313538
5239742106,33.964039,136.394760,14.875813,0.644084,-0.142873,-0.069661
5239762158,39.158379,136.120636,20.165049,0.529467,-0.060514,0.110796
5239782210,25.424305,129.030136,19.989660,0.699530,0.028315,0.152872
5239802262,23.860456,117.290558,5.607903,0.997897,-0.008900,0.096525
5239822314,21.525480,108.194633,-4.114054,1.108330,-0.148535,0.067478
5239842366,20.889185,102.862785,-3.845353,1.085144,-0.169544,0.114271
5239862418,16.156719,104.855026,0.340603,0.999744,-0.122727,0.180378
5239882470,16.775932,108.526474,4.026266,0.846202,-0.202933,0.192760
5239902521,23.406755,108.971848,8.759257,0.784713,-0.255068,0.241732
5239922573,28.875965,107.973946,12.163733,0.783702,-0.181587,0.253144
5239942625,23.187714,109.224838,10.569834,0.791943,-0.084671,0.307430
5239962677,12.347645,117.791023,9.005584,0.786242,-0.066241,0.275366
5239982729,11.401703,124.384987,5.875820,0.773761,-0.142368,0.265253
5240002781,12.621768,142.245392,-3.030794,0.824694,-0.308239,0.259718
5240022833,26.588451,154.490036,-11.573890,1.041445,-0.464817,0.204719
5240042886,29.371624,176.791199,11.358005,1.074624,-0.368680,0.110957
5240062938,36.522808,185.762009,25.118290,0.783539,-0.109129,0.166964
5240082990,20.912712,178.637924,26.368519,0.734616,-0.073457,0.267904
5240103042,24.327076,144.731628,10.628979,0.570841,-0.271451,0.809343
5240123094,19.957653,71.899773,-10.680659,1.150766,-0.462098,1.164839
5240143146,-1.842570,-1.684895,-1.051873,0.928644,0.195727,0.517460
5240163198,-13.439657,-29.108910,27.240408,0.755556,0.187220,0.437898
5240183250,-0.325813,-38.828209,23.002356,0.659748,-0.552418,0.588377
5240203302,23.224545,-46.748554,3.172110,0.921207,-0.927261,0.511773
5240223354,49.462875,-46.383659,-9.434561,0.993351,-0.592807,0.245939
5240243406,73.392738,-38.557209,-9.068225,0.864612,-0.288033,0.204963
5240263458,78.537277,-30.669939,-18.047951,0.917104,-0.051784,0.339019
5240283511,67.163712,-25.224920,-19.214733,1.086741,0.152583,0.442828
5240303563,40.353340,-11.080809,-16.601450,1.033492,0.312030,0.488956
5240323615,23.777431,-0.513020,-23.437963,0.896111,0.144820,0.571622
5240343668,16.058422,5.662416,-29.315075,0.827085,0.011738,0.609390
5240363720,8.373701,10.235289,-36.535732,0.775725,0.012479,0.599202
5240383772,-3.990839,13.345840,-44.462132,0.768000,0.103743,0.565191
5240403824,-24.310015,14.785993,-54.994728,0.803651,0.265953,0.529939
5240423877,-56.502804,17.984074,-63.391964,0.906074,0.464637,0.532001
5240443929,-97.470352,23.670570,-71.385437,1.017459,0.613215,0.523164
5240463981,-145.374634,30.851238,-78.434250,1.099476,0.627452,0.521399
5240484033,-199.954376,30.276245,-85.294853,1.141307,0.550569,0.468873
5240504085,-243.684769,33.750866,-92.059532,1.054552,0.323340,0.514331
5240524137,-275.790405,25.370939,-97.051834,0.857411,-0.110637,0.458336
5240564241,-275.912018,-19.998928,-100.775879,0.677982,-0.827603,0.197161
5240584293,-252.125824,-20.584488,-111.089584,0.961536,-0.834139,0.070737
5240624415,-231.153046,22.488907,-106.713135,0.960404,-0.505242,0.224061
5240644448,-214.014740,28.131969,-119.213539,1.040334,-0.635012,0.401446
5240664500,-207.645157,25.253628,-136.720810,1.048792,-0.517022,0.314800
5240684552,-204.404465,28.848980,-142.949097,1.029373,-0.459428,0.208570
5240704605,-196.209167,31.892586,-135.944336,0.996121,-0.531345,0.178265
5240724657,-188.168076,36.795208,-116.963593,0.897068,-0.614834,0.181347
5240744709,-171.111618,39.184647,-100.144936,0.892837,-0.651420,0.190465
5240764761,-151.494385,41.238274,-89.836342,0.862068,-0.704465,0.100431
5240784813,-116.679642,40.928368,-88.407463,0.867249,-0.736160,0.087838
5240804865,-86.219643,42.834030,-85.074791,0.878052,-0.785785,0.136022
5240824917,-44.507107,44.184731,-81.494049,0.812592,-0.870284,0.209788
5240844969,6.227853,43.713604,-81.199455,0.780937,-0.757840,0.250524
5240865022,40.961533,48.206215,-69.396339,0.818102,-0.472379,0.346366
5240885074,40.947098,63.803398,-49.638683,0.792920,-0.235163,0.464591
5240905126,35.142769,73.328094,-36.936825,0.707398,-0.167481,0.541271
5240925178,18.438473,80.648682,-28.952826,0.983029,-0.058652,0.433631
5240945248,-4.202329,92.863472,-30.798357,1.035808,-0.168974,0.443098
5240965282,-11.317127,94.941589,-35.752083,0.900047,-0.231583,0.508116
5240985334,-21.749504,93.226807,-30.831360,0.806686,-0.188012,0.487773
5241005386,-38.497704,90.663803,-25.064236,0.757624,-0.121634,0.441578
5241025438,-48.650555,88.040756,-11.621729,0.795834,-0.281945,0.426436
5241045491,-38.859505,79.849678,3.485193,0.838033,-0.340882,0.473041
5241065544,-33.565437,73.403152,8.621348,0.896900,-0.261855,0.469091
5241085596,-39.604015,72.691353,7.951389,0.873408,-0.237860,0.498911
5241105648,-47.522499,72.765663,2.694109,0.747152,-0.396498,0.499034
5241125700,-37.554390,62.678837,-5.975267,0.709995,-0.552976,0.586104
5241145752,-22.334112,47.286987,-10.232407,0.691787,-0.592964,0.632879
5241165804,-13.618504,31.818121,-12.743843,0.731640,-0.498191,0.723222
5241185857,-18.068750,18.563030,-11.734082,0.745534,-0.310470,0.747505
5241205908,-31.303116,6.379604,-9.853358,0.703053,-0.370134,0.839142
5241225961,-29.585691,-15.313670,-11.007000,0.602619,-0.565640,0.900495
5241246013,-15.355934,-52.615902,-16.734400,0.545651,-0.563169,1.006397
5241266065,-11.958754,-100.824631,-27.604431,0.553826,-0.290033,0.968394
5241306169,-26.297119,-163.841156,-42.358284,0.779001,-0.243716,0.510579
5241326222,-30.641682,-130.941666,-29.987589,0.898378,0.014655,-0.014242
5241346273,-35.849670,-91.978149,-1.448831,0.515211,-0.402520,0.411664
5241366324,-1.502748,-112.803459,-35.843037,0.364853,-0.757433,0.624467
5241386377,15.317476,-162.559052,-74.625740,0.351831,-0.125814,0.555354
5241406428,6.056902,-200.670059,-63.956421,0.625905,0.006716,0.312920
5241426480,-14.407457,-209.965057,-44.484783,0.661024,-0.022385,0.292784
5241446533,-29.042706,-210.921783,-19.852327,0.446874,-0.019545,0.276419
5241466585,-40.238026,-212.604294,0.514470,0.333746,-0.045199,0.381067
5241486637,-55.823620,-224.632187,-4.167896,0.389102,-0.087058,0.010135
5241506689,-34.225452,-218.081177,-18.158472,0.454701,-0.641466,-0.172750
5241526741,-9.841192,-217.139450,-42.043972,0.950373,-0.503739,0.145994
5241546793,5.580667,-210.705704,-13.097185,1.339241,-0.273522,0.085103
5241566845,22.045067,-176.219269,-8.969991,1.436071,-0.423448,0.126696
5241586897,22.253153,-146.804001,-16.794382,1.656532,-0.032176,0.300319
5241606949,21.237539,-127.100754,-15.323390,1.453884,-0.036159,0.051541
5241627001,10.886406,-95.761742,-44.098949,1.503882,-0.293226,-0.028925
5241647054,-4.496414,-73.099319,-23.284050,1.293536,-0.293882,0.193803
5241667106,-8.526267,-62.936432,5.618801,1.319454,-0.381053,0.155007
5241687157,-10.222850,-41.003098,27.841110,1.288033,-0.213756,0.066235
5241707210,-16.288820,-27.168968,39.194321,0.896512,-0.099700,0.205555
5241727262,-1.845770,-33.456615,26.432804,0.959473,-0.371070,0.222593
5241747314,14.817760,-33.027462,-4.473921,1.213040,-0.408887,0.079776
5241767366,23.472631,-31.928827,-18.524544,0.967260,-0.315137,0.110394
5241787420,34.861900,-42.105595,-32.067375,0.855757,-0.425090,0.120056
5241807472,41.727203,-47.896973,-35.376987,1.054661,-0.283372,0.036939
5241827524,40.698814,-48.824780,-21.405413,0.968796,-0.075023,0.070545
5241847576,34.371758,-54.043423,-16.572577,0.834662,-0.030043,0.053351
5241867628,20.816771,-57.584698,-16.320679,0.938889,-0.025843,0.000328
5241887680,9.517338,-60.326679,-9.675689,1.014767,-0.122486,-0.003014
5241907732,8.952299,-63.321461,-12.060122,1.007923,-0.165223,-0.042739
5241927784,8.768114,-65.823051,-18.470814,1.126493,-0.084507,-0.045741
5241947836,4.570470,-62.703079,-26.149998,1.191888,-0.013657,-0.101809
5241967888,-4.392579,-55.163452,-21.534521,1.093108,-0.049677,-0.153351
5241987940,-13.188500,-49.492794,-16.116867,1.125331,-0.129111,-0.198464
5242007993,-20.369509,-43.083603,-9.633693,1.200478,-0.180823,-0.223871
5242028045,-24.218714,-34.135277,-7.230333,1.194269,-0.132277,-0.246471
5242048097,-27.600454,-23.646759,-9.046346,1.145373,-0.098184,-0.320374
5242068159,-31.399267,-9.509782,-3.750565,1.212729,-0.077237,-0.359219
5242088200,-37.276234,4.659017,1.523098,1.358397,-0.140629,-0.309648
5242108252,-27.789709,30.055828,1.705106,1.502201,-0.348185,-0.289958
5242128304,-13.374039,75.390259,-8.907539,1.514245,-0.432022,-0.296627
5242148356,16.728603,117.067535,-3.051579,1.645380,-0.397441,-0.134050
5242168408,32.305847,153.755356,4.350030,1.469730,-0.439321,-0.164076
5242188460,38.185501,182.976349,5.528125,1.293477,-0.244432,-0.302817
5242208512,47.640591,208.138977,9.515587,1.367902,-0.007373,-0.147076
5242228564,52.708740,246.386200,18.666241,1.449258,0.065879,-0.298670
5242248617,40.100719,284.440674,16.841839,1.073161,-0.127466,-0.164135
5242268669,18.849356,255.623688,10.218467,0.678292,-0.152005,-0.301796
5242288721,31.092148,208.557083,14.696367,0.714462,-0.023610,-0.299935
5242308773,41.735912,203.610718,23.417910,0.576878,0.070864,-0.017899
5242328825,32.375549,194.445618,19.602655,0.168609,-0.070701,0.089088
5242348877,33.294563,168.130219,12.288372,-0.015533,-0.182246,0.298290
5242368929,35.583992,133.387100,9.406021,0.207539,-0.282120,0.396365
5242388981,48.714016,102.452713,4.558960,0.564822,-0.279494,0.596087
5242409033,49.614159,76.277176,1.359574,0.945200,-0.174153,0.661457
5242429085,36.391708,62.561333,-1.385169,1.148299,0.008881,0.697496
5242449137,22.890785,56.660847,-11.675072,0.917713,-0.040389,0.571556
5242469189,24.639645,42.456371,-15.924006,0.669320,-0.359153,0.492051
5242489242,29.337675,29.990456,-10.039320,0.611957,-0.308439,0.470154
5242509294,26.672686,16.548820,1.611315,0.550097,0.016146,0.425515
5242529347,14.905115,5.681091,10.724896,0.739268,-0.103176,0.157947
5242549399,11.446899,-2.725606,4.297804,1.218397,-0.551881,0.092648
5242569451,2.603832,6.645101,9.020617,1.600761,-0.241247,0.058955
5242609556,-28.076963,25.660738,33.203339,1.063293,0.223459,0.363953
5242629608,-24.827347,32.417950,14.383104,0.862565,-0.330485,0.497543
5242649660,-1.564141,49.478455,1.469838,0.757187,-0.771935,0.483274
5242669712,24.403975,75.932602,13.715711,0.695392,-0.523980,0.621200
5242689768,32.105434,87.852654,17.908577,0.457987,-0.033730,0.689186
5242709816,16.153614,78.412064,2.591724,0.379990,0.297870,0.609998
5242729868,-6.593790,66.369751,-11.349569,0.800938,0.385910,0.621688
5242749920,-26.245983,51.912205,1.273040,0.790679,0.116967,0.686529
5242769972,-20.611275,37.320908,22.997166,0.660479,-0.119208,0.729419
5242790024,-4.067607,36.077759,30.180508,0.628272,-0.454463,0.683539
5242810077,6.680678,36.286423,8.909472,0.604178,-0.341336,0.553912
5242830127,8.217994,30.836075,-18.924953,0.785937,-0.016150,0.628871
5242850179,4.688367,21.012493,-45.188850,0.944679,0.067884,0.520780
5242870231,-0.643448,18.489994,-50.786716,0.884907,-0.176788,0.466385
5242890283,3.033342,20.597263,-43.117783,0.932766,-0.424445,0.683715
5242910335,0.055691,14.908141,-28.537964,1.369373,-0.334198,0.573523
5242930388,-11.973659,-10.311019,6.696777,1.018938,-0.007825,0.347775
5242950440,-5.955605,-31.640480,34.529888,0.599839,-0.105368,0.383105
5242990544,14.172093,-56.351440,1.836578,0.874826,-0.383671,0.314295
5243010596,22.824280,-41.129566,-29.754944,1.447125,-0.124058,0.330798
5243030648,12.409868,-28.041714,-25.051970,1.122748,0.064268,0.347586
5243050700,9.517453,-24.247501,-29.512878,0.978809,0.036256,0.297539
5243070752,6.165157,-17.048151,-30.468725,0.794057,-0.063945,0.371733
5243090804,-2.964836,-15.564941,-40.959915,0.969757,0.079630,0.327056
5243110856,-26.376215,-6.125150,-42.644035,1.042528,0.094161,0.347307
5243130908,-41.522804,-11.152637,-33.291714,1.088660,-0.234806,0.277916
5243150961,-39.005692,-13.834415,-18.231546,1.208415,-0.083333,0.286101
5243171013,-31.050779,-18.468588,11.362309,0.944489,0.099112,0.397541
5243211117,-51.239952,-23.968372,-6.657168,0.956916,0.044614,0.217854
5243231169,-40.042717,-21.623432,-23.130663,0.940002,-0.194199,0.236585
5243251223,-19.190792,-18.942217,-32.446587,0.928769,-0.336359,0.202070
5243271274,-3.787720,-19.306147,-42.265469,0.915090,-0.286966,0.240209
5243291326,-6.558872,-15.863323,-28.043087,1.138312,0.039152,0.348805
5243311379,-15.516597,-8.017434,-34.994148,0.904991,0.105760,0.398366
5243331431,-21.637953,-5.747098,-47.770374,1.027804,0.071814,0.381816
5243351483,-34.468826,3.213355,-42.574856,1.114124,0.051001,0.316869
5243371536,-57.764832,13.321644,-37.129520,1.056081,0.163087,0.349241
5243391588,-92.221313,18.919249,-43.108963,1.045517,0.282431,0.303252
5243411640,-127.041504,21.110031,-52.009598,0.973751,0.282912,0.290650
5243431692,-153.113113,19.620913,-63.613876,0.930468,0.124837,0.272814
5243451744,-177.498886,22.126293,-69.578613,0.984143,-0.088758,0.258671
5243471796,-191.304428,23.958441,-74.097145,1.109538,-0.143556,0.232111
5243491848,-207.398819,26.035784,-71.112564,1.057350,-0.054399,0.210169
5243511900,-225.786789,24.973814,-69.973206,1.010335,0.016306,0.154851
5243552003,-243.697433,18.537212,-81.244980,0.941373,-0.323284,0.129300
5243572055,-237.532288,8.497078,-88.207916,0.963426,-0.587112,0.076070
5243592107,-225.251266,-1.628479,-93.399231,1.006852,-0.681447,0.086650
5243612159,-237.432663,1.683951,-90.033737,1.066923,-0.392853,-0.009603
5243632211,-251.375809,23.022892,-81.871643,0.967125,-0.457943,-0.137341
5243652263,-248.110428,38.573101,-76.492256,1.164513,-0.535406,-0.101327
5243672315,-244.010696,55.410458,-66.532326,1.233757,-0.634763,-0.013437
5243692367,-229.797821,60.938858,-68.958885,1.012563,-0.792364,0.023173
5243712420,-212.916260,64.190758,-83.550331,1.035005,-0.888716,-0.008998
5243732472,-193.443176,72.050613,-87.684456,1.019195,-0.828881,0.060996
5243752524,-177.695786,79.451721,-77.718826,0.916432,-0.697418,0.076469
5243772576,-159.049896,81.206131,-56.131371,0.792456,-0.684330,0.115064
5243792628,-121.998650,72.567154,-32.021072,0.878885,-0.751262,0.116542
5243812680,-79.662010,74.056725,-22.749226,0.837291,-0.961385,0.163213
5243832732,-32.839989,78.431549,-22.826168,0.706932,-0.981767,0.187608
5243852784,3.014405,80.573029,-18.995993,0.666524,-0.729607,0.189857
5243872836,23.622444,80.073082,-10.141684,0.829019,-0.366929,0.297599
5243892889,17.833626,80.231712,2.880445,1.093108,-0.195766,0.230509
5243912941,3.558677,86.924500,2.741118,0.828273,-0.151876,0.348545
5243932993,8.994740,86.446838,3.218335,0.850559,-0.431288,0.387745
5243953045,34.796257,85.990837,-0.715028,0.858234,-0.651161,0.354536
5243973097,61.932465,80.572968,-1.941231,0.781052,-0.517208,0.375069
5243993150,69.469200,70.042900,-2.582112,0.729754,-0.260744,0.413271
5244013202,66.854614,59.672539,-4.682728,0.748304,-0.106615,0.406620
5244033255,60.394638,53.685966,-5.880050,0.854604,-0.109748,0.470211
5244053307,55.699310,47.732559,-3.667572,0.943132,-0.096245,0.524395
5244073359,44.495255,42.266972,0.773717,0.941182,0.014845,0.599439
5244093411,32.227940,33.928219,0.973483,0.931861,-0.041154,0.771156
5244113463,23.289700,19.039749,-1.950614,0.777625,-0.055251,0.915369
5244133515,12.724221,-8.835657,-3.995706,0.680737,-0.048614,1.032846
5244153567,1.098427,-50.745270,-10.471231,0.541538,-0.067810,0.963099
5244173619,-7.311372,-105.814445,-13.567794,0.583170,-0.313669,0.982054
5244193671,0.497241,-158.563614,-29.077204,0.554183,-0.412853,0.829038
5244213723,13.591274,-169.614182,-28.937605,0.735101,-0.421905,0.234859
5244233775,32.455059,-135.667252,-27.363499,0.780984,-0.403225,0.065469
5244253827,5.599161,-124.425644,-25.088833,0.666553,0.728894,0.482893
5244273885,-42.967876,-151.034012,7.124327,0.557350,0.710315,0.598847
5244293930,-54.999043,-171.999329,14.029423,0.564909,-0.052808,0.576923
5244313982,-57.251457,-159.671936,-10.234615,0.351812,-0.677067,0.227461
5244334035,-47.527512,-156.794830,-8.315299,0.114507,-0.661227,0.157704
5244354087,-39.145279,-183.028015,24.346523,0.217847,0.324587,0.558734
5244374139,-19.429922,-233.779861,51.730541,0.829688,-0.413466,0.206713
5244394191,-13.161747,-194.498734,-2.376771,1.749641,-0.838035,0.013659
5244414243,-2.206156,-150.068970,-3.632654,1.255471,-0.446709,0.371709
5244434295,15.631754,-153.385132,4.535064,0.632968,-0.471716,0.357679
5244454347,36.949253,-154.138580,1.415245,1.081033,-0.476400,0.144423
5244474399,40.754063,-117.156380,15.898709,1.549473,-0.190166,0.151338
5244494451,43.283543,-99.585999,40.112682,0.939090,-0.318103,0.391698
5244554608,62.846291,-48.337524,-3.323875,1.172410,-0.168975,0.281384
5244574660,65.439873,-37.562206,-17.549723,1.203783,-0.269102,0.282674
5244594712,65.467834,-17.635912,-28.668514,1.465862,-0.090059,0.258921
5244614764,58.397224,3.330300,-25.312597,1.382474,0.217178,0.256319
5244634816,42.889023,18.376686,-35.727024,1.279832,0.326643,0.168802
5244654868,13.385410,30.528765,-47.566582,1.182182,0.267369,0.200514
5244674920,-9.370614,33.270981,-45.400482,1.058753,0.081336,0.260776
5244694972,-17.816870,31.798695,-31.826122,0.975494,-0.003174,0.291792
5244715026,-24.193560,28.485687,-11.364446,0.838798,0.037760,0.277989
5244735078,-30.541716,16.843365,5.290971,0.684133,-0.019875,0.299644
5244755130,-28.346573,-2.086904,8.371857,0.667971,-0.233392,0.301728
5244795234,-13.701519,-26.750647,-2.848509,0.878032,-0.109584,0.299240
5244815286,-13.895482,-35.504574,-5.145016,0.811929,0.017575,0.268307
5244835338,-15.909325,-46.555290,-14.587508,0.880957,-0.182093,0.240843
5244855391,-11.528164,-51.936600,-11.728390,1.037723,-0.442450,0.206433
5244875443,-1.968611,-49.046219,0.831793,1.071087,-0.388732,0.164513
5244895495,8.266359,-50.558922,7.927327,1.059846,-0.145958,0.141175
5244915547,8.734232,-51.610527,5.626783,1.104604,-0.008967,0.120094
5244935599,0.151494,-48.795135,4.718191,1.139965,-0.022473,0.097689
5244955651,-8.317492,-42.570095,6.238234,1.158121,-0.054443,0.095643
5244975703,-11.788068,-32.962093,8.123818,1.139590,-0.063319,0.011001
5244995754,-19.044941,-18.620556,10.934207,1.249977,-0.014739,0.004768
5245015806,-31.154335,-4.005186,17.633358,1.373466,-0.044388,0.073060
5245035858,-29.788853,15.769094,25.454435,1.416580,-0.305444,0.064572
5245055910,-15.577231,40.402554,24.894684,1.315176,-0.449494,0.032438
5245075962,-13.510075,64.340034,24.076313,1.236257,-0.370203,0.081129
5245096015,-4.084075,92.176361,22.332460,1.281008,-0.328992,0.077970
5245116067,14.485662,122.669479,14.702557,1.325626,-0.376067,0.063836
5245136119,25.736702,155.872223,12.121046,1.245620,-0.424456,0.066100
5245156171,28.155178,184.892868,12.815989,1.161921,-0.332414,0.021817
5245176223,31.211632,204.462112,11.701591,1.082528,-0.240609,0.005014
5245196275,26.346115,221.549408,11.659573,1.019497,-0.130346,0.127166
5245216327,5.024049,213.361282,10.232514,0.941516,-0.068133,0.086450
5245236379,2.279457,186.615005,10.575745,0.743950,0.083595,0.059299
5245256431,18.603836,168.758560,8.001660,0.558560,-0.025395,0.231109
5245276483,22.017431,151.999161,-8.183491,0.407793,-0.322324,0.406975
5245296536,30.045113,129.563171,-10.852573,0.121055,-0.373189,0.560853
5245316588,29.687901,97.578194,3.725996,-0.050310,-0.292209,0.640315
5245336640,28.825058,57.669014,8.297509,0.312468,-0.253923,0.740144
5245356692,30.165995,31.644751,-3.822985,1.014324,-0.288907,0.746434
5245376744,25.046383,20.780308,-10.619975,1.166236,-0.214737,0.750743
5245396796,13.204799,17.732191,-14.576699,0.985187,-0.086936,0.655005
5245416850,8.255877,13.384582,-23.450102,0.780685,-0.121830,0.520086
5245436902,5.925193,8.574573,-31.322407,0.720580,-0.070062,0.483252
5245456954,4.263565,5.711770,-18.950682,0.693368,0.038285,0.452359
5245477006,1.696566,0.198737,-4.561081,0.763374,-0.152458,0.253754
5245517110,1.733772,3.150486,16.718025,1.208369,-0.103783,0.164188
5245537162,-23.119781,10.365551,29.631569,1.253652,0.510358,0.173124
5245557215,-35.895733,21.025021,24.953411,1.102061,0.342449,0.502722
5245577266,-39.746616,36.206001,6.985791,0.867565,-0.243999,0.534476
5245597319,-26.700306,53.444679,-5.606195,0.751514,-0.724042,0.587197
5245617371,-6.308870,72.188782,5.705670,0.618596,-0.563771,0.678101
5245637423,16.690386,64.743416,9.861383,0.561157,-0.305439,0.720873
5245657475,17.243723,53.296612,-14.405083,0.598923,-0.030263,0.719501
5245677527,-1.256011,45.795017,-25.407719,0.858641,0.366536,0.694302
5245697599,-23.187561,40.344055,-11.193448,0.776641,0.351703,0.724520
5245717630,-41.774284,33.103493,2.290659,0.562625,0.177472,0.695845
5245737682,-45.722740,31.726862,1.175100,0.613572,-0.142125,0.671277
5245757734,-42.051315,34.399559,-10.923833,0.709019,-0.143484,0.548185
5245777786,-37.036041,31.705950,-29.030014,0.702142,0.085099,0.363176
5245797838,-37.184166,24.906281,-50.022980,0.934239,-0.075370,0.460290
5245817890,-33.188278,20.296247,-67.599258,1.278356,-0.478012,0.728864
5245837942,-20.085747,12.452871,-68.114922,1.555802,-0.858899,0.416417
5245857994,-8.204982,5.115390,-35.489120,0.998086,-0.555533,0.368235
5245878046,6.892071,-6.106560,-5.784123,0.776838,-0.205070,0.347069
5245898098,12.136018,-11.579399,8.087234,0.453089,0.192289,0.432150
5245918150,-14.957408,-14.450875,5.810191,0.573595,-0.019386,0.338299
5245938203,-15.288444,-27.827286,-14.159627,1.046867,-0.300196,0.286193
5245958255,0.824967,-34.870079,-20.825642,1.474533,-0.228005,0.326016
5245978307,3.789521,-33.938133,-6.217660,0.983390,-0.231926,0.349753
5245998359,23.405453,-32.990555,-5.113688,0.850210,-0.174866,0.427945
5246038463,1.928180,-40.246445,-4.232321,0.895449,0.060527,0.260223
5246058515,-3.817665,-44.331657,-5.625919,0.885213,-0.146882,0.243738
5246078567,12.194044,-46.629917,-2.660233,0.976269,-0.376020,0.268030
5246098619,28.219166,-45.770439,-2.168595,0.966713,-0.298341,0.288511
5246118671,31.129963,-44.937420,-13.874395,0.996721,-0.074082,0.298489
5246138724,24.408394,-40.477119,-19.488260,0.920838,0.015833,0.352623
5246158777,24.899668,-34.458897,-23.904964,0.983073,-0.080207,0.374624
5246178829,17.150517,-29.964220,-26.631008,0.962532,0.029882,0.324672
5246198881,0.316886,-25.751875,-33.384899,0.985166,0.228942,0.314349
5246218933,-19.631901,-21.506132,-42.434238,1.069570,0.281629,0.275076
5246238986,-30.062119,-14.849922,-48.713745,1.079461,-0.019631,0.153485
5246259037,-36.304176,-13.052546,-46.163643,1.205477,-0.268946,0.133634
5246279090,-40.838707,-7.183372,-25.810038,1.221218,-0.021398,0.186229
5246299142,-53.299477,5.104061,-11.137263,1.047318,0.286200,0.274138
5246339246,-107.818657,23.480068,-42.876694,1.059335,0.388791,0.241317
5246359298,-132.161591,29.978672,-58.465321,1.115948,0.311585,0.202168
5246379350,-155.509201,33.911674,-59.455963,1.075886,0.169232,0.171359
5246399402,-174.635010,32.247597,-60.322693,1.049569,-0.017066,0.165967
5246419454,-194.632309,33.203930,-58.894142,1.125494,-0.080170,0.137971
5246439513,-213.836105,37.373394,-49.617561,1.131921,-0.081996,0.053333
5246459557,-230.016953,47.078892,-45.590595,1.042176,-0.228298,0.148546
5246479609,-230.762878,44.873451,-50.213478,1.001277,-0.606970,0.098563
5246499661,-211.304520,36.464378,-55.504162,0.903558,-0.837686,0.149709
5246519713,-197.094513,26.846298,-68.852859,0.742794,-0.940286,0.083411
5246539766,-184.479584,16.272432,-87.616653,0.654974,-0.660414,0.150530
5246559818,-188.021027,27.828012,-88.602600,0.984609,-0.367662,-0.008024
5246579870,-186.820847,55.026375,-72.333771,1.276970,-0.249883,-0.019130
5246599922,-174.861954,68.208351,-56.702522,1.253788,-0.628472,0.080880
5246619974,-149.995605,77.783714,-56.857903,1.197407,-0.885711,0.247504
5246640026,-122.269608,84.181671,-55.813450,0.942953,-0.770422,0.362970
5246660078,-91.043159,80.388229,-55.303520,0.732658,-0.635005,0.353641
5246680130,-56.858360,75.701988,-54.973450,0.621643,-0.542386,0.194460
5246700182,-21.757074,69.754318,-53.381241,0.645204,-0.449069,0.280797
5246720235,-9.605307,65.393402,-52.059307,0.697413,-0.459088,0.430697
5246740287,-4.292163,62.461216,-37.469154,0.725195,-0.501784,0.471559
5246760339,10.967049,62.366383,-15.487613,0.772188,-0.420796,0.485951
5246780391,17.061483,59.929451,2.170042,1.115167,-0.075680,0.404228
5246800443,5.060191,62.991119,-1.868312,0.944302,-0.035686,0.419004
5246820495,1.984191,60.825493,-12.174733,0.973731,-0.126635,0.420719
5246840547,0.536759,60.526867,-17.069202,0.895348,-0.242652,0.382154
5246860599,-4.956646,56.634888,-13.393232,0.778342,-0.252499,0.378621
5246880652,-12.183871,44.580215,-3.390414,0.706367,-0.188519,0.416541
5246900705,-17.302319,30.862917,0.842230,0.800273,-0.172163,0.485181
5246920757,-23.360964,23.215651,0.726703,0.924526,-0.252483,0.510530
5246940809,-16.849663,16.670393,-2.580186,0.983339,-0.413957,0.589250
5246960861,-8.660728,7.650299,-5.212185,0.853270,-0.460850,0.608593
5246980913,4.561298,-10.290672,-5.943205,0.780459,-0.407204,0.763232
5247000965,1.975647,-39.485271,-12.344446,0.703356,-0.188817,0.836864
5247021017,-14.724987,-84.665092,-19.284399,0.710657,-0.041587,0.762050
5247041069,-41.012222,-127.769554,-23.082880,0.761890,0.057265,0.728641
5247061123,-55.231388,-160.445602,-15.795612,0.694060,-0.053319,0.597749
5247081174,-55.038929,-163.714005,-36.967598,0.509625,-0.379662,-0.139582
5247101226,-29.984562,-109.584961,-22.103506,1.160754,-0.429072,-0.539284
5247121278,4.089633,-70.824326,-15.776570,0.952680,-0.605016,0.409566
5247141330,22.885237,-89.625092,-27.344486,0.933622,-0.303079,0.446016
5247161382,23.441242,-96.550552,-31.792404,1.082419,-0.089167,0.118956
5247181434,16.691822,-89.608055,-25.455217,0.897920,-0.172858,0.204048
5247201485,11.502695,-81.144196,-19.055609,0.734469,-0.209277,0.345273
5247221537,4.852356,-66.909241,-12.129690,0.891652,-0.281240,0.518719
5247241589,5.933296,-43.456112,7.456510,1.353757,-0.538806,0.524794
5247261641,12.687441,-16.255703,9.944841,1.152941,-0.417257,0.522691
5247281693,25.739418,-11.785585,-3.732414,0.857236,-0.197185,0.531317
5247301745,10.858724,-12.415231,-8.666513,1.055937,-0.054226,0.280048
5247321798,-2.740004,-8.868954,6.696154,0.832071,0.200986,0.550796
5247341850,-39.507317,-35.290733,20.260300,0.546168,0.217910,0.481682
5247361902,-68.902290,-78.271294,14.067531,0.391913,0.203534,-0.039014
5247381954,-67.005844,-118.268036,-6.387339,0.356901,-0.255670,0.035489
5247402006,-53.563194,-133.555817,-21.133490,0.429471,-0.600122,0.393621
5247422058,-36.972328,-147.320084,-28.731461,0.746207,-0.360312,0.315658
5247442110,-41.676922,-121.818062,-18.874096,1.032946,-0.461082,-0.042409
5247462162,-43.244957,-118.099243,6.503146,1.206782,-0.314646,0.229328
5247482215,-13.789583,-121.739044,29.469614,1.092537,-0.222966,0.279352
5247502267,3.370760,-113.784485,18.711971,1.130955,-0.249637,0.301836
5247522319,-0.264842,-106.131607,-6.202422,1.156989,-0.283937,0.294511
5247542371,6.816623,-106.650238,-9.090697,0.861652,-0.626753,0.179234
5247562423,17.015636,-108.350868,-23.208008,0.977723,-0.449799,0.056769
5247582475,19.470190,-101.715652,-13.765611,1.188709,-0.055997,0.134958
5247602527,13.710080,-97.953674,4.784309,1.021319,-0.017128,0.210755
5247622581,4.448672,-93.437729,6.969889,1.007924,-0.094670,0.139577
5247642633,2.403101,-85.582764,8.686697,1.030510,-0.302849,0.185226
5247662685,14.824439,-83.932060,5.978551,1.119670,-0.523393,0.124246
5247682737,30.876150,-76.745094,-1.373106,1.273618,-0.453108,0.078627
5247702789,37.533195,-66.904518,-4.380298,1.200065,-0.161405,0.132169
5247722841,36.286072,-62.573902,-7.358156,1.144057,-0.018958,0.082227
5247742893,29.726110,-55.784588,-18.186848,1.305711,-0.034375,0.040109
5247762945,23.782066,-45.435780,-23.828854,1.335650,-0.044503,0.038893
5247782997,18.323921,-34.391174,-24.403109,1.237610,-0.097558,0.009638
5247803049,12.009093,-27.803650,-20.618959,1.120815,-0.071078,-0.001403
5247823101,6.309366,-23.165859,-12.470407,1.125654,-0.005680,-0.035389
5247843153,-2.588940,-19.028412,-5.698381,1.127887,-0.000061,-0.030349
5247863206,-8.441772,-20.058207,1.954384,1.016677,-0.060673,-0.033071
5247883258,-15.045971,-22.238132,10.983168,0.993364,-0.085363,-0.040676
5247903310,-21.923038,-22.330711,21.429695,0.979461,-0.006007,-0.010247
5247923361,-32.618649,-20.208551,29.505301,0.956853,0.034911,-0.061958
5247943413,-40.321793,-16.944267,29.042011,0.998880,-0.049507,-0.190739
5247963465,-44.315887,-11.392693,26.295855,1.158154,-0.281269,-0.169750
5247983517,-46.404922,-6.309919,20.685802,1.378936,-0.468235,-0.119670
5248003569,-36.886108,19.483965,16.410002,1.562594,-0.390295,-0.136265
5248023621,-13.314400,57.280617,6.062652,1.526217,-0.458610,-0.117283
5248043673,-1.618023,83.724640,0.305954,1.537939,-0.530487,-0.183622
5248063726,15.717625,115.129944,6.103253,1.378252,-0.461441,-0.255171
5248083778,31.460960,149.153168,7.359873,1.142063,-0.312451,-0.270749
5248103830,38.438541,178.782104,1.108799,1.129844,-0.206657,-0.183175
5248123882,32.408485,208.774261,-6.283395,1.217109,-0.087391,-0.230560
5248143934,21.018824,227.782089,-6.807221,1.144565,-0.105868,-0.240858
5248163986,6.558345,212.075409,-3.769505,1.014207,-0.303569,-0.361188
5248184038,7.554920,197.584793,3.896931,0.881364,-0.107915,-0.114189
5248204090,9.355817,199.159637,10.946883,0.733057,0.031583,0.077183
5248224142,11.807894,195.000458,3.805820,0.528488,-0.217306,0.138324
5248244194,14.080360,183.319458,-7.689898,0.509249,-0.377369,0.296453
5248264246,15.304744,166.132584,-6.426050,0.607884,-0.283739,0.297341
5248284298,20.387329,146.625946,-0.244394,0.673930,-0.219991,0.335970
5248304351,25.468794,124.966835,-4.264176,0.647771,-0.146918,0.469539
5248324403,19.877485,103.278442,-7.886015,0.675853,-0.087677,0.548394
5248344455,10.028111,83.980713,-12.022392,0.598303,-0.068665,0.657867
5248364508,0.614438,56.744644,-22.179573,0.352761,-0.124213,0.738020
5248384560,4.937879,17.234707,-34.216743,0.221609,-0.313038,0.577592
5248404612,19.203939,-11.841319,-34.508076,0.413421,-0.424995,0.431379
5248424665,23.131092,-26.474733,-17.664061,0.673979,-0.284008,0.312990
5248444716,6.662299,-45.809063,6.782256,1.214563,0.309169,0.285419
5248464769,-32.295959,-50.117149,27.228455,1.874406,0.656317,0.176200
5248484821,-65.062157,-47.907181,33.598637,1.471556,0.413240,0.280492
5248504873,-75.875275,-47.167236,18.972485,1.117158,0.270071,0.343074
5248524925,-78.049927,-33.703827,-2.210859,0.650038,-0.230461,0.497878
5248544977,-63.413170,-29.848919,-27.141300,0.491257,-0.811131,0.751769
5248565029,-54.434017,-18.867065,-11.797003,0.739849,-0.399455,0.471115
5248585081,-47.425896,-7.026225,16.527779,0.735482,0.079089,0.510442
5248605133,-46.823833,-6.832020,1.043089,0.602764,0.481006,0.477675
5248625185,-59.430748,-4.216357,-21.220909,0.841508,0.219761,0.502295
5248645238,-67.388626,10.081335,-21.009705,1.240943,-0.286124,0.530249
5248665288,-65.352798,32.543091,-12.682753,1.364515,-0.423757,0.467373
5248685340,-69.274399,46.216759,-6.096910,1.143249,-0.161795,0.369070
5248705392,-62.023132,49.288860,-7.989615,1.021971,0.044053,0.411088
5248725444,-74.580627,51.302284,-12.744164,0.899743,0.111955,0.419524
5248745497,-92.344772,53.068130,-8.075390,0.848080,-0.024052,0.389467
5248765549,-91.887329,54.759514,3.173374,0.911434,-0.198172,0.415198
5248785601,-77.775215,52.605701,4.540066,1.015517,-0.265657,0.406993
5248805653,-72.031525,52.849751,2.384791,0.891149,-0.212657,0.383685
5248825705,-62.797447,52.615215,-3.415537,0.816251,-0.064663,0.458421
5248845757,-52.996677,53.583046,-6.954097,0.874423,0.039929,0.482525
5248865809,-46.321503,48.765251,-18.156693,0.804388,0.033781,0.489097
5248885861,-38.208107,44.696629,-33.614162,0.735124,-0.153572,0.454512
5248905913,-20.397627,43.867229,-46.289558,0.655133,-0.306606,0.522062
5248925966,-5.189112,43.932396,-55.283752,0.633625,-0.354939,0.436128
5248946017,-5.050053,47.235104,-56.576027,0.753207,-0.220458,0.124776
5248966070,-8.641116,59.229378,-24.253948,1.127998,0.038666,0.226770
5248986122,-23.005049,80.067368,3.509207,1.874409,-0.027555,0.361612
5249006174,-58.537323,71.142487,17.869053,1.358261,-0.169473,0.038773
5249026226,-58.605213,31.373156,14.944216,0.845687,-0.470197,0.118598
5249046278,-26.717737,-2.454324,0.232753,0.717212,-0.536831,0.186985
5249066330,16.221996,-12.841171,-15.518300,0.555731,-0.546121,0.382804
5249086382,27.622990,-34.248573,-41.429192,0.556469,-0.535602,0.298255
5249106436,20.570692,-60.146496,-48.916443,1.184039,-0.189351,0.111748
5249126488,12.385596,-54.597122,-32.130146,1.402794,0.200114,0.126605
5249146540,-3.109551,-47.561653,-32.042862,1.045595,0.274300,0.185106
5249166592,-20.759647,-43.323639,-35.105602,0.927273,-0.064138,0.305698
5249186644,-34.774376,-39.557629,-24.169659,1.011447,-0.222985,0.271325
5249206696,-40.130508,-37.158550,-15.043408,1.075188,-0.223546,0.222069
5249226748,-38.402431,-36.454304,-13.515490,1.028184,-0.170678,0.158323
5249246800,-35.256863,-40.022781,-13.223875,0.905486,-0.034176,0.135061
5249266852,-37.305138,-45.928047,-13.331650,0.845698,0.202099,0.154169
5249286904,-63.426613,-41.450016,-20.090784,0.912767,0.330719,0.141522
5249306957,-89.857010,-29.730650,-30.308031,1.016414,0.209093,0.172384
5249327009,-105.872322,-20.971075,-35.546928,1.088082,-0.034738,0.214341
5249347061,-116.335220,-20.072586,-32.719414,1.084490,-0.110120,0.133846
5249367113,-116.745514,-20.392365,-26.457949,1.091900,-0.038867,0.140617
5249387165,-122.892052,-17.270060,-22.184444,1.095044,-0.014958,0.090013
5249407216,-120.224731,-11.614300,-22.553499,1.039112,0.002486,0.104956
5249427268,-121.433510,-6.328142,-24.534241,1.013209,-0.011242,0.082846
5249447320,-128.661743,0.681212,-27.511656,1.094117,-0.041255,0.074587
5249467372,-134.471710,8.068741,-32.173397,1.116819,-0.045631,0.076435
5249487424,-139.220047,14.378059,-33.171162,1.072513,-0.044977,0.122828
5249507476,-141.596741,17.759907,-30.165562,1.050515,-0.085906,0.116784
5249527529,-142.387390,18.172003,-25.422277,1.056543,-0.161175,0.074709
5249547581,-140.449783,20.989758,-23.636450,1.081791,-0.246879,0.056158
5249567633,-132.533340,30.263723,-23.913706,1.037725,-0.294773,0.132289
5249587684,-128.206268,37.207779,-23.961885,0.825937,-0.269341,0.183660
5249607737,-113.954460,30.703043,-24.073303,0.815215,-0.234484,0.144737
5249627789,-106.808258,23.344355,-27.013823,0.875504,-0.141384,0.139906
5249647841,-104.808212,18.386681,-25.527122,1.010375,-0.192101,0.143267
5249667893,-104.505981,18.934048,-25.718588,1.005928,-0.357617,0.113705
5249687945,-92.550522,16.157480,-22.166254,0.947334,-0.457870,0.081640
5249707997,-75.906136,10.696483,-13.391989,0.957276,-0.447694,0.029062
5249728049,-63.397980,4.027534,-4.081587,0.929395,-0.380140,0.023902
5249748101,-56.690567,-4.282217,2.674813,0.953094,-0.434147,0.004791
5249768153,-42.492462,-8.544332,4.298846,0.950550,-0.481186,0.058030
5249788205,-29.073479,-10.138752,-1.179945,0.903174,-0.405899,0.139710
5249808257,-22.928846,-12.990039,-8.205544,0.797176,-0.335311,0.161953
5249828310,-16.519222,-18.419422,-12.622769,0.801651,-0.352358,0.138098
5249848362,-8.551238,-22.746622,-12.443912,0.898982,-0.389714,0.115681
5249868415,0.218540,-23.382006,-11.542897,1.000650,-0.365849,0.085043
5249888467,6.677058,-23.068081,-10.598870,1.023720,-0.325444,0.079650
5249908520,8.873486,-22.738094,-9.911092,1.003765,-0.311080,0.070617
5249928572,9.229744,-22.312176,-10.155210,0.977155,-0.296005,0.061438
5249948624,11.794434,-23.265310,-11.062300,0.965328,-0.297301,0.042374
5249968676,17.349300,-24.143454,-11.606903,0.945196,-0.284031,0.033080
5249988728,22.170610,-24.037086,-12.973169,0.949094,-0.245049,0.032839
5250008780,23.557718,-22.761429,-13.167526,0.960221,-0.200662,0.040947
5250028832,20.269644,-22.014822,-11.759260,0.976488,-0.172134,0.051184
5250048884,16.506031,-21.176098,-12.094307,0.987058,-0.181700,0.041281
5250068936,15.046144,-20.180956,-11.687961,0.986067,-0.161032,0.044489
5250088988,14.117250,-20.636322,-10.708382,1.020244,-0.116008,0.023579
5250109041,11.634301,-21.083725,-9.265969,1.008064,-0.080357,0.015173
5250129093,5.314466,-21.468658,-4.790844,0.994720,-0.085485,0.008049
5250149154,1.550491,-20.805445,-1.676860,1.000598,-0.129641,0.007148
5250169196,0.311588,-21.845320,-0.369263,0.998372,-0.174239,-0.010802
5250189248,1.747793,-21.815077,0.524447,0.993623,-0.207286,-0.008362
5250209300,4.733701,-20.447336,0.033636,0.990539,-0.195783,-0.016788
5250229352,4.697547,-18.525267,1.482185,0.979272,-0.173266,-0.003314
5250249404,4.903791,-15.893823,2.011151,1.020116,-0.180489,-0.000033
5250269456,3.432054,-11.960153,1.316006,1.037969,-0.185867,-0.010386
5250289508,1.626181,-8.368027,0.978365,1.030345,-0.155212,-0.000253
5250309560,0.116411,-6.680503,1.677922,1.015575,-0.152586,0.014154
5250329612,-0.432823,-5.398817,-0.357463,1.057618,-0.192898,0.016009
5250349665,-0.661252,-3.026796,-1.979875,0.984334,-0.198320,0.016643
5250369717,-0.839742,-2.322186,-2.020135,0.873524,-0.228538,0.023569
5250389769,2.944095,-4.035396,-1.932188,0.854050,-0.282884,0.044781
5250409821,12.125396,-7.934685,-3.763653,0.983786,-0.313824,0.027700
5250429873,20.069963,-7.135422,-4.436138,1.051804,-0.299080,0.018924
5250449925,25.702337,-5.699549,-4.094425,0.969113,-0.243972,0.054326
5250469977,22.975040,-9.059593,-5.582526,0.945135,-0.149888,0.023075
5250490029,17.146038,-10.841247,-2.785289,0.962242,-0.139256,0.007805
5250510081,14.833547,-10.357803,1.609650,0.986093,-0.193331,0.009418
5250530134,16.137203,-9.548322,2.212721,0.996038,-0.237971,-0.000629
5250570238,19.681274,-9.412597,-2.783521,0.979930,-0.188147,-0.014861
5250590290,18.293911,-10.368746,-6.076587,0.985657,-0.110161,-0.019904
5250610343,13.344549,-8.150918,-6.794919,1.004685,-0.089359,-0.010376
5250630395,10.335072,-6.442686,-6.072170,1.003684,-0.114754,-0.013452
5250650447,8.210125,-5.294964,-4.862748,0.980557,-0.131746,-0.009966
5250670499,5.416688,-6.438210,-2.690249,0.980148,-0.106831,-0.014892
5250690552,0.459586,-6.582358,1.237884,0.995028,-0.098767,-0.037874
5250710604,-3.034882,-5.310015,1.962303,0.999830,-0.136834,-0.044942
5250730656,-3.311636,-3.947797,0.373704,1.000778,-0.200780,-0.050285
5250750708,-0.966743,-2.197798,-0.231885,1.014485,-0.206961,-0.052570
5250770760,-0.369414,-1.130682,2.219811,1.009817,-0.150103,-0.046717
5250790812,-1.968358,-0.798880,4.712704,0.981901,-0.112639,-0.046622
5250810864,-5.146286,-0.637738,5.865263,0.964729,-0.139431,-0.043253
5250830916,-5.326315,-0.870363,5.282548,0.949552,-0.187791,-0.042619
5250850968,-3.112029,-1.397684,3.646535,0.958782,-0.222197,-0.029249
5250871021,-2.289517,-2.424381,2.512941,0.968659,-0.226310,-0.032495
5250891073,-0.207393,-2.690846,1.444498,0.998296,-0.210802,-0.026284
5250911123,0.298754,-1.403316,0.439461,0.993601,-0.183546,-0.031995
5250931175,0.784779,-0.909956,-0.077778,0.988827,-0.199393,-0.033936
5250951227,2.437810,-0.617354,-1.132840,0.998392,-0.219601,-0.038087
5250971280,3.330077,-0.765661,-1.496432,1.019750,-0.196611,-0.053925
5250991332,1.423887,0.362247,-2.439441,1.014279,-0.174209,-0.049497
5251011384,-0.684518,1.311878,-1.358184,0.996388,-0.157412,-0.053908
5251031436,-1.388036,2.841118,-0.112680,0.993645,-0.168445,-0.062615
5251051488,-3.698340,4.481609,1.178478,0.988955,-0.168087,-0.055927
5251071540,-4.990462,4.869659,2.647911,0.986758,-0.183135,-0.046771
5251091592,-3.141710,5.191363,2.388471,0.987191,-0.203198,-0.032903
5251111644,-2.713338,6.459936,2.065633,0.982949,-0.199932,-0.026246
5251131696,-1.178434,6.603929,2.837653,0.971380,-0.208732,-0.023499
5251151749,1.534529,6.231366,2.345355,0.980360,-0.224249,-0.023529
5251171801,3.164239,6.457510,1.608846,0.985122,-0.216763,-0.015402
5251191853,4.736473,5.482565,1.876919,0.977326,-0.235380,-0.013606
5251211921,8.026344,3.884179,1.426537,0.970052,-0.269312,-0.015446
5251252009,14.889975,3.270637,0.554668,0.980188,-0.251609,-0.011580
5251272061,16.582064,3.343579,-0.461756,0.963789,-0.262626,-0.023475
5251292113,19.427898,2.805924,-1.984271,0.942085,-0.289362,-0.009050
5251312165,24.450592,0.486804,-2.948145,0.954462,-0.286756,-0.006630
5251332217,27.510981,-2.025217,-1.182242,0.960857,-0.270135,-0.001596
5251352269,31.994692,-4.227829,0.021253,0.931079,-0.287112,0.016657
5251372323,35.738022,-8.173334,-3.490677,0.903547,-0.303552,0.040464
5251392375,42.923260,-17.288599,-9.320318,0.881616,-0.303980,-0.043755
5251412427,55.574089,-34.025143,-12.275924,0.883572,-0.278458,-0.172456
5251432479,61.326393,-29.959587,-10.397205,0.965408,-0.264632,-0.049797
5251452532,65.860626,-26.032547,-11.147485,1.003995,-0.250634,-0.029781
5251472584,65.580139,-25.459730,-12.710627,1.006585,-0.225175,-0.079953
5251492636,62.252327,-26.688736,-12.735541,0.945173,-0.194615,-0.132092
5251512688,65.134148,-26.400105,-12.093333,0.884997,-0.213854,-0.121208
5251552792,80.061172,-28.376884,-17.169651,0.959946,-0.228834,-0.100054
5251572844,86.428879,-28.660885,-18.239532,0.965455,-0.191709,-0.109715
5251592896,90.063538,-29.936487,-17.228409,0.945328,-0.142107,-0.106978
5251612948,90.111359,-31.800875,-20.367268,0.931082,-0.151760,-0.144685
5251633000,88.628784,-32.151505,-32.226608,1.065927,-0.075905,-0.153422
5251653052,84.920189,-27.995861,-15.967608,1.089464,-0.067323,-0.160535
5251673103,81.815567,-25.547283,-24.099604,0.989058,-0.072795,-0.120921
5251693155,79.912376,-25.484413,-18.210302,1.053849,-0.051389,-0.127072
5251713207,77.009140,-22.739820,-19.378323,0.972420,-0.074695,-0.143375
