Timestamp (us),Gyroscope X (deg/s),Gyroscope Y (deg/s),Gyroscope Z (deg/s),Accelerometer X (g),Accelerometer Y (g),Accelerometer Z (g)
8658026491,1.889845,-1.249404,-0.380034,0.973022,0.229792,0.025683
8658046452,5.370131,-0.020010,0.069816,0.969257,0.251305,0.039559
8658066413,1.466053,0.667445,-0.847253,0.962126,0.263775,0.048148
8658086374,-2.370416,0.368027,-0.783590,0.951103,0.262497,0.058621
8658106335,-2.017506,0.281807,-1.495699,0.981769,0.234909,0.033682
8658126296,2.751895,1.848499,-1.444332,0.987492,0.228630,0.031067
8658146257,4.632725,1.662394,-0.246301,0.981801,0.236977,0.038384
8658166219,3.016175,1.577668,0.431530,0.953651,0.253788,0.042965
8658186181,-1.083755,1.910174,0.432663,0.934918,0.265530,0.036966
8658206142,-3.525064,0.972740,-0.666879,0.932254,0.259988,0.035277
8658226103,-1.522702,0.082042,-1.721448,0.953733,0.242614,0.037231
8658246064,3.948032,-0.152948,-0.223083,0.987326,0.238893,0.030350
8658266025,3.722358,2.147456,1.260258,0.977063,0.270617,0.035470
8658285986,-2.743313,2.814836,1.412450,0.950308,0.284066,0.047325
8658305947,-7.544841,0.281427,0.869111,0.956783,0.255282,0.041632
8658325908,-5.274324,-0.904692,0.817671,0.973731,0.229252,0.026525
8658345869,1.440182,-1.244259,1.455110,0.975720,0.239680,0.038684
8658365830,3.718702,-0.567388,1.309840,0.975741,0.254406,0.051101
8658385791,0.321814,0.073895,0.925775,0.967554,0.271083,0.054411
8658405750,-1.857548,0.246509,0.106248,0.954822,0.262207,0.053867
8658425712,-1.452258,0.274793,-0.309873,0.953364,0.249782,0.036105
8658445673,-0.216410,0.551314,-0.761567,0.961464,0.253837,0.033182
8658465634,0.655767,0.123150,-0.515183,0.965395,0.244973,0.032762
8658485595,1.326018,-0.249218,0.679126,0.979349,0.239310,0.028375
8658505556,0.341586,-0.183845,1.366411,0.965397,0.249279,0.035059
8658525517,-2.421068,-0.342362,1.349929,0.953027,0.263600,0.042156
8658545478,-5.499282,-0.372138,0.565681,0.957262,0.269931,0.042949
8658565439,-7.209470,-0.900793,-0.311962,0.967263,0.244157,0.040459
8658585400,-4.960944,-0.837753,0.568156,0.980775,0.225553,0.033453
8658605361,-0.942151,-0.142618,0.921921,0.963472,0.237751,0.034848
8658625322,0.120524,0.354583,0.264411,0.947488,0.261513,0.050921
8658645283,-2.476852,-1.342490,-0.659954,0.950676,0.249634,0.055181
8658665244,0.273028,-1.543096,-1.500581,0.976877,0.239898,0.029504
8658685205,3.232568,-0.836243,-0.786042,0.986977,0.244383,0.032530
8658705166,2.041219,-0.335290,0.613313,0.971602,0.245308,0.053906
8658725127,-0.138362,-0.063536,-0.069753,0.970679,0.234090,0.032035
8658745090,1.871000,0.135483,-0.017874,0.955788,0.246785,0.025544
8658765051,1.900250,-0.359296,-0.199184,0.954677,0.250537,0.045132
8658804973,3.155955,1.073137,-0.637361,0.961056,0.260949,0.034333
8658824934,2.152853,2.329471,-1.469799,0.945399,0.277614,0.037779
8658844895,-0.238966,4.091419,-2.671874,0.960132,0.284729,0.037478
8658864856,-2.888441,7.579778,-4.234082,0.977809,0.282073,0.029923
8658884817,-5.648165,14.145558,-7.243242,0.932590,0.304423,0.034465
8658904778,-15.169098,17.702690,-11.977867,0.887437,0.365883,0.040552
8658924739,-27.897421,17.732557,-17.317385,0.897169,0.349342,0.053841
8658944700,-31.535673,15.413393,-19.139811,0.921711,0.292156,0.051950
8658964659,-21.457554,14.525335,-17.412739,0.943086,0.263820,0.037690
8658984620,-14.385005,11.817557,-13.970085,0.959616,0.269735,0.043633
8659004581,-15.650610,8.709213,-11.184309,0.989506,0.293542,0.039329
8659024543,-23.141394,7.206761,-10.091173,0.976112,0.303759,0.050936
8659044503,-32.485825,3.391998,-8.370789,0.979916,0.287356,0.075770
8659064464,-39.972843,0.145714,-4.649099,0.983670,0.230972,0.114007
8659084425,-37.751724,-0.966635,-2.143181,0.986183,0.198995,0.142078
8659104387,-29.217089,-1.195062,-0.080673,0.966980,0.188725,0.141074
8659124348,-16.125797,-3.220321,0.633483,0.939841,0.193740,0.116636
8659144309,-1.512770,-4.171947,0.652839,0.956145,0.222859,0.105440
8659164270,7.057130,-1.499066,0.904847,0.964609,0.253866,0.112099
8659184231,7.614198,2.962975,4.535347,0.938273,0.250434,0.138535
8659204192,0.452785,5.035034,10.010908,0.942559,0.259618,0.154217
8659224153,-12.555794,9.254642,11.471907,0.939581,0.279502,0.169135
8659244114,-23.010157,13.661858,11.962030,0.939009,0.241875,0.144244
8659264075,-23.279331,16.677595,13.611124,0.932055,0.184845,0.130754
8659284038,-18.029758,18.355820,16.927361,0.932867,0.183343,0.146729
8659303999,-16.220892,21.184246,23.251091,0.928483,0.212166,0.169033
8659323960,-16.611080,25.989584,29.678436,0.906148,0.189589,0.163347
8659343920,-15.913480,29.035040,36.271389,0.885687,0.146085,0.170059
8659363882,-16.714109,29.227108,43.493576,0.897477,0.116082,0.178052
8659383843,-19.166162,29.444046,49.124081,0.953051,0.099878,0.178517
8659403804,-19.236938,30.575380,55.649052,0.983332,0.084376,0.177960
8659423765,-19.031490,31.643864,61.613411,0.975635,0.104053,0.175402
8659443726,-21.680065,32.497425,65.853447,1.020466,0.124767,0.169055
8659463687,-24.019476,34.354393,66.594299,1.025177,0.092858,0.190882
8659483648,-20.010065,31.169065,62.202862,0.956757,0.064799,0.231520
8659503611,-11.980272,24.917927,56.129261,0.944136,0.050075,0.253840
8659523568,-11.849538,19.366268,52.540604,0.919674,0.040975,0.279402
8659543530,-13.124527,15.121891,46.349777,0.927421,0.010749,0.300346
8659563491,2.741340,15.998480,38.561039,0.946810,-0.038671,0.322364
8659583452,24.305563,14.646075,35.644096,0.916447,-0.095532,0.303798
8659603413,27.855318,6.567327,32.579006,0.898321,-0.048349,0.253974
8659623374,21.638500,-0.700359,27.810764,0.881299,0.036161,0.289795
8659643335,10.373559,1.141218,21.881405,0.915703,0.020066,0.276484
8659663296,-15.071793,5.215990,22.330074,0.906813,0.070706,0.264473
8659683257,-38.413628,-7.455733,22.112497,0.923033,0.103510,0.287636
8659703218,-56.687386,-7.511239,14.682875,1.006341,0.138008,0.275213
8659723179,-78.111115,-2.241433,6.961664,1.146366,0.195349,0.342133
8659743140,-87.057037,-16.606354,-3.034095,1.164484,0.278790,0.323433
8659763101,-31.633280,-28.572031,-33.638477,1.278336,0.486126,0.241626
8659783062,40.514946,-25.074358,-85.468636,1.317526,0.734624,0.236544
8659803023,81.710495,-18.156393,-104.384674,1.249108,0.496944,0.258305
8659822984,47.450603,-15.678123,-106.315460,1.115802,0.470473,0.324408
8659842946,-46.877510,5.829379,-115.789391,0.940016,0.570937,0.474890
8659862907,-137.434906,-39.024872,-93.564537,0.896404,-0.085654,0.026076
8659882868,-106.948479,-71.764610,-87.047356,1.316328,-0.140562,-0.529269
8659902829,-30.598339,-43.133652,-110.137321,1.099675,0.682141,-0.337276
8659922790,-59.692085,-70.776535,-110.472969,1.062522,0.692327,-0.151630
8659942751,-116.049568,-80.941025,-115.136948,1.149191,0.572524,-0.102274
8659962712,-163.826202,-94.674728,-107.479980,1.182478,0.398116,-0.257072
8659982673,-161.812637,-95.018517,-108.838913,1.074170,0.285468,-0.372680
8660002634,-142.362350,-93.558540,-119.568954,0.926937,0.319736,-0.414916
8660022595,-135.495972,-99.570114,-125.593628,0.883390,0.267542,-0.459389
8660042556,-147.218658,-111.302193,-131.686371,0.921181,0.300816,-0.500765
8660062516,-160.226120,-125.448318,-130.159973,0.971572,0.216314,-0.549724
8660082477,-166.924072,-138.234711,-119.423981,0.999559,0.201504,-0.554341
8660102438,-178.677719,-143.756439,-108.161514,0.968829,0.268627,-0.492625
8660122399,-194.126495,-149.061874,-97.336609,0.965756,0.198000,-0.544341
8660142360,-179.862640,-153.186417,-83.629951,1.028919,0.125902,-0.500477
8660162321,-157.236816,-145.415985,-67.575912,1.103314,0.090489,-0.476222
8660202243,-188.648605,-136.429749,-35.810036,1.025907,0.207056,-0.591193
8660222204,-199.994614,-140.058487,-20.473547,1.036365,0.054186,-0.544697
8660242165,-187.059937,-139.953995,-8.530761,1.142311,0.014217,-0.405415
8660262126,-195.596954,-130.645584,-6.979107,1.096107,0.181175,-0.228422
8660282087,-227.805618,-130.983749,-10.720367,1.010798,0.149570,-0.230925
8660302048,-264.265259,-129.223602,-6.449215,1.032633,0.224271,-0.204339
8660322009,-291.029816,-106.356537,-0.287806,1.135504,0.269260,-0.100745
8660341970,-298.935791,-96.613960,-4.927674,1.190765,0.234572,-0.015477
8660361931,-276.504700,-100.705643,-18.508371,1.129693,0.274014,-0.071880
8660381894,-244.700577,-103.133743,-21.974257,1.120749,0.309706,-0.105320
8660401855,-233.471039,-103.501740,-16.980711,1.060746,0.330154,-0.067235
8660421816,-242.817932,-96.540054,-15.124651,1.021180,0.338969,-0.027036
8660441777,-264.324707,-86.916634,-17.433802,1.026782,0.276446,-0.059238
8660461738,-279.472351,-74.538620,-20.181419,0.987274,0.219668,-0.053660
8660481699,-291.924835,-71.851585,-23.573519,0.987913,0.186805,-0.050287
8660501660,-296.117981,-70.097473,-20.212706,1.071779,0.069396,-0.044458
8660521621,-285.041077,-61.880211,-15.801703,1.073617,-0.021149,0.018617
8660541582,-268.263428,-61.888065,-15.746248,0.991752,-0.008153,0.091118
8660561543,-252.385193,-62.304604,-12.368992,0.963972,0.036602,0.154529
8660581504,-241.750412,-59.739479,-9.491652,0.952763,0.027150,0.171598
8660601464,-231.445282,-59.576332,-6.551096,0.931115,0.022931,0.178555
8660621425,-222.914108,-60.256947,-2.461552,0.947553,0.021517,0.180519
8660641386,-218.270081,-60.357578,0.240596,0.936409,0.013908,0.205572
8660661347,-216.681259,-60.735332,0.223643,0.946212,0.027364,0.231393
8660681308,-213.920624,-59.599857,-1.780125,0.971164,0.021467,0.249887
8660701269,-207.920303,-61.631493,-7.904682,0.978134,-0.009613,0.267825
8660721230,-198.971817,-60.596149,-12.043244,1.039209,-0.007737,0.265272
8660741191,-185.923950,-56.864212,-15.026290,1.035161,-0.028119,0.267262
8660761152,-175.111435,-53.018372,-21.629450,1.013171,-0.075085,0.259979
8660781113,-167.463364,-50.220959,-32.711666,1.005974,-0.119570,0.246279
8660801074,-159.592697,-48.088791,-41.469784,1.050095,-0.144392,0.202419
8660821035,-152.103424,-42.397068,-46.842030,1.064951,-0.139919,0.176939
8660840996,-150.785233,-44.821453,-47.737190,1.062924,-0.124803,0.121288
8660860957,-157.466278,-45.162258,-46.309177,1.073354,-0.136617,0.079056
8660880918,-166.220551,-42.027493,-44.331600,1.077231,-0.109015,0.085869
8660900879,-180.704773,-37.788139,-42.958992,1.059080,-0.094708,0.106519
8660920841,-194.603180,-34.734921,-44.307278,1.037671,-0.081486,0.125306
8660940802,-201.819656,-31.657892,-45.891552,1.037294,-0.071723,0.115123
8660960763,-204.128555,-29.293991,-46.388432,1.015315,-0.079530,0.112662
8660980725,-203.545380,-29.401310,-45.885448,1.016219,-0.091276,0.111960
8661000685,-202.596924,-25.707247,-45.341400,1.028209,-0.099484,0.131073
8661020646,-201.805542,-21.933464,-46.991325,1.021057,-0.111773,0.143528
8661060568,-197.844391,-18.937023,-51.968956,1.055248,-0.161965,0.129405
8661080530,-191.516617,-15.830604,-55.231312,1.053151,-0.174863,0.122384
8661100491,-184.565338,-14.463888,-56.606834,1.058457,-0.178320,0.113523
8661120452,-175.506653,-12.071892,-55.335812,1.065414,-0.183750,0.113831
8661140411,-169.283127,-10.765855,-54.019409,1.064305,-0.152541,0.121313
8661160372,-169.723450,-10.654854,-52.472786,1.048020,-0.115131,0.119400
8661180333,-171.127609,-8.971567,-53.405849,1.034196,-0.093123,0.097841
8661200294,-170.077866,-6.883045,-53.147461,1.057098,-0.147404,0.075839
8661220256,-163.209076,-5.121284,-51.093433,1.036623,-0.203039,0.098411
8661240216,-160.713074,-9.263789,-49.834332,0.965854,-0.067410,0.141971
8661260177,-162.604538,-17.367983,-47.748974,0.974429,-0.069701,0.090716
8661280138,-152.340454,-13.655597,-45.990215,0.949772,-0.088012,0.051862
8661300099,-142.108200,-18.725975,-40.067028,0.924773,-0.121871,0.024913
8661320060,-133.748108,-21.154190,-31.725370,0.975640,-0.120580,0.049774
8661340021,-133.371460,-18.262842,-26.635952,1.002982,-0.113884,0.079488
8661359982,-140.492538,-14.907754,-22.186747,0.996619,-0.141024,0.096389
8661379944,-150.815353,-11.135139,-19.403234,0.957246,-0.166600,0.122220
8661399904,-159.731766,-9.263509,-18.039047,0.939598,-0.192231,0.128600
8661419865,-160.853592,-8.252789,-16.412542,0.935636,-0.239932,0.121113
8661439827,-152.302246,-8.326181,-12.870275,0.950065,-0.296274,0.120024
8661459789,-136.044785,-8.674824,-9.165524,0.996823,-0.279454,0.116053
8661479750,-117.537407,-8.404033,-7.731084,1.026685,-0.249848,0.116662
8661499711,-106.995682,-14.492639,-12.195258,1.091072,-0.224481,0.212496
8661519672,-106.650314,-34.470383,-18.987141,1.374016,-0.015089,0.198411
8661539633,-112.941803,-85.548302,-68.186867,2.041153,1.191993,0.092800
8661559594,-167.606049,-35.191967,-129.954956,1.897602,1.548347,0.397128
8661579561,-198.516373,17.987385,-142.097488,1.223584,-0.107251,0.042720
8661599516,-89.501831,-0.165453,-101.440689,0.199089,-1.570086,-0.593912
8661619477,48.079262,-34.694412,-35.794518,0.640334,-1.374259,-0.497146
8661639439,83.213676,0.855491,-23.186243,1.026513,-0.197006,0.205580
8661659400,-38.009239,8.314980,-30.868645,0.714771,0.484794,0.690901
8661679359,-203.204941,17.599848,-55.274361,0.766228,0.430603,0.545850
8661699320,-284.058075,30.830410,-63.644047,0.865318,0.024855,0.357073
8661719281,-262.725006,58.059334,-47.099678,0.604629,-0.958195,0.324776
8661739243,-175.674515,36.474129,-8.551891,0.653419,-1.415403,0.441979
8661759204,-34.877346,29.200842,16.840298,0.898041,-1.067513,0.504146
8661779165,61.446548,19.043726,27.609234,0.980215,-0.512471,0.462777
8661799126,73.412903,8.155939,25.160543,1.034816,-0.193652,0.484782
8661819087,53.290745,14.410957,21.563211,1.131776,0.108605,0.442180
8661859009,-14.883080,9.264990,12.913776,0.956242,0.347716,0.332963
8661878970,-9.598131,-1.522413,15.709909,1.073201,0.240982,0.271656
8661898931,23.968134,2.398367,21.947218,1.057760,0.135792,0.172382
8661918891,46.672089,2.378832,25.589298,0.955271,0.340695,0.168967
8661938852,22.833130,-0.152222,14.934664,0.841599,0.634173,0.197589
8661958813,-36.541340,-4.763991,-8.994333,0.694495,0.635794,0.216719
8661978774,-88.097343,-15.751459,-29.465141,0.730126,0.424600,0.146526
8661998737,-99.515533,-16.250372,-42.259926,0.800605,0.265790,0.096511
8662018698,-90.408989,-17.579079,-53.141418,0.837602,0.204072,0.104302
8662038659,-83.218437,-24.224386,-67.428940,0.874185,0.276057,0.129655
8662058620,-86.906929,-33.470913,-87.789703,0.917728,0.445999,0.207349
8662078581,-109.542244,-42.199574,-107.629463,0.966988,0.511009,0.293150
8662098542,-135.030029,-45.072609,-120.770775,1.022565,0.471054,0.285627
8662118512,-142.765381,-52.080383,-131.039154,1.064616,0.425097,0.255825
8662138464,-128.271988,-60.026493,-137.726379,1.112862,0.431919,0.228096
8662158425,-103.040756,-68.217560,-143.284882,1.071778,0.538725,0.217489
8662178386,-80.903740,-75.978371,-144.034958,1.035789,0.723440,0.179746
8662198347,-81.606392,-76.677582,-137.403076,1.072020,0.835419,0.073946
8662218307,-105.702744,-80.853256,-123.086945,1.119748,0.880962,-0.053958
8662238268,-141.863083,-87.832161,-103.789894,1.194167,0.791578,-0.164956
8662258229,-163.325790,-88.710167,-86.730202,1.222103,0.621093,-0.247887
8662278190,-170.742889,-85.296928,-69.030945,1.172860,0.485661,-0.319421
8662298151,-173.015091,-85.646530,-49.935387,1.081441,0.394910,-0.392642
8662318112,-168.184479,-97.720200,-37.075275,1.066280,0.374543,-0.428647
8662338073,-165.338165,-101.461014,-32.180290,1.015696,0.373482,-0.393953
8662358034,-178.110687,-94.629852,-40.118099,0.966900,0.417717,-0.337475
8662377995,-198.044312,-97.531487,-54.865150,1.064068,0.391192,-0.292277
8662397956,-217.448898,-109.083755,-78.203911,1.065197,0.272732,-0.224114
8662417917,-234.491943,-123.367188,-109.598343,0.899250,0.149195,-0.111580
8662437878,-235.831039,-144.201645,-136.574738,0.930969,0.081699,-0.036314
8662457839,-214.721832,-161.825928,-142.656433,1.030751,0.020860,0.007763
8662477800,-164.912659,-171.647675,-129.780075,0.892473,-0.057363,-0.049950
8662497761,-99.905731,-179.255630,-103.787827,0.714903,0.024959,-0.053735
8662517722,-56.905083,-178.546814,-65.153282,0.779263,0.222071,-0.024185
8662537684,-49.684414,-174.443924,-33.024757,0.848879,0.480280,-0.002551
8662557645,-83.624229,-170.501633,-13.713917,0.924099,0.643334,-0.075235
8662577606,-141.208710,-171.772034,-3.330265,0.993599,0.621881,-0.175416
8662597568,-196.567001,-169.230316,-7.205456,0.960676,0.509370,-0.153506
8662617529,-223.625290,-162.692963,-21.299517,0.922473,0.409617,-0.108226
8662637490,-217.226074,-155.277603,-29.713699,0.904131,0.329699,-0.041415
8662657451,-193.116760,-154.354187,-31.411329,0.857059,0.164645,-0.035841
8662697373,-103.264809,-162.177704,-12.607313,0.866591,-0.064258,-0.036288
8662717334,-70.158890,-164.068512,-4.040482,0.917167,0.040670,0.020199
8662737295,-58.228653,-160.975952,2.225228,0.910043,0.241011,0.045926
8662757254,-72.340042,-159.176620,4.756306,0.902342,0.425703,0.070260
8662777216,-99.622818,-156.255753,3.303276,0.925059,0.506846,0.053048
8662797176,-120.302719,-148.931335,1.159670,0.989443,0.537863,0.124931
8662817137,-137.636734,-136.822830,-2.930507,1.057975,0.593926,0.196844
8662837098,-126.612808,-129.079575,-7.360633,1.135282,0.584981,0.186935
8662857060,-87.794724,-118.950989,-14.305642,1.171878,0.608510,0.255426
8662877020,-67.320160,-107.308472,-23.651073,1.223679,0.738949,0.372802
8662896981,-59.341698,-90.017754,-27.505968,1.230021,0.756601,0.428268
8662916943,-43.612957,-83.647583,-30.355076,1.115972,0.627212,0.407169
8662936904,-13.012260,-81.206322,-45.914555,0.953328,0.627774,0.423755
8662956865,17.058556,-57.257908,-54.571205,0.948253,0.737240,0.303307
8662976826,17.944366,-34.898800,-45.327431,1.080231,0.637503,0.159021
8662996787,10.648068,-20.662708,-49.493870,0.946549,0.423589,-0.036985
8663016748,9.684851,-23.301313,-50.866791,0.827244,0.352323,-0.109034
8663036709,-10.179835,-23.456432,-49.892460,0.772177,0.611697,-0.015126
8663056670,-38.564770,-18.087830,-46.070557,0.800222,0.691668,0.040628
8663076632,-43.504425,-0.378306,-39.981102,0.828935,0.808183,0.065836
8663096593,-39.670044,25.589367,-31.704426,0.810004,0.763547,0.133059
8663116555,-19.547009,46.657043,-13.932960,0.863033,0.494030,0.090093
8663136516,4.750426,61.208023,7.026826,0.793051,0.483834,0.026963
8663156476,4.036530,75.614891,26.272449,0.674176,0.720679,-0.035373
8663176438,-23.843800,81.288040,49.881157,0.636478,0.719579,-0.068919
8663196399,-57.252193,70.513260,73.025635,0.612728,0.446899,-0.053050
8663216360,-42.967175,42.571678,102.584282,0.674695,0.106420,-0.218262
8663236321,-19.560019,43.038486,156.075195,0.860034,0.453653,-0.292944
8663256282,-44.628841,67.364090,220.564667,0.854382,0.729999,-0.209336
8663276243,-76.070915,104.795898,287.715302,0.901697,0.480599,-0.024171
8663316163,-151.572678,86.608215,339.343842,1.165204,0.571752,-0.069094
8663336124,-211.665955,53.749542,264.248932,1.446031,0.669550,-0.007721
8663356085,-158.101273,-64.891533,132.274261,1.179362,1.098990,-0.170354
8663376047,18.054174,-53.507404,64.291840,1.343624,2.238240,0.324855
8663396007,-24.004112,30.612930,-38.672779,0.389242,2.216683,1.016894
8663415968,-94.831413,-10.241611,-139.792542,0.661091,0.985714,0.700106
8663435930,-97.190895,-14.641463,-186.999908,1.721987,0.255511,-0.016458
8663455890,-79.308922,19.006859,-175.493134,1.301298,0.090272,-0.132836
8663475852,-43.195381,1.112192,-159.948135,0.854492,0.176438,-0.126506
8663495813,23.038565,-35.985634,-157.366623,0.671230,0.038116,-0.179689
8663515773,96.429626,-70.525681,-153.513046,0.700862,0.017926,-0.078465
8663535735,115.101326,-89.102699,-138.161285,0.772915,0.254033,0.112132
8663555696,73.371880,-98.664612,-126.339142,0.677306,0.510787,0.222003
8663575657,10.625418,-110.317482,-121.216499,0.672861,0.490346,0.182280
8663595618,-39.127575,-106.366180,-114.913055,0.753075,0.361754,0.160543
8663615579,-56.961140,-87.752617,-107.099228,0.734441,0.269173,0.194135
8663635541,-44.963676,-60.672733,-92.505615,0.750032,0.213551,0.336569
8663655502,-22.976295,-46.593193,-67.636627,0.875485,0.200077,0.424052
8663675463,5.688807,-33.091541,-35.936993,0.948353,0.090540,0.394764
8663695425,44.823914,-14.093897,-7.671758,0.873336,0.012614,0.377272
8663715386,76.998703,5.190084,27.096945,0.942853,0.066936,0.274666
8663735347,62.971279,19.659679,52.574924,1.239150,0.314894,0.726067
8663755308,-30.231705,65.274689,14.729826,1.250115,1.371904,0.784444
8663795230,106.085846,60.374866,48.459606,0.896624,-0.102192,-0.203671
8663815191,137.534561,36.223545,35.136013,1.038707,1.118556,-0.112880
8663835152,63.524151,45.811520,26.376968,0.909971,1.222737,0.014272
8663855112,-15.392248,36.413307,45.361786,0.751370,0.080497,0.083982
8663875073,-36.806889,35.644085,78.693169,0.691919,-0.297710,-0.067995
8663895034,20.280281,39.915527,130.050827,0.667985,-0.208228,-0.275517
8663914995,13.938175,69.996475,174.436096,0.870359,0.310237,-0.314992
8663934956,-26.410986,104.504440,233.281631,1.004534,0.232881,-0.163744
8663954916,-65.914688,130.755768,294.593658,1.277095,0.049646,-0.031262
8663974877,-91.451668,134.993362,345.367157,1.191357,0.074254,-0.205891
8663994838,-142.680557,128.264587,325.376801,1.493886,0.322915,0.254536
8664014799,-201.244431,36.076923,232.403870,1.955798,0.034382,0.244968
8664034761,60.663399,-37.860001,163.769821,2.486092,0.958550,-0.009407
8664054722,239.634415,63.152321,42.111858,1.548543,3.046098,0.583557
8664074682,3.454835,56.001137,-23.896523,0.225549,2.456360,0.662291
8664094643,-177.712494,-12.473939,-95.953430,0.596654,1.028349,0.225068
8664114604,-189.240723,4.616428,-135.709702,1.686638,0.200457,-0.493733
8664134565,-148.718811,29.928055,-115.600342,1.374230,-0.351722,-0.575197
8664154527,-34.037968,-17.759064,-105.784752,0.758490,-0.317693,-0.324789
8664174489,82.055748,-48.773979,-118.977745,0.764534,0.099769,-0.273874
8664194450,135.500397,-47.447750,-130.870285,0.847503,0.461457,-0.028858
8664214411,84.175507,-61.158836,-132.681488,0.870810,0.595636,0.193748
8664234372,-10.623350,-85.426712,-139.811722,0.939802,0.591650,0.237331
8664254333,-78.691055,-79.067757,-156.477234,1.069191,0.412129,0.192743
8664274294,-100.855194,-80.533691,-168.031067,1.023391,0.210563,0.058065
8664294255,-75.639061,-85.876236,-167.734833,1.028243,0.045261,0.002491
8664314216,-27.603086,-71.205727,-162.998856,0.984206,-0.027948,0.155685
8664334177,16.200401,-61.173332,-156.987274,0.886231,0.057921,0.295630
8664354138,41.172253,-62.702888,-148.098770,0.864813,0.208803,0.304422
8664374099,43.900478,-69.009102,-129.592529,0.973945,0.267478,0.247820
8664394067,43.912663,-60.058426,-110.913139,1.053573,0.296379,0.272757
8664414020,40.215031,-26.814106,-96.350243,0.945467,0.541965,0.443138
8664433981,15.019756,-15.612032,-75.951248,0.878714,0.558655,0.474331
8664453942,16.237268,11.131464,-45.409454,0.911971,0.120759,0.408992
8664473903,59.286480,39.066292,-6.496696,0.814245,-0.186970,0.368894
8664493864,99.239265,55.180683,45.150940,0.693289,-0.333062,0.244861
8664513826,126.005325,56.419216,71.876373,0.802711,0.212372,0.486168
8664533786,94.743896,75.660736,22.997524,0.945255,1.570262,0.232966
8664553747,39.151840,91.666145,39.031231,0.839657,0.666988,-0.071525
8664573709,43.371979,75.597939,53.716755,1.021767,0.269753,-0.166309
8664593670,66.988052,36.096733,64.084358,0.861652,0.315775,-0.215803
8664613631,65.660347,48.272087,110.850487,1.027851,0.307072,-0.706441
8664633591,2.010201,99.058823,161.299438,0.825760,0.829309,-0.332326
8664653553,-119.096466,139.482086,200.956467,0.682365,0.468866,-0.142740
8664673514,-193.470947,153.748413,256.251434,0.640773,-0.088221,-0.187740
8664693475,-170.322357,137.262726,301.259125,0.790716,-0.345939,-0.399863
8664713436,-162.880127,125.361198,275.474701,0.923320,0.015232,0.461285
8664733398,-127.740677,28.415993,185.398972,1.704290,0.520623,0.291490
8664753359,10.612966,-5.643744,142.002350,2.061056,1.391778,0.392218
8664773320,49.123779,41.985584,82.314598,1.229363,1.906441,0.672772
8664793281,-80.190117,29.685619,45.863525,0.846132,1.449842,0.550289
8664813242,-158.569336,9.388245,12.362866,1.177755,0.485520,0.309362
8664833203,-97.783737,22.139277,-5.647132,1.438617,-0.299475,0.184948
8664853164,-12.042305,20.718384,-12.510890,1.140692,-0.267560,0.167306
8664873125,29.500420,16.819632,-17.073215,0.851936,0.182341,0.095450
8664893086,48.630741,15.172393,-30.493916,0.611803,0.377388,0.072735
8664913047,42.321976,7.945091,-41.766651,0.514487,0.374628,0.107329
8664933008,19.193693,1.854169,-47.913094,0.588570,0.394070,0.159091
8664952968,-10.838674,-1.377614,-57.600525,0.720096,0.373029,0.205830
8664972929,-30.589163,-5.028380,-66.441284,0.889647,0.258844,0.175752
8664992890,-29.705359,-17.128490,-69.144882,1.051884,0.083426,0.124140
8665012851,-10.700818,-25.955446,-68.044312,1.158200,0.022538,0.125904
8665032812,8.260624,-32.177818,-65.179451,1.146663,0.077658,0.182249
8665052773,12.334773,-40.591515,-60.053329,1.048160,0.155093,0.223613
8665072734,2.559177,-48.163746,-55.566212,0.906848,0.196150,0.239654
8665092695,-12.446564,-48.638580,-50.826176,0.770509,0.167088,0.213224
8665112656,-18.302187,-56.979038,-43.972229,0.779032,0.122284,0.157747
8665132617,-21.273376,-52.866539,-34.486252,0.907143,0.073550,0.191765
8665152578,-22.985714,-46.509525,-18.723026,0.929367,0.038661,0.221156
8665172539,-27.562710,-43.684391,-5.309114,0.913495,0.060170,0.251109
8665192500,-35.190212,-36.540188,6.790470,0.914952,0.070808,0.246135
8665212461,-39.467037,-31.023911,20.186172,0.956362,0.056651,0.239751
8665232422,-44.993183,-24.352581,34.926933,1.047448,0.074541,0.259523
8665252383,-49.260677,-13.631843,45.909042,1.101856,0.104020,0.262587
8665272344,-48.135193,4.202701,51.950047,0.943708,0.072660,0.324854
8665292307,-33.739700,8.313412,54.131695,0.862265,0.028525,0.307419
8665332229,16.398077,13.994845,62.159107,0.819542,0.033724,0.278321
8665352190,34.532265,9.716081,69.632690,1.032586,0.037742,0.212774
8665372151,37.730202,16.765728,67.105446,1.060661,0.115566,0.227312
8665392112,21.064074,17.790222,58.503166,1.015419,0.231061,0.192446
8665412073,0.364171,8.652870,57.750195,1.013051,0.137683,0.058523
8665432034,-4.962203,2.756994,55.836460,0.914559,0.061784,0.100941
8665451995,-0.175320,4.408995,45.444725,0.990109,0.143188,0.126673
8665471956,-8.914845,15.116058,42.591766,0.826555,0.113761,0.273861
8665491917,-18.617916,-8.039263,50.654259,1.022562,0.090631,0.248148
8665511877,-27.643282,12.624025,44.271572,1.012621,0.088449,0.384230
8665531837,-27.845627,7.891251,42.706966,0.947110,0.083925,0.301876
8665551799,-17.625237,-5.716029,35.255154,1.078206,0.160134,0.210422
8665571760,-8.635036,10.014846,25.053593,0.998459,0.147962,0.185574
8665591721,2.610985,-3.109978,28.404177,0.916495,0.081436,0.115953
8665611682,2.103278,-7.418069,25.767822,0.965906,0.103992,0.114486
8665631643,-0.020615,2.595885,21.556482,0.850641,0.137983,0.175559
8665651604,-28.799355,-2.172997,20.929659,0.873167,0.133138,0.214571
8665671565,-74.693085,-11.367599,23.523926,0.972166,0.084373,0.263171
8665691526,-95.277710,1.976070,15.861726,1.048382,0.077889,0.265404
8665711487,-99.012642,19.190516,15.952677,0.790549,-0.030199,0.293771
8665731448,-77.500961,-3.365716,27.358109,0.913103,-0.135572,0.192659
8665751409,-40.412167,7.423686,24.793076,1.037856,-0.088715,0.290250
8665771370,-20.985016,0.691210,31.872364,1.041075,-0.000568,0.272019
8665791331,-42.238960,-12.763111,35.305771,0.948572,0.047830,0.265067
8665811292,-85.622780,3.726617,39.349884,0.870657,-0.007443,0.302881
8665831253,-129.232971,-3.725933,53.340805,0.625353,-0.310497,0.148359
8665851216,-162.256805,-18.688908,51.796864,0.818483,-0.388609,-0.002991
8665871177,-179.986633,-16.292904,54.102589,0.774663,-0.374857,0.098425
8665891138,-172.645065,-34.647282,56.347618,0.731918,-0.247216,0.280861
8665911099,-119.885918,-33.481106,54.486267,1.001979,-0.054789,0.303515
8665931060,-92.539940,-17.717098,52.063747,1.209075,0.158561,0.394698
8665951021,-106.747345,2.284868,30.114222,1.152289,0.543762,0.476315
8665970982,-154.720245,11.400438,9.382353,1.140680,0.540332,0.351494
8665990943,-189.546082,19.405373,-2.014973,1.216556,0.222194,0.194732
8666010904,-182.709045,27.636957,-12.273155,1.144227,0.034678,0.069628
8666030864,-166.555649,21.391563,-17.712763,1.106178,0.037741,0.059409
8666050826,-173.016724,22.502182,-31.540913,1.105034,0.162370,0.121090
8666070785,-190.721008,27.632885,-45.768925,1.123183,0.203648,0.066110
8666090746,-193.991241,30.062008,-60.666199,1.167675,0.211820,-0.008789
8666110707,-189.074219,32.542000,-78.845482,1.246881,0.176862,-0.043371
8666130668,-188.993149,27.931959,-90.730927,1.257370,0.110237,-0.054198
8666150629,-186.906403,20.568192,-96.048378,1.314293,0.065199,-0.085199
8666170590,-178.778061,10.628606,-101.994705,1.338074,-0.032790,-0.124227
8666210512,-149.549469,-3.673864,-118.588623,1.353692,-0.185265,-0.146576
8666230473,-138.108734,-10.621673,-129.082123,1.252845,-0.116223,-0.084083
8666250434,-131.023041,-19.307514,-137.204361,1.255835,-0.021833,-0.079564
8666270395,-127.923248,-20.025560,-145.169510,1.256346,-0.045452,-0.090641
8666290357,-129.938751,-30.692440,-143.194580,1.225927,-0.024089,-0.105846
8666310318,-138.980103,-42.647755,-135.093491,1.225461,0.031853,-0.084916
8666330278,-154.538147,-51.725414,-132.050034,1.212562,0.100443,-0.059504
8666350239,-172.232925,-57.683327,-131.530411,1.112193,0.190539,0.013398
8666370200,-180.397308,-61.193184,-131.354813,1.055085,0.224307,-0.005413
8666390163,-171.217743,-66.515503,-135.103638,0.965204,0.228347,-0.041458
8666410124,-152.276794,-82.015839,-136.019684,0.923507,0.249197,-0.068699
8666430085,-128.176682,-96.501770,-131.076355,0.931040,0.305643,-0.013847
8666450046,-114.967209,-106.714218,-128.535706,0.876180,0.343230,0.074865
8666470007,-104.521851,-112.367714,-124.819458,0.801568,0.362605,0.103776
8666489968,-95.618004,-122.997780,-106.187683,0.731387,0.303818,0.030875
8666529890,-98.763405,-133.170242,-34.462936,0.919827,0.270527,0.212812
8666549851,-146.984268,-115.933990,26.537783,0.928083,0.134134,0.296789
8666569812,-179.129974,-112.723991,88.978676,1.007468,-0.126927,0.229034
8666589773,-125.185730,-139.373993,82.753372,1.063604,0.205997,0.085103
8666609754,-121.703171,-130.928833,7.298328,1.080889,1.458190,0.348385
8666629694,-202.586166,-98.085518,36.352978,1.035566,0.621616,0.278208
8666649655,-162.593979,-120.545158,53.268532,1.121437,-0.172852,0.408081
8666669616,-73.477394,-123.279037,49.286690,1.280131,-0.004130,0.384279
8666689577,-28.500423,-108.805206,42.188572,1.612834,0.338119,0.589482
8666709538,-61.540661,-65.841881,29.143534,1.318755,0.448828,0.685448
8666729499,-70.551186,-52.438240,28.053976,1.291725,0.251776,0.487206
8666749460,-44.253010,-3.401095,24.773792,1.096655,-0.016774,0.359448
8666769421,-20.864174,22.953854,33.569878,1.089308,0.068090,0.121344
8666789382,-24.159540,43.591827,38.772423,1.144539,0.106148,0.096237
8666809343,-42.634701,61.189331,39.535088,1.277439,0.063260,0.048473
8666829304,-55.429619,67.460785,44.363422,1.264557,-0.271992,0.169468
8666849265,-30.837959,83.906471,62.558800,1.200406,-0.409857,0.182206
8666869226,-20.628326,113.969170,71.396873,1.031638,-0.051600,0.399804
8666889187,-69.489075,142.145859,77.173752,0.855368,-0.387209,0.019426
8666909149,-39.340046,138.666504,130.427216,0.733400,-0.867367,-0.099427
8666929110,48.532181,154.621796,194.141235,0.848135,-0.605092,0.058377
8666949072,121.236069,207.790344,220.014969,0.850381,0.354125,0.229929
8666969033,103.410797,259.803955,182.325912,0.906108,0.978804,0.606093
8666988994,153.714172,86.724617,77.941055,0.629813,0.425603,-0.559330
8667008955,566.225647,39.966309,-129.630661,1.645012,5.103986,-1.696517
8667028916,322.773895,87.013268,-279.682922,-0.215169,5.171468,0.865163
8667048877,-104.439209,-75.561119,-332.270020,1.061865,2.987142,-0.381372
8667068838,-278.617126,-129.828049,-365.861969,1.540989,2.663210,-1.458291
8667088799,-106.271530,-178.344559,-344.166870,0.672608,0.384914,-1.149143
8667108760,105.574768,-237.015503,-328.663269,0.767567,0.298525,-0.442898
8667128721,119.326233,-299.897827,-226.529724,0.486580,1.102667,-0.204246
8667148682,-51.767048,-306.812561,-166.718613,0.438363,0.454136,-0.067021
8667168652,-148.827698,-255.510391,-105.968147,0.453604,-0.413440,0.876482
8667188603,-141.331451,-203.713821,3.448874,0.479880,-1.410058,0.933994
8667208564,27.101208,-146.273666,156.899399,0.821754,-1.937623,0.524466
8667228525,183.859573,-90.473885,304.310516,1.881461,-1.054407,0.648452
8667248486,95.082207,9.659521,208.855698,1.557456,3.248513,0.320697
8667268447,-195.958847,7.845252,134.294510,1.001405,1.256903,0.906157
8667288408,-155.967606,-39.879089,105.476105,1.503739,-1.849888,0.448755
8667308369,121.761169,-89.014557,85.330811,0.804946,-0.664524,0.452219
8667328330,91.781906,-77.038765,100.946693,1.208545,0.153964,0.614860
8667348291,14.056849,-9.413547,95.868164,1.231421,0.457016,0.275390
8667368252,-52.128319,46.147064,77.344231,1.443838,0.454654,-0.563726
8667388213,-154.026123,71.456985,101.043282,1.350700,-0.127061,-0.595062
8667408174,-215.849274,62.229317,171.229370,1.378048,-0.339207,-0.387744
8667428135,-148.455414,49.270592,236.391266,1.839530,-1.001880,0.107281
8667448096,49.840210,107.309944,270.664398,2.526963,-1.251731,0.640758
8667468057,168.965286,244.866867,240.267166,2.217281,-0.680331,1.142950
8667488018,238.261841,291.033478,107.551765,-0.276493,0.588671,-0.113115
8667507981,511.351898,7.601315,-129.050232,0.955283,6.671027,-2.945230
8667527941,434.170410,138.886383,-336.942871,1.445678,4.802463,-0.954172
8667547902,-92.645615,-56.891502,-298.804840,1.142019,2.711896,-0.137540
8667567863,-276.458557,-96.757843,-349.177155,1.733479,3.369188,-1.231931
8667587824,-108.171333,-147.408600,-343.817139,1.150970,-0.397851,-1.645234
8667607785,103.851166,-213.588379,-336.946045,0.729556,-0.351951,-1.147502
8667627747,169.463470,-267.761414,-264.920746,0.311476,1.148795,-0.468741
8667647707,-13.976851,-296.592224,-190.136185,0.325931,0.824089,-0.004570
8667667668,-209.116348,-268.487488,-123.763016,0.593152,-0.079998,0.683989
8667687629,-269.806946,-211.739655,-27.822243,0.753424,-1.508580,1.147608
8667707591,-7.814518,-144.324173,118.067505,0.685282,-2.218084,0.780438
8667727551,237.679504,-51.892841,273.359711,1.835185,-0.896478,0.922937
8667747512,31.838074,61.976055,211.627045,1.351545,2.156970,2.085737
8667767473,-231.397766,84.819084,182.080551,1.193546,-1.296514,2.237391
8667787434,193.258286,40.910465,120.587769,0.649521,-2.487548,1.026693
8667807395,445.343628,-22.993118,139.245193,1.402499,-0.677074,-0.960915
8667827356,110.186119,91.787354,128.502075,1.149451,3.512650,-0.032322
8667847317,-398.191040,134.921463,107.169357,0.667816,0.311160,-1.988979
8667867278,-310.162018,39.698963,189.226669,0.997854,-0.917515,-1.802349
8667887239,-124.354713,1.064021,286.276367,1.510421,-1.945018,-0.141102
8667907200,115.862061,38.615791,356.745575,2.759651,-1.789478,1.087470
8667927161,103.404282,277.871124,391.986725,4.645761,-0.682638,2.270981
8667947122,2.037441,323.231720,362.121857,-0.462184,-4.004175,0.118069
8667967083,1001.735352,-207.918106,-93.289169,4.353930,9.843679,-9.274410
8667987044,294.437256,419.133087,-265.367340,-0.443663,6.890017,3.390568
8668007004,-301.088898,14.444311,42.386177,1.068955,0.618698,0.824147
8668026966,-225.050629,154.861542,-225.038422,4.163043,0.778471,-0.401962
8668046926,180.427170,161.774155,-13.231655,0.408223,-0.740442,-1.448629
8668066889,8.107288,-32.372334,-75.121796,0.291039,0.470769,-1.690532
8668086850,95.912796,9.474135,-47.147285,0.348516,1.127937,-0.407984
8668106811,-138.858841,-55.026855,-32.450577,0.025576,0.570252,0.078493
8668126772,-266.863464,-83.794479,-26.926029,0.476449,0.388509,0.184353
8668146733,-209.933441,-61.010159,-34.786369,1.155472,0.152439,0.149041
8668166694,-87.664925,-48.070724,-27.965830,2.148546,0.649286,0.546858
8668186655,-33.783611,-84.496979,-17.411736,1.805729,1.383023,0.358630
8668206616,-81.869194,-80.472549,-81.426369,0.310051,1.315948,0.550208
8668226577,-168.836655,-139.173752,-143.054733,0.560750,0.664179,0.416141
8668246538,-187.911530,-149.112244,-138.784531,1.471506,-0.074244,0.113384
8668266499,-69.304192,-132.578232,-75.030525,0.711746,-0.749020,-0.301917
8668286459,75.689949,-147.169037,-28.735067,0.258036,-0.207806,-0.288233
8668306420,93.803490,-132.163422,30.552896,0.585215,0.764352,0.010179
8668326380,5.271724,-76.659874,95.241409,0.654064,0.501354,0.163361
8668346342,-44.920338,-35.386806,114.321320,0.538210,-0.042166,-0.144389
8668366303,-43.298531,-34.804214,137.989578,0.446039,-0.002026,-0.137630
8668386264,-92.216187,-15.118099,172.064697,0.648453,0.355194,0.172482
8668406225,-139.280319,5.511588,194.297440,0.732333,0.197213,0.443965
8668426186,-100.960609,-8.541613,194.999115,1.106262,-0.220449,0.368606
8668446147,-29.717031,5.789679,192.746582,1.183139,0.053401,0.034794
8668466108,27.030296,74.455223,162.382782,1.127663,0.318836,-0.203508
8668486069,-40.464890,114.209145,200.183960,0.076941,-1.469493,0.991685
8668506030,-100.174515,131.413956,302.713959,0.583584,-1.980237,0.917188
8668525991,293.258423,15.569552,217.789413,0.137694,-0.657304,-1.829672
8668545952,281.764160,48.990295,126.696854,0.056571,1.778502,0.554374
8668565913,-75.258011,-46.686180,85.944618,2.171962,2.594992,-0.179659
8668585874,11.587570,73.176865,28.479210,2.143030,-0.083850,-0.273813
8668605835,-33.162994,92.539276,74.544662,0.606578,0.591997,-0.280190
8668625797,-85.624588,38.250076,90.610283,0.868427,-0.191982,-0.670502
8668645758,-33.898151,45.538929,98.761986,1.280486,-0.155276,-0.130561
8668665719,-28.983767,57.798271,76.530518,1.587043,0.208712,0.081910
8668685680,-71.977654,59.202682,60.015980,1.459328,-0.230210,0.199492
8668705641,-74.081718,41.881241,50.434311,0.910070,-0.833369,0.710702
8668725602,-39.627594,23.047537,35.215347,0.527606,-0.935195,1.247628
8668745563,-27.284050,19.246277,6.399290,1.537231,-0.855731,0.775568
8668765524,19.463043,20.199335,-8.816209,2.254244,-0.619450,-0.077416
8668785485,65.370117,3.401515,-25.852182,2.483694,0.424532,0.021789
8668805446,47.526104,-18.831528,-52.205593,2.083616,0.429649,0.686221
8668825407,62.665436,-29.409416,-84.447876,1.731804,0.456105,1.258762
8668845367,-8.642432,-27.481495,-108.691704,0.214456,-0.025597,0.935042
8668865328,-22.182892,3.590335,-138.548569,0.509036,0.108284,1.622126
8668885289,-52.208755,24.328232,-144.970398,0.172130,-0.772621,0.456953
8668905250,159.952515,7.340222,-151.377945,-0.170042,-0.976623,-0.484191
8668925211,84.017326,-0.443296,-103.887451,-1.513645,-0.017528,-0.210653
8668945172,36.582306,-10.034357,31.251387,1.389933,-2.049598,-0.248232
8668965133,235.654465,83.192818,141.945389,0.667247,-1.828126,0.076094
8668985094,505.760681,74.038345,152.103165,1.864167,0.062112,-0.753383
8669005055,331.335327,37.704964,118.680969,1.009480,2.977509,-0.505473
8669025016,38.781445,-34.673634,87.737923,1.988919,1.770239,-0.110681
8669044977,-53.407955,-25.856560,45.093948,1.581980,0.546796,0.148310
8669064938,-75.686333,-55.093861,30.484766,1.007663,0.034501,0.029153
8669084899,-67.186348,-67.351837,14.380910,1.060002,0.087941,-0.108721
8669104860,-103.072884,-72.944824,-25.194260,0.921476,0.536973,-0.282983
8669124821,-183.010681,-96.249649,-81.706673,0.873514,1.104825,-0.093375
8669144782,-242.409683,-103.491531,-127.656296,1.467668,0.656309,0.003455
8669164743,-214.857208,-98.201622,-194.784973,1.506288,0.424497,0.222867
8669184705,-181.140503,-108.065987,-247.245850,1.779090,0.356450,0.219696
8669204666,-160.082932,-104.549721,-291.609894,1.978632,0.194383,0.150156
8669224627,-121.092865,-93.048088,-299.998413,1.409527,-0.741364,-0.222951
8669244588,118.591843,-33.270107,-318.390625,0.893807,-2.590877,-0.616082
8669264549,342.474060,-14.595963,-278.600800,0.750911,-0.794766,0.097764
8669284510,238.425125,-88.797997,-213.921524,0.761681,-0.230114,0.651475
8669304479,44.477501,-48.168991,-157.482483,0.503828,-0.667094,0.623034
8669324432,32.703133,-42.667358,-136.840897,0.638989,-0.055258,0.543188
8669344393,115.589127,-44.064449,-226.757477,0.919337,1.623654,-0.312296
8669364354,64.124916,-32.020462,-185.014038,1.283886,0.537249,-0.056973
8669384315,43.699554,-13.022381,-164.125214,0.796160,-0.003326,-0.065623
8669404275,87.407288,-37.588371,-156.286331,0.548162,-0.120474,-0.009518
8669424236,96.384171,-40.211742,-153.224564,0.646318,0.482763,0.011450
8669444197,58.837120,-37.195568,-146.310196,0.892057,0.827103,0.086535
8669464158,-0.505803,-29.619818,-137.888458,0.935704,0.788626,0.090789
8669484119,2.301528,-16.983307,-134.869888,1.058638,0.465554,0.096423
8669504080,42.626778,7.534416,-124.079781,1.002964,0.343543,0.204854
8669524041,101.506561,26.415115,-122.471428,0.906535,0.590282,0.281910
8669544002,111.202415,55.028633,-124.075928,0.887915,0.711324,0.210106
8669563963,124.899918,79.613731,-110.747993,0.976632,0.411745,-0.067291
8669583924,122.092476,93.146530,-87.037811,0.862954,0.673684,-0.268721
8669603885,85.063652,93.963898,-57.213585,0.753977,0.833855,-0.426692
8669623846,67.925835,87.839211,-25.438671,0.538984,0.683138,-0.473515
8669643807,51.828751,82.324013,-2.768515,0.636479,0.698969,-0.527898
8669663768,16.640079,72.074562,29.142654,0.699843,0.855105,-0.690655
8669683729,-20.535852,67.716179,71.610497,0.828176,1.278232,-1.148720
8669703690,-41.507202,83.713234,164.578629,0.984417,1.443746,-1.076445
8669723651,-129.937119,112.477745,263.216919,0.993877,1.304650,-0.678693
8669743613,-262.391632,149.280533,378.751129,1.064162,0.460026,-0.303146
8669763575,-361.097839,149.297150,494.383484,0.909295,-0.324115,-0.022689
8669783536,-308.002777,77.875870,557.771606,1.349784,-0.934514,-0.270512
8669803497,-153.602539,-12.680765,505.898499,3.216118,-1.497233,-1.321902
8669823458,466.224792,7.378216,201.016251,0.822139,6.589991,-0.894902
8669843419,-28.160982,-62.644764,-74.642380,-2.094689,5.496507,1.062493
8669863379,-249.678467,-160.542023,-209.856689,2.543343,1.616047,-0.055370
8669883341,-284.427582,-35.376541,-285.521423,2.463124,-0.038646,0.253739
8669903301,-178.724167,-30.291065,-379.197357,0.906228,0.083470,-0.337210
8669923263,47.070473,-112.962654,-390.341644,1.397996,-1.252406,-0.504733
8669943224,141.593597,-121.235863,-383.467285,1.942964,-1.498860,0.409354
8669963183,86.462433,-97.413895,-299.601959,1.818676,-2.241086,1.702021
8669983144,47.764126,-53.552078,-185.567169,0.278534,-1.828084,1.633589
8670003106,200.725647,-0.239982,-22.014559,0.108426,-1.767978,0.761119
8670062988,64.519882,120.196167,-65.676620,1.382077,1.159365,-0.660452
8670082949,49.357445,78.880882,-39.610542,0.461248,0.178766,-0.762539
8670102910,-12.067561,30.397774,1.674349,0.172269,0.222508,-0.256514
8670122871,-39.060093,-19.675920,47.887085,0.173920,0.218061,-0.603448
8670142832,-27.219971,40.049278,121.150658,0.511686,0.926943,-0.486113
8670162793,-157.391846,76.098183,220.998611,1.384339,0.855951,-0.010449
8670182754,-285.997009,107.547401,365.347778,1.636193,-0.105917,0.202521
8670202715,-202.326828,111.077148,501.894440,1.763689,-0.832928,0.287796
8670222676,-89.625687,146.166245,540.798950,3.147847,-0.573448,-0.464365
8670242637,86.240402,-14.009218,378.174011,3.358574,0.989530,-2.249424
8670262598,338.204437,120.716805,-18.940531,-0.199884,12.336056,1.164513
8670282559,-229.343658,-191.853760,-175.081833,-0.237243,-0.366450,-0.329595
8670302521,-229.854065,-26.548275,-256.226105,4.234807,2.507818,0.268197
8670322482,-91.100456,-18.535618,-358.221436,0.114379,0.131519,-0.347147
8670342443,66.120865,-149.993271,-417.803284,1.895282,-1.244748,-0.847874
8670362404,96.898087,-131.397324,-466.043579,2.535511,0.845933,0.480707
8670382366,-17.410725,-135.648666,-383.401978,2.339428,-2.291309,0.760798
8670402327,59.335732,-95.937691,-323.243744,1.001501,-3.730693,1.887638
8670422294,234.090302,-66.970474,-159.871155,-0.463213,-3.380473,1.040672
8670442249,417.745209,37.785145,61.628403,-0.186608,-1.752768,0.610033
8670462210,152.212997,184.413055,16.960972,1.421557,4.366934,1.666723
8670482171,-93.430252,158.938614,-9.047513,0.657615,0.157120,-0.132350
8670502132,103.190163,110.986938,-15.672638,0.780573,0.126559,-2.038433
8670522092,-39.822784,92.509766,83.280884,0.153583,2.349784,-1.414677
8670542052,-303.465851,62.314323,157.589920,0.703551,0.800645,-0.894129
8670562013,-369.346710,47.174721,306.473663,1.125910,-0.702626,-0.024627
8670581974,-205.037170,55.783379,479.586945,1.359828,-1.370475,0.390364
8670601936,-60.110897,100.013878,513.119995,2.653944,-0.880258,0.578631
8670621897,34.332424,36.280514,419.517273,4.211821,-0.321496,-1.417512
8670641857,352.246826,64.318733,108.631561,1.717341,13.455521,-0.736971
8670661818,-253.073959,-77.755325,-98.791565,-0.768446,1.560180,1.564624
8670681780,-344.241241,1.723385,-224.232025,4.566138,0.836484,-0.911749
8670701740,124.496353,53.695049,-247.411087,-0.688310,0.914274,-1.332935
8670721701,76.599892,-151.455643,-360.944550,0.898479,1.239105,-1.306967
8670741662,-58.799118,-190.276382,-378.106567,2.219913,1.980568,-0.470950
8670761623,-218.956650,-165.687820,-370.696106,2.591341,-0.723213,-0.040667
8670781584,-101.856430,-118.553749,-332.956177,1.578196,-2.501102,0.196617
8670801545,82.611893,-128.737076,-282.385437,0.635896,-2.483417,1.474309
8670821506,140.972168,-78.333984,-138.585190,0.661207,-2.487488,1.586937
8670841468,256.357635,17.918177,27.109024,0.099520,-2.681063,0.992548
8670861430,267.430664,105.973816,175.470474,1.378800,-0.880714,1.573141
8670881391,50.635818,199.256577,137.995728,0.789265,1.452225,1.476217
8670901352,42.761677,112.136093,175.212143,1.414381,-0.576408,-1.180166
8670921313,-26.767431,216.652283,152.733383,1.313249,3.257298,-1.504344
8670981196,15.442681,128.030762,542.410400,1.984213,-0.480151,0.045022
8671001157,-24.475315,92.812744,434.333801,3.927989,-0.107918,-0.606751
8671021118,383.632172,1.327976,49.495403,3.083889,13.875685,-1.615658
8671041079,-284.252991,-5.571260,-145.221985,-1.537582,3.220414,1.655363
8671061040,-369.191895,-65.095863,-343.899597,3.879175,-0.640040,-1.312764
8671100961,64.213562,-156.558975,-425.897644,0.752534,0.407100,-0.643831
8671120921,63.871983,-168.865753,-453.771484,2.416684,1.802181,0.325816
8671140882,-92.351402,-161.295685,-428.199066,2.808346,-0.666543,0.389737
8671160844,-22.061926,-112.555008,-395.739105,1.927457,-3.014416,0.967517
8671180805,106.925232,-94.233810,-330.625305,0.855506,-3.382297,1.875611
8671200766,263.904907,-6.058251,-144.426788,-0.022629,-3.127023,1.372879
8671220727,377.444672,105.620071,87.767044,-0.093580,-2.683003,0.442667
8671240688,263.648163,142.090378,166.122162,1.279475,2.074386,1.452524
8671260649,-64.519394,192.858017,93.833847,-0.006280,0.648749,-0.631747
8671280610,-126.196838,214.693283,181.482773,1.183566,1.371428,-0.783124
8671300571,-271.413116,173.982773,274.899200,1.902054,1.122215,-1.640695
8671320532,-284.149963,126.215477,472.640259,1.323865,-0.467135,-0.060914
8671340493,-91.565605,106.648209,558.891663,1.313603,-0.453082,-0.251197
8671360454,-5.779225,79.116066,418.622467,4.328609,0.544191,-0.560365
8671380415,388.530212,1.260633,106.713066,1.603795,9.972002,-2.523445
8671400376,-254.128845,9.967526,-122.984589,-1.252515,5.733856,0.595430
8671420338,-490.595795,-167.499786,-277.960480,2.105001,-0.408821,-0.773852
8671440299,-46.971153,-25.967422,-330.750214,2.666952,0.803401,-1.056406
8671460260,168.144470,-125.770523,-406.528046,0.593869,0.201243,-0.336946
8671480221,120.081680,-171.281174,-446.265930,2.160722,2.246721,0.059413
8671500182,-43.338276,-164.534485,-421.778595,2.618706,0.252199,0.299089
8671520143,-22.815868,-116.795120,-372.655853,2.871902,-2.098105,1.097407
8671540104,87.054153,-82.029526,-283.806671,1.395308,-3.173366,1.694593
8671560066,225.000000,-0.780229,-138.081894,-0.075795,-2.625427,1.422605
8671580027,266.689667,125.597473,96.736511,-0.158160,-2.518668,0.993540
8671599988,264.883759,195.607941,206.573715,0.718246,0.489764,1.145737
8671619949,85.073212,164.737457,165.900421,0.652194,1.233921,-0.865470
8671639908,-171.227173,246.538559,224.940659,0.667870,1.826774,-0.655434
8671659869,-432.308899,268.712952,308.218872,0.955822,0.085710,-1.294035
8671679830,-314.411224,167.658920,479.581970,2.369112,-0.708079,-0.718120
8671699791,-25.372427,70.525276,539.553345,2.424200,-0.615550,-0.393262
8671719752,244.672012,-19.259937,340.955688,3.246413,0.816564,-1.873200
8671739713,355.373352,40.824333,14.340619,1.328682,12.880397,-1.920850
8671759674,-574.526489,-125.695816,-109.709152,-0.824798,4.192600,0.560679
8671799596,300.509979,20.708857,-302.160034,1.143437,0.330701,-1.764031
8671819557,347.227844,-180.022766,-337.330353,-0.277585,1.296264,-0.498534
8671859479,-224.078323,-290.587952,-343.379059,2.277320,0.962861,-0.260631
8671879440,-228.291000,-194.070648,-344.675659,2.917357,-0.718341,0.436932
8671899401,-98.103958,-111.350639,-300.062012,1.884013,-1.799623,1.645722
8671919363,75.872139,-32.479061,-205.215500,0.845197,-2.168874,1.904538
8671939324,167.850540,79.725250,-51.644089,0.508936,-2.430073,1.837722
8671959285,228.421082,188.346619,138.318741,0.327466,-2.592332,1.298147
8671979247,256.383423,274.326538,166.826416,1.150530,0.952169,0.847772
8671999208,225.595108,204.738846,131.894623,0.900446,0.456365,-1.659724
8672019169,-79.979309,283.348785,170.907730,0.877135,2.446545,-1.073074
8672039130,-350.544922,315.903381,314.224457,0.544250,-0.583566,-1.048487
8672059091,-299.363800,291.646088,464.039917,1.977378,-0.583521,-0.421560
8672079052,-102.852661,162.604294,514.251282,1.670820,-0.529924,-0.329986
8672099013,33.363838,102.475716,418.967377,2.365737,-0.520228,-0.978600
8672118974,398.423431,-85.834885,225.748886,3.766400,6.031977,-3.125885
8672138935,-267.352295,215.233261,75.052139,0.393592,8.753592,1.899467
8672158895,-984.558838,-95.202744,-21.562275,0.284316,2.114169,-0.157867
8672178857,-472.128326,-42.340469,-114.504356,3.038079,-3.481893,-0.459351
8672198816,129.397278,117.557831,-56.920200,1.685571,-1.340276,-2.004364
8672218777,525.568909,68.658485,-40.192127,0.436532,1.045785,-1.078609
8672238738,350.483032,-56.491245,-51.330284,0.835533,1.940682,-0.374119
8672258699,77.825874,-71.639046,-37.659782,0.829827,1.576918,-0.115204
8672278660,-166.151138,-82.589996,-35.641594,0.787238,1.181507,0.060686
8672298621,-301.506866,-95.497864,-47.529613,1.044872,0.639869,-0.127327
8672318582,-270.349304,-76.185341,-56.691826,1.254303,-0.112392,-0.169262
8672338543,-174.789566,-74.394157,-42.884735,0.988471,-0.278920,0.109334
8672358504,-90.742996,-84.336708,-24.377550,0.552290,-0.265856,0.240354
8672378465,-6.496966,-95.128876,3.033947,0.434235,-0.360375,0.282354
8672398427,29.421652,-88.739296,37.948135,0.730181,-0.039647,0.282528
8672418387,13.767644,-49.132973,77.127594,0.756648,0.224973,0.563157
8672438348,-12.014507,-18.874260,99.719872,0.441008,0.074749,0.528594
8672458310,-16.646307,-4.764139,105.170616,0.427125,-0.104677,0.420001
8672478271,32.485554,27.109997,108.518440,0.862073,-0.367305,0.005291
8672498231,31.831581,8.687220,177.174835,0.331404,-0.553519,-0.075425
8672518193,-74.524147,87.830902,257.069366,2.057822,-0.508003,1.763071
8672538155,110.974503,57.919250,195.805054,0.991757,-0.275185,-0.472916
8672558116,326.949554,82.393860,64.009056,2.145212,2.505712,-1.955122
8672578077,139.923691,87.471825,60.863728,-0.645685,1.562477,0.501687
8672598038,-233.019958,-22.761623,84.689285,0.601417,0.275421,-0.213086
8672617999,-53.025612,-22.178036,74.688423,2.501166,-0.196920,-0.324219
8672637960,104.430374,39.165848,8.755268,0.508207,0.795014,0.461752
8672657921,-58.163738,21.303280,-18.014711,0.367630,0.731794,0.315512
8672677882,-105.487503,1.723680,-4.746530,1.293851,-0.503925,-0.018245
8672697843,11.385830,12.801219,20.539175,1.382725,-0.508516,-0.151312
8672717804,76.008354,20.170435,17.341661,0.771103,0.748325,-0.021846
8672737765,-19.289856,10.928648,1.284929,0.757262,1.022448,0.065565
8672757725,-81.973793,7.148326,-0.290253,1.083809,0.112499,0.033643
8672777686,-17.619804,5.283824,10.474482,1.277498,-0.174800,-0.000624
8672797647,26.884769,9.466615,9.363049,1.115724,0.633850,0.027419
8672817607,-26.770559,16.837210,-3.241554,0.822492,0.838816,0.005206
8672837568,-85.246002,1.434757,4.701305,0.915518,0.003522,0.027333
8672857530,-50.696999,6.010423,27.971519,0.946911,-0.532921,0.258796
8672877491,32.424210,23.117525,48.264275,0.871759,-0.388141,0.253589
8672897452,65.228683,25.094141,54.630993,0.833664,-0.030515,0.209333
8672917413,43.445045,12.540921,51.541996,0.812783,-0.023894,0.143732
8672937374,57.880051,6.230190,52.449150,0.918083,-0.287673,0.256800
8672957335,111.478874,12.441092,64.524773,0.900716,-0.594202,0.144215
8672977296,145.252930,19.256079,84.525642,0.719811,-0.147749,0.292396
8672997257,99.450333,14.132192,80.769363,0.986359,0.832657,0.272301
8673017218,43.745361,-4.612091,38.788059,0.901901,0.577897,-0.364056
8673037179,15.393347,-34.135693,30.959343,1.192090,0.885805,-0.337096
8673057139,-69.730217,-36.411583,0.779163,1.365149,1.453005,-0.284478
8673077100,-121.326118,-31.662170,-3.565027,1.251581,0.931446,-0.269458
8673097063,-156.411804,-17.939335,-19.631655,0.979287,0.806091,-0.213664
8673117024,-198.683502,-16.569992,-26.011890,0.870908,0.671961,-0.156996
8673136985,-237.694183,1.804602,-38.205070,0.777190,0.302871,-0.051317
8673156946,-252.470917,-9.405983,-43.208214,0.867862,-0.118089,-0.098853
8673196868,-157.707733,7.934739,-39.437431,0.949330,-0.487595,0.133707
8673216829,-136.325317,-23.857552,-11.246025,1.177225,-0.610003,0.160836
8673236790,-119.609970,-22.392450,-16.239937,1.518366,-0.417866,0.207747
8673256751,-128.320663,1.058812,-42.441696,1.092918,-0.123330,0.305668
8673276712,-179.349060,-10.106760,-48.604462,0.870836,-0.029955,0.230494
8673296673,-196.157562,-0.108856,-46.337402,0.916414,-0.475225,0.017526
8673316632,-190.628204,22.281097,-55.884899,0.893067,-0.266561,0.365178
8673336594,-149.531555,20.813639,-32.174183,1.036654,-0.238119,0.186133
8673356555,-118.578262,17.069616,-37.120842,0.976784,-0.370408,0.054616
8673376516,-114.315704,16.615101,-29.501492,1.048165,-0.332104,0.256999
8673396477,-115.053513,22.873127,-27.312355,1.064445,-0.161105,0.288190
8673416438,-117.565994,20.048538,-32.849117,1.041281,-0.029264,0.292799
8673436399,-130.787628,8.023274,-35.865063,1.041100,-0.043779,0.257338
8673456360,-132.522720,3.792953,-39.590874,1.060976,-0.086531,0.232085
8673476321,-121.716934,0.779914,-45.827103,1.050921,-0.024932,0.241455
8673496281,-121.252861,-2.324859,-53.592487,1.042589,0.033068,0.211030
8673516242,-126.750160,-7.041109,-55.349174,1.033411,0.049986,0.186545
8673536204,-121.510757,-8.743553,-57.833824,1.054569,0.029783,0.206204
8673576126,-86.767639,-5.975778,-67.096062,1.026133,0.077022,0.190248
8673596086,-80.964836,-10.221419,-70.250504,1.028263,0.145556,0.210018
8673616048,-86.592072,-20.827938,-70.458168,1.089638,0.162410,0.137836
8673636009,-88.564362,-24.647217,-66.846413,1.177183,0.068619,0.089164
8673655971,-82.516373,-32.794334,-62.161945,1.183972,-0.012946,0.117032
8673675932,-65.039803,-47.881298,-60.282955,1.159619,-0.073888,0.178049
8673695893,-41.958374,-57.578133,-57.945724,1.105678,-0.254043,-0.002569
8673715854,-41.718620,-63.797485,-49.314064,1.050311,-0.186680,-0.085095
8673735815,-72.390106,-61.395420,-30.597271,0.998775,0.104778,0.148041
8673755776,-132.522095,-50.495564,-23.048306,0.911600,0.337683,0.361266
8673775737,-208.489182,-48.858128,-25.290224,0.953742,0.413136,0.410159
8673795698,-257.467499,-47.080780,-32.300385,1.187528,0.291171,0.341045
8673815659,-246.134735,-28.818226,-46.702522,1.234920,0.106078,0.317355
8673835620,-188.840927,-20.077332,-60.103703,1.086163,0.082651,0.306997
8673855581,-117.963837,-25.054272,-62.609406,1.082237,0.191348,0.302777
8673875541,-62.655464,-20.847172,-68.481682,1.156129,0.374789,0.342924
8673895502,-32.871071,-21.183147,-86.050903,1.117943,0.567660,0.370390
8673915463,-19.627895,-28.595976,-101.774445,1.021719,0.636016,0.308315
8673935424,-15.058356,-40.049751,-106.219978,0.975481,0.563248,0.135369
8673955385,-16.950605,-48.187447,-105.660049,0.931753,0.565181,0.006411
8673975346,-27.049221,-72.511452,-96.997551,0.751077,0.509157,-0.030315
8673995307,-59.851089,-111.146164,-78.196114,0.796433,0.316883,-0.148812
8674015268,-95.172523,-87.674210,-57.196224,1.169527,0.386843,0.032452
8674035229,-176.383179,-47.774658,-51.801807,0.965326,0.555998,0.297755
8674055190,-232.464203,-64.323914,-54.368248,0.721058,0.292241,0.064933
8674075151,-145.452896,-75.613869,-58.169704,0.739080,0.132061,0.188908
8674095112,-55.737061,-55.396297,-61.295906,0.773133,0.396234,0.500371
8674115073,-23.387461,-65.382835,-55.952564,0.703194,0.438989,0.278655
8674135034,-6.452009,-81.640137,-43.235935,0.746060,0.426817,0.060637
8674154995,-19.487083,-73.338585,-38.995808,0.768077,0.788280,0.116314
8674174956,-84.690910,-56.158089,-24.915743,0.706920,0.741663,0.186073
8674194917,-121.166557,-58.493038,-7.425358,0.688917,0.424601,0.111167
8674214879,-114.709579,-53.660934,4.253683,0.813778,0.411833,0.059848
8674234840,-108.898903,-58.216599,20.809431,0.695462,0.317635,0.030354
8674254801,-111.276260,-66.560158,39.150059,0.779191,0.393702,0.163230
8674274762,-141.399719,-63.158463,45.359818,0.882401,0.706342,0.319451
8674294723,-190.300873,-60.036720,37.642090,0.938967,0.904146,0.434445
8674314684,-200.440582,-49.296333,26.489220,0.692040,0.750516,0.389634
8674334645,-141.806946,-56.457664,18.800699,0.709549,0.521386,0.211220
8674354606,-88.248749,-78.875603,17.576794,0.826133,0.461911,0.198761
8674374567,-58.626797,-82.603653,25.960304,0.862933,0.547197,0.207601
8674394528,-40.510384,-84.274788,32.982159,0.816710,0.581049,0.158664
8674414489,-64.313187,-90.809189,35.873135,0.905545,0.638187,0.187860
8674434449,-120.295731,-85.656357,36.067493,0.887328,0.699706,0.260642
8674454410,-175.203476,-81.543083,31.576700,0.875841,0.623348,0.333348
8674474371,-201.672379,-64.540283,22.713228,0.948685,0.538007,0.373599
8674494332,-193.282959,-46.775158,20.938478,0.880280,0.355899,0.403739
8674514293,-152.674744,-38.854145,23.276943,0.841086,0.171660,0.395839
8674534254,-110.764832,-38.379299,27.201849,0.871705,0.214271,0.434768
8674554215,-84.479851,-37.438076,33.996342,0.883850,0.299852,0.502341
8674574176,-52.643185,-47.014412,42.061977,0.822041,0.113368,0.554983
8674594137,-34.105358,-53.547226,52.454601,0.924196,0.023871,0.555500
8674614098,-28.480717,-46.217293,56.985523,0.876424,0.071687,0.727222
8674634059,-18.800283,-47.561157,62.089249,0.913154,-0.126397,0.565772
8674654020,-16.137379,-34.075195,67.504318,0.940518,0.088981,0.612375
8674673981,-35.107903,-22.705307,67.887589,0.946674,0.280734,0.694308
8674693942,-63.828026,-14.636742,67.522583,1.001019,0.116856,0.565949
8674713903,-63.694794,-5.809714,77.892143,1.021779,-0.079758,0.500070
8674733864,-47.855663,7.406659,98.681778,1.058779,-0.096082,0.429350
8674753825,-35.001404,27.074680,127.367653,1.095629,-0.059366,0.473590
8674773788,-44.719318,49.889477,149.659836,1.078995,-0.007393,0.522518
8674793749,-66.483383,80.868202,166.101715,1.106102,-0.025371,0.487067
8674813710,-77.243797,109.577309,186.985214,1.155725,-0.003491,0.308773
8674833671,-83.735161,142.909836,206.904465,1.176906,0.045643,0.463981
8674853632,-158.083679,116.219330,199.890930,1.039899,-0.021126,0.674827
8674873593,-125.700592,30.016663,171.605774,1.433138,-0.131117,0.225254
8674893554,88.900528,28.082600,110.729782,1.701080,0.712822,0.154604
8674913515,173.119354,45.784885,50.956985,1.269454,1.397845,0.595056
8674933476,111.268692,40.242855,21.898348,1.169090,1.214081,0.520280
8674953437,84.766617,27.889738,-17.582582,1.179476,0.759283,0.364464
8674973398,82.937042,18.499989,-56.956047,1.132872,0.393526,0.202684
8674993359,11.676600,26.266247,-74.704323,1.140033,0.361832,-0.064023
8675013318,-31.218864,19.889305,-72.999908,0.968185,0.276055,0.090310
8675033279,-52.260273,-13.270714,-88.714790,0.875294,0.225336,0.018500
8675053240,-52.708241,-20.150183,-106.761200,0.935908,0.213129,-0.046117
8675073201,-22.540688,-16.582745,-126.452438,0.896408,0.197324,0.020075
8675093162,3.589191,-23.472500,-152.736572,0.890106,0.260724,0.061993
8675113123,9.735302,-40.997257,-174.623474,0.970319,0.300513,0.079750
8675133084,3.065658,-46.435814,-181.915649,1.063245,0.278706,0.108948
8675153045,-10.500688,-58.986351,-178.215317,1.006807,0.271955,0.098371
8675173006,-15.148228,-74.878326,-169.365280,0.984480,0.267629,0.047766
8675192967,-23.404253,-77.487900,-156.615662,0.952682,0.232943,0.040284
8675212928,-34.483459,-73.592163,-143.019913,0.912459,0.140247,0.063193
8675232889,-42.533020,-70.270447,-130.210205,0.940485,0.026701,0.088514
