Timestamp (us),Gyroscope X (deg/s),Gyroscope Y (deg/s),Gyroscope Z (deg/s),Accelerometer X (g),Accelerometer Y (g),Accelerometer Z (g)
675996991,-39.778450,-45.999168,67.826927,0.666082,-0.864150,0.597721
676016990,-28.031868,-37.992176,53.890976,0.623877,-0.795225,0.644399
676036989,-29.723217,-39.165375,38.462173,0.632682,-0.619687,0.644528
676056987,-37.907330,-40.494625,21.635059,0.685409,-0.426525,0.600952
676076987,-48.462784,-36.544685,18.602837,0.701083,-0.278069,0.560974
676096986,-53.376743,-27.987495,27.462517,0.661161,-0.313169,0.583733
676116985,-59.076385,-17.445200,33.155464,0.693664,-0.601433,0.562128
676136984,-54.418785,-7.494080,26.302870,0.698760,-0.732894,0.422813
676156982,-44.768856,-6.527617,18.670273,0.470706,-0.675500,0.328601
676176981,-42.178551,-18.911901,5.301755,0.357207,-0.585490,0.307467
676196993,-33.697727,-31.773523,-15.272882,0.474796,-0.652647,0.191010
676216977,-3.111604,-26.706488,-35.102646,0.674895,-0.748652,0.258260
676236976,38.736893,-8.060780,-51.732101,0.763218,-0.708693,0.468881
676256975,51.385536,4.329493,-71.862686,0.795102,-0.606587,0.644411
676276974,48.602280,8.002139,-88.721947,0.860569,-0.575742,0.590869
676296972,43.874580,5.113194,-104.372284,0.815583,-0.492091,0.461884
676316971,30.678141,-2.848307,-122.263550,0.816206,-0.409823,0.430890
676336969,22.578335,-10.315768,-142.315735,0.802906,-0.367338,0.356217
676356968,16.430717,-14.338922,-164.915436,0.794201,-0.289378,0.435932
676376967,9.224820,-24.329449,-189.139923,0.792028,-0.357687,0.468156
676396967,10.093802,-27.745064,-219.442154,0.741856,-0.368039,0.515334
676416966,50.145309,-11.886934,-249.486389,0.731290,-0.416961,0.530483
676436965,84.270996,-0.520065,-281.489410,0.617788,-0.213850,0.567358
676456963,146.028351,5.358162,-301.518402,0.576623,-0.192261,0.464997
676476962,174.126831,-5.061342,-301.743927,0.421573,0.119581,0.555151
676496961,118.737373,-57.658005,-323.488129,0.444519,0.219232,0.564980
676516958,-34.961060,-110.539696,-313.715912,2.143240,0.361968,0.617653
676536957,-149.201431,-32.498203,-209.832123,3.329820,-0.822880,0.020780
676556956,117.076019,102.101585,85.634995,1.608382,-2.745618,0.598078
676576954,139.898651,135.211456,280.334015,1.294793,-2.112915,1.962571
676596953,15.564810,153.946930,275.915436,2.770638,1.168464,1.837347
676616952,68.113564,275.695648,366.148376,3.150720,1.717085,-0.496382
676636950,-102.018356,252.946304,486.095032,1.562050,0.342589,1.203913
676656949,-216.695374,130.751083,492.697510,1.101537,0.559885,-0.245012
676676948,-122.119255,145.477356,458.845276,0.738212,0.725232,-0.542738
676696947,-72.193893,63.362900,444.626678,0.194118,0.510582,-0.359110
676716947,-14.781831,13.488412,337.645050,-0.327303,0.823169,-0.334044
676736945,-10.842503,-24.095758,175.589615,-0.901701,1.154899,0.054606
676756944,-70.545570,-74.161285,47.090561,-0.258273,1.026146,0.027487
676776943,-89.644707,-93.927200,-41.226856,-0.050594,0.697294,0.363923
676796941,-107.730698,-66.582710,-111.964806,0.413836,0.187943,0.753331
676816940,-142.729568,24.288372,-29.566490,1.727971,-1.712142,1.293251
676836938,-78.305176,88.522171,43.440006,1.140740,-1.157051,0.691102
676856936,-82.343414,48.494354,-33.098190,0.097462,-0.426434,-0.009644
676876935,-23.407961,27.754137,-64.506653,-0.082074,-0.749078,-0.302127
676896934,60.315567,27.958269,-112.264275,-0.143388,-0.822661,0.595228
676916933,92.604950,-15.266027,-167.364212,0.609528,-0.624771,0.578970
676936931,88.724548,-37.355839,-216.915604,0.751317,-0.207497,1.018576
676956930,12.147548,-58.955967,-246.264893,0.815811,-0.280052,1.183162
676976928,-20.988808,-48.078915,-257.181885,1.080100,-0.573860,0.971417
676996927,-2.906192,-30.656307,-272.458527,0.952032,-0.605704,0.640048
677016926,27.286804,-38.953197,-298.464935,0.739594,-0.263689,0.479502
677036926,16.597853,-70.583099,-329.597198,0.591884,-0.085690,0.451472
677056925,-63.873940,-131.523666,-353.833588,0.980938,0.063274,0.352215
677076923,-123.891182,-120.110786,-339.765167,2.329066,-0.141297,-0.022207
677096922,-90.649399,-6.746419,-234.420212,3.591513,-1.687653,-0.047309
677116921,134.205994,65.161758,-2.633276,2.200525,-3.603249,1.086618
677136920,72.632294,55.091248,239.010544,0.763916,-2.788496,1.832971
677156917,5.770885,95.817345,236.570358,1.530519,-0.268916,1.393965
677176916,62.929024,121.886917,334.230103,3.185374,0.456952,-0.926826
677196915,55.446339,170.597672,476.645020,1.854318,-0.076782,0.689076
677216914,-82.148697,57.589947,497.027313,1.447121,-0.089854,0.735073
677236912,36.770020,152.413727,456.028625,1.291813,0.309911,0.527421
677256911,-5.709983,143.941086,412.390076,1.111403,0.570163,0.100367
677276910,-24.003759,112.442955,380.410431,0.839742,1.109047,-0.264751
677296908,19.917507,82.341827,324.278351,-0.384862,1.347054,-0.134151
677316907,-58.585709,8.297923,194.727600,-1.372442,1.432202,0.071329
677336907,-171.872589,-88.897339,50.409176,-0.725133,1.111966,-0.244611
677356906,-194.894287,-125.754044,-50.708927,-0.137628,0.750692,-0.258047
677376904,-171.845734,-101.445610,-144.229034,0.022998,0.207329,0.017085
677396903,-121.257324,2.654504,-148.822891,0.993421,-1.410272,0.749151
677416902,13.522444,120.530510,12.022146,2.270332,-2.645466,0.744681
677436901,112.125343,195.005615,1.636172,0.325625,-0.996174,0.936286
677456899,31.855448,27.178013,-90.829796,-0.505274,-0.404035,-0.105996
677476897,53.041656,-28.471947,-161.697693,-0.464351,-0.552763,0.176645
677496895,115.581245,-20.601999,-206.938721,0.279970,-0.776653,1.019839
677516894,105.868759,-54.876774,-243.778168,0.785399,-0.557543,1.077933
677536893,77.444458,-65.017624,-277.008972,0.767611,-0.046473,1.012891
677556892,60.399792,-57.145092,-327.130066,0.720364,-0.003086,0.906485
677576891,44.720905,-45.779392,-363.221985,0.664950,0.061346,0.746768
677596889,10.198260,-58.007275,-399.637695,0.540858,0.003947,0.642869
677616888,-68.576698,-114.136932,-431.084991,0.897473,0.170468,0.490110
677636886,-162.014053,-165.640015,-387.131317,2.946232,0.173437,-0.193137
677656887,-220.565353,-42.452991,-233.999268,3.683775,-1.689995,-0.411028
677676886,-24.740170,2.742961,-101.357956,1.290938,-3.914665,0.173180
677696885,328.642029,3.678389,111.636429,0.940877,-4.831250,1.231909
677716883,285.437561,112.437943,169.658081,1.304699,-0.829727,2.640672
677736882,61.422497,77.342133,146.347763,2.694343,1.614294,0.436395
677756881,78.499107,148.180099,246.465073,2.647117,0.884484,-0.815945
677776879,-233.261108,63.574272,373.616150,0.637700,-1.112109,1.212397
677796877,-211.842880,-106.278427,376.948029,0.956407,-1.277822,-0.049030
677816875,99.654282,54.804306,385.927979,1.130458,-0.974714,0.185137
677836874,169.937622,113.384911,360.947479,1.085367,-0.182399,0.503899
677856873,128.644318,118.649376,320.615387,0.961766,0.578850,0.231630
677876872,52.575562,88.296471,275.451233,0.618966,0.940453,0.058798
677896870,-12.698444,21.695055,233.639420,-0.028443,1.072699,0.057272
677916869,-62.913807,-60.924820,175.173676,-0.554358,0.898784,-0.011118
677936868,-114.658340,-111.916519,60.450481,-0.431907,0.695764,-0.225321
677956866,-131.389496,-126.891037,-50.226318,-0.129183,0.354380,-0.007595
677976867,-44.218750,-101.747543,-132.104584,0.492837,0.135716,0.212829
677996865,35.218521,-23.967873,-211.906311,0.701792,0.420258,0.300318
678016864,28.741030,-21.643312,-266.435272,0.475881,0.562583,0.833488
678036863,-89.086075,-11.168352,-239.871216,1.171781,-0.416692,1.239927
678056862,-79.022507,52.981503,-129.538864,2.164776,-1.290042,0.251932
678076860,92.472389,82.090103,-191.735245,1.113876,-0.293597,0.170035
678096865,12.340948,-39.922894,-234.519882,0.161456,-0.388911,0.337777
678116856,70.008209,-52.013969,-288.942139,0.305826,-0.434002,0.424481
678136855,119.709671,-74.852570,-324.584961,0.603197,-0.164212,0.501502
678156854,105.133904,-96.545860,-349.642212,1.092421,0.487131,0.705124
678176852,14.399668,-116.096870,-352.125671,1.494678,0.875136,0.787587
678196851,-82.333595,-109.126038,-333.340179,1.925644,0.740715,0.570511
678216850,-150.197983,-89.374962,-271.055969,2.558727,0.717111,0.125725
678236848,-191.503036,-25.665350,-221.996002,2.811673,-0.435375,0.064157
678256847,-266.470673,-15.462166,-211.440704,2.258252,-1.981784,1.188530
678276846,-95.085495,-42.196625,-37.393650,0.909501,-4.563233,0.005537
678296847,384.553741,47.998535,95.555885,0.607602,-3.202873,-0.223459
678316845,273.628204,113.827194,78.323708,1.235485,0.605909,2.915557
678336844,-15.875998,3.718707,87.691391,2.440366,1.551841,-0.162216
678356843,84.877213,139.182678,134.819687,1.976001,0.884117,-0.571667
678376841,-148.619064,67.752022,204.642090,0.922216,-0.765402,1.188407
678396840,-169.069321,-23.790043,230.501877,0.892804,-1.129880,0.062624
678416838,81.034920,101.016739,263.628998,0.866719,-0.849860,0.114796
678436836,107.330475,101.650040,292.497498,1.040012,-0.309984,0.344771
678456835,99.627090,104.174850,301.093323,1.069442,0.140628,0.184261
678476834,104.697678,126.929207,299.561066,0.848355,0.314073,0.345476
678496832,54.222141,103.045944,273.781006,0.741702,0.403124,0.458058
678516831,5.800284,63.574188,243.700180,0.741058,0.382098,0.347273
678536830,-12.080213,27.365889,212.408752,0.788002,0.539180,0.136902
678556828,-9.797477,-7.922331,178.026917,0.356897,0.627500,0.149721
678576827,-26.281023,-54.524723,108.270378,-0.190782,0.594957,0.259549
678596826,-95.653015,-94.072037,10.476727,-0.270162,0.456364,0.163825
678616826,-102.086998,-121.018837,-66.603775,0.086433,0.311130,0.211698
678636824,-82.273178,-132.523209,-134.055847,0.336368,0.193654,0.262630
678656823,-20.329340,-94.486061,-216.462463,0.579489,0.013931,0.222596
678676822,56.904793,-22.901035,-281.992493,1.325947,0.006965,0.816285
678696821,49.379845,-9.844851,-303.918549,1.277007,0.095050,0.946794
678716819,11.030334,-50.523262,-300.716827,0.829707,0.094451,0.674215
678736817,-33.049240,-84.643837,-315.513916,0.939874,0.082335,0.149555
678756816,-6.400876,-81.521194,-336.084412,1.044659,0.047380,0.250755
678776814,-3.972562,-106.781731,-355.556854,1.123860,0.011159,0.200116
678796813,8.013670,-118.207283,-350.711426,1.524414,0.272187,0.059026
678816812,12.716529,-90.482063,-310.308563,2.168567,0.675197,-0.274808
678836810,32.687328,-30.568701,-224.297348,1.953032,0.579681,0.436892
678856809,60.795235,-50.527336,-148.136719,1.768121,-0.532887,1.296426
678876808,17.181709,-68.908386,-33.826141,1.792947,-2.277491,1.097263
678896807,37.013405,16.143410,-16.443840,0.885464,-0.997328,0.871886
678916806,24.449198,16.827435,35.726692,0.811262,0.227982,1.440204
678936806,-72.003609,-15.923297,68.658524,1.138748,0.549198,0.422777
678956805,-53.754673,10.840027,100.675034,1.307794,0.293864,-0.284456
678976803,-2.366074,9.819826,109.047356,1.156320,-0.093445,-0.029276
678996802,38.680752,-4.383774,121.014801,1.020619,-0.289149,0.006024
679016801,101.792885,25.170225,134.377716,0.879782,-0.217247,0.012988
679036800,160.495010,45.276505,141.762146,0.756026,0.063422,0.105579
679056797,168.125412,46.952065,131.285812,0.721642,0.382213,0.351910
679076796,107.446907,22.788288,114.368851,0.951210,0.425745,0.557786
679096794,50.044598,7.315282,100.680420,1.073130,0.392438,0.335680
679116793,40.316521,1.579520,87.961174,0.856957,0.286315,0.279857
679136792,31.523624,-26.364929,61.773518,0.814550,0.232607,0.281806
679156791,25.994934,-47.698936,34.203495,0.973094,0.244160,0.180514
679176789,33.260136,-48.298988,16.284195,0.818356,0.261189,0.067684
679196788,59.927170,-72.506638,-3.159383,0.501786,0.252444,0.067550
679216787,64.215828,-91.472443,-36.902443,0.826365,0.250829,0.098847
679236785,68.461266,-54.992393,-61.541862,0.986654,0.309204,0.311824
679256786,59.991760,-40.375198,-64.966331,0.776039,0.491366,0.367199
679276784,18.659197,-61.860596,-73.107803,0.835056,0.517583,0.126761
679296783,1.500010,-59.268120,-89.904091,1.050423,0.314077,0.060725
679316788,23.151432,-45.258217,-90.955627,1.074271,0.124127,0.245313
679336781,46.022900,-19.035694,-69.057312,1.154398,0.010263,0.468614
679356779,46.300926,17.426907,-34.738087,1.214761,-0.061055,0.548399
679376777,12.564604,22.976500,-6.468801,1.169509,0.053193,0.473488
679396776,-0.404980,22.680122,7.111005,1.112789,-0.068987,0.338517
679416774,11.779299,15.049593,6.725170,1.087874,-0.199735,0.268122
679436773,36.385086,-1.691353,5.959126,0.951321,-0.162359,0.104902
679456771,76.924133,-11.798022,1.852909,0.772228,0.006324,0.040031
679476770,95.129578,-24.202271,-9.664216,0.774739,0.153427,0.108398
679496769,96.517502,-27.225054,-12.787781,0.878692,0.297449,0.194343
679516768,74.257698,-26.124641,-10.981237,0.870100,0.461779,0.179600
679536767,59.642284,-25.905880,-13.742420,0.816825,0.469798,0.159147
679556765,64.621284,-13.356746,-27.356468,0.979394,0.320920,0.154131
679576765,71.796600,-0.728151,-27.583282,1.155094,0.230065,0.259277
679596764,67.969772,6.704435,-15.615338,1.135471,0.201205,0.297104
679616763,58.934052,13.192369,-8.216921,1.005186,0.163106,0.243198
679636762,62.647488,23.777449,-2.392381,1.018860,0.062407,0.341481
679656761,58.075581,33.845558,5.296188,1.141201,0.047174,0.366663
679676759,53.092106,35.741997,13.228863,1.150872,0.033204,0.281414
679696757,65.115631,35.756363,16.996340,1.153658,-0.024880,0.241470
679716755,73.979271,28.801838,20.566666,1.103856,0.000764,0.206368
679736754,84.196381,23.863655,27.290588,0.974470,-0.030292,0.194961
679756753,94.410294,26.714727,31.646221,0.900772,-0.060270,0.163484
679776752,103.763794,28.855961,30.453892,0.980682,0.015808,0.147704
679796750,111.573471,23.992517,27.278940,0.992661,0.098892,0.063450
679816749,130.398895,24.151875,25.391182,0.948459,0.204279,0.133173
679836748,123.300789,18.761999,21.344398,0.878197,0.380880,0.134951
679856747,119.032471,24.817892,17.513975,1.050743,0.354109,0.203232
679876747,99.172226,32.911259,24.194628,1.284618,0.284352,0.312470
679896746,80.350105,27.285400,37.597351,1.053350,0.231883,0.114832
679916744,101.372162,22.986179,30.954983,0.848171,0.163694,0.077053
679936743,125.703445,29.329741,14.552507,0.863624,0.242186,0.140858
679956742,125.262955,32.347248,5.733211,0.912420,0.423008,0.137476
679976740,113.282616,29.793091,5.100375,0.933676,0.419369,0.156081
679996739,99.743980,29.830013,6.484335,0.940915,0.254241,0.202019
680016736,102.779549,32.769043,9.033321,0.971555,0.142434,0.197204
680036735,118.422699,35.435745,11.472757,1.026857,0.157570,0.250525
680076733,121.211227,35.442848,4.901759,1.005945,0.242501,0.233959
680096732,112.031067,34.724510,3.936238,1.080749,0.184578,0.235693
680116730,114.720543,39.376034,15.370264,1.061712,0.144495,0.239766
680136729,115.355392,41.755383,27.211542,0.960599,0.147540,0.226478
680156728,114.727394,39.466473,28.159506,0.851884,0.153869,0.158333
680176726,125.982292,37.264908,25.587494,0.844963,0.093724,0.144137
680196727,137.014679,40.792137,28.279671,1.009587,0.147250,0.221594
680216725,129.750961,50.619236,39.872486,1.106202,0.193264,0.295928
680236724,117.964554,55.399235,53.765846,1.060369,0.109723,0.367990
680256723,106.741859,49.308334,60.357353,0.991053,0.004875,0.282065
680276721,117.811127,48.982208,65.741791,1.012847,-0.127417,0.134904
680296720,141.794632,60.511677,83.484009,1.158080,-0.117253,0.183643
680316719,150.292160,77.795700,106.088860,1.135853,0.042335,0.293711
680336716,139.308502,83.108902,118.722244,1.048023,0.146707,0.285111
680356715,119.828445,82.320297,129.119492,1.196002,0.119037,0.235124
680376714,106.934372,92.170715,153.694794,1.310811,0.026720,0.338401
680396713,96.890266,101.059669,181.453140,1.223080,-0.022708,0.375403
680416711,89.272232,101.248627,199.299927,1.160211,-0.018933,0.349080
680436710,78.580383,95.079681,215.586121,1.287464,-0.062116,0.245213
680456709,101.921387,103.279465,230.207855,1.207742,-0.073263,0.275687
680476707,114.041084,96.686729,228.328125,1.001101,0.027545,0.312010
680496706,109.501823,66.747635,215.109772,0.785057,0.165514,0.250523
680516706,97.361008,29.955875,196.174057,0.586801,0.332217,0.025312
680536705,92.101852,-10.014671,163.648926,0.391967,0.393363,-0.164127
680556704,84.530571,-62.683754,94.950706,0.130059,0.604208,-0.143277
680576702,85.556549,-73.740868,7.542994,0.171450,0.692872,0.015407
680596701,64.704720,-41.467339,-26.735464,0.735740,0.264967,0.920765
680616700,-10.241023,-47.000935,-9.413918,1.361032,-0.364162,0.960351
680656696,43.821976,-33.060165,-23.668848,0.828983,-0.284399,0.943371
680676695,63.438576,-23.223534,-28.081474,1.015540,-0.109021,0.649384
680696693,97.980873,3.880352,-29.129654,0.948084,0.032104,0.666422
680716692,107.558533,2.868206,-40.856594,0.797867,0.108046,0.719476
680736691,70.135460,-27.547148,-64.782051,0.753743,0.045350,0.592657
680756690,60.939625,-34.030548,-74.012245,0.834311,-0.018421,0.575474
680776688,67.520363,-33.078270,-71.873207,0.778152,0.028424,0.627642
680796687,64.713943,-39.615898,-70.949226,0.813949,0.171268,0.606470
680816686,56.288338,-45.859524,-67.607124,0.797999,0.337018,0.489468
680836686,48.312836,-49.930779,-69.034111,0.917345,0.336466,0.354492
680856685,49.888786,-56.885647,-71.532761,0.836479,0.269335,0.549457
680876683,41.885487,-84.349030,-79.206619,0.772609,0.247553,0.527165
680896682,26.103985,-94.988533,-85.986504,0.818670,0.177462,0.588909
680916681,11.733840,-108.029755,-85.382980,1.212124,0.084483,0.607707
680936680,8.103789,-62.102959,-67.700958,1.752881,-0.130079,0.549678
680956677,51.059326,3.427301,0.610151,1.624208,-0.282034,0.971773
680976676,45.669895,48.463524,92.382576,1.106996,-0.300786,1.188419
680996675,-5.061950,71.411316,140.940857,1.121759,-0.697959,1.292819
681016673,-33.749619,81.104057,174.457443,1.455945,-0.590226,0.810168
681036672,-30.139591,104.779778,202.686737,1.234958,-0.695105,0.548219
681056671,-5.434629,113.871719,221.386642,0.992041,-0.740962,0.344342
681076670,34.235916,138.085571,236.385513,0.985031,-0.393708,0.295152
681096668,51.248554,150.909698,259.374451,0.842868,0.040266,0.401165
681116667,28.177282,134.596786,264.394562,0.545027,0.306511,0.434941
681136666,9.355661,104.823387,243.800934,0.470560,0.487095,0.264125
681156666,7.018682,79.680229,212.350342,0.495780,0.776405,0.272886
681176664,-24.956678,34.078259,164.538528,0.110456,0.764302,0.444420
681196663,-67.983810,-26.647160,91.539970,-0.127089,0.612773,0.398293
681216670,-97.438240,-74.546478,26.871729,-0.065199,0.436475,0.316337
681236660,-120.415955,-96.838806,-30.160452,0.149621,0.228907,0.251452
681256660,-95.364105,-59.903442,-63.932583,0.739566,-0.188502,0.594283
681276657,-63.989388,16.920145,-12.163523,1.744077,-0.909033,1.205456
681296656,-59.830593,80.007248,76.124557,1.534041,-1.129132,1.350754
681316654,-81.254646,95.113075,63.440254,0.816958,-0.663028,0.868249
681336653,-117.176285,73.633171,30.439415,0.315978,-0.419121,0.513838
681356652,-146.151428,40.632263,22.818056,0.064962,-0.540982,0.335676
681376651,-129.095322,26.642958,15.690585,0.186709,-0.961681,0.186929
681396649,-56.800564,18.102430,-1.258678,0.467298,-1.248647,0.280454
681416648,22.492132,32.332542,-24.870960,0.547389,-1.194997,0.057137
681436647,115.826698,69.434555,-34.197124,0.275015,-0.771452,0.251483
681456645,91.973267,26.313416,-32.646400,-0.093580,-0.606234,0.368923
681476646,74.908821,-28.835066,-25.988214,0.139465,-0.577736,0.024847
681496644,73.703804,-68.101151,-42.439655,0.292888,-0.638490,0.065910
681516643,113.282700,-84.101669,-81.220924,0.315194,-0.612920,0.361192
681536642,151.550232,-95.300812,-132.678482,0.358000,-0.405329,0.447279
681556640,169.695297,-111.506317,-198.764130,0.311168,-0.017714,0.682028
681576639,141.410065,-147.401367,-263.811310,0.447058,0.357257,0.907410
681596637,103.778633,-168.977005,-313.378021,0.983284,0.503612,0.843880
681616635,55.449047,-146.008041,-341.812073,1.772918,0.392702,0.819146
681636634,-35.251984,-101.424675,-339.236481,1.995392,0.326148,0.372984
681656633,-102.442055,-43.492199,-319.783447,1.825910,-0.159402,0.387494
681676631,-26.773439,-44.314331,-191.172272,1.580134,-1.764124,0.751373
681696630,43.269859,-28.394844,-42.138664,1.196611,-2.570232,1.082622
681716629,74.590752,-14.879875,107.508301,1.759688,-2.008895,1.083771
681736628,47.319950,56.215363,131.818436,1.668712,-0.547339,0.628397
681756627,49.683224,48.188591,172.766449,1.303217,0.135277,0.239238
681776627,35.554127,7.441821,195.426147,1.652761,-0.480567,0.258604
681796626,29.166100,25.813419,231.278915,1.817655,-0.825530,0.752661
681816624,103.028656,82.026794,246.736481,1.159297,-0.018950,0.638775
681836623,106.844292,112.459358,257.432953,0.934572,0.082408,0.407278
681856622,70.913719,111.950241,255.783173,0.819484,0.148699,0.111110
681876621,65.080803,114.993896,247.679901,0.813432,0.335943,0.202125
681896619,49.578018,77.341682,225.351395,0.698686,0.387665,0.114432
681916617,67.299477,36.132328,184.701981,0.484810,0.820619,0.068319
681936615,22.368975,-48.620544,128.205231,-0.069689,1.051132,0.178871
681956614,-40.811859,-106.857582,30.673197,-0.124916,0.906653,-0.133616
681976613,-66.972092,-111.060249,-60.106705,-0.001876,0.937891,-0.055323
681996612,-34.147377,-72.788139,-121.240021,0.128487,0.650969,0.257069
682016610,-14.510530,-4.116777,-158.072235,0.844316,0.241015,0.868955
682036609,-86.337982,-3.898516,-151.331299,1.787040,-0.448745,0.737442
682056608,-5.268592,34.548805,-126.646103,1.498986,-0.420600,0.225577
682076606,50.343472,36.568108,-135.868896,0.737455,-0.095458,0.950127
682096606,-39.664181,-42.946205,-157.545731,0.779747,0.000753,0.805409
682116605,-14.785881,-48.344349,-145.810333,1.218545,-0.275412,0.433331
682136604,32.334389,-15.597109,-139.129440,1.112741,-0.066911,0.801135
682156603,-12.702985,-36.985790,-143.500351,1.073843,0.236045,0.493250
682176601,-25.941545,-32.534142,-132.205429,1.009950,0.205496,0.347494
682196600,-18.527840,-29.909018,-127.304039,0.762692,0.124388,0.443579
682216621,-17.673265,-23.767519,-122.814178,0.591453,0.093234,0.477634
682236596,-28.634420,-17.880337,-116.224960,0.597730,0.171729,0.528029
682256595,-56.012222,-27.370358,-122.227554,0.742171,0.311806,0.442682
682276594,-89.592804,-29.037573,-127.158157,1.108118,0.416662,0.276187
682296592,-123.093948,-26.574589,-103.306366,1.177291,0.429271,0.237010
682316591,-139.426590,-17.582111,-97.899796,1.098799,0.210587,0.136049
682336590,-87.063728,-34.398041,-99.643410,1.090774,0.158356,-0.076311
682356589,-52.059742,-55.529663,-132.931808,1.429525,0.319760,0.212681
682376587,-133.680664,-89.165245,-161.116776,2.253772,-0.269090,0.998527
682396586,-174.110443,-44.265537,-124.354866,1.827540,-2.258187,0.566251
682416586,120.208359,-13.894333,-77.793945,1.034592,-1.970808,0.225291
682436585,233.810791,-16.532406,-68.193802,1.113466,-0.338783,0.766188
682456584,66.103775,12.282448,-61.387695,1.184457,0.505737,0.979141
682476582,-93.956970,45.767216,-46.012444,1.099994,0.295406,0.582723
682496581,-69.290764,43.262726,-57.991524,0.936209,0.044541,0.113977
682516580,-11.999631,25.092297,-61.073811,0.957435,0.036196,0.089599
682536583,33.045296,19.631269,-66.923912,0.963663,0.118630,0.237261
682556576,43.908470,14.412714,-77.330566,0.941669,0.175409,0.240180
682576575,58.442898,5.318512,-77.864883,0.853470,0.150673,0.191419
682596574,66.805519,-6.458714,-70.508736,0.834646,0.206365,0.262800
682616572,55.328056,-16.286442,-65.821754,0.863798,0.283669,0.409950
682636571,40.515518,-14.965054,-61.208092,0.856938,0.306282,0.449030
682656570,29.805344,-14.815115,-48.658947,0.828336,0.343153,0.385054
682676569,35.100693,-17.814238,-33.007309,0.813163,0.327591,0.342268
682696567,47.762741,-11.377823,-17.082523,0.803062,0.308754,0.294203
682716566,43.675228,-4.036921,-6.936817,0.782159,0.308436,0.336322
682736566,37.117161,-7.712462,0.450760,0.773010,0.267988,0.354912
682756565,25.725508,-6.926018,1.981101,0.785621,0.239018,0.274027
682776564,33.352348,-0.475875,16.188574,0.757059,0.241178,0.185683
682796563,53.219738,3.397506,34.584648,0.796637,0.242331,0.166087
682816561,60.959644,-0.243180,48.221802,0.855647,0.307519,0.165132
682836560,61.392349,-0.180277,58.645832,0.868797,0.347868,0.158259
682856557,55.075176,5.170203,67.389664,0.883697,0.407188,0.139255
682876556,52.347157,9.404633,79.313896,0.944291,0.430156,0.175998
682896555,58.880085,5.334746,93.384071,1.033565,0.419914,0.253220
682916553,59.025669,-2.592125,107.143745,1.011482,0.404219,0.267195
682936552,44.180927,1.269768,115.287331,0.839267,0.385739,0.226249
682956551,33.415009,4.955712,120.874924,0.857173,0.419932,0.177376
682976550,26.066309,4.502542,119.018311,1.110822,0.408517,0.142980
682996549,32.074104,4.072326,117.054985,1.226070,0.377632,0.220051
683016547,29.984201,-0.846775,117.216011,1.099952,0.346359,0.255475
683036546,32.222733,-4.504399,112.556374,0.912438,0.263494,0.190279
683056546,48.484322,-6.234008,111.190445,0.834028,0.239511,0.183199
683076545,69.689995,-2.535715,107.679916,0.951126,0.238426,0.147452
683096544,93.728760,14.275038,95.578148,1.022331,0.221635,0.191299
683116542,102.576889,27.809107,76.432442,0.989873,0.353287,0.316105
683136541,74.220917,36.579655,50.061325,0.996746,0.387026,0.257277
683156540,61.320526,43.589371,42.831112,0.970275,0.463167,0.196277
683176537,41.126610,40.338932,36.759827,0.918823,0.372150,0.315647
683196536,15.037271,22.722277,28.614786,0.894117,0.252696,0.316960
683216535,15.152282,30.498764,18.715075,0.930708,0.154423,0.307437
683236533,11.214683,41.143642,8.311713,0.930706,0.083588,0.369640
683256532,2.734658,39.390732,-1.475145,0.943995,0.028892,0.391412
683276531,13.036739,43.434414,0.344101,1.088774,-0.043340,0.379932
683296530,36.346428,55.395988,9.013830,1.052125,-0.056121,0.379029
683316528,39.688396,51.509659,16.410334,0.950426,0.015734,0.396239
683336527,30.048700,48.332508,19.288122,1.003378,-0.023467,0.378037
683356526,17.927517,53.118912,19.709358,0.948582,-0.040019,0.372540
683376526,32.966328,53.116188,28.144335,0.835459,-0.103223,0.374835
683396525,53.990185,54.536022,32.958633,0.790506,-0.021320,0.422290
683416523,50.146729,53.054585,33.438866,0.830042,0.025375,0.408835
683436522,34.206409,50.216240,33.243370,0.922920,0.028609,0.397589
683456521,28.135088,46.373032,39.314796,0.917455,0.010788,0.433747
683476520,31.337664,37.074768,47.010052,0.847012,-0.006707,0.459942
683496517,27.571484,24.527229,45.427479,0.818253,-0.014027,0.464873
683516516,21.210678,17.421400,36.871101,0.840708,-0.011334,0.451284
683536515,15.391177,14.682122,32.973640,0.856681,0.033117,0.443009
683556513,21.309570,17.053274,39.729668,0.821882,0.054355,0.490677
683576512,19.671829,15.394421,44.349865,0.787907,0.032650,0.543483
683596511,8.847449,7.704678,38.681469,0.805977,-0.033696,0.552346
683616510,1.260632,4.703826,26.722775,0.840090,-0.075839,0.503898
683636508,7.614873,8.216152,25.059170,0.816156,-0.043469,0.494311
683656507,13.937283,12.362279,30.080252,0.788916,-0.021072,0.532551
683676507,11.905748,12.060264,27.871899,0.812537,-0.050607,0.542821
683696506,8.507285,13.833612,18.630987,0.815499,-0.052421,0.566595
683716505,-4.468201,9.808482,9.406920,0.781069,-0.038967,0.547342
683736503,-23.416748,1.880689,5.015407,0.684790,0.030553,0.517392
683756502,-33.111225,-7.669538,3.279142,0.695892,-0.093912,0.488403
683776500,-28.277197,-14.142153,-1.744359,0.740981,-0.139190,0.459451
683796499,-17.996145,-22.343073,-4.581099,0.776562,-0.151950,0.484451
683816496,-15.184903,-34.128723,-8.856936,0.779502,-0.096305,0.495849
683836495,-16.110037,-37.249172,-14.682455,0.822905,-0.077751,0.497278
683856494,-16.154217,-31.468370,-19.359253,0.940729,-0.129708,0.528634
683876493,-15.618778,-21.604635,-16.419872,0.976310,-0.174383,0.553121
683896491,-12.820151,-18.983536,-11.892535,0.910088,-0.176050,0.522743
683916490,-4.576017,-19.531826,-10.050672,0.888310,-0.196430,0.451232
683936489,7.779565,-12.119913,-5.801490,0.952768,-0.205115,0.448001
683956488,13.637526,-2.644261,-2.755475,0.899870,-0.136826,0.510636
683976487,11.075695,0.615367,-0.235569,0.869025,-0.114006,0.522289
683996487,7.234421,-0.561478,1.785937,0.868845,-0.149757,0.488539
684016486,8.052341,-1.814976,1.635897,0.860159,-0.166112,0.463527
684036484,12.568966,1.416230,3.964011,0.873809,-0.168807,0.479669
684056483,14.375802,4.067786,7.887793,0.837416,-0.126174,0.495431
684076482,11.790820,2.596500,8.035460,0.792552,-0.065202,0.477989
684096480,8.493679,0.912420,4.653651,0.821826,-0.078188,0.471459
684116491,6.173256,-0.486143,-0.671742,0.835660,-0.075573,0.477761
684136476,2.661528,-3.818176,-6.013327,0.830514,-0.036039,0.469440
684156475,-2.724231,-8.580290,-8.497717,0.838232,-0.041632,0.445796
684176474,-4.314423,-9.097763,-10.859098,0.896587,-0.087988,0.462785
684216471,-7.248175,-8.631967,-9.221551,0.905261,-0.095412,0.509506
684236470,-8.966366,-10.729837,-8.839425,0.923732,-0.131096,0.476308
684256469,-1.860415,-6.729090,-6.709012,0.934345,-0.165637,0.473206
684276468,3.143548,-2.079162,-3.986789,0.890590,-0.152761,0.469649
684296466,4.530674,-0.870248,-2.265957,0.853015,-0.100852,0.439466
684316466,2.350211,-3.863080,-2.766784,0.817047,-0.101901,0.439941
684336465,2.507598,-5.871558,-4.962206,0.854325,-0.107699,0.452081
684356464,3.301233,-4.209246,-4.471811,0.886208,-0.126022,0.470379
684376463,1.509112,-7.106870,-7.201448,0.824485,-0.059501,0.447209
684396462,0.585573,-8.807435,-7.797468,0.848127,-0.085156,0.430054
684416460,2.960720,-6.775882,-5.666915,0.882938,-0.097424,0.450204
684436457,1.561543,-2.803634,-3.330335,0.881206,-0.076699,0.492010
684456456,-4.076238,-4.573724,-3.691724,0.884621,-0.077149,0.484663
684476455,-6.285476,-7.287849,-3.312160,0.923184,-0.146005,0.450079
684496454,2.807940,-5.634937,-1.476556,0.953155,-0.181587,0.447370
684516453,12.247177,-1.604205,-1.309965,0.931857,-0.105669,0.480104
684536451,11.953716,-0.821938,-0.521839,0.921624,-0.058114,0.491128
684556450,6.740495,-2.864907,-3.536099,0.880827,-0.035355,0.483800
684576449,3.383029,-2.837260,-6.157857,0.889225,-0.062642,0.457031
684596447,5.290917,-0.799998,-7.969250,0.878368,-0.058620,0.436153
684616446,7.264956,-1.097220,-8.379684,0.841585,-0.042591,0.421854
684636446,6.316263,-3.044559,-11.208674,0.801051,-0.017271,0.422334
684656445,-0.045358,-7.558312,-14.974021,0.842481,-0.029527,0.433977
684676444,-4.022769,-10.020407,-13.941578,0.917609,-0.063032,0.433697
684696442,-5.478721,-10.000463,-12.187172,0.906313,-0.058719,0.457963
684716441,-7.092683,-12.625809,-12.031111,0.888826,-0.067586,0.460386
684736440,-7.069073,-15.423397,-15.103866,0.903389,-0.041658,0.445175
684756437,-4.219220,-16.071632,-15.045551,0.979082,-0.043215,0.454900
684776436,-0.638437,-12.297626,-12.974000,1.006714,-0.038859,0.469889
684796435,1.565331,-7.551901,-12.640812,0.981028,-0.039584,0.482776
684816433,2.674606,-3.596449,-12.382633,0.938841,-0.016714,0.455730
684836432,2.112172,-1.644900,-11.188216,0.892270,-0.013648,0.461234
684856431,-0.221985,-0.021188,-11.048126,0.878804,-0.049063,0.463011
684876430,-0.732649,3.240968,-10.011873,0.870527,-0.064096,0.435702
684896429,-0.483679,4.065915,-7.926933,0.857844,-0.074131,0.414475
684916427,1.240621,3.860148,-5.243712,0.855708,-0.085026,0.380506
684936426,4.603043,3.238535,-2.452099,0.850188,-0.065551,0.380151
684956426,4.883300,2.511174,0.331275,0.862575,-0.047619,0.412839
684976425,-0.216669,-0.171105,0.891085,0.851944,-0.031416,0.417682
684996424,-4.356220,-4.487101,-0.020359,0.853117,-0.042558,0.390409
685016422,-2.758698,-7.054060,-0.122410,0.860774,-0.048885,0.372522
685036421,-0.616913,-9.035734,-0.290396,0.864473,-0.026760,0.386814
685056420,-1.088014,-10.197219,-1.103707,0.890320,0.001134,0.411365
685076417,-4.849075,-10.228182,-1.831122,0.921074,-0.002290,0.414555
685096416,-7.327121,-9.839636,-3.387026,0.908425,-0.020589,0.425746
685116415,-6.447122,-9.173889,-3.979213,0.926590,-0.061616,0.406218
685136413,-1.714059,-6.760612,-3.586210,0.918905,-0.042096,0.380392
685156412,1.672654,-6.777686,-3.571205,0.897439,-0.028981,0.401136
685176411,0.941975,-9.770100,-3.113541,0.925445,-0.048196,0.389399
685196410,2.059734,-10.645274,-2.081170,0.919636,-0.052532,0.376363
685216409,5.401563,-8.919774,-1.222734,0.913450,-0.040570,0.383688
685236407,8.073650,-8.474984,-0.705003,0.911884,-0.031048,0.398759
685256407,8.586143,-7.973947,-2.495459,0.890718,-0.018821,0.402372
685276406,9.361142,-6.677964,-5.339427,0.902447,-0.011556,0.387419
685296405,10.703644,-6.688963,-5.254317,0.930394,-0.015434,0.399253
685316404,9.251398,-7.398412,-4.568127,0.943249,-0.009990,0.398478
685336402,8.144168,-5.824920,-6.272453,0.923636,-0.015129,0.391518
685356401,6.794256,-7.312637,-7.262655,0.926920,-0.023820,0.379827
685376400,6.559199,-8.763571,-6.244292,0.957388,-0.026897,0.362393
685396397,8.068777,-7.514815,-4.083438,0.964844,-0.028199,0.371428
685416396,9.659779,-6.661210,-3.213052,0.953196,-0.025489,0.378384
685436395,11.745045,-6.027415,-3.392636,0.951935,-0.014867,0.369177
685456393,13.751386,-4.486474,-2.040906,0.952931,-0.026441,0.374929
685476392,15.529888,-2.994450,1.751474,0.958026,-0.044736,0.374532
685496391,17.181126,-0.705805,2.987447,0.905828,0.001953,0.339083
685516390,16.995567,-2.608274,0.428343,0.898469,0.017917,0.332105
685536388,15.275302,-6.656593,-0.487765,0.958095,-0.007189,0.311290
685556387,16.893805,-7.959177,-0.869220,0.956821,0.003029,0.337391
685576387,16.886566,-9.427108,-1.713658,0.958883,0.018363,0.357426
685596386,15.724912,-9.911557,-1.652961,0.953942,0.021465,0.357237
685616385,15.160561,-8.320650,-0.943257,0.947981,0.018080,0.365986
685636384,15.588852,-5.003397,1.023176,0.955402,0.000565,0.372715
685656383,16.982115,-0.959925,3.962223,0.957646,-0.021950,0.365421
685676381,20.385971,2.413924,6.773532,0.939387,-0.024834,0.365556
685696379,22.920635,4.234416,9.519860,0.924469,-0.018537,0.357829
685716377,23.268103,5.053170,10.342890,0.923874,-0.025790,0.345620
685736376,24.004232,4.213460,10.578912,0.928600,-0.038484,0.348599
685756375,24.828403,2.611448,10.909181,0.914257,-0.041853,0.358723
685776374,27.278175,1.217365,11.025900,0.919189,-0.047864,0.352571
685796372,30.402632,0.568387,11.090563,0.935681,-0.041740,0.353920
685816371,31.526970,-0.535443,12.146738,0.959515,-0.030516,0.360372
685836370,31.758171,-0.083704,12.683187,0.968823,-0.024638,0.372052
685856369,32.768539,0.682934,12.545908,0.968537,-0.013550,0.390487
685876367,32.760288,2.214582,12.333820,0.964061,-0.007080,0.397639
685896368,33.875168,4.205455,11.536971,0.949170,-0.011925,0.392729
685916366,36.048878,5.778524,11.709894,0.950948,-0.019057,0.379813
685936365,38.558819,7.319536,13.378497,0.947937,-0.016506,0.375730
685956364,38.908566,8.597197,14.503409,0.911709,-0.015292,0.368779
685976363,39.791878,8.201126,15.124313,0.895129,-0.022913,0.351672
685996361,42.062077,7.350336,17.169619,0.916884,-0.024048,0.336310
686016359,44.669209,6.839286,18.695093,0.927159,-0.019525,0.337256
686036357,46.110989,5.152934,19.296499,0.932411,-0.005782,0.352513
686056356,45.686069,3.921946,19.949965,0.940394,-0.003286,0.373627
686076355,46.065414,5.081696,20.338140,0.950173,0.000932,0.390626
686096354,46.065872,6.908085,19.569925,0.941910,0.003722,0.395517
686116352,46.387581,7.160361,19.901682,0.934315,0.005718,0.371238
686136351,47.705826,8.564758,19.364939,0.909864,0.022407,0.364168
686156350,46.771992,8.129121,16.962191,0.901773,0.041511,0.365799
686176349,45.957020,5.316201,14.995240,0.896852,0.031314,0.363808
686196347,44.914768,2.810164,13.293911,0.909615,0.005883,0.365240
686216347,46.796108,2.283534,12.687357,0.914270,0.012768,0.357792
686236346,47.969269,1.842746,13.702309,0.914581,0.018918,0.368738
686256345,47.474144,1.791736,15.536239,0.927620,0.002455,0.381072
686276344,48.229664,3.300875,17.486576,0.940647,-0.004874,0.383687
686296343,51.085030,5.335451,18.923382,0.955102,0.001266,0.389485
686316341,53.019035,6.215128,19.054947,0.960472,0.012124,0.393933
686336339,53.828480,6.432815,18.807085,0.936450,0.017780,0.385121
686356337,53.269333,5.960520,18.568600,0.921990,0.016968,0.370485
686376336,53.437687,6.052610,18.795395,0.921448,0.016801,0.357985
686396335,54.911098,6.132737,20.505749,0.912211,0.026167,0.376265
686416333,54.619930,5.719790,21.702047,0.896326,0.017898,0.384716
686436332,53.953297,5.051586,21.898104,0.901627,0.002608,0.365940
686456331,55.500713,4.811475,22.028913,0.921009,-0.003197,0.351082
686476330,59.513836,4.917901,22.739635,0.930540,0.004392,0.361916
686496329,61.032913,5.165003,22.685980,0.922451,0.034735,0.380341
686516329,58.412991,4.438696,22.328871,0.926964,0.052608,0.384491
686536328,56.913269,3.392537,22.728031,0.919721,0.032059,0.373514
686556326,57.556412,3.923847,22.593498,0.910502,0.024846,0.370339
686576325,58.809208,4.499535,20.905712,0.913790,0.035162,0.371947
686596324,59.660976,4.108971,19.429321,0.940397,0.029836,0.388533
686616322,59.130299,3.121387,19.892181,0.964263,0.035319,0.387777
686636343,59.561085,3.722668,21.544144,0.944468,0.030656,0.381994
686656318,59.852432,3.947094,22.423319,0.929623,0.030252,0.382581
686676317,59.412262,4.399594,22.719648,0.922917,0.041515,0.384712
686696316,58.761642,5.501868,23.241980,0.925746,0.042476,0.386185
686716315,59.032688,6.297643,23.997068,0.937735,0.036576,0.385484
686736314,60.316509,6.731614,24.627579,0.930300,0.047292,0.386430
686756312,59.679722,7.609201,24.398533,0.912235,0.055850,0.379641
686776311,58.734188,7.636606,24.797892,0.917789,0.053628,0.385021
686796310,56.966473,7.958470,25.708828,0.926522,0.058082,0.385223
686816308,55.306351,8.374982,27.355980,0.919171,0.049886,0.373326
686836309,55.685551,7.711155,29.112703,0.907785,0.040423,0.362228
686856308,56.425701,6.071754,29.549915,0.904418,0.038954,0.381646
686876306,54.832829,4.901797,27.883045,0.924169,0.042362,0.401313
686896305,53.191494,4.755411,26.576519,0.946082,0.057547,0.395918
686916304,53.463287,5.784382,26.654205,0.932299,0.056911,0.388218
686936302,53.582924,6.978218,26.025103,0.904892,0.051396,0.387845
686956300,52.276497,6.663708,24.839399,0.903875,0.059692,0.387980
686976299,49.416279,6.827049,23.810614,0.920523,0.064617,0.401025
686996297,45.107895,5.401441,24.535896,0.925820,0.037077,0.409255
687016296,44.659264,3.841477,26.566439,0.908975,0.012902,0.371967
687036295,48.078430,4.163257,27.316898,0.890797,0.018296,0.359934
687056293,48.746769,2.013485,26.191288,0.892489,0.033930,0.381329
687076293,45.702629,0.515603,23.643406,0.918093,0.042550,0.399059
687096291,43.770214,1.750132,22.331955,0.940945,0.063039,0.403627
687116290,43.403027,3.096238,22.988668,0.916209,0.072065,0.413273
687136289,40.039047,3.265389,21.270622,0.899291,0.059429,0.426341
687156289,37.582085,3.403931,18.446663,0.922158,0.043238,0.427732
687176287,34.919037,3.410299,16.581764,0.944052,0.029204,0.419685
687196286,35.478069,3.859613,16.797554,0.920299,0.032330,0.393310
687216293,35.353569,3.267902,17.370756,0.883365,0.038612,0.396399
687236284,31.815037,1.915543,16.291147,0.878271,0.031328,0.400746
687256283,30.007341,2.060333,15.189247,0.903814,0.021253,0.401614
687276280,30.234673,3.437321,14.657613,0.904141,0.026694,0.420234
687296279,29.363289,3.175060,13.492485,0.893188,0.021036,0.421487
687316277,28.413849,2.560924,12.040531,0.900524,0.012921,0.405267
687336276,28.523354,1.486192,12.189291,0.915379,0.006495,0.397488
687356275,28.366327,0.503856,12.369246,0.901766,0.011350,0.405303
687376273,26.567305,-0.813525,11.661499,0.902506,0.020196,0.414753
687396272,24.856558,-1.193090,10.994693,0.905866,0.015496,0.415224
687416271,24.222458,-1.346356,10.451132,0.915974,-0.004435,0.409611
687436270,26.328562,-1.191345,10.623193,0.910177,0.005035,0.395725
687456270,25.613268,-0.764681,10.122970,0.900790,0.022396,0.407131
687476269,22.398352,-1.467675,9.502498,0.901761,0.024414,0.416140
687496267,20.505592,-1.618052,8.820286,0.903479,0.006024,0.416805
687516266,20.825451,-1.623483,7.853734,0.911204,-0.004525,0.402632
687536265,21.697880,-0.971823,7.504824,0.921731,0.001277,0.397997
687556264,22.064756,-0.907767,8.376781,0.922069,0.013240,0.408671
687576263,20.065342,-1.137048,8.690928,0.900792,0.017453,0.417423
687596260,17.689371,-1.879937,8.195993,0.907769,0.004960,0.412394
687616259,16.934092,-1.805860,7.279587,0.919252,-0.003095,0.412816
687636257,17.545927,-1.391185,6.644168,0.930012,-0.003470,0.408917
687656256,17.960163,-0.867173,6.442317,0.917207,-0.001537,0.410674
687676255,18.051580,-0.934238,6.829770,0.905791,-0.002134,0.402815
687696253,17.610661,-0.641928,7.111635,0.903069,0.008891,0.406905
687716252,14.757266,-0.748931,6.973166,0.892827,0.007512,0.409742
687736251,13.458872,-1.074474,6.691798,0.899950,-0.009727,0.397217
687756250,13.939001,-1.159992,6.629198,0.911128,-0.020360,0.394939
687776250,15.136885,-1.102030,6.699457,0.913396,-0.017077,0.392631
687796249,15.532315,-1.318640,6.273070,0.905072,-0.010378,0.403755
687816247,13.819801,-2.042885,5.273464,0.916427,-0.005951,0.405991
687836246,12.910963,-2.203923,4.533610,0.928075,-0.005909,0.394431
687856245,13.293349,-1.969527,4.340817,0.917208,-0.006540,0.397707
687876244,12.599154,-1.931610,3.880258,0.914745,-0.004587,0.403490
687896241,11.418311,-1.622846,3.975444,0.924240,-0.001159,0.396691
687916240,11.284829,-0.820936,4.170001,0.914030,-0.011689,0.395291
687936239,11.732432,-1.311724,3.843410,0.913766,-0.012550,0.391927
687956237,12.234046,-1.650988,3.341101,0.919518,-0.008261,0.388908
687976236,12.065853,-1.712400,3.152164,0.924159,-0.000326,0.397590
687996235,10.554469,-1.951686,3.251345,0.919877,-0.001466,0.406868
688016234,8.542259,-1.596172,3.061342,0.915740,-0.003543,0.395365
688036232,8.176018,-1.588792,2.789405,0.916264,-0.006155,0.391489
688056231,8.918449,-0.976207,2.160092,0.917822,-0.005550,0.391586
688076230,9.422811,-0.735458,1.769130,0.922261,0.004802,0.397401
688096230,8.026831,-0.761612,1.859218,0.923110,0.005578,0.395664
688136228,5.398287,-0.186154,2.674146,0.921643,0.004215,0.393573
688156227,4.736514,0.256106,2.279999,0.914900,-0.000448,0.394397
688176225,4.858880,0.404800,1.541630,0.918738,0.000285,0.394151
688196224,4.287612,0.654902,0.874364,0.924359,-0.004628,0.395834
688216221,3.716715,0.922924,0.776966,0.920949,-0.000663,0.388350
688236220,3.213557,0.985277,0.763783,0.919415,0.001422,0.392042
688256219,1.975982,0.540806,1.174216,0.921246,0.003815,0.396767
688276218,0.847494,0.613552,1.376623,0.924744,0.000813,0.395480
688296216,0.919522,1.308631,1.677117,0.919013,-0.000196,0.392702
688316215,1.045644,2.148677,2.029902,0.910531,0.004291,0.395101
688336214,-0.403040,2.275026,2.089142,0.909953,0.005968,0.403462
688356212,-1.601913,2.003573,2.019855,0.923593,-0.004539,0.400933
688376211,-1.729995,2.361660,1.882029,0.925987,-0.006720,0.391778
688396211,-1.065688,2.519436,1.779488,0.916804,-0.004081,0.397482
688416210,-2.166224,2.145339,1.018678,0.905981,-0.001683,0.402901
688436209,-3.730212,2.190994,0.060499,0.902088,-0.010536,0.400991
688456208,-3.637489,2.457172,-0.032323,0.905890,-0.016245,0.388894
688476206,-2.284932,2.920984,0.498949,0.909784,-0.012881,0.388334
688496205,-2.614918,2.487518,0.548017,0.916781,-0.014827,0.396097
688516204,-2.601825,2.029636,0.474040,0.909966,-0.009205,0.397675
688536201,-3.032408,1.357059,-0.121292,0.912762,-0.015369,0.396703
688556200,-2.033739,1.232197,-0.132887,0.921381,-0.013891,0.392115
688576199,-1.955669,1.620735,-0.157803,0.916402,-0.005792,0.397961
688596197,-2.085084,1.652634,0.063024,0.911676,-0.004094,0.401627
688616196,-2.603250,1.761098,0.118095,0.917968,-0.003880,0.400501
688636195,-2.524675,2.219931,0.450027,0.920100,-0.009868,0.391767
688656194,-1.624319,2.285648,0.369623,0.916839,-0.022332,0.392655
688676192,-0.131327,1.802624,0.699363,0.920446,-0.020821,0.389202
688696191,0.897949,1.612758,1.478254,0.916081,-0.010317,0.392554
688716191,0.493251,1.493154,1.746622,0.911533,-0.003505,0.398150
688736190,-0.140508,1.364864,1.651307,0.915860,-0.002580,0.405659
688756189,-1.064196,1.273275,1.078392,0.915780,-0.010653,0.406786
688776188,-0.300785,1.503350,0.192339,0.910333,-0.014330,0.395842
688796186,1.188374,1.894767,0.001378,0.912827,-0.009154,0.392777
688816185,1.561683,1.750797,0.418289,0.916977,-0.008142,0.399827
688836183,0.955550,0.960781,0.690616,0.918052,-0.006701,0.394069
688856181,0.887589,1.098683,0.789092,0.909869,-0.003591,0.389652
688876180,0.498539,1.106804,0.661644,0.907590,-0.000986,0.396795
688896179,0.696724,1.126944,0.197088,0.919346,-0.005934,0.405107
688916177,1.243753,0.682087,-0.031374,0.925767,-0.009492,0.401031
688936176,2.069190,1.001345,0.252183,0.911328,-0.005910,0.394901
688956175,1.984649,0.900894,-0.081347,0.902262,0.000470,0.395351
688976174,1.470736,0.328708,-0.456372,0.916743,0.005806,0.395870
688996173,1.196176,0.329842,-0.379130,0.920475,0.005233,0.405768
689016171,0.832787,0.954716,-0.676677,0.907499,0.008675,0.398379
689036171,0.743463,1.479015,-1.119407,0.909508,0.009656,0.400026
689056170,0.919626,1.609242,-0.885222,0.922440,0.006975,0.403390
689076169,0.438176,1.419843,-0.912562,0.925176,-0.000584,0.406452
689096168,0.533159,0.534419,-1.053370,0.921190,-0.002419,0.399417
689116166,1.071017,-0.253101,-1.189044,0.907453,-0.004010,0.394924
689136165,1.307033,-0.294281,-1.699091,0.900623,0.001641,0.398509
689156162,1.140330,0.001137,-2.216424,0.899921,0.009740,0.404397
689176161,-0.074177,-0.339431,-2.399315,0.913903,0.015941,0.401068
689196160,-0.172652,-0.223390,-2.103018,0.919391,0.008200,0.389201
689216159,0.965156,-0.010624,-1.577226,0.911887,0.007691,0.393330
689236157,0.367991,-0.452490,-1.853671,0.907968,0.012035,0.405173
689256156,-0.466446,-1.061715,-2.189068,0.915685,0.010766,0.404176
689276155,-1.291223,-1.228906,-2.564509,0.918651,0.008034,0.401876
689296154,-0.917360,-1.207126,-2.573915,0.919767,0.008814,0.400872
689316152,-0.220083,-0.552405,-2.374886,0.914191,0.007003,0.399475
689336151,-0.254111,0.324936,-2.295115,0.914042,0.014980,0.404003
689356151,-0.741876,0.366544,-1.844714,0.913891,0.013398,0.407583
689376150,-1.039972,0.223051,-1.728712,0.913962,0.009850,0.401162
689396149,-0.373498,0.824093,-1.612892,0.913019,0.007668,0.399727
689416148,-0.068249,0.802527,-1.150629,0.915467,0.008102,0.401934
689436146,-0.383367,0.263234,-0.895967,0.907248,0.007866,0.405047
689456145,-1.537742,-0.246247,-1.291149,0.903077,0.002442,0.400984
689476142,-1.302405,-0.490836,-1.275917,0.908856,0.003832,0.398649
689496141,-0.460697,0.020172,-0.742525,0.912059,0.005520,0.400662
689516140,-0.649793,0.327339,-0.393484,0.911733,0.010549,0.408609
689536139,-1.092777,0.191917,-0.269257,0.907159,0.006828,0.402235
689556138,-0.679796,0.419669,-0.234180,0.911943,-0.000675,0.399570
689576136,-0.015750,0.502018,-0.161593,0.914349,0.002404,0.402284
689596135,0.181954,0.327833,0.210661,0.912172,0.007927,0.403910
689616134,-0.193414,-0.021667,0.251957,0.906337,0.008549,0.406943
689636132,-0.981011,-0.394869,-0.130320,0.910139,0.006804,0.405002
689656131,-1.039704,0.115803,-0.208360,0.912736,0.003336,0.401523
689676132,-0.366678,0.473332,0.014925,0.909796,0.003359,0.405142
689696131,0.161607,0.847553,0.459176,0.910990,0.007481,0.402719
689716129,0.192248,0.819390,0.975919,0.908607,0.008810,0.396746
689736128,-0.288663,0.737128,1.031684,0.907516,0.013643,0.408884
689756127,-1.322677,-0.167794,0.934118,0.912453,0.007512,0.413406
689776125,-1.468179,-0.230981,0.380318,0.922729,-0.003963,0.408121
689796123,0.365241,0.373134,0.224817,0.919963,-0.005139,0.398078
689816121,1.678581,0.622778,0.590054,0.907606,0.008342,0.407050
689836120,-0.337182,0.222983,0.304700,0.894708,0.012829,0.415608
689856119,-1.941827,-0.345757,0.010634,0.900487,0.005519,0.402552
689876118,-0.606463,-0.250025,0.087693,0.911247,-0.004872,0.384760
689896117,1.028103,0.254889,-0.203238,0.909995,-0.000657,0.404294
689916115,0.513694,-0.460600,-0.243240,0.914223,0.009755,0.413937
689936114,-0.448086,-0.653983,0.217990,0.914292,0.013792,0.403933
689956113,-1.178346,-0.195459,-0.001134,0.921994,0.002139,0.401453
689976113,-0.353138,0.136377,-0.287583,0.924220,-0.000366,0.401240
689996112,0.906263,0.293608,-0.149661,0.912786,0.007863,0.406654
690016110,0.509052,0.136179,0.187238,0.904821,0.012016,0.411892
690036109,-1.214951,0.110706,0.225626,0.909411,0.012216,0.407283
690056108,-1.397613,0.158682,0.591011,0.915998,0.002064,0.400025
690076107,0.180736,0.061146,0.249872,0.910085,-0.006808,0.400193
690096105,1.134340,0.110786,0.024910,0.908944,0.000515,0.402076
690116103,1.431744,0.043458,0.479817,0.911863,0.008286,0.409466
690136101,0.110105,-0.416808,0.723520,0.908701,0.007651,0.404883
690156100,-0.150534,-0.661524,0.414247,0.908696,0.002738,0.404593
690176099,-0.112058,-0.534363,-0.088061,0.912669,0.000162,0.401936
690196098,1.437320,-0.340328,-0.058021,0.915585,0.005578,0.403616
690216096,1.514322,-0.202516,0.108188,0.907435,0.015813,0.401643
690236095,-0.280080,-0.594244,0.049766,0.910262,0.008818,0.406158
690256094,-1.126425,-0.464577,-0.448512,0.913596,0.006164,0.403495
690276093,-0.117594,-0.047891,-0.417012,0.919059,0.001398,0.402529
690296093,0.682512,-0.262049,-0.077726,0.917507,0.000782,0.401611
690316092,0.773967,-0.277629,-0.093272,0.907163,0.009273,0.407944
690336090,-0.232714,-0.200026,-0.408197,0.909079,0.008843,0.406145
690356089,-1.286915,-0.518030,-0.561526,0.910714,0.003041,0.403332
690376088,-0.698124,-0.243601,-0.223490,0.913038,-0.004780,0.400192
690396086,0.379198,0.105692,0.111976,0.912420,0.000309,0.399195
690416086,0.760022,-0.083157,0.719039,0.912935,0.007185,0.397635
690436083,0.577957,0.094403,1.076234,0.917865,0.011008,0.405288
690456081,0.027186,-0.246975,1.118295,0.914959,0.005649,0.414007
690476080,-0.545296,-0.263524,0.497839,0.916380,0.000306,0.404799
690496079,0.386376,-0.007988,0.264445,0.920203,-0.003650,0.394500
690516078,1.293851,-0.034538,0.024841,0.908856,0.000983,0.402889
690536077,0.247779,-0.231138,-0.250665,0.904331,0.007847,0.405748
690556075,-0.599624,-0.374037,-0.337339,0.903961,0.005414,0.400309
690576074,-0.156452,-0.244245,-0.035978,0.907836,0.000586,0.392668
690596073,0.768075,0.103343,-0.155767,0.909569,0.003749,0.400299
690616073,0.475704,-0.429922,-0.228007,0.915290,0.011211,0.409273
690636071,-0.744813,-0.405193,-0.564514,0.923996,0.007868,0.404577
690656071,-0.309065,-0.229703,-0.278526,0.921747,0.003699,0.402156
690676069,0.331960,-0.177753,-0.198096,0.913817,0.006934,0.400476
690696068,-0.043113,-0.422288,-0.537245,0.912726,0.006486,0.399286
690716067,-0.080437,-0.261420,-0.401015,0.909504,0.011078,0.404109
690736065,-0.536078,0.152643,-0.180430,0.914323,0.006623,0.404864
690756063,-0.548589,0.725359,-0.008185,0.918817,0.001439,0.398695
690776062,0.689171,1.091086,0.676043,0.908715,0.001947,0.400136
690796061,0.350036,0.337084,0.658212,0.905362,0.003409,0.402087
690816059,0.155653,-0.418896,0.305358,0.909693,0.001780,0.402611
690836058,-0.111394,-0.433425,0.299045,0.918318,0.004192,0.399742
690856057,0.361671,-0.433483,0.570460,0.915797,0.006650,0.402598
690876055,0.186567,-0.313056,0.129952,0.907879,0.003035,0.405037
690896054,0.193095,-0.505619,-0.279569,0.907846,0.005191,0.403179
690916053,-0.134692,-0.444369,-0.422736,0.913858,0.010160,0.403619
690936053,-0.643474,0.052507,-0.460661,0.916477,0.003234,0.399921
690956052,0.327270,0.469763,-0.330199,0.915036,0.003899,0.399805
690976051,0.105142,0.257503,-0.199033,0.913950,0.005044,0.401966
690996049,-0.376480,0.022712,-0.150173,0.912318,0.009237,0.400334
691016048,-0.301795,-0.349868,0.117151,0.913057,0.002955,0.394418
691036047,0.003171,-0.344710,-0.226235,0.916899,0.001684,0.400223
691056055,-0.026411,-0.168223,-0.006519,0.916333,0.007318,0.405603
691076043,-0.460617,-0.037585,-0.050724,0.908884,0.007741,0.405066
691096042,-0.590280,-0.044451,0.033492,0.911569,0.000673,0.404289
691116040,-0.070693,0.166753,-0.144623,0.911894,0.002266,0.401714
691136039,0.091265,0.518354,0.134218,0.907697,0.006170,0.401520
691156038,0.236853,0.604237,0.649919,0.906596,0.011228,0.403986
691176037,-0.475013,0.065141,0.708810,0.915361,0.008889,0.405934
691196036,-0.818703,0.018335,0.277430,0.929321,0.001399,0.405095
691216034,-0.421143,0.215418,0.267121,0.925387,-0.004719,0.403690
691236033,1.037493,0.562954,0.456465,0.906791,0.002581,0.403482
691256033,0.381465,0.601013,0.048925,0.899639,0.009856,0.405761
691276032,-0.863935,0.191340,-0.255102,0.906457,0.008115,0.402208
691296031,-1.079052,-0.099539,-0.625168,0.911713,-0.003976,0.397247
691316029,0.269859,-0.391856,-0.364028,0.912699,-0.001124,0.394750
691336028,1.078105,-0.513755,0.141988,0.910490,0.005311,0.402839
691356027,0.031389,-0.854976,-0.079664,0.912668,0.005086,0.403047
691376025,-0.381514,-1.060103,-0.168040,0.918118,0.004420,0.402656
691396023,0.147715,-0.443565,-0.082060,0.927469,0.003876,0.403944
691416022,0.767633,-0.010244,0.011936,0.918765,0.005989,0.405283
691436020,0.830902,0.477422,-0.020961,0.908717,0.012450,0.403532
691456019,-0.451838,0.221171,-0.150728,0.901698,0.012156,0.404378
691476018,-1.352677,0.092675,-0.450004,0.911590,0.005744,0.402934
691496017,-0.825098,0.358263,-0.408022,0.920286,-0.004013,0.394689
691516016,1.075682,0.585222,0.349799,0.911262,-0.005013,0.393975
691536014,1.426322,0.509014,0.568924,0.901649,0.004685,0.403124
691556013,0.034622,-0.197541,0.282110,0.896831,0.005065,0.403526
691576014,-0.107555,-1.242022,0.226699,0.909131,-0.001102,0.397359
691596012,0.549620,-0.992087,0.260561,0.916247,-0.002426,0.391614
691616011,1.107462,-0.779958,0.302647,0.906342,0.002784,0.391616
691636009,0.703966,-0.633018,0.501407,0.891258,0.004774,0.393988
691656008,-0.835892,-0.393570,0.233779,0.879501,-0.003458,0.398466
691676007,-1.278664,-0.373610,-0.653411,0.897958,-0.017191,0.399957
691696004,0.843358,-1.684175,-0.809150,0.933244,-0.008553,0.401548
691716003,3.078914,-5.015245,0.753602,0.954406,0.005845,0.397161
691736002,3.112785,-6.084027,2.126173,0.958671,0.024634,0.388797
691756001,-0.349055,-4.219576,2.521101,0.944778,0.043130,0.409262
691775999,-5.023210,-5.443587,2.114838,0.917116,0.010387,0.417969
691795998,-1.730776,-5.864972,0.407057,0.938895,-0.038064,0.405889
691815997,4.412798,-3.249318,-2.353426,0.973069,-0.052833,0.396426
691835996,7.815631,-1.341423,-3.213545,0.969480,-0.029365,0.392107
691855994,6.293469,-0.568609,-3.552065,0.946301,0.001961,0.399602
691875993,3.169962,-1.287574,-4.271674,0.940797,0.003315,0.397154
691895993,0.297214,-2.278929,-4.390846,0.963159,-0.030998,0.370268
691915992,0.774386,-3.245996,-2.200033,0.957217,-0.067907,0.348701
691935991,5.510120,-2.294944,1.824470,0.941960,-0.061005,0.350995
691955990,11.536155,3.983870,4.549838,0.958424,-0.028357,0.388970
691975989,14.523785,11.303347,7.861917,0.923982,0.011368,0.426780
691995988,9.666695,13.148160,9.737578,0.885220,-0.009458,0.419595
692015985,10.168089,15.917931,10.444670,0.920720,-0.096980,0.391105
692035984,17.569019,19.420412,12.188429,0.929596,-0.119243,0.385789
692055982,24.632202,20.556313,16.376245,0.900254,-0.097583,0.388536
692075981,25.618673,20.699991,19.965572,0.897180,-0.070122,0.409884
692095980,24.699791,21.067904,24.702488,0.920139,-0.052513,0.416595
692115979,26.931011,24.667938,29.516754,0.925777,-0.044232,0.438234
692135977,19.453468,23.915556,32.069702,0.928250,-0.037084,0.477646
692155976,21.389889,24.787527,37.064869,0.955351,-0.104770,0.457066
692175975,30.848684,32.281895,44.153862,0.958850,-0.106133,0.436873
692195974,35.089127,36.459572,49.777058,0.915608,-0.082845,0.475576
692215974,31.689466,33.262039,53.675144,0.886840,-0.099461,0.504184
692235972,24.559713,26.831537,56.966583,0.915812,-0.159025,0.463157
692255971,28.430656,27.065205,61.963402,0.927580,-0.215255,0.419900
692275970,40.227104,30.820892,65.053818,0.865641,-0.244767,0.444814
692295969,50.465553,34.315163,66.746651,0.814134,-0.196692,0.475483
692315968,49.570393,32.098488,66.677200,0.807089,-0.189070,0.476754
692335965,45.934341,29.260422,67.413414,0.803507,-0.206058,0.472236
692355964,41.381832,26.093266,68.968437,0.782300,-0.223561,0.462805
692375963,37.663616,20.349989,69.634598,0.775320,-0.212968,0.474886
692395961,35.625454,13.418289,69.910904,0.767607,-0.294384,0.472319
692415960,47.345112,9.154574,70.142677,0.858906,-0.384378,0.423631
692435959,66.743507,7.424843,72.258118,0.897693,-0.389408,0.396369
692455957,82.340065,8.466597,72.866089,0.851711,-0.288602,0.461037
692475956,81.562172,5.424863,70.907608,0.835441,-0.195222,0.489084
692495955,77.155197,0.952141,70.560448,0.858637,-0.202732,0.494085
692515955,76.090019,-1.941594,72.349075,0.870265,-0.240753,0.503451
692535954,76.977745,0.298762,72.585640,0.861702,-0.200970,0.513791
692555953,79.181442,5.131602,71.983719,0.852980,-0.169642,0.511124
692575952,75.061523,4.966867,71.782906,0.842481,-0.151684,0.549874
692595950,71.244003,-0.696959,71.446045,0.836792,-0.183386,0.555868
692615949,72.326065,-5.840286,71.221252,0.819155,-0.197439,0.564116
692635948,78.573936,-8.319260,65.025681,0.763601,-0.065110,0.549483
692655945,73.307610,-14.042967,51.047306,0.703763,0.058416,0.605818
692675944,50.946682,-18.567804,40.204121,0.727746,-0.010820,0.561241
692695942,43.510601,-14.666673,36.762703,0.789905,-0.133605,0.674490
692715941,45.335133,-8.458444,43.056473,0.834205,-0.187981,0.618396
692735940,52.050457,-0.137065,47.623676,0.741853,-0.095646,0.644964
692755939,41.659668,-8.452632,45.345436,0.674612,-0.086485,0.505770
692775938,33.203037,-15.792139,42.613186,0.639628,-0.124442,0.494964
692795936,29.712210,-23.195812,40.557674,0.625997,-0.095775,0.565900
692815935,19.200409,-31.136385,36.872417,0.680751,-0.128420,0.532017
692835935,22.707872,-32.600231,32.501015,0.796926,-0.256372,0.497662
692855934,24.207062,-38.314350,32.755646,0.695878,-0.189524,0.477192
692875933,22.232771,-41.335030,32.945541,0.553092,-0.155014,0.555495
692895931,5.660066,-57.861359,23.992155,0.540207,-0.156731,0.511699
692915931,2.951424,-66.601578,12.181587,0.723121,-0.411945,0.367046
692935929,35.776318,-57.048523,3.993841,0.995533,-0.545353,0.481389
692955927,57.452431,-47.919243,6.072448,0.999584,-0.297700,0.622386
692975925,44.505699,-50.559525,10.885542,0.774724,-0.156555,0.579186
692995924,15.443555,-68.273911,7.762488,0.695575,-0.203435,0.387646
693015923,11.291773,-77.783493,0.126433,0.736955,-0.313599,0.259406
693035921,25.006037,-80.645195,-5.159183,0.750865,-0.407851,0.078014
693055920,80.294434,-73.865135,-4.226574,0.934582,-0.568361,0.142715
693075919,158.260391,-33.781288,-22.668455,1.312408,-0.582130,0.407337
693095918,192.103073,24.353565,-32.836525,1.262656,0.011469,0.833913
693115917,130.796585,-25.411102,-0.535272,0.831358,0.269043,0.667535
693135915,61.978310,-80.098114,19.853649,0.936680,-0.132635,0.063980
693155916,93.732613,-61.121216,25.527260,1.055699,-0.530751,0.053600
693175914,157.846268,-37.988136,11.693906,1.095926,-0.514182,0.152994
693195913,217.375092,-11.448785,10.929311,1.122422,-0.237655,0.267685
693215912,246.856323,8.172814,25.896767,1.068935,0.116898,0.430997
693235911,228.811310,6.534021,46.102066,0.971764,0.400886,0.553541
693255909,149.203690,-5.002799,40.605721,0.897968,0.590008,0.573791
693275907,79.624825,-15.682728,38.486984,0.871575,0.462937,0.504055
693295905,51.546219,-8.408617,31.385693,0.941873,0.239759,0.436586
693315904,48.515491,0.961736,31.037889,0.931713,0.105590,0.390383
693335903,45.727058,5.462608,26.569412,0.914939,0.079940,0.351841
693355902,43.802223,5.678388,19.395855,0.890973,0.119610,0.318791
693375900,44.478794,-0.361410,9.867781,0.854038,0.162974,0.289567
693395899,35.573811,-14.676275,-0.946897,0.822863,0.177622,0.275984
693415898,26.572752,-29.784346,-13.490189,0.868900,0.188675,0.258947
693435897,25.056906,-34.594719,-25.574800,0.938782,0.177373,0.265114
693455897,27.269274,-31.063290,-27.272768,0.990287,0.142017,0.348271
693475895,28.535242,-32.611259,-13.524335,0.995172,0.072240,0.428112
693495894,32.323498,-34.751526,0.633224,1.059007,0.002317,0.451721
693515893,41.943268,-24.753551,16.510162,1.118595,-0.089260,0.474070
693535892,41.562271,-10.341558,35.969265,1.070416,-0.101054,0.518736
693555891,30.587906,9.545054,53.932076,1.086709,-0.175153,0.548498
693575892,7.373401,11.769678,88.407440,1.106966,-0.539875,0.546461
693595887,55.037285,-23.957348,124.258514,1.027999,-0.565786,0.130755
693615886,142.911621,53.704639,107.364075,1.171211,-0.320484,0.192918
693635884,166.214447,98.413246,73.268318,0.986965,0.152051,0.402905
693655883,134.825043,72.179001,71.410408,0.937147,0.491283,0.453928
693675882,74.292679,46.205582,73.560104,0.906642,0.370296,0.390351
693695881,36.766689,48.148350,62.103325,0.795477,0.113710,0.412968
693715880,29.098808,46.571426,57.813885,0.837175,0.013949,0.421397
693735878,36.498245,48.530678,55.666187,0.883558,0.031325,0.503692
693755877,39.333969,42.893463,58.490536,0.885715,-0.101548,0.375772
693775877,63.483284,53.062378,54.481266,0.901836,-0.050868,0.364665
693795876,55.166618,41.617004,49.433990,0.834672,0.049715,0.483944
693815875,34.496418,28.407917,52.742012,0.758847,0.003518,0.484803
693835874,31.928999,25.624613,54.415413,0.770412,-0.106921,0.560046
693855872,19.702833,6.755136,49.206867,0.849207,-0.195523,0.450277
693875871,40.502266,11.791416,44.597816,0.879590,-0.282941,0.459589
693895869,50.262333,4.436259,44.571373,0.869682,-0.233199,0.515917
693915867,61.135555,1.619305,47.125854,0.817083,-0.144632,0.465044
693935866,55.574745,-7.977013,44.542583,0.721165,-0.230588,0.535544
693955865,40.310776,-18.401781,33.458145,0.799876,-0.210259,0.471899
693975864,43.672291,-18.315134,27.932877,0.788781,-0.163195,0.440963
693995862,43.673534,-21.159191,26.319506,0.722795,-0.195805,0.440252
694015861,38.463104,-23.009163,27.066031,0.646836,-0.185040,0.476447
694035860,29.895794,-30.066494,29.158579,0.729856,-0.212857,0.389869
694055859,35.728481,-25.859690,30.564342,0.744751,-0.230439,0.441097
694075857,46.073818,-28.681810,30.073917,0.734256,-0.172624,0.419123
694095857,45.833729,-32.584633,28.550037,0.756150,-0.170301,0.429615
694115856,47.500862,-26.492292,26.295801,0.762709,-0.140142,0.552178
694135855,39.413902,-32.500214,18.312279,0.794102,-0.072358,0.551908
694155854,36.081463,-26.343462,8.906816,0.900221,-0.074022,0.580185
694175852,33.380898,-11.914122,-3.479980,0.981985,-0.135079,0.614602
694195851,41.540020,-9.244105,-3.194983,0.990954,-0.077804,0.488389
694215849,33.519039,-13.670786,-0.767284,0.857546,0.010524,0.529838
694235847,21.859211,-29.136324,-3.326482,0.773475,0.030476,0.382921
694255846,15.011029,-28.956844,-1.677355,0.834964,0.017086,0.421327
694275845,5.601722,-28.213070,-1.554154,0.858110,-0.114257,0.463166
694295844,9.432961,-39.981731,4.910732,0.855122,-0.171396,0.442578
694315843,11.553638,-46.756508,6.998775,0.889167,-0.259676,0.435155
694335841,27.922976,-41.846489,6.954939,0.928464,-0.321511,0.371372
694355840,44.201283,-28.682837,7.588443,0.906751,-0.270044,0.429106
694375839,68.968239,-23.024584,14.418249,0.897981,-0.217003,0.349209
694395838,76.405968,-30.996361,13.212120,0.782249,-0.140944,0.321791
694415838,74.051163,-52.681343,5.387469,0.795168,-0.137048,0.251077
694435837,90.580841,-52.038582,-0.481644,0.959983,-0.174767,0.209897
694455835,122.448067,-25.917881,-3.040617,1.071688,-0.163255,0.290477
694475834,142.105347,-7.751224,-3.417943,1.018201,-0.032873,0.447838
694495833,130.960663,-9.641324,-1.777806,0.967651,0.163063,0.514920
694515832,107.952644,-12.460155,4.457535,0.993333,0.218620,0.445913
694535829,72.061638,-9.779819,6.554761,0.982311,0.129329,0.485302
694555828,53.099720,-10.085085,11.392347,1.002970,-0.026701,0.456346
694575827,55.452431,-3.335494,16.374161,1.023080,-0.099261,0.421451
694595825,67.579872,5.774011,21.521013,1.026366,-0.064993,0.368873
694615824,83.737343,13.956982,24.997000,1.017137,0.006732,0.348796
694635823,88.594940,19.853981,28.527367,0.985990,0.081790,0.370407
694655822,85.319687,20.168243,35.045937,0.949648,0.072146,0.373199
694675821,78.424545,17.959509,41.204910,0.947364,0.060875,0.357204
694695819,74.364822,17.151375,45.300358,0.968383,0.047849,0.335633
694715820,69.403015,14.534834,46.953545,0.954359,0.065040,0.334589
694735818,64.625267,9.115406,46.126011,0.932380,0.071122,0.333179
694755817,60.606102,6.168008,44.455482,0.931328,0.051282,0.323714
694775816,61.686684,2.336723,44.346321,0.913837,0.032593,0.313152
694795814,65.542961,-1.699707,44.430603,0.915836,0.054136,0.322328
694815813,66.707184,-3.674730,41.842857,0.933014,0.079606,0.355312
694835812,60.263245,-4.558875,38.053841,0.936755,0.091094,0.394944
694855809,54.488564,-6.127624,36.643456,0.907225,0.083101,0.415202
694875808,50.310295,-8.999178,36.417179,0.902870,0.071044,0.417441
694895807,45.972298,-6.684483,34.739449,0.919273,0.065432,0.411672
694915806,44.191757,-2.403881,34.310215,0.948961,0.056098,0.419594
694935805,46.643295,1.479965,34.737370,0.959205,0.049400,0.430473
694955803,44.721725,3.269471,34.707638,0.946107,0.057811,0.439790
694975802,41.263168,4.276442,34.361702,0.933147,0.040268,0.446131
694995801,35.723206,5.444299,34.556499,0.926110,-0.001190,0.448066
695015800,29.880512,5.308992,36.346848,0.910881,-0.024827,0.438151
695035800,27.390512,7.432354,40.505436,0.936607,-0.085480,0.436879
695055799,36.036423,12.468670,46.507381,0.936848,-0.128339,0.447026
695075797,45.502174,15.403847,48.837029,0.914678,-0.122080,0.470423
695095796,52.376091,17.642069,45.702553,0.925065,-0.107358,0.459994
695115795,55.718323,21.683197,41.177757,0.939498,-0.060132,0.446461
695135794,52.134583,23.761204,39.885223,0.908464,0.006905,0.479416
695155792,38.477253,21.221775,41.387794,0.894468,0.013030,0.492863
695175790,25.213060,19.185783,46.419983,0.923458,-0.066911,0.501681
695195789,23.922649,19.611221,55.071991,0.921703,-0.146593,0.521131
695215787,32.029175,22.010736,59.431698,0.885623,-0.173728,0.515347
695235786,43.630302,30.359221,56.445515,0.875906,-0.128958,0.523135
695255785,45.241467,38.097553,49.062119,0.843458,-0.051469,0.496625
695275784,39.774776,39.384525,42.181057,0.806663,0.010120,0.496129
695295783,27.631994,31.848129,37.528706,0.787803,0.011635,0.491446
695315781,18.881742,23.905737,32.885487,0.784115,-0.043405,0.495812
695335780,14.896137,18.576097,28.915401,0.790449,-0.108082,0.508545
695355780,16.354082,15.601858,28.055901,0.784442,-0.133920,0.523659
695375779,17.898335,14.697649,28.030149,0.768817,-0.141036,0.536837
695395778,18.275196,13.786379,27.424614,0.762751,-0.149427,0.557703
695415777,18.941561,12.966180,25.274673,0.770197,-0.161405,0.563891
695435775,19.940037,11.463190,22.434772,0.773378,-0.152753,0.563334
695455774,19.099642,9.726332,20.653042,0.768893,-0.140949,0.562104
695475771,16.777063,7.329135,20.256556,0.768887,-0.154310,0.574988
695495770,16.535378,4.576479,20.102951,0.780343,-0.174270,0.594657
695515769,15.156451,3.423802,18.997374,0.776510,-0.174449,0.595533
695535768,13.522018,3.058949,18.261759,0.748660,-0.160377,0.597499
695555766,11.381432,0.541985,16.823874,0.739795,-0.158788,0.606416
695575765,10.041698,-1.919349,14.720939,0.760210,-0.176254,0.604062
695595764,10.950046,-3.190275,12.533942,0.763413,-0.169061,0.596960
695615763,10.762218,-3.999682,10.547443,0.748787,-0.168425,0.607020
695635761,9.279831,-4.347613,8.633160,0.757005,-0.182974,0.612525
695655760,8.634679,-3.542366,7.606545,0.771120,-0.194489,0.616493
695675761,10.756792,-3.154095,7.123932,0.763276,-0.179607,0.622114
695695759,10.467658,-2.803318,5.330220,0.756984,-0.154338,0.618926
695715758,6.670971,-2.234313,4.068295,0.760118,-0.144728,0.615344
695735757,4.497407,-2.086136,3.469606,0.774401,-0.160655,0.609803
695755755,2.257708,-3.021313,2.701344,0.774573,-0.153454,0.617813
695775754,0.955441,-4.302370,3.533828,0.755197,-0.162679,0.605080
695795751,0.584275,-5.245262,2.240311,0.758696,-0.175152,0.602662
695815750,1.269382,-5.376574,0.664715,0.774869,-0.189588,0.615178
695835749,1.345480,-3.680376,-0.179249,0.788837,-0.179947,0.610792
695855748,-0.362541,-0.310681,0.307235,0.768018,-0.163134,0.605034
695875747,-0.574763,-0.071396,0.801076,0.750757,-0.169257,0.608968
695895745,-4.793727,-3.426119,-0.045968,0.745445,-0.175491,0.597426
695915744,-3.776009,-4.286935,-0.890241,0.760902,-0.185543,0.584874
695935743,-2.089308,-3.983442,-1.826440,0.775231,-0.194293,0.591812
695955741,-3.086005,-6.696156,-2.045169,0.769666,-0.172752,0.602371
695975740,-3.478915,-10.812903,-2.123504,0.759650,-0.162656,0.594270
695995741,-2.765476,-13.436541,-0.207437,0.781177,-0.202205,0.555962
696015739,-2.083170,-14.747697,3.526664,0.804281,-0.223949,0.582617
696035738,-2.885898,-10.223021,3.699803,0.820710,-0.216402,0.607113
696055737,-1.724394,-6.599717,4.703982,0.804095,-0.195168,0.598866
696075736,-1.100589,-6.974566,4.816822,0.776994,-0.169273,0.570465
696095734,-0.252420,-6.408206,2.522981,0.775458,-0.177847,0.547139
696115732,1.760070,-8.152254,0.918234,0.782127,-0.186603,0.567682
696135730,-2.452024,-10.239676,2.033642,0.819599,-0.216101,0.575627
696155729,-3.189068,-6.428713,2.893657,0.825092,-0.234187,0.571399
696175728,-0.127334,-4.274077,4.040201,0.789057,-0.219282,0.574912
696195727,0.699811,-5.001703,2.215882,0.759309,-0.208968,0.565515
696215726,-2.309512,-7.194502,-0.534190,0.770010,-0.210737,0.565741
696235724,-3.256279,-7.390101,-0.536578,0.804083,-0.225862,0.556648
696255723,-2.009098,-3.319991,-0.135162,0.805976,-0.243205,0.560856
696275722,2.518617,-0.798421,0.463470,0.794803,-0.231357,0.565487
696295722,5.252669,0.020058,-0.593838,0.783831,-0.212172,0.574842
696315721,1.163758,-3.141598,-2.468261,0.792300,-0.211126,0.565242
696335720,0.140893,-3.342683,-2.059913,0.815221,-0.214348,0.558225
696355719,-0.946623,-2.762362,-0.910076,0.804714,-0.209756,0.552302
696375717,-0.456473,-2.439162,0.013339,0.796976,-0.204201,0.566916
696395716,-3.032040,-3.463283,-0.411015,0.802648,-0.193859,0.554773
696415720,-3.276653,-3.401484,-2.013638,0.810942,-0.197764,0.554643
696435712,-5.807843,-4.628179,-3.333998,0.806369,-0.201033,0.560850
696455711,-9.261447,-5.935102,-2.803142,0.806499,-0.212543,0.538042
696475710,-9.472250,-3.955904,-0.379364,0.800782,-0.210827,0.528836
696495708,-8.279259,-1.905039,1.908489,0.804178,-0.228386,0.526495
696515707,-5.323152,-2.660679,1.890812,0.799702,-0.218408,0.531040
696535706,-9.837420,-5.615048,1.689245,0.809490,-0.221363,0.516954
696555705,-10.944499,-7.889452,5.443486,0.828366,-0.273053,0.483914
696575703,-5.578431,-7.249952,6.821951,0.838989,-0.316566,0.514518
696595702,-0.121300,-8.225244,6.991428,0.821481,-0.286698,0.549275
696615703,3.205461,-11.109681,5.264258,0.821329,-0.247818,0.540740
696635701,-1.194888,-13.827611,1.892178,0.811881,-0.256543,0.539593
696655700,-1.838842,-12.799715,1.191321,0.808489,-0.252469,0.495256
696675699,0.753298,-8.338598,2.853909,0.787126,-0.252734,0.515022
696695697,0.662871,-6.484267,3.111893,0.781519,-0.266236,0.522379
696715696,1.170670,-5.496547,2.664335,0.800455,-0.285136,0.519302
696735694,3.584148,-4.693620,1.350184,0.825139,-0.298968,0.504074
696755692,5.988616,-4.246540,0.569641,0.812929,-0.280956,0.505864
696775691,7.139236,-4.728061,2.641187,0.802226,-0.286636,0.486961
696795690,9.818761,-4.496966,4.748113,0.803009,-0.290771,0.504090
696815689,8.866859,-7.569314,5.913888,0.817097,-0.297672,0.500142
696835688,10.531693,-8.874309,6.672133,0.828109,-0.309840,0.491957
696855686,13.259278,-9.663079,7.582769,0.828174,-0.315470,0.492500
696875685,16.457922,-9.290720,9.230725,0.812785,-0.290006,0.489491
696895684,17.972486,-8.511402,10.474165,0.808190,-0.247000,0.489514
696915683,17.196701,-9.704766,10.809889,0.809052,-0.256949,0.481648
696935683,17.222624,-10.681351,10.700208,0.817947,-0.262874,0.481008
696955681,17.182480,-11.057277,10.185340,0.823605,-0.249502,0.489981
696975680,18.239491,-10.166029,10.632432,0.833521,-0.226608,0.490915
696995679,16.803320,-9.075177,11.500371,0.828102,-0.235107,0.498835
697015678,14.669328,-8.526951,10.056161,0.837009,-0.255545,0.494131
697035677,16.835632,-6.776423,9.042818,0.824774,-0.259631,0.489054
697055674,19.666075,-6.706553,9.379141,0.798209,-0.257453,0.493861
697075673,20.118803,-7.760558,9.275460,0.801490,-0.251558,0.485047
697095672,21.252268,-8.383265,8.870340,0.814859,-0.228541,0.487017
697115670,20.513571,-9.915008,10.240939,0.847605,-0.213225,0.481456
697135669,19.217216,-9.973831,11.554214,0.845204,-0.205728,0.493539
697155668,17.177145,-10.620188,10.707738,0.846140,-0.208723,0.482558
697175667,17.755438,-9.053394,8.585378,0.856476,-0.229107,0.458346
697195666,15.921669,-7.860298,6.627717,0.833377,-0.259708,0.470989
697215664,17.373159,-7.091807,3.897041,0.837395,-0.250353,0.469974
697235664,18.737997,-5.424342,2.576162,0.849328,-0.249901,0.481124
697255663,16.775702,-9.183125,3.096122,0.851575,-0.251169,0.446687
697275662,14.671659,-10.798506,5.324462,0.851917,-0.289624,0.408970
697295661,19.503918,-10.434055,9.518369,0.800242,-0.328323,0.435953
697315660,25.437689,-14.093813,11.498880,0.763102,-0.297578,0.458458
697335658,31.505449,-20.080833,13.208153,0.777422,-0.249821,0.437345
697355680,31.857779,-26.480902,14.466649,0.828562,-0.235654,0.404166
697375654,29.911392,-26.837852,15.229493,0.873354,-0.288840,0.381170
697395653,40.401169,-23.537731,17.947971,0.893139,-0.338539,0.399646
697415652,53.810684,-22.741262,25.102474,0.881100,-0.251288,0.475719
697435651,47.924129,-24.060390,26.450031,0.863011,-0.194565,0.467824
697455650,41.112228,-28.881996,25.059128,0.901375,-0.251506,0.407970
697475648,46.532673,-33.196423,28.587620,0.917267,-0.306803,0.397942
697495647,52.845482,-34.147346,31.215260,0.874588,-0.242155,0.424614
697515646,52.531265,-37.424126,28.191816,0.843293,-0.147901,0.421574
697535645,44.627037,-42.029850,21.774166,0.849135,-0.177322,0.413419
697555645,54.686794,-43.563168,17.897499,0.892115,-0.276725,0.340764
697575644,58.451569,-49.172871,17.388975,0.837420,-0.233471,0.417356
697595642,46.742836,-59.696426,8.507752,0.782757,-0.094789,0.282594
697615641,46.479889,-58.792313,-6.982592,0.836859,-0.102354,0.291555
697635640,45.067146,-48.709518,-12.158995,0.959592,-0.102152,0.468380
697655638,41.396076,-36.281303,-9.584394,0.974460,-0.080212,0.473574
697675636,42.245461,-29.577126,-5.431431,1.011030,-0.260344,0.384764
697695635,53.096329,-18.922009,-4.784562,1.038989,-0.284676,0.377574
697715634,61.430862,-8.062374,-4.309510,1.019672,-0.203839,0.413902
697735632,58.547520,-3.194425,-3.725658,1.015845,-0.190468,0.402438
697755631,51.749477,2.761241,-1.175825,1.042847,-0.243743,0.385011
697775630,52.605507,10.679564,4.985427,1.053913,-0.291678,0.405836
697795629,52.229027,20.810223,12.266984,1.044136,-0.372256,0.401685
697815628,59.078705,32.590958,24.538809,0.992615,-0.483402,0.397492
697835626,88.542267,35.276688,39.324745,0.917958,-0.429754,0.192503
697855625,115.202591,37.107632,39.247856,0.883246,-0.216634,0.245160
697875625,118.822472,28.212158,38.777695,0.942138,-0.146665,0.317651
697895624,124.619278,28.546297,50.095505,1.014313,-0.132953,0.385485
697915623,123.436195,35.300518,62.077240,1.004707,-0.039653,0.468603
697935630,117.729088,47.425377,68.659775,1.042281,0.084869,0.510123
697955621,102.722565,68.107452,70.093636,1.009349,0.164740,0.585916
697975619,74.732613,77.041245,72.255615,0.917875,0.129837,0.673099
697995617,54.555454,80.077332,71.832458,0.858602,0.037771,0.650383
698015616,43.736736,78.467758,66.820419,0.782918,-0.032792,0.594060
698035614,39.343895,71.385635,57.996567,0.754410,-0.079927,0.523257
698055613,42.317287,65.558990,48.145458,0.756451,-0.146238,0.510796
698075611,49.737267,62.585972,41.361633,0.751285,-0.152048,0.516397
698095610,54.900917,59.501011,38.623867,0.717294,-0.097236,0.535554
698115609,49.949421,51.293137,36.555878,0.653744,-0.062869,0.581454
698135608,38.251381,39.361946,31.571846,0.616274,-0.062811,0.625316
698155607,23.806211,28.973051,25.377474,0.621169,-0.080819,0.651000
698175605,11.340692,18.870499,24.522694,0.608420,-0.083351,0.645803
698195605,5.216006,7.524386,24.070150,0.557001,-0.128484,0.623722
698215604,1.772199,-4.333695,20.111988,0.568010,-0.179905,0.585126
698235603,0.014757,-14.551412,17.377377,0.602996,-0.170045,0.570002
698255602,1.726733,-22.161261,18.376768,0.589709,-0.127187,0.610349
698275600,-1.012239,-28.797455,17.834213,0.556821,-0.101148,0.647016
698295599,-13.478197,-38.684616,14.128711,0.609434,-0.111258,0.653722
698315596,-27.680132,-49.549656,10.610353,0.715360,-0.150972,0.620918
698335595,-28.285610,-50.808922,16.508312,0.768222,-0.206347,0.653862
698355594,-27.668369,-52.497219,30.837891,0.654580,-0.337110,0.711464
698375593,-13.882459,-59.517818,39.530788,0.650838,-0.431386,0.680128
698395592,-0.550821,-59.980183,39.981140,0.847471,-0.508069,0.682191
698415591,15.586124,-44.216484,38.886047,0.981409,-0.511206,0.686781
698435589,39.344986,-20.004997,38.964146,0.861666,-0.321461,0.707927
698455588,45.362076,-7.861819,30.461548,0.704267,-0.142336,0.699759
698475587,31.974503,-15.056881,19.802256,0.649825,-0.089660,0.641026
698495587,7.299591,-22.058039,11.207470,0.725628,-0.148788,0.547376
698515586,-8.166682,-17.964136,9.914479,0.848778,-0.257731,0.473121
698535585,5.893775,-8.488169,17.946184,0.844994,-0.283742,0.517540
698555583,22.473862,-3.046196,22.526970,0.771096,-0.249246,0.595260
698575582,21.874548,-3.879985,21.598770,0.794272,-0.237831,0.639558
698595581,12.420924,-6.044130,21.097010,0.836793,-0.210860,0.624338
698615579,3.450530,-9.423236,21.958832,0.798430,-0.238229,0.630575
698635577,1.611343,-11.387152,23.192030,0.747811,-0.267048,0.606336
698655576,5.193301,-8.628242,21.802881,0.720838,-0.282816,0.582499
698675574,3.760957,-6.056013,16.622616,0.722816,-0.315110,0.583927
698695573,3.426553,-3.944168,14.737536,0.738785,-0.339408,0.573972
698715572,7.707723,-1.918938,15.035572,0.729710,-0.347625,0.596172
698735571,14.196516,0.757163,15.616946,0.722346,-0.350512,0.599517
698755570,18.235313,1.538953,15.648148,0.700240,-0.326098,0.614791
698775568,13.637639,-1.140294,13.903051,0.693011,-0.315038,0.601961
698795567,7.802874,-5.782277,12.377684,0.713624,-0.331829,0.564480
698815567,8.075087,-11.344276,13.442761,0.732552,-0.352661,0.534342
698835566,14.295810,-15.754358,16.565262,0.751848,-0.354339,0.540947
698855565,19.722057,-16.996006,18.453537,0.771583,-0.341242,0.564296
698875564,18.827608,-15.693370,17.653788,0.804775,-0.338062,0.575254
698895562,15.862504,-15.147280,16.882124,0.824990,-0.327408,0.542912
698915561,18.836670,-17.122799,18.526550,0.813929,-0.294382,0.541107
698935559,19.508528,-18.700293,19.115782,0.806238,-0.248474,0.548807
698955557,18.877016,-18.318832,18.782564,0.790217,-0.219720,0.565079
698975556,14.380418,-17.241686,16.518423,0.768380,-0.219277,0.589116
698995555,10.345276,-13.666546,13.891280,0.764546,-0.231847,0.581700
699015553,10.434628,-7.522772,13.528651,0.744094,-0.238377,0.596919
699035553,9.834950,-1.984357,13.741863,0.735417,-0.249989,0.617534
699055551,9.767271,3.352454,11.932137,0.742110,-0.265789,0.628698
699075550,8.372744,7.276198,8.804992,0.740456,-0.278700,0.632438
699095549,5.264832,6.706408,7.385496,0.734891,-0.288269,0.609816
699115548,4.291687,4.138463,7.158403,0.746357,-0.299941,0.579827
699135548,3.851559,1.509579,5.637265,0.759902,-0.317720,0.570841
699155547,3.349394,0.262849,4.512909,0.777951,-0.350598,0.586943
699175545,4.446123,-0.244885,5.840085,0.773894,-0.390191,0.596632
699195544,6.817195,-0.627462,6.978488,0.757183,-0.384172,0.573203
699215543,8.138634,-1.801221,6.248236,0.733904,-0.364323,0.540920
699235541,12.209232,-2.157861,4.179439,0.716316,-0.341407,0.521691
699255539,15.281113,-2.360850,1.757338,0.710127,-0.314670,0.532347
699275537,15.195191,-2.663639,0.550808,0.719511,-0.297612,0.563010
699295537,13.690779,-1.437378,0.985284,0.740295,-0.298097,0.591687
699315535,11.272492,1.619466,2.623930,0.768637,-0.314642,0.601895
699335534,10.797952,4.183777,6.087368,0.775436,-0.328835,0.592148
699355533,12.076422,4.930486,8.365545,0.767149,-0.329662,0.579216
699375532,13.150139,6.178163,8.408179,0.758127,-0.327063,0.575983
699395530,15.586432,6.775760,8.850302,0.756475,-0.320961,0.593387
699415529,16.391655,5.939844,9.937118,0.759292,-0.302753,0.605723
699435528,16.177437,4.061292,10.835734,0.767471,-0.290218,0.604427
699455528,14.949626,4.169415,10.392492,0.764138,-0.282172,0.609104
699475527,13.805287,4.346531,8.451487,0.746256,-0.267015,0.618999
699495526,11.481927,3.538042,7.006691,0.716975,-0.261090,0.608488
699515524,9.388133,2.881612,5.605755,0.718494,-0.268825,0.603879
699535523,9.311233,4.574289,3.918980,0.717076,-0.282709,0.609825
699555522,9.778594,6.808389,2.569235,0.711885,-0.307221,0.617173
699575519,10.787732,7.388616,1.703270,0.706210,-0.308637,0.617776
699595518,9.973727,6.355444,0.404586,0.701550,-0.278075,0.605766
699615517,8.100381,3.883970,-0.928335,0.708023,-0.248399,0.599081
699635515,6.426090,1.528122,-1.875123,0.734216,-0.249361,0.621525
699655514,6.201667,0.769127,-1.262711,0.772132,-0.282861,0.655351
699675513,5.845256,2.552630,1.618580,0.789308,-0.310130,0.681027
699695512,7.246196,4.708440,6.899145,0.792840,-0.324475,0.681192
699715511,9.666456,4.933677,9.227665,0.734510,-0.288940,0.644941
699735509,7.458520,2.903610,5.888046,0.671019,-0.245663,0.602042
699755509,2.777173,0.650629,0.683701,0.650450,-0.241585,0.589731
699775508,-1.080490,1.373693,-1.908528,0.643065,-0.268894,0.614340
699795507,-2.848701,3.345331,-2.030978,0.642883,-0.308423,0.640578
699815506,-3.505814,4.698957,-1.570553,0.641000,-0.343497,0.651587
699835504,-2.660089,4.468743,-1.375790,0.648698,-0.370651,0.633109
699855503,1.742505,3.274786,-2.940753,0.666557,-0.379128,0.619919
699875502,5.707330,0.043109,-6.789477,0.671797,-0.366648,0.610385
699895499,8.203763,-4.066713,-10.163955,0.689976,-0.342942,0.604092
699915498,10.315692,-7.462742,-11.146122,0.699633,-0.320557,0.613605
699935497,13.048652,-10.262017,-11.328300,0.696726,-0.313047,0.632252
699955495,14.023835,-13.642035,-12.829700,0.688653,-0.314728,0.636210
699975494,14.245836,-18.042568,-16.146875,0.691824,-0.312380,0.620790
699995493,15.749235,-22.352312,-20.473427,0.699445,-0.326768,0.598557
700015492,20.275238,-26.082615,-26.252687,0.672457,-0.340322,0.570673
700035491,26.009525,-29.277082,-30.861998,0.653652,-0.310471,0.538828
700055489,32.724030,-32.395977,-28.522736,0.703825,-0.258785,0.527776
700075490,38.438988,-32.557285,-23.722530,0.783546,-0.223715,0.523753
700095488,42.542286,-26.694462,-18.174742,0.850733,-0.184672,0.550191
700115487,46.680820,-16.691818,-11.095612,0.863132,-0.108013,0.627402
700135486,42.844387,-9.094199,-4.592299,0.837257,-0.010020,0.696784
700155485,20.717903,-9.038300,-1.056581,0.814191,0.051256,0.720148
700175483,-9.338598,-14.520491,-1.152812,0.781813,0.036856,0.669600
700195482,-27.468719,-17.095209,-4.979581,0.788123,-0.056425,0.589276
700215479,-27.528378,-11.382130,-9.473615,0.815106,-0.150561,0.562352
700235478,-18.978144,-3.066907,-11.624986,0.836125,-0.199647,0.587399
700255477,-12.126565,2.440748,-13.505089,0.845382,-0.199915,0.601452
700275476,-10.847680,3.929381,-17.241354,0.819121,-0.184147,0.590821
700295475,-11.593842,2.991151,-21.018162,0.793253,-0.183875,0.571492
700315473,-10.820328,2.232324,-23.024479,0.797704,-0.200632,0.575990
700335472,-8.691932,0.596261,-22.669619,0.809118,-0.207769,0.564265
700355471,-6.264390,-2.394909,-21.679234,0.794605,-0.193392,0.537354
700375470,-4.314676,-6.502972,-20.126852,0.772983,-0.167183,0.507271
700395470,-2.776597,-8.880247,-18.838814,0.804840,-0.143095,0.509867
700415469,-6.603601,-11.975913,-16.238724,0.865907,-0.157371,0.530221
700435467,-13.720469,-14.020620,-12.632856,0.891867,-0.162908,0.454858
700455466,-13.719342,-9.267341,-8.755949,0.872825,-0.182978,0.510708
700475465,-15.967713,-12.136416,-8.922656,0.863027,-0.209096,0.602227
700495464,-9.978930,-8.470844,-10.646083,0.859417,-0.198342,0.579677
700515461,-1.451685,-0.039545,-14.074561,0.841478,-0.220789,0.674342
700535460,-8.092513,5.845310,-16.776268,0.849262,-0.232607,0.730335
700555459,-12.078735,14.498679,-14.494687,0.867604,-0.255461,0.723209
700575458,-2.308167,27.869286,-2.896950,0.929275,-0.331217,0.659956
700595457,10.498422,42.689590,10.724566,1.006001,-0.284515,0.638484
700615455,6.354829,52.739910,36.018921,0.957071,-0.256201,0.696026
700635454,-5.951892,51.177746,59.746552,0.840426,-0.308899,0.652243
700655453,-15.590874,45.483017,72.096924,0.724182,-0.378759,0.629433
700675452,-13.860773,39.801407,76.172821,0.682659,-0.383634,0.551191
700695450,-1.087555,34.042309,76.847321,0.623853,-0.350787,0.510597
700715451,14.318180,22.303320,73.813232,0.534074,-0.333179,0.528122
700735449,25.814915,6.686969,69.233894,0.493631,-0.305958,0.521824
700755448,32.705627,-7.846223,57.101768,0.374596,-0.222242,0.529099
700775447,32.846691,-29.665325,38.429672,0.330767,-0.089029,0.530077
700795445,19.084145,-59.041771,17.712330,0.391236,-0.032751,0.505831
700815444,-9.905306,-73.526169,-7.152196,0.495019,-0.065677,0.404216
700835441,-22.936598,-73.825790,-25.200531,0.572633,-0.156159,0.428189
700855440,-4.912455,-69.204277,-38.625443,0.824403,-0.226233,0.529037
700875439,26.432709,-44.201202,-37.552090,1.158915,-0.278869,0.694211
700895438,44.239689,-4.126169,-6.118263,1.332269,-0.303386,0.908503
700915437,22.341480,20.843487,24.212723,1.088409,-0.154822,0.974458
700935436,-16.109682,12.912143,23.633987,0.807520,-0.017462,0.767931
700955434,-36.443928,-3.203579,8.928026,0.785350,-0.066227,0.465526
700975433,-31.950512,-4.537990,-7.903780,0.770256,-0.179116,0.349075
700995432,-16.988569,7.221132,-18.147745,0.767846,-0.218597,0.438867
701015431,-9.301211,16.724134,-17.929565,0.763287,-0.265867,0.527571
701035431,-8.727859,21.557455,-14.526793,0.715642,-0.259776,0.526816
701055429,-18.356485,16.264822,-15.613916,0.675674,-0.196201,0.495244
701075428,-20.350636,6.118680,-19.487673,0.655011,-0.198436,0.467249
701095432,-11.545858,4.048693,-26.365509,0.654167,-0.249260,0.490917
701115426,-3.561224,10.825416,-31.737036,0.764679,-0.312275,0.532768
701135425,8.072694,19.164928,-30.110537,0.876640,-0.304810,0.616787
701155422,16.810602,18.429008,-30.587875,0.898307,-0.238093,0.635592
701175421,23.079447,14.697649,-29.041731,0.895298,-0.127899,0.594098
701195420,22.085165,10.344986,-24.503454,0.863831,-0.021738,0.596985
701215418,14.558742,3.586455,-18.229778,0.849626,0.018420,0.631526
701235417,4.711329,-6.814578,-12.871305,0.846381,0.009983,0.640653
701255416,-3.429050,-17.183462,-11.016474,0.821665,-0.036209,0.622323
701275414,-8.962335,-20.964691,-12.547119,0.787576,-0.042663,0.578204
701295413,-8.710159,-19.044025,-14.198435,0.751338,-0.020947,0.555522
701315412,-5.397159,-16.514025,-17.409159,0.728670,0.007241,0.547837
701335412,-7.762236,-14.294525,-23.571480,0.708583,0.015109,0.553352
701355411,-12.923372,-11.269884,-30.446611,0.745042,0.007289,0.537329
701375410,-16.421757,-6.735575,-36.340672,0.766391,0.012032,0.519228
701395408,-18.805426,-8.767780,-40.241825,0.766125,0.015249,0.514980
701415407,-20.646570,-10.873425,-41.591751,0.779114,0.005761,0.493729
701435406,-20.865837,-12.122276,-41.372307,0.796292,-0.023664,0.502108
701455405,-15.645453,-11.057899,-45.413422,0.862458,-0.060363,0.487740
701475402,-2.274611,-10.487564,-52.362095,0.893942,-0.064973,0.510749
701495401,-0.941241,-19.947243,-59.073509,0.899412,-0.011631,0.530144
701515400,2.891468,-21.970118,-63.763039,0.945270,0.033162,0.494799
701535399,4.626328,-24.200905,-66.891762,0.940672,0.068196,0.509447
701555397,0.644123,-28.703476,-71.724335,0.928836,0.110798,0.515059
701575396,-4.632572,-30.965494,-77.587067,0.928733,0.135286,0.498171
701595395,-9.974581,-29.026733,-85.239189,0.918661,0.158260,0.506930
701615394,-14.883359,-29.203091,-91.645004,0.896995,0.195989,0.500385
701635392,-15.691145,-31.727602,-97.146988,0.898054,0.196110,0.446941
701655393,-22.549591,-32.977242,-102.703102,0.903105,0.159510,0.463244
701675391,-27.151739,-34.619640,-107.735786,0.911258,0.154228,0.442883
701695390,-22.676222,-33.068981,-110.962593,0.928721,0.175867,0.418189
701715389,-16.564808,-32.407185,-114.139633,0.926472,0.231055,0.370889
701735388,-14.501534,-36.274708,-116.510117,0.921557,0.274190,0.354032
701755386,-25.564621,-43.411404,-116.579216,0.918625,0.277834,0.331233
701775385,-34.227158,-39.916298,-113.029396,0.954981,0.228952,0.304256
701795383,-13.271561,-25.822269,-103.059097,0.956167,0.192295,0.348980
701815382,10.928095,-28.646372,-84.280083,1.022315,0.130793,0.354604
701835380,-0.745971,-40.217014,-90.413368,1.030041,0.253939,0.300249
701855379,9.169081,-30.461079,-91.832756,1.026813,0.396073,0.298762
701875378,20.083328,-9.029593,-64.637360,0.996108,0.392754,0.561299
701895377,-8.718984,-1.635913,-25.524323,1.049040,0.100281,0.777675
701915375,-26.030293,6.078737,17.380033,1.195525,-0.173447,0.740027
701935375,-15.538858,25.917934,52.738678,1.101591,-0.030956,0.610010
701955373,-15.598126,38.211884,79.258095,1.024563,0.270397,0.552885
701975373,-29.141714,37.522240,107.820602,1.065475,0.391012,0.472450
701995372,-34.362652,52.317101,131.228928,1.075341,0.225362,0.333344
702015371,-25.019125,71.553780,149.603409,0.993409,0.007289,0.358947
702035370,-12.643126,79.406372,160.036377,0.903820,-0.118698,0.436512
702055369,5.300236,83.290833,174.763107,0.916616,-0.060262,0.486094
702075367,12.352003,93.426254,179.381332,0.971275,-0.023991,0.547932
702095365,15.382931,98.937851,179.304520,0.985230,-0.045458,0.593099
702115364,20.195911,103.863495,178.918228,0.962950,0.006324,0.665690
702135362,14.270931,105.204681,170.313965,0.905788,0.109119,0.687526
702155361,-8.989010,101.232773,156.516235,0.737492,0.203466,0.691314
702175360,-49.506577,78.811348,139.499268,0.611098,0.158322,0.633725
702195358,-77.918579,42.796017,126.789864,0.583628,0.039718,0.467979
702215357,-66.543015,16.273678,118.400063,0.636203,-0.110050,0.307714
702235356,-14.104870,5.207999,107.161263,0.627781,-0.152520,0.274988
702255355,31.414383,-5.257844,89.605896,0.547406,-0.038304,0.361816
702275354,37.526562,-31.623276,64.361305,0.454489,0.214091,0.360195
702295354,0.055623,-56.444157,30.166792,0.343306,0.379824,0.342300
702315352,-41.868084,-69.291245,-4.517612,0.257723,0.274115,0.413573
702335351,-45.653236,-61.015564,-38.765244,0.506294,-0.023034,0.618398
702355350,-37.852726,-40.400463,-52.580727,1.036132,-0.402474,0.844652
702375349,-22.489662,-3.721943,-41.228188,1.205280,-0.537720,0.836392
702395347,1.511490,30.794785,-33.666973,0.834907,-0.274808,0.758478
702415345,-14.044186,23.048752,-42.793999,0.710192,-0.077497,0.621197
702435343,-32.828854,3.959417,-58.169895,0.727671,-0.080009,0.509671
702455342,-34.982285,-10.307480,-67.716141,0.713533,-0.180179,0.489358
702475341,-14.698674,-7.521906,-76.173088,0.730392,-0.233006,0.443728
702495340,0.845153,-16.026262,-77.147858,0.733684,-0.289450,0.563575
702515339,-2.258723,-24.063425,-77.477211,0.851361,-0.308507,0.651343
702535337,10.213549,-23.740244,-79.131516,0.893672,-0.245456,0.616047
702555336,24.074726,-26.314217,-83.134811,0.879344,-0.147392,0.605822
702575335,21.599573,-31.478605,-88.358841,0.879454,0.008635,0.550976
702595334,15.317424,-30.928501,-87.010345,0.865797,0.087630,0.568689
702615334,-0.454778,-35.608856,-84.789276,0.871285,0.077156,0.550023
702635333,-4.535270,-38.873119,-84.147896,0.901379,0.072362,0.494667
702655332,3.586420,-42.067825,-89.003693,0.934740,0.076496,0.451793
702675330,6.395752,-47.188065,-97.907333,0.898490,0.089581,0.454876
702695329,6.765071,-50.259342,-108.731758,0.844169,0.132027,0.481863
702715328,3.794032,-56.434036,-119.944801,0.833792,0.170251,0.475881
702735325,3.379757,-60.795284,-129.901062,0.869863,0.212779,0.394772
702755324,6.349155,-61.407688,-135.140198,0.888934,0.215930,0.338271
702775323,4.721887,-61.513565,-139.182724,0.939433,0.280769,0.319357
702795322,6.883901,-60.741936,-124.552177,1.040976,0.332323,0.267229
702815320,-0.837710,-47.546543,-99.012566,1.119677,0.416487,0.217562
702835319,-41.967964,-32.773346,-100.130348,1.126419,0.289839,0.505996
702855318,-21.598438,-29.850847,-90.714676,1.248344,-0.149503,0.738185
702875317,26.189528,-3.825016,-29.146755,1.329108,-0.473294,0.725729
702895316,32.206165,7.309720,46.510265,1.274665,-0.524175,0.888328
702915316,31.417688,27.518774,97.071831,1.167774,-0.190075,0.674054
702935315,38.300205,69.163292,126.565010,1.093529,0.132946,0.642347
702955313,5.676519,94.967247,147.890396,1.117108,0.266507,0.646826
702975312,-26.361273,105.693741,168.947083,1.182675,0.175555,0.512150
702995311,-42.521915,111.012657,186.201691,1.109092,0.112815,0.440220
703015310,-41.833302,101.845078,199.120987,1.052483,0.051932,0.389870
703035308,-16.068314,98.773132,208.257996,1.065506,-0.180487,0.373048
703055306,7.542770,109.280357,207.783340,0.926484,-0.025662,0.453736
703075305,28.213852,113.127823,201.614822,0.841554,0.015401,0.446777
703095304,38.557392,114.146194,192.458939,0.728403,0.089365,0.537178
703115302,20.947170,95.446175,173.002670,0.613617,0.142615,0.562569
703135301,-2.769557,69.574936,150.711456,0.534135,0.140830,0.517009
703155300,-17.876467,38.202488,129.560944,0.525456,0.065646,0.491168
703175298,-17.053524,9.146120,107.795212,0.504173,0.001893,0.419598
703195297,-1.958522,-16.140903,82.132339,0.481490,0.032268,0.361436
703215296,-5.748472,-32.659706,54.798527,0.430093,0.157123,0.319869
703235296,-30.410833,-49.466179,25.152380,0.342739,0.153349,0.460342
703255295,-44.507961,-59.079697,-8.989854,0.343012,0.015162,0.523674
703275293,-34.566200,-57.618580,-47.555325,0.470763,-0.088503,0.583655
703295292,-19.692930,-44.922340,-75.904747,0.746359,-0.168559,0.695660
703315291,-8.251099,-20.294228,-75.665878,0.950532,-0.276733,0.826990
703335290,2.187711,12.783043,-54.737362,0.991959,-0.348639,0.894826
703355289,-10.227495,32.232822,-46.242363,0.781927,-0.271636,0.907947
703375286,-45.711807,13.668295,-55.647274,0.708494,-0.265961,0.725691
703395285,-56.917122,-10.896523,-71.519333,0.719004,-0.301820,0.477873
703415283,-38.324375,-20.162262,-85.066277,0.727301,-0.309198,0.387492
703435282,-15.550104,-17.187176,-87.387596,0.759374,-0.302263,0.411425
703455281,13.006995,-10.046657,-80.893394,0.813590,-0.284773,0.481574
703475280,30.109207,-12.166589,-75.558784,0.798477,-0.235386,0.562484
703495279,31.230776,-16.413397,-81.327751,0.750077,-0.123143,0.558813
703515277,23.559546,-24.834217,-89.788589,0.708129,-0.007773,0.598943
703535276,2.868173,-39.969498,-95.628944,0.769457,0.022894,0.596717
703555276,-10.718020,-48.284996,-96.555084,0.891825,-0.008664,0.542062
703575275,-5.959933,-51.065987,-104.634712,0.930792,-0.001783,0.464450
703595274,4.427851,-56.729141,-115.827522,0.888995,0.014659,0.452465
703615273,6.808153,-68.605812,-126.765594,0.886598,0.044989,0.452979
703635271,8.157009,-71.439507,-133.491928,0.997186,0.057085,0.445697
703655270,11.999130,-57.314133,-131.977646,1.034304,0.078250,0.385177
703675284,16.678432,-47.239803,-127.173515,0.961549,0.108112,0.432969
703695266,3.704153,-53.916985,-124.705391,0.951761,0.097893,0.517494
703715265,-6.784177,-55.043369,-114.279274,0.977572,0.035989,0.536949
703735264,-2.989039,-42.234764,-87.893784,1.078873,-0.093510,0.550266
703755263,1.816340,-23.703188,-46.986134,1.155394,-0.216782,0.606292
703775262,14.010757,-4.355377,-3.197784,1.140079,-0.275440,0.575569
703795261,38.032894,17.259136,28.610504,1.112660,-0.183818,0.616757
703815259,41.123913,31.863602,48.919197,1.090509,-0.002753,0.633273
703835258,35.752258,46.190613,65.148972,1.081351,0.128947,0.560829
703855257,31.140335,61.689293,79.660110,1.064409,0.168506,0.536790
703875257,24.344875,72.038475,92.297127,1.001520,0.127297,0.536882
703895256,14.424889,80.166183,100.877655,0.971730,0.131129,0.550935
703915254,-6.247610,84.430748,105.215973,0.950913,0.196326,0.553008
703935253,-20.339590,84.558846,112.704323,0.947242,0.120846,0.583776
703955252,-32.790791,81.549309,120.374168,0.999074,0.075790,0.612081
703975251,-35.919025,80.943909,124.358070,1.039634,0.036782,0.608072
703995248,-17.499868,88.356064,127.416840,1.055380,-0.023475,0.638710
704015247,9.114355,102.591637,133.560974,1.004039,0.047889,0.696205
704035246,18.473606,114.231766,131.983597,0.828276,0.098786,0.739992
704055245,-4.317521,112.799263,116.903130,0.609655,0.139179,0.710444
704075243,-37.366146,98.771111,100.725914,0.513311,0.148658,0.639365
704095242,-68.389694,76.996666,87.530708,0.532367,0.083715,0.538027
704115241,-78.419876,55.207302,77.233810,0.539373,-0.065851,0.445074
704135240,-60.533142,39.451992,69.616592,0.522119,-0.180452,0.332823
704155238,-25.812830,31.904289,59.749855,0.457492,-0.194503,0.322446
704175238,-4.036724,21.729271,44.452244,0.363423,-0.169543,0.383599
704195237,-1.450111,5.820986,25.932163,0.296537,-0.109684,0.490736
704215236,-13.019513,-16.259037,6.387626,0.324008,-0.099187,0.553517
704235234,-27.890364,-36.166222,-15.195904,0.374123,-0.105938,0.562517
704255233,-39.612293,-50.201279,-33.073963,0.412673,-0.183030,0.543201
704275232,-35.266911,-62.211643,-48.580006,0.504548,-0.265201,0.533804
704295231,-17.361382,-63.876148,-57.841854,0.681406,-0.356154,0.595634
704315228,6.623805,-60.027420,-56.874554,0.830045,-0.403735,0.711609
704335227,35.539658,-42.176311,-42.565231,0.948307,-0.463301,0.910743
704355226,41.896172,-17.203053,-25.426584,0.852125,-0.499050,1.096953
704375225,19.187103,-12.603395,-24.021420,0.726627,-0.346514,0.967832
704395224,-1.101538,-28.523315,-40.848686,0.648187,-0.096718,0.634551
704415222,-9.751451,-39.926937,-56.708488,0.616838,-0.046548,0.479399
704435221,-13.651430,-49.239140,-66.003235,0.611280,-0.067642,0.426397
704455220,-3.841532,-46.920509,-71.370491,0.711761,-0.112083,0.449071
704475219,14.036304,-37.251083,-73.456619,0.836130,-0.180033,0.509655
704495218,29.547106,-34.892986,-73.492561,0.846752,-0.172293,0.532629
704515218,38.534824,-34.189846,-75.885002,0.779387,-0.099378,0.560476
704535216,36.207520,-35.479397,-80.732101,0.745639,-0.025860,0.584912
704555215,22.818876,-43.626919,-84.745247,0.753106,0.020054,0.609093
704575214,3.834087,-59.245689,-90.226433,0.790618,0.043006,0.572449
704595213,-5.309241,-72.682739,-97.730690,0.849544,0.041413,0.503924
704615212,-2.125142,-80.774475,-107.557297,0.901572,0.035832,0.457831
704635209,10.532182,-81.951691,-121.744545,0.938774,0.050147,0.426972
704655208,32.325577,-74.205154,-131.537964,0.926873,0.127799,0.391544
704675207,48.288486,-64.833153,-131.531784,0.927050,0.228400,0.383159
704695206,47.622768,-58.898495,-129.785004,0.949216,0.317771,0.384928
704715204,37.746185,-58.653492,-128.988647,0.968976,0.420908,0.392208
704735203,14.501226,-70.318993,-133.016846,1.042538,0.496425,0.372268
704755202,-5.765893,-75.473679,-130.575485,1.024732,0.529201,0.336649
704775200,-38.326241,-86.045502,-132.977814,0.923710,0.435714,0.400555
704795199,-65.455559,-89.362694,-126.546593,1.094027,0.310648,0.362140
704815199,-51.604641,-48.623329,-95.652466,1.272881,0.005415,0.432391
704835198,-13.737909,-20.186243,-51.042271,1.207202,-0.277253,0.459424
704855197,28.621462,-16.085730,-9.746779,1.090378,-0.193280,0.348137
704875196,70.902390,0.744272,15.965924,0.994178,0.006878,0.375836
704895195,80.422577,11.162721,27.137423,0.896272,0.213957,0.522541
704915194,52.134171,12.675448,35.208691,0.897661,0.420844,0.504417
704935192,26.353443,21.806595,45.012211,0.919209,0.504073,0.349199
704955190,14.022088,34.719391,53.050102,0.927847,0.468213,0.270022
704975189,-0.246909,42.936630,58.602749,0.893571,0.427678,0.289820
704995187,-18.778450,48.491238,61.276394,0.892545,0.400361,0.304186
705015186,-18.546492,48.840073,64.260284,0.895264,0.357777,0.254607
705035185,-3.571811,46.592800,72.059792,0.945388,0.240924,0.281809
705055184,8.421391,52.904026,78.770203,0.984435,0.164318,0.316217
705075183,24.979092,61.783066,82.955536,0.989988,0.204944,0.361896
705095181,32.613945,63.074478,84.875435,1.009380,0.252585,0.378326
705115180,32.274757,66.829338,88.644440,0.995511,0.286636,0.412234
705135180,23.279469,67.539680,93.272308,0.886894,0.284883,0.484597
705155179,0.552518,58.824127,90.983841,0.847431,0.228486,0.487164
705175178,-4.833755,55.163406,92.476524,0.934146,0.187498,0.463947
705195177,-6.582210,50.212662,89.345619,0.967015,0.213122,0.422928
705215176,0.820377,51.094028,88.236305,0.978674,0.207397,0.453052
705235174,7.152820,56.270260,88.541084,0.962781,0.123778,0.513103
705255185,12.640008,61.834400,88.133636,0.923577,0.120252,0.513583
705275170,17.186279,67.157860,84.615829,0.838516,0.166913,0.560902
705295169,2.348560,60.911594,78.670448,0.776501,0.162009,0.577320
705315168,-11.646373,55.960732,68.170952,0.741270,0.103176,0.625666
705335166,-26.559361,47.299793,56.195385,0.741117,0.040567,0.589137
705355165,-29.860500,38.758705,47.471947,0.736383,0.010748,0.524783
705375164,-26.758781,33.762550,42.442066,0.707689,-0.014013,0.511649
705395163,-19.821815,29.994099,38.103443,0.678125,-0.049656,0.511807
705415162,-13.894762,25.806614,31.605515,0.654868,-0.049265,0.542763
705435160,-16.440462,17.156357,24.444586,0.644986,-0.039382,0.551725
705455161,-21.896372,5.844768,18.745289,0.654944,-0.040207,0.521554
705475159,-23.745811,-4.303743,14.452923,0.662889,-0.086652,0.514868
705495158,-14.210846,-12.204682,11.724622,0.690296,-0.128800,0.532301
705515157,-7.806073,-16.923086,4.489786,0.708031,-0.105833,0.569070
705535155,-13.725334,-21.080402,-2.676100,0.719644,-0.042114,0.585813
705555154,-23.782516,-24.613197,-7.599309,0.731181,-0.064573,0.577152
705575152,-28.420631,-27.641790,-10.695319,0.750920,-0.111585,0.573695
705595150,-26.402889,-28.067188,-14.023518,0.783135,-0.146607,0.588057
705615149,-21.299772,-24.647839,-15.126235,0.786234,-0.137421,0.599258
705635148,-20.813650,-21.702759,-16.068926,0.803840,-0.142516,0.580632
705655147,-21.426212,-20.440510,-17.181353,0.845466,-0.176728,0.557495
705675145,-21.846199,-18.738096,-18.623428,0.849895,-0.196480,0.568698
705695144,-21.007648,-17.222385,-18.474543,0.843490,-0.208211,0.577936
705715143,-16.678190,-14.853145,-16.331648,0.823850,-0.216036,0.567459
705735142,-14.067576,-12.860379,-15.828252,0.819597,-0.216613,0.539878
705755141,-12.681627,-13.316128,-16.250481,0.838128,-0.197044,0.524531
705775141,-11.503512,-12.879472,-13.484082,0.873755,-0.202385,0.528073
705795140,-9.968292,-11.350346,-8.429271,0.858933,-0.208657,0.556936
705815138,-11.179436,-11.288128,-5.642664,0.809514,-0.213232,0.557877
705835137,-11.434725,-12.115979,-5.098193,0.820482,-0.218251,0.515648
705855136,-6.100164,-9.933468,-4.775285,0.851616,-0.211550,0.496430
705875135,-1.046216,-7.472608,-3.798815,0.854623,-0.192529,0.521435
705895132,0.429902,-6.732480,-2.805800,0.853776,-0.176461,0.531304
705915131,-1.393332,-5.235703,-1.785946,0.835308,-0.175874,0.532295
705935130,-4.531385,-4.294131,-1.251525,0.819398,-0.168990,0.513330
705955129,-4.947625,-3.576540,-1.321271,0.830679,-0.178969,0.499732
705975127,-3.976228,-4.551811,-2.210410,0.847977,-0.194153,0.506069
705995126,-3.704615,-5.200511,-2.170713,0.863184,-0.206148,0.497193
706015135,-2.060898,-4.608936,-0.235473,0.841644,-0.200594,0.484941
706035124,0.091613,-4.404496,0.749281,0.825605,-0.191575,0.487925
706055123,-1.007654,-4.555303,0.451012,0.849797,-0.185951,0.503863
706075121,-0.607549,-5.638840,2.148748,0.876801,-0.199687,0.517846
706095122,-0.483268,-3.738477,4.221784,0.873529,-0.216580,0.520444
706115120,2.052754,-1.496556,5.780698,0.871631,-0.213225,0.504319
706135119,2.576952,-0.469441,7.240320,0.858513,-0.193010,0.499954
706155118,2.523481,-0.564992,7.970533,0.844529,-0.175707,0.494075
706175117,5.300723,-0.376287,7.599823,0.830570,-0.165027,0.514567
706195116,6.441100,-0.822645,4.154138,0.828452,-0.165705,0.527600
706215113,6.121164,1.450243,-0.779073,0.830149,-0.158194,0.527685
706235112,7.360218,4.000618,-2.513744,0.843045,-0.162505,0.531438
706255111,7.149070,6.042526,-1.351738,0.841785,-0.166201,0.531756
706275109,6.280622,7.584876,1.829359,0.849142,-0.171244,0.520597
706295108,7.561847,8.663147,6.522607,0.864565,-0.179849,0.539219
706315107,8.205850,8.997491,9.915054,0.884669,-0.201816,0.564934
706335106,10.413881,11.086882,12.897235,0.870476,-0.197812,0.563270
706355104,10.876963,11.937908,15.794207,0.836410,-0.185232,0.553339
706375103,11.059139,13.137764,18.113331,0.819219,-0.178984,0.545225
706395103,11.076962,13.511471,19.768209,0.813822,-0.181959,0.564372
706415102,8.910765,11.900790,19.709414,0.805322,-0.178064,0.544433
706435101,9.421124,10.056171,20.148605,0.773094,-0.160525,0.521673
706455100,10.646607,7.776089,20.837284,0.725640,-0.130293,0.512156
706475098,7.278121,3.763473,18.416277,0.740035,-0.102235,0.512144
706495097,-0.437141,-1.041032,10.372407,0.779932,-0.126202,0.503610
706515096,-3.357574,-6.273636,0.089569,0.777088,-0.158202,0.505715
706535093,-2.065582,-11.442813,-7.150266,0.759718,-0.142785,0.509134
706555092,-4.209462,-14.193820,-12.971890,0.776984,-0.151381,0.524855
706575090,-6.716892,-16.504124,-17.714748,0.822880,-0.181462,0.536270
706595089,-3.740120,-17.652393,-18.521072,0.877110,-0.193739,0.540106
706615088,1.429588,-15.150636,-15.257915,0.901087,-0.174941,0.536136
706635087,1.804180,-10.444910,-11.542084,0.891822,-0.152072,0.557766
706655086,-0.796809,-7.398916,-9.074225,0.867974,-0.161304,0.569708
706675085,-2.869437,-3.890302,-6.823662,0.850756,-0.171172,0.547065
706695083,-2.723191,0.922746,-3.122473,0.836430,-0.173391,0.523238
706715084,-1.725254,3.624587,-0.342724,0.836229,-0.194836,0.517180
706735083,-0.164603,4.560120,0.094267,0.831746,-0.213066,0.519878
706755081,1.860606,3.731261,0.164767,0.817352,-0.212230,0.512514
706775080,3.909362,2.827867,2.241722,0.819149,-0.207002,0.505702
706795079,5.540723,2.405164,4.136019,0.827027,-0.198482,0.509208
706815078,5.704774,1.530589,4.724383,0.831107,-0.188336,0.525512
706835076,6.040602,-0.188474,5.817348,0.836070,-0.168466,0.523797
706855074,5.591799,-1.640300,6.517518,0.829967,-0.156193,0.521176
706875072,3.568312,-1.967850,5.373147,0.838803,-0.149767,0.513230
706895071,4.265244,-1.235811,4.173550,0.853988,-0.152831,0.518538
706915070,6.416485,-1.218103,4.361225,0.851152,-0.138159,0.523210
706935069,5.190038,-0.885837,4.562904,0.836907,-0.135787,0.547111
706955068,1.924467,0.616201,4.213843,0.832206,-0.144740,0.543461
706975066,0.833152,2.202830,3.694881,0.821106,-0.155366,0.527732
706995065,-0.060991,1.949041,2.697004,0.806806,-0.170080,0.526446
707015064,-0.537527,1.413805,0.467402,0.820371,-0.181842,0.518737
707035064,0.380652,0.535278,-0.961485,0.831753,-0.184953,0.521453
707055063,1.535292,-0.453552,-1.380240,0.826709,-0.184579,0.527417
707075062,1.432767,-1.133793,-1.787052,0.825604,-0.188794,0.529842
707095060,1.058920,-1.155431,-1.747250,0.827491,-0.182623,0.525479
707115059,1.311092,-1.152084,-0.882092,0.826899,-0.179865,0.526799
707135058,1.793301,-0.802423,-0.825086,0.835487,-0.187230,0.526725
707155068,1.956544,-0.132365,-0.927660,0.841202,-0.182681,0.529084
707175054,2.320953,-0.616576,0.098781,0.836329,-0.177821,0.524765
707195053,3.019078,-1.615765,2.075948,0.826201,-0.170908,0.522732
707215052,2.224498,-1.968568,2.787916,0.819927,-0.171722,0.520127
707235051,2.310310,-1.520550,2.443523,0.824489,-0.174600,0.522680
707255049,3.271163,-1.540089,2.104851,0.832748,-0.174174,0.526588
707275048,3.829288,-1.259658,2.078233,0.832197,-0.165532,0.526176
707295047,3.646124,-1.296551,2.231223,0.817156,-0.149514,0.524228
707315046,2.836462,-1.457728,1.521315,0.816398,-0.148781,0.529864
707335044,1.499834,-1.630523,-0.356432,0.818633,-0.152056,0.526653
707355045,1.239928,-1.503228,-2.635622,0.836005,-0.153539,0.512256
707375043,3.247603,-1.049038,-3.763954,0.851444,-0.144240,0.505245
707395042,5.431533,-0.544219,-3.745821,0.833589,-0.129811,0.521536
707415041,4.438036,-0.857906,-4.568189,0.819452,-0.118837,0.530530
707435039,1.521211,-1.315113,-6.255044,0.825886,-0.125928,0.527328
707455039,0.674993,-1.074672,-7.521358,0.843046,-0.130557,0.508782
707475036,2.301541,-0.690164,-7.477335,0.851355,-0.129283,0.508481
707495035,2.665622,-1.074965,-8.016807,0.836129,-0.129193,0.524015
707515033,1.470856,-1.911414,-9.869394,0.829917,-0.137724,0.528462
707535032,-0.338939,-2.063129,-12.413815,0.848415,-0.144424,0.519630
707555031,0.556932,-1.267662,-12.976266,0.860633,-0.134876,0.506197
707575030,2.653788,-0.006495,-11.068928,0.848540,-0.133228,0.520827
707595029,2.638898,-0.090896,-9.563810,0.825400,-0.137498,0.524856
707615027,2.313083,-1.234977,-9.830711,0.802339,-0.126659,0.511231
707635026,1.703873,-2.469076,-11.577780,0.809411,-0.113111,0.502884
707655025,-0.171992,-3.688933,-14.299443,0.825326,-0.087111,0.501094
707675025,-0.561179,-5.138859,-16.411308,0.816919,-0.082219,0.506499
707695024,-1.212754,-7.214559,-18.792713,0.798348,-0.060765,0.504432
707715022,-4.347343,-10.049732,-22.018059,0.791755,-0.034080,0.485347
707735021,-7.167018,-12.296265,-26.357014,0.797849,-0.006443,0.475406
707755020,-9.636344,-14.453501,-32.582607,0.792832,0.008082,0.479328
707775019,-10.915487,-17.929815,-41.338242,0.782368,-0.001330,0.466780
707795016,-10.077134,-21.760731,-52.898491,0.781488,0.019981,0.436433
707815015,-10.071331,-27.238844,-66.628479,0.814580,0.047521,0.383437
707835014,-4.815454,-29.024105,-79.958427,0.852794,0.083452,0.371777
707855013,2.512378,-28.328585,-91.477646,0.869296,0.097105,0.391071
707875011,6.656847,-28.553423,-99.543266,0.876102,0.138043,0.428639
707895010,4.427441,-33.316349,-105.188187,0.923683,0.191095,0.426661
707915009,4.977293,-36.240341,-107.259666,0.936602,0.204803,0.380972
707935008,5.847852,-37.449558,-109.317581,0.925703,0.228979,0.370822
707955006,1.453974,-40.499435,-111.928246,0.928567,0.278291,0.352488
707975005,-0.242812,-41.475346,-109.674278,0.950876,0.319819,0.352622
707995005,0.834152,-41.816315,-103.689369,0.990236,0.303756,0.374701
708015004,-1.980483,-40.819187,-97.616760,0.996369,0.333908,0.400844
708035003,-7.713656,-39.400520,-89.579697,1.004289,0.337741,0.375506
708055002,-15.960522,-37.432095,-79.633827,0.988393,0.340920,0.345379
708075001,-24.207182,-35.008671,-73.474480,0.951363,0.343105,0.373341
708094999,-26.454609,-27.496189,-61.407722,0.932477,0.344336,0.405969
708114997,-36.046284,-24.621408,-49.233212,0.901498,0.340402,0.447313
708134995,-46.611870,-24.153311,-40.295845,0.979932,0.320920,0.351895
708154994,-53.171486,-14.828549,-34.593449,0.960992,0.264527,0.359776
708174993,-51.875217,-10.370853,-31.184679,0.865155,0.250800,0.338499
708194992,-38.255386,-15.246235,-23.663454,0.857634,0.219983,0.301954
708214991,-21.601480,-7.234377,-17.354406,0.898798,0.215345,0.343761
708234989,-10.575780,-0.288231,-14.039355,0.905763,0.271615,0.354003
708254988,-9.791077,-5.692739,-11.601851,0.900854,0.296459,0.335876
708274987,-9.317626,-7.204648,-11.779545,0.926190,0.328199,0.342576
708294986,-13.096087,-6.389921,-9.410184,0.932124,0.304214,0.371464
708314986,-19.678232,-8.436499,-4.256489,0.943080,0.243768,0.362743
708334985,-15.276841,-7.414596,1.669054,0.899957,0.199296,0.259461
708354984,5.153410,-2.000165,2.683488,0.864768,0.291318,0.259882
708374983,16.195070,2.440619,0.196331,0.828444,0.445729,0.355749
708394981,-2.305181,-1.075069,-2.887346,0.803832,0.504286,0.383700
708414980,-20.353149,-4.082282,-6.210974,0.838659,0.384296,0.404046
708434977,-27.286896,-7.174526,-7.996723,0.880671,0.322156,0.399221
708454976,-25.763168,-9.594839,-4.512217,0.901576,0.295511,0.334256
708474975,-21.410641,-9.214420,1.173278,0.906692,0.238715,0.336913
708494974,-9.316328,-7.139600,5.349056,0.918957,0.162914,0.330722
708514973,18.872435,-0.185806,9.201221,0.921192,0.178844,0.341902
708534971,35.906013,6.455151,9.572067,0.905196,0.285872,0.358431
708554970,28.833593,1.338734,8.571259,0.882149,0.325057,0.369090
708574969,19.467516,-6.664268,8.521131,0.902329,0.295491,0.365734
708594968,19.053463,-6.124516,14.432858,0.919360,0.302550,0.312526
708614967,16.400955,-3.120100,21.012381,0.896692,0.292399,0.357241
708634967,17.323143,-1.965168,23.951475,0.903338,0.171414,0.278988
708654966,38.014320,3.718456,25.617039,0.925247,0.177988,0.275367
708674964,47.956856,2.608640,27.430889,0.992487,0.270742,0.281734
708694963,49.064888,7.066972,35.742092,0.988658,0.365115,0.257806
708714962,43.217865,12.179433,41.163952,0.925249,0.364449,0.288830
708734961,29.183479,12.729940,37.950249,0.923695,0.306607,0.303842
708754961,22.267076,16.404522,38.542732,0.974151,0.253186,0.323688
708774957,22.466972,21.872503,51.861469,1.042939,0.224263,0.354653
708794956,25.315355,25.481579,70.359283,0.963165,0.179840,0.352981
708814955,20.368191,19.426991,72.195175,0.885028,0.166124,0.314186
708834953,18.089130,16.276354,59.118603,0.965500,0.259967,0.295584
708854952,22.108074,23.217194,53.848038,1.046743,0.317114,0.362751
708874951,15.042786,27.838602,53.008240,1.006579,0.240036,0.424737
708894950,2.383119,28.188610,55.017509,0.935887,0.118937,0.414484
708914948,-4.026637,29.166845,56.531822,0.926192,0.071663,0.380906
708934947,-6.834749,27.379335,55.777618,0.957898,0.076603,0.353785
708954947,-10.181848,24.444645,55.593430,0.989950,0.067394,0.373952
708974946,-14.351910,22.983900,58.666439,0.986668,-0.008203,0.378090
708994945,-8.771745,25.011150,63.426937,0.967259,-0.057774,0.347460
709014944,10.828760,33.612389,68.731941,0.955475,-0.115592,0.425217
709034943,19.469257,40.013355,66.550835,0.926872,-0.113652,0.480268
709054941,21.078136,45.200012,62.993889,0.944715,0.001463,0.495919
709074948,12.775966,47.114975,69.634552,0.974482,0.051504,0.460331
709094938,9.222920,48.083584,78.940376,0.962169,-0.046065,0.503848
709114937,11.206121,51.101067,81.326630,0.981928,-0.042200,0.523691
709134935,13.073107,60.061653,85.966278,1.044420,-0.042750,0.571487
709154934,13.827890,69.038368,93.377083,1.049507,-0.077738,0.598802
709174933,0.631390,70.375061,95.718712,0.909200,-0.122215,0.541793
709194932,-3.130555,69.576057,100.314316,0.853224,-0.121053,0.546411
709214930,-25.307507,63.655460,104.135735,0.739873,-0.066850,0.577001
709234929,-26.807312,65.873039,104.588486,0.785388,-0.196616,0.520801
709254928,-22.344601,74.639702,100.318336,0.728158,-0.255600,0.519580
709274928,-7.711027,81.273094,91.132607,0.691392,-0.220147,0.541287
709294927,-13.870934,70.837502,88.077118,0.616972,-0.268913,0.599757
709314926,-9.038737,62.328926,83.032463,0.622785,-0.308736,0.557190
709334925,1.340960,59.626503,73.938889,0.641728,-0.277537,0.611905
709354923,-3.838162,49.196148,64.457466,0.499849,-0.220571,0.609054
709374922,-12.945161,35.728207,53.639870,0.450608,-0.334199,0.574639
709394920,-7.068466,29.261015,43.892399,0.526563,-0.354758,0.571797
709414918,-5.091279,23.756649,37.129711,0.516491,-0.205399,0.683878
709434917,-29.280268,6.728600,25.561218,0.467870,-0.165815,0.684513
709454916,-32.690998,3.300727,9.595737,0.588316,-0.394653,0.543478
709474914,-12.033957,10.635508,3.996606,0.633410,-0.445255,0.650703
709494913,-6.691262,14.308572,6.736907,0.528492,-0.327906,0.742253
709514912,-12.848169,8.121735,0.782003,0.465760,-0.346412,0.664736
709534911,-20.827358,-2.774460,-5.652385,0.524184,-0.433445,0.615398
709554909,-23.276146,-15.593984,-9.162374,0.609525,-0.341429,0.539863
709574908,-22.127911,-18.182190,-7.560027,0.478712,-0.272141,0.607718
709594908,-35.671974,-30.532969,-8.817651,0.375381,-0.104589,0.614229
709614907,-63.489632,-53.819363,-18.935320,0.294306,-0.074266,0.529392
709634906,-78.681007,-78.080551,-30.983278,0.323229,-0.281621,0.394585
709654905,-90.265587,-100.408272,-48.072037,0.561181,-0.419751,0.331238
709674903,-75.243378,-93.221634,-47.990852,0.775741,-0.562685,0.418419
709694902,-54.105919,-92.094437,-42.096642,0.879305,-0.510369,0.435168
709714900,-47.407677,-79.528481,-34.828041,0.857014,-0.507648,0.395405
709734898,-43.736435,-68.687164,-39.430759,0.904400,-0.532209,0.381847
709754897,-27.872601,-44.385044,-55.655590,0.982441,-0.457913,0.518316
709774896,-40.913216,-36.830963,-73.716675,0.887440,-0.382699,0.583248
709794895,-58.710094,-30.199518,-91.379501,0.718130,-0.344963,0.409294
709814894,-28.695616,-7.766673,-118.884720,0.773623,-0.422664,0.524976
709834892,22.551443,21.121544,-152.185287,0.959616,-0.346054,0.512993
709854891,54.750877,35.163929,-156.248871,1.101299,-0.220942,0.508574
709874890,60.451942,30.953663,-141.718307,1.016175,-0.105998,0.518539
709894889,53.095158,18.866089,-143.301758,1.009465,-0.064048,0.460725
709914889,70.949234,30.664339,-151.598480,1.057076,-0.010160,0.491755
709934888,83.775764,41.913834,-156.351257,1.030055,0.044577,0.573193
709954887,77.959145,38.181931,-160.540604,0.972083,0.114795,0.591599
709974890,75.504623,21.749435,-157.278381,0.977027,0.177930,0.564043
709994884,62.662155,12.133478,-153.779221,0.958973,0.274764,0.538566
710014883,44.180153,5.336110,-150.973831,0.939356,0.318680,0.541798
710034880,9.125920,-8.548040,-152.278244,0.901427,0.286323,0.549576
710054879,-10.987835,-18.110266,-153.062531,0.915721,0.244159,0.463894
710074878,-3.810888,-17.477501,-145.529236,0.923289,0.265724,0.413014
710094877,7.845942,-15.642518,-129.343414,0.927089,0.315499,0.415662
710114875,13.321212,-16.290150,-111.317070,0.874573,0.385166,0.410050
710134874,18.893351,-18.788097,-95.942551,0.797785,0.405377,0.425385
710154873,10.925618,-22.212589,-87.896126,0.761718,0.426174,0.459456
710174872,-0.770557,-23.797817,-78.480728,0.749697,0.420195,0.468549
710194870,-12.689786,-26.071352,-66.386230,0.733177,0.390468,0.456707
710214869,-19.648512,-27.956995,-53.153454,0.700528,0.350236,0.455628
710234870,-20.719620,-29.904991,-41.558346,0.698663,0.304542,0.448741
710254868,-19.693056,-24.971556,-32.792965,0.733376,0.298274,0.392450
710274867,-3.806601,-17.143122,-18.903044,0.716589,0.335445,0.354219
710294866,13.060446,-15.099640,-3.912271,0.699229,0.434413,0.396308
710314865,15.971755,-15.296018,7.991079,0.769307,0.461974,0.488537
710334864,10.256139,-9.861480,13.882038,0.832923,0.428655,0.471537
710354861,10.780953,-4.195277,19.257080,0.866240,0.486610,0.409867
710374860,11.056012,1.686481,26.547323,0.826768,0.527644,0.442771
710394858,2.391048,-2.633521,36.706001,0.748543,0.477987,0.496838
710414857,-5.927769,-2.575116,42.549629,0.759740,0.403288,0.432696
710434856,6.400220,5.279539,48.514385,0.806667,0.386171,0.392384
710454855,24.246777,12.674083,50.724735,0.820542,0.417778,0.398241
710474854,29.236029,15.967050,51.872513,0.790590,0.502284,0.465601
710494852,19.839430,15.927926,54.157421,0.789606,0.537442,0.507011
710514851,8.903379,15.992962,58.219536,0.835685,0.556218,0.458020
710534852,4.304317,18.814337,63.623280,0.825025,0.553585,0.429767
710554850,1.317648,20.777916,67.556877,0.781071,0.512572,0.452577
710574849,0.341338,22.296379,68.831146,0.794381,0.438553,0.445456
710594848,6.921101,23.342260,68.165604,0.803974,0.413308,0.410731
710614847,14.327001,20.145836,65.767662,0.797208,0.425697,0.377087
710634846,16.139732,15.081216,61.625511,0.806379,0.460408,0.364149
710654857,13.493530,12.122270,59.941158,0.798442,0.489801,0.360881
710674842,14.758869,10.339789,59.449501,0.728231,0.434767,0.400517
710694841,14.065716,6.053084,55.467251,0.705987,0.370283,0.460666
710714840,7.927831,4.121800,48.071892,0.729716,0.327549,0.469862
710734838,6.005025,8.234173,39.322800,0.772888,0.318109,0.452198
710754837,4.921990,10.491728,33.914383,0.807557,0.373221,0.454346
710774836,-7.841256,5.372296,32.111252,0.855776,0.405647,0.492097
710794834,-22.440563,0.592310,31.675257,0.859510,0.338297,0.504754
710814833,-31.360304,-4.165921,24.647388,0.815045,0.189605,0.479226
710834832,-31.728281,-10.125550,15.328905,0.815786,0.137566,0.413992
710854832,-23.910318,-13.212046,12.229455,0.840591,0.168175,0.404376
710874831,-16.466084,-16.845369,14.248543,0.872468,0.196471,0.415208
710894829,-10.103472,-16.759029,15.336190,0.853077,0.213873,0.414563
710914828,-7.706851,-16.079975,11.986055,0.814676,0.219247,0.428324
710934827,-8.918593,-16.705158,4.767456,0.794887,0.248926,0.440165
710954826,-12.867982,-18.838715,-2.173423,0.803047,0.291057,0.436043
710974823,-17.340107,-20.156750,-9.503176,0.832644,0.313297,0.420492
710994822,-19.377533,-19.617348,-16.024143,0.874978,0.313476,0.406777
711014821,-20.428999,-17.255413,-20.293276,0.884531,0.284844,0.414793
711034820,-23.487167,-16.817730,-23.100645,0.882247,0.273725,0.422147
711054818,-26.856653,-17.881786,-24.387516,0.904239,0.276727,0.410373
711074817,-30.720858,-18.773918,-25.080158,0.918083,0.252459,0.393098
711094816,-30.670654,-19.577303,-24.012838,0.924045,0.214549,0.382703
711114815,-31.901615,-16.963745,-23.509909,0.956555,0.181323,0.364203
711134813,-25.831247,-12.849043,-18.837101,0.941894,0.146446,0.357385
711154812,-13.453247,-11.098191,-8.779263,0.913427,0.119734,0.379766
711174813,-8.492414,-11.496765,0.258291,0.917238,0.141817,0.391232
711194811,-5.748530,-7.730367,6.710917,0.948617,0.160678,0.383596
711214810,-1.339466,-3.217034,10.842353,0.946803,0.123815,0.415796
711234811,0.730719,0.390476,13.901874,0.953527,0.137323,0.416842
711254808,-1.471505,3.900134,16.297413,0.972315,0.175573,0.405041
711274807,-4.664257,5.673070,21.729885,0.959413,0.172767,0.418546
711294804,-6.545354,5.631755,28.053713,0.962815,0.129475,0.453907
