Timestamp (us),Gyroscope X (deg/s),Gyroscope Y (deg/s),Gyroscope Z (deg/s),Accelerometer X (g),Accelerometer Y (g),Accelerometer Z (g)
4560485796,-8.411200,-10.621197,29.715698,0.860075,-0.279393,0.272265
4560505757,-11.368504,-10.270055,29.454952,0.867452,-0.297295,0.284076
4560525718,-14.816566,-7.994906,28.400406,0.853752,-0.312904,0.288633
4560545679,-16.769638,-8.137881,26.064219,0.836644,-0.325418,0.297267
4560565640,-17.327038,-10.287082,22.900803,0.837642,-0.305812,0.308437
4560585601,-21.012356,-11.991743,20.265236,0.874185,-0.291255,0.304134
4560605562,-23.278353,-10.247246,18.152876,0.929629,-0.310802,0.299643
4560625523,-19.584991,-6.708378,13.978024,0.952182,-0.337965,0.291851
4560645484,-11.177782,-3.099119,10.691430,0.937617,-0.359778,0.306602
4560665446,-6.699300,-0.551281,10.338131,0.912394,-0.361854,0.327118
4560685407,-5.158537,1.712490,11.538966,0.932492,-0.377722,0.325378
4560705368,-0.338801,4.122613,11.316020,0.967844,-0.394283,0.293243
4560725329,9.074038,3.971250,7.742381,0.929509,-0.399260,0.273862
4560745291,12.325457,2.370879,7.467121,0.866182,-0.405534,0.272439
4560765252,12.936535,3.101795,12.613668,0.868476,-0.420454,0.279464
4560785213,19.406816,5.662665,14.331251,0.898779,-0.401619,0.258585
4560805174,26.906227,5.454675,9.817877,0.877641,-0.373289,0.247717
4560845096,21.140322,-0.493067,4.123242,0.882582,-0.371904,0.296230
4560865060,19.214666,-2.104337,-2.202692,0.905450,-0.352975,0.295246
4560885018,16.894966,-1.051917,-8.177207,0.893004,-0.292592,0.294393
4560904979,24.560692,-0.380429,-9.997106,0.885791,-0.288685,0.270430
4560924941,53.978539,6.694885,-7.299706,0.907581,-0.383984,0.264832
4560944901,75.497292,8.836946,2.884888,0.817436,-0.523340,0.306440
4560964861,66.729103,-14.700134,4.150931,0.799035,-0.483428,0.225405
4560984822,68.086220,-31.621681,-1.526533,0.909010,-0.313467,0.158527
4561004783,62.412964,-33.062592,-8.502617,0.971394,-0.173487,0.258275
4561024744,35.894638,-26.047737,-18.770544,1.009065,-0.083705,0.326611
4561044705,15.164358,-10.716355,-17.738731,0.968650,-0.135147,0.373154
4561064666,8.345458,-5.282225,-7.614754,0.923816,-0.245214,0.373497
4561084627,15.930067,-6.249680,3.568190,0.908042,-0.300707,0.365557
4561104588,14.018168,-6.399269,5.550521,0.946564,-0.249593,0.388556
4561124549,-6.681767,2.771937,2.774168,0.971670,-0.189607,0.374648
4561144510,-27.717958,8.713698,0.775650,0.908724,-0.199038,0.337769
4561164471,-35.236446,7.679953,-3.323164,0.911146,-0.259680,0.295189
4561184432,-27.626360,10.418186,-6.117779,0.914091,-0.326984,0.244895
4561204394,-9.902969,6.905127,-8.004438,0.865263,-0.331776,0.243167
4561224354,6.812188,0.764322,-9.723535,0.880309,-0.287352,0.283147
4561244316,12.975709,-1.706170,-6.959697,0.916694,-0.270110,0.300743
4561264276,16.382816,-4.509820,-4.067862,0.904909,-0.270859,0.297078
4561284237,18.015701,-7.607718,-2.820762,0.896181,-0.259107,0.286436
4561304200,12.851897,-9.612212,-1.870975,0.902028,-0.239183,0.285488
4561324161,0.816068,-8.800724,-3.186983,0.924307,-0.221299,0.281051
4561344122,-9.896214,-3.215523,-3.488770,0.933994,-0.232415,0.311006
4561364083,-20.662605,2.228853,-2.060140,0.939218,-0.279490,0.315515
4561384044,-21.634218,5.126014,0.011818,0.920839,-0.318515,0.325470
4561404020,-17.198927,3.108459,-1.617412,0.903439,-0.327561,0.309909
4561423966,-9.317514,0.359832,-2.057803,0.903679,-0.333377,0.297716
4561443928,-1.458761,-3.196376,-3.256002,0.911235,-0.323682,0.276023
4561463888,7.891116,-5.008332,-4.512595,0.914760,-0.302927,0.261906
4561483850,15.404199,-6.454996,-4.781592,0.916947,-0.275709,0.266053
4561503811,15.096004,-7.099893,-4.516017,0.920738,-0.251901,0.286859
4561523788,7.770489,-6.254523,-4.199966,0.923492,-0.237286,0.293682
4561543731,-1.077975,-5.388536,-3.615759,0.918449,-0.241407,0.288011
4561563692,-8.267799,-3.819261,-2.374433,0.916523,-0.248421,0.279440
4561583653,-14.109400,-1.275508,-2.245751,0.921992,-0.255126,0.297225
4561603614,-20.359238,1.451221,-2.536108,0.920182,-0.274203,0.296776
4561623575,-17.443483,3.117335,-1.375372,0.909866,-0.301121,0.288741
4561643536,-10.237364,3.356534,0.431595,0.912014,-0.331834,0.284821
4561663498,-3.318397,0.254558,0.489453,0.913159,-0.331422,0.276458
4561683458,4.685470,-0.349695,0.137336,0.914923,-0.305031,0.267316
4561703419,9.154630,-2.586442,-0.770460,0.899370,-0.278960,0.286182
4561723380,6.943452,-3.159743,-1.953269,0.921178,-0.265537,0.274706
4561743341,1.325069,-0.591601,-0.693064,0.923130,-0.271572,0.279849
4561763302,-2.724368,-0.581392,-2.042197,0.915523,-0.261357,0.283003
4561783263,-3.108347,-0.167188,-0.898084,0.912039,-0.258081,0.280791
4561803224,-3.953423,-0.991327,0.140104,0.900198,-0.258883,0.285960
4561823185,-5.722150,-2.381741,-2.019056,0.909860,-0.251580,0.294941
4561843147,-7.233618,-0.781581,-2.861277,0.928097,-0.272973,0.287066
4561863108,-3.696383,2.320184,-1.548845,0.930462,-0.299574,0.272338
4561883070,2.254747,1.073300,0.491468,0.907931,-0.295845,0.287617
4561903031,2.785285,-1.213066,-1.089548,0.919283,-0.257123,0.289286
4561922992,-0.540910,-1.624367,-2.898616,0.921643,-0.249454,0.299493
4561942953,-4.130651,0.859035,-2.732045,0.929509,-0.262122,0.290375
4561962914,-2.731247,1.940083,0.048689,0.915586,-0.295207,0.293120
4561982875,-2.146597,1.431698,1.538905,0.938149,-0.286259,0.299397
4562002836,-4.398525,4.608968,0.957509,0.968355,-0.284064,0.296819
4562022798,-4.396729,9.065938,1.201305,0.932612,-0.310447,0.301149
4562042759,-2.150077,8.482231,1.915417,0.884754,-0.323057,0.275163
4562062720,0.228230,5.272021,1.449941,0.887839,-0.308348,0.251302
4562082681,6.495695,4.563110,3.012362,0.890781,-0.307131,0.255798
4562102640,12.481021,7.703652,4.803370,0.891219,-0.306193,0.251875
4562122601,11.274391,13.387083,4.160968,0.869831,-0.309462,0.292970
4562142562,9.089350,11.306260,5.917601,0.860222,-0.304841,0.303827
4562162523,4.458758,5.386337,8.256273,0.865886,-0.241680,0.294337
4562182484,-4.938150,3.770657,6.755289,0.903512,-0.216757,0.290976
4562202445,-15.108829,5.905646,4.745241,0.912030,-0.261990,0.311907
4562222407,-16.052401,7.969965,4.928773,0.907897,-0.301256,0.303004
4562242367,-6.893382,4.005343,6.900265,0.877895,-0.320542,0.305592
4562262329,1.808976,-0.532545,6.715713,0.883052,-0.284148,0.311556
4562282290,1.412899,-1.864363,5.615930,0.910439,-0.243263,0.335793
4562302251,-2.758117,2.482036,4.760815,0.914613,-0.247153,0.340031
4562322211,-8.370790,9.612911,2.158799,0.902201,-0.292881,0.343376
4562342172,-12.761765,11.636011,-0.924857,0.884483,-0.349001,0.353349
4562362134,-9.752695,7.472655,-5.409211,0.902662,-0.364685,0.319336
4562382095,1.062457,3.505617,-9.541718,0.930480,-0.326499,0.283525
4562402056,10.349875,-2.507556,-12.530215,0.996255,-0.240165,0.297523
4562422017,11.727842,-3.578047,-16.986633,1.058789,-0.122659,0.321149
4562441978,2.435037,-1.742544,-26.567568,1.009540,-0.013767,0.304439
4562461940,-11.430516,-4.438352,-35.246109,0.953487,0.014593,0.252134
4562481901,-23.095877,-1.660523,-37.626347,0.946358,-0.085893,0.219410
4562501862,-27.472610,5.859403,-33.918060,0.992792,-0.214294,0.317524
4562521823,-30.206823,16.516840,-40.545811,1.111796,-0.223179,0.428398
4562561745,-23.453606,13.342786,-72.652313,1.163463,0.099041,0.295215
4562581706,-12.999362,-0.543701,-74.896606,1.118984,0.152313,0.201736
4562601667,19.343603,-5.576810,-72.027245,1.023819,0.134542,0.180977
4562621629,32.084877,-7.300436,-69.371811,1.069890,0.225244,0.106576
4562641589,-0.858419,-11.882220,-74.315865,1.203575,0.546720,0.067793
4562661550,-103.948540,-11.256473,-93.206001,1.378460,0.901239,0.017841
4562681510,-223.298080,-0.586884,-105.046005,1.325050,0.828021,-0.222160
4562701471,-258.523071,-3.996144,-109.156929,1.088767,0.371542,-0.418989
4562721432,-245.405823,-20.674442,-118.879005,1.088130,0.377652,-0.486577
4562741393,-255.109894,-28.475954,-118.603432,1.115837,0.553442,-0.498965
4562761354,-315.663971,-20.044931,-129.168106,1.185405,0.465219,-0.645950
4562781315,-354.504883,-5.455906,-140.262177,1.196648,0.041954,-0.677330
4562801276,-337.208557,-2.856970,-151.517136,0.953568,-0.251852,-0.719866
4562821237,-286.988068,-23.245554,-169.876801,0.915109,-0.423973,-0.737785
4562861159,-215.281433,-45.301315,-147.582397,1.110334,0.040927,-0.640741
4562881120,-272.860321,-29.219772,-119.594460,1.226597,0.048017,-0.826039
4562901081,-326.629639,-27.840637,-94.144768,0.964205,-0.211791,-1.012908
4562921042,-302.817291,-43.299805,-66.986732,1.029903,-0.401760,-0.946670
4562941004,-266.519135,-38.213745,-63.102451,0.969226,-0.351005,-0.900351
4562960965,-282.852753,-28.951839,-55.489784,0.996276,-0.229263,-0.898116
4562980926,-341.381805,-26.379869,-23.075344,0.937760,-0.414617,-0.971188
4563000887,-361.568085,-7.144459,14.024903,1.207651,-0.690644,-0.665037
4563020848,-318.639008,4.963581,18.406334,1.716994,-0.596938,-0.062050
4563040810,-326.129883,-10.996520,11.628087,1.948148,-0.374627,0.180499
4563060772,-366.659790,-8.897658,7.726665,1.750469,-0.241753,0.094745
4563080733,-400.952301,29.050873,6.198123,1.551579,-0.216814,-0.044083
4563120654,-420.839447,72.101250,-14.476471,1.130156,-0.480972,-0.106220
4563140616,-353.660217,70.616127,-22.251488,1.095598,-0.640456,-0.345373
4563160577,-235.450363,68.120087,-16.840515,0.956255,-0.763230,-0.342275
4563180538,-137.411591,54.501583,-11.456811,0.871718,-0.712224,-0.208524
4563200498,-93.216835,45.020729,-11.873390,0.884674,-0.504263,-0.175814
4563220460,-93.485504,45.744732,-19.062532,0.910334,-0.346709,-0.212163
4563240421,-121.229683,48.877487,-29.283175,0.972487,-0.274219,-0.239894
4563260380,-172.863953,54.699715,-40.952877,1.026894,-0.288946,-0.201410
4563280341,-236.293030,63.886009,-51.118347,0.999651,-0.359102,-0.163334
4563300302,-281.923889,67.854675,-56.056396,0.917983,-0.440793,-0.144553
4563320263,-298.193939,62.086063,-57.452457,0.860686,-0.512296,-0.145343
4563340225,-286.825287,50.599319,-56.175827,0.860036,-0.559441,-0.143581
4563360186,-257.252625,38.431576,-54.526855,0.864741,-0.558478,-0.130307
4563380147,-217.979294,28.298679,-54.214962,0.857460,-0.516580,-0.123569
4563400108,-182.386230,20.259724,-50.912949,0.847224,-0.469884,-0.095290
4563420069,-164.325302,12.784328,-48.588036,0.897946,-0.435494,-0.075983
4563440030,-160.205902,9.870525,-50.156258,1.017640,-0.415453,-0.094058
4563459991,-166.092545,15.825644,-55.466839,1.073355,-0.386348,-0.109449
4563479952,-185.966400,24.962673,-62.558788,1.051044,-0.321643,-0.138874
4563499913,-212.730972,30.118876,-67.200989,1.045993,-0.275445,-0.203285
4563519874,-238.159348,35.374550,-69.425507,1.066331,-0.287760,-0.266544
4563539835,-255.544037,41.929733,-70.691879,1.072498,-0.335562,-0.329847
4563559796,-258.331055,48.679596,-69.208473,1.067652,-0.389911,-0.369932
4563579757,-258.923615,52.886566,-65.664871,1.092986,-0.418464,-0.365084
4563599718,-262.625397,58.092648,-61.852238,1.102825,-0.432890,-0.362482
4563619681,-270.622833,65.059837,-58.906441,1.077391,-0.445626,-0.362558
4563639642,-277.352417,72.306984,-58.423431,1.080658,-0.447713,-0.384865
4563659603,-275.939178,78.791946,-57.191376,1.096161,-0.461663,-0.382986
4563679564,-268.482666,85.348251,-56.273396,1.079646,-0.498912,-0.374574
4563699525,-258.187408,86.980316,-56.530209,1.064445,-0.527708,-0.352891
4563719486,-245.888794,82.779243,-57.469913,1.018355,-0.516838,-0.313483
4563739447,-234.146423,76.164337,-57.041756,0.952585,-0.494849,-0.310951
4563759408,-223.398117,68.677773,-52.987831,0.948504,-0.483309,-0.332797
4563779369,-210.949112,65.329453,-49.427792,0.964712,-0.459487,-0.308485
4563799330,-208.849213,63.935379,-47.286148,1.012446,-0.396268,-0.246814
4563819291,-216.876495,63.519066,-47.714287,1.049176,-0.363560,-0.246767
4563839252,-223.635620,61.881702,-52.014606,1.023388,-0.348818,-0.226629
4563859212,-226.913086,56.028301,-56.016312,0.997381,-0.339861,-0.185728
4563879173,-231.599564,49.463833,-60.363129,1.042817,-0.370540,-0.218814
4563899134,-220.730270,61.313438,-53.909103,0.989685,-0.369572,-0.221352
4563919095,-213.054535,63.019112,-51.988930,0.896150,-0.375106,-0.218424
4563939056,-216.255142,54.871040,-54.871311,0.828691,-0.348232,-0.193784
4563959017,-243.638519,39.692650,-48.723385,0.968633,-0.275928,-0.222726
4563978978,-257.390594,41.206490,-40.126755,1.117185,-0.295210,-0.267584
4563998939,-265.925934,48.871899,-38.739609,1.092454,-0.332810,-0.127186
4564018900,-258.584595,57.786552,-33.825912,1.101798,-0.290579,-0.079626
4564038861,-237.833389,74.471329,-27.574131,1.074504,-0.363143,-0.094419
4564058822,-224.792007,65.306053,-33.968338,0.948645,-0.452178,-0.149268
4564078783,-199.711563,46.785610,-40.703423,0.916025,-0.406333,-0.269908
4564098744,-174.507446,45.234951,-49.413944,1.005983,-0.309552,-0.264107
4564118705,-183.314102,62.112782,-62.089462,1.062139,-0.128945,-0.150478
4564138666,-216.656769,64.621849,-69.914238,1.066281,-0.046224,-0.172428
4564158627,-242.652206,58.380272,-64.822426,1.093972,-0.147287,-0.251036
4564178588,-257.773071,58.183918,-57.942970,1.118226,-0.308924,-0.315785
4564198551,-273.640625,62.347439,-58.646729,1.051822,-0.359997,-0.343303
4564218512,-274.094818,60.827492,-58.850876,0.975919,-0.381756,-0.330952
4564238473,-260.100952,55.436584,-58.826931,0.979793,-0.420800,-0.306566
4564258434,-241.346619,54.029781,-62.997734,0.979862,-0.409244,-0.249658
4564278395,-227.948151,51.413967,-71.783623,0.947247,-0.342940,-0.195521
4564298356,-221.048981,42.691528,-75.732231,0.947385,-0.283814,-0.192663
4564318317,-212.660965,34.962627,-74.903664,1.043128,-0.274337,-0.260178
4564338278,-195.002502,37.841106,-75.206314,1.143513,-0.313698,-0.338464
4564358239,-193.904129,39.326275,-76.138397,1.119839,-0.332699,-0.305622
4564378200,-209.115723,28.469719,-72.225952,1.077100,-0.359779,-0.291757
4564398161,-216.872772,18.828810,-68.381760,1.020512,-0.363188,-0.247846
4564418122,-221.396683,12.762859,-62.870144,1.096676,-0.207328,-0.146466
4564438082,-227.808792,7.324006,-69.903404,1.393354,0.033471,-0.278375
4564458043,-210.025146,10.718746,-115.598679,1.195999,0.123715,-0.407317
4564478004,-230.371658,22.144135,-123.796066,0.884480,0.021103,-0.160201
4564497965,-290.742645,45.420517,-96.162048,0.956613,-0.254505,-0.139884
4564517926,-301.175110,59.579926,-71.726654,1.074500,-0.640044,-0.319632
4564537887,-249.702469,47.291607,-53.733437,0.971167,-0.862951,-0.325616
4564557848,-198.320099,22.572838,-45.390842,0.853314,-0.648055,-0.172213
4564577809,-182.786331,-0.260931,-41.533443,0.879647,-0.244224,-0.056868
4564597770,-192.591797,-8.085588,-34.055817,0.986212,-0.118350,0.023250
4564637692,-180.085953,-0.399608,-23.097225,1.213830,-0.267615,-0.002548
4564657653,-181.798996,8.697130,-36.473846,1.158602,-0.187774,0.022632
4564677614,-198.151596,9.525265,-58.955833,1.123533,-0.032393,-0.037470
4564697575,-158.777298,3.758380,-76.910248,1.204295,0.000826,0.047426
4564717536,-136.489807,8.575531,-107.816177,1.285130,0.207394,-0.004559
4564737497,-135.850525,23.538275,-131.234589,1.048612,0.246891,-0.019652
4564757458,-158.278259,17.138430,-131.086639,1.055009,-0.012588,0.025238
4564777421,-180.189499,17.763449,-131.152374,1.328867,-0.124981,0.092203
4564797382,-169.798172,23.470007,-162.227982,1.200528,0.052490,-0.009037
4564817343,-138.614334,14.289652,-192.567520,0.793193,0.014141,-0.085451
4564837304,-114.109344,-27.480003,-155.531982,0.815094,-0.521469,-0.065075
4564857265,-91.766617,-54.400112,-123.329895,0.892495,-0.555202,0.151074
4564877226,-98.825989,-57.588356,-116.555939,0.876673,-0.080696,0.108863
4564897187,-102.598091,-45.962940,-104.943619,0.888156,0.038502,0.131253
4564917150,-101.007607,-36.194225,-92.923744,0.833761,-0.073719,0.288538
4564937109,-84.981804,-48.342789,-95.668297,0.813778,-0.091715,0.237198
4564957070,-40.596607,-63.232750,-104.303085,0.802014,0.068252,0.152862
4564977031,-17.905890,-69.982109,-100.423302,0.775885,0.168815,0.148550
4564996992,-30.019024,-68.083786,-87.139160,0.750067,0.181392,0.076478
4565016952,-47.056564,-63.789513,-81.441521,0.810689,0.177955,0.070816
4565036913,-55.954170,-61.732452,-82.369553,0.971438,0.247461,0.114059
4565056874,-49.354164,-54.435883,-81.516220,1.089420,0.253290,0.179780
4565076835,-37.701874,-41.976402,-84.380310,1.060935,0.283242,0.249886
4565096796,-28.787415,-29.364038,-87.420647,1.017235,0.251085,0.263999
4565116757,-18.886911,-18.565012,-83.040154,1.056528,0.182807,0.272395
4565136718,-4.396861,-12.723228,-78.356277,1.116312,0.253033,0.287093
4565156679,7.266373,-8.853209,-82.937889,1.097213,0.442039,0.331090
4565176640,14.803350,-1.210464,-93.701363,0.985751,0.542130,0.277595
4565196601,17.813286,11.240428,-91.896156,0.915228,0.385827,0.274400
4565216562,28.290718,19.474104,-87.836273,0.902342,0.307494,0.217076
4565236523,37.764050,19.288862,-93.026199,0.904532,0.422117,0.237094
4565256484,39.751278,19.576540,-98.059441,0.912949,0.517469,0.255264
4565276445,48.547272,22.512939,-98.763336,0.896693,0.541026,0.238462
4565296406,57.430935,25.446440,-97.000397,0.851256,0.562803,0.228439
4565316367,63.661228,28.071701,-97.666771,0.748576,0.581133,0.159690
4565336328,64.936913,29.764372,-97.247665,0.695482,0.664639,0.113638
4565356290,63.341507,27.634291,-96.354202,0.665865,0.754344,0.066732
4565376252,59.297562,26.042938,-88.646759,0.638308,0.827652,0.012666
4565396213,44.593018,29.891714,-77.681274,0.654392,0.802117,0.006003
4565416174,28.857500,37.426121,-65.943008,0.699635,0.754302,0.013079
4565436135,18.521643,45.730057,-56.252365,0.661043,0.750792,0.031734
4565456096,13.323668,48.704849,-45.026478,0.639282,0.728700,0.040985
4565476057,11.080277,52.807739,-31.621944,0.632295,0.672273,0.018925
4565496018,9.323483,53.396179,-17.929743,0.628124,0.699188,0.016495
4565535940,-17.573395,54.140228,29.262291,0.487266,0.730641,0.016311
4565555901,-46.941872,54.479404,49.071754,0.553803,0.780805,0.018986
4565575862,-86.369598,61.760124,63.403591,0.573045,0.793288,0.128044
4565595825,-111.448364,72.344475,94.421478,0.582544,0.593605,0.211351
4565615783,-96.795731,67.297310,133.874069,0.628755,0.385968,0.267687
4565635744,-69.502747,55.980247,169.021500,0.701475,0.292925,0.321994
4565675666,-52.627178,14.238075,233.938034,0.724461,0.376751,0.382874
4565695627,-32.581200,-15.030233,267.122681,0.685234,0.306369,0.484113
4565715589,-2.335713,-54.211605,310.760925,1.150359,0.158983,0.431769
4565735550,14.617255,-44.290699,399.795593,1.795366,0.208312,0.525931
4565755511,-2.617889,-9.553612,514.468872,1.911262,0.240189,0.381926
4565775472,-29.815754,61.512890,553.540344,2.060313,-0.206967,0.324872
4565795433,-172.917984,25.993824,317.788177,2.850854,-0.451131,0.331077
4565815394,-10.482899,-36.804451,147.103058,2.958272,2.612980,-0.313872
4565835355,194.028137,32.849957,-93.638123,2.118483,3.893538,0.699147
4565855315,78.072830,66.564949,-49.954460,0.228704,0.473856,1.091215
4565875276,-48.235855,-25.253817,-108.870430,0.297862,-0.133426,-0.177534
4565895237,-75.087250,-11.632466,-101.928955,1.453242,1.037338,-0.158129
4565915198,-190.286118,-9.774107,-75.681175,1.296485,0.449507,0.274157
4565935159,-234.368256,-32.249813,-116.821625,1.071712,-0.293017,0.024674
4565955122,-113.860977,-21.890944,-121.546539,0.809828,-0.472831,-0.006141
4565975083,20.584326,-25.325136,-103.117813,0.569125,-0.221929,0.129212
4565995044,70.648872,-34.544361,-88.974060,0.546857,0.253825,0.348483
4566015005,14.298895,-36.859035,-96.632385,0.636241,0.551437,0.467999
4566034966,-68.055374,-16.735403,-113.411224,0.800496,0.435475,0.355988
4566054927,-104.347893,10.014447,-105.146896,0.850409,0.162960,0.279776
4566074888,-111.434593,34.162426,-96.364731,0.900252,-0.052464,0.228762
4566094849,-96.259583,63.642742,-100.677017,0.914816,-0.154936,0.150118
4566114810,-67.933434,74.058456,-102.557053,0.828389,-0.187367,0.121381
4566134771,-46.218513,58.882553,-104.124702,0.803580,-0.191828,0.115809
4566154732,-34.518711,44.787407,-106.045792,0.872915,-0.127638,0.122312
4566174699,-32.270657,44.115028,-104.048927,0.869017,-0.063080,0.195490
4566194653,-40.510983,43.407326,-94.717369,0.748890,-0.087282,0.264438
4566214614,-38.902878,30.789532,-81.495209,0.651020,-0.171035,0.248807
4566234575,-22.127686,10.120038,-65.934074,0.631593,-0.186020,0.242231
4566254536,1.472266,-4.227226,-49.616081,0.741433,-0.150931,0.239209
4566274497,35.638813,0.843239,-30.476503,0.887228,-0.149985,0.332656
4566294459,62.591339,15.132838,-18.000103,0.883700,-0.085928,0.465221
4566314419,81.397469,22.355103,-15.808536,0.863009,0.021909,0.477372
4566334381,110.644562,30.797014,0.539607,1.002668,-0.021924,0.487936
4566354342,120.724426,68.205482,42.752079,1.277138,-0.100112,0.750135
4566374302,107.683754,108.672310,15.129305,1.041726,0.369023,0.657543
4566394264,133.659134,101.536942,-27.570881,0.713481,0.550145,0.340858
4566414224,165.742477,51.958622,-19.163837,0.566818,0.365507,0.098695
4566434185,185.871216,22.506880,-27.697643,0.602193,0.514370,0.059296
4566454147,145.402634,27.245590,-15.983801,0.650383,0.489350,0.104391
4566474108,90.000168,31.960623,1.805381,0.528776,0.416119,0.163734
4566494069,19.830725,28.128094,11.483406,0.717947,0.500601,0.138410
4566514030,-26.358997,55.227745,37.959454,0.641780,0.475472,0.311990
4566533992,-35.136932,41.975094,70.592308,0.456707,0.239395,0.236335
4566553953,-25.415504,24.471344,102.381920,0.466551,0.147957,0.162979
4566573914,-12.511209,7.525222,144.191650,0.308487,0.186817,0.303048
4566593875,8.092549,-29.831055,191.362335,0.370574,-0.029776,0.379855
4566613836,44.663288,-57.669914,227.953964,1.214482,0.078209,0.162267
4566633797,43.221558,-45.978447,275.934753,1.567769,0.518587,0.285650
4566653758,8.572805,-36.566563,328.810638,1.508170,0.362505,0.211897
4566673719,-5.328153,17.184072,381.635651,1.734938,0.164467,0.406250
4566693680,-155.605835,-8.916841,297.975342,2.413495,-0.199116,0.764311
4566713641,-84.474937,-18.889965,171.808517,2.806405,1.267301,0.264687
4566733603,108.894218,26.987488,-9.486096,1.424212,2.418339,0.371190
4566753562,102.852043,54.425812,18.480625,0.367927,1.097282,0.376188
4566773523,2.045893,-43.172089,-14.872370,0.871968,0.578714,0.174923
4566793484,-92.317215,-0.788903,-43.131046,2.105230,0.850051,0.127715
4566813445,-172.876297,10.404304,-39.368835,1.563285,0.048613,0.455720
4566833406,-159.427109,-14.447731,-59.088024,1.318923,-0.233203,0.393022
4566853367,-73.473808,-0.799052,-52.236771,1.241408,-0.075504,0.318354
4566873328,-7.496895,-1.062192,-40.527977,1.046590,0.185029,0.274361
4566893289,23.051634,-21.884520,-33.664097,1.008837,0.361670,0.261396
4566913250,14.698183,-28.157282,-46.227623,1.058666,0.411347,0.250023
4566933211,-7.434233,-20.807344,-71.910828,0.996435,0.435324,0.167079
4566953172,-37.297241,-18.136892,-88.452171,0.861683,0.434874,0.165253
4566973133,-64.671112,-14.966956,-94.740326,0.813040,0.328500,0.166740
4566993094,-80.546722,-6.504570,-98.190308,0.854089,0.192706,0.190480
4567013055,-88.441551,-3.564525,-104.656616,0.799218,0.037594,0.292364
4567033016,-87.625648,-9.373329,-110.223450,0.734525,-0.071456,0.348238
4567052978,-86.243271,-8.245708,-107.002678,0.772964,-0.121974,0.352230
4567072939,-80.223900,7.959168,-109.374886,0.880940,-0.225904,0.252375
4567092900,-54.403145,36.190357,-116.625183,0.891540,-0.232923,0.158982
4567112862,-38.204777,47.200584,-118.204636,0.706905,-0.168798,0.186417
4567132823,-34.591358,41.402607,-121.515785,0.641110,-0.132410,0.160300
4567152784,-27.601028,43.415478,-119.196106,0.687206,-0.108333,0.167308
4567172745,-19.345797,40.528904,-108.281303,0.747305,-0.043852,0.187205
4567192706,-4.621868,25.488848,-95.072891,0.823476,0.006390,0.245604
4567212667,-3.936582,6.131580,-84.059822,0.931879,0.121703,0.357072
4567232632,-14.726517,0.335362,-64.111488,1.016852,0.219949,0.422312
4567252590,-32.646679,9.635345,-43.928467,0.991519,-0.007250,0.389327
4567272551,-8.966542,28.268948,-20.783482,0.832027,-0.378112,0.364429
4567292512,56.679428,34.431068,-2.512957,0.569175,-0.412501,0.369096
4567312473,131.976425,20.168415,16.965986,0.412718,-0.219989,0.313080
4567332432,173.047623,10.798223,47.556839,0.680249,0.011741,0.367371
4567352394,159.426315,28.563351,48.623688,1.084586,0.607065,0.486785
4567372355,107.609207,77.288788,23.524313,1.204210,0.958004,0.575749
4567392315,14.486713,120.721565,76.307899,0.814962,0.118726,0.163655
4567412277,11.666281,7.661426,91.752625,0.392640,-0.167598,-0.315290
4567432237,53.062641,-11.803785,173.914505,0.535792,-0.104034,-0.006736
4567452199,41.820900,-17.118164,198.262497,0.513515,0.446078,0.287263
4567472160,-19.419788,-22.060974,229.601532,0.528119,0.404229,0.201890
4567492121,-32.635178,-54.738338,276.934204,0.562805,0.131137,0.224756
4567532043,46.572895,-72.478424,331.722046,2.999358,-0.389374,-0.009422
4567552004,-7.125909,-2.679299,247.417923,2.886989,0.353837,0.595837
4567571965,-40.077335,-10.050617,111.477173,1.519793,1.770398,0.912262
4567591926,-14.456900,-24.935936,67.952568,0.917320,0.527272,0.593570
4567611887,60.011059,-48.742176,33.732773,1.185478,0.348964,-0.371496
4567631848,111.397751,-17.759253,17.349314,1.437749,0.789725,0.042701
4567651809,7.454577,-16.741026,10.689907,1.155474,0.811392,0.336580
4567671789,-96.157288,-29.112581,9.546341,1.203982,0.440716,0.278888
4567691733,-148.761810,-5.199621,3.189341,1.215781,0.101283,0.255524
4567711694,-155.203796,23.357599,4.666024,0.969157,0.014493,0.262622
4567731655,-134.397858,21.020226,13.655830,0.757272,-0.129703,0.235054
4567751616,-85.602676,6.090473,22.407839,0.749407,-0.299896,0.153010
4567771577,-15.909982,-4.939866,25.614504,0.935518,-0.360295,0.126543
4567791538,35.201469,-0.398274,24.334633,1.053614,-0.300407,0.128274
4567811502,39.292355,-0.890101,24.508265,1.007597,-0.203832,0.216546
4567831460,7.760544,1.068861,29.577114,1.025232,-0.105696,0.251413
4567851421,-31.598608,13.031456,31.364468,0.922256,-0.066021,0.255977
4567871382,-72.637238,20.153866,25.025246,0.681231,-0.072009,0.229072
4567891343,-99.449272,14.171642,29.210829,0.606593,-0.218345,0.183385
4567911303,-85.545197,8.362125,40.216980,0.627170,-0.481970,0.222047
4567931264,-57.500637,4.515728,43.988682,0.874945,-0.537075,0.290600
4567951225,-17.669592,8.025968,37.610931,0.906823,-0.494922,0.286578
4567971186,16.150122,9.523867,34.487370,0.729704,-0.349639,0.318194
4567991147,15.029902,10.142787,30.399643,0.766088,-0.144189,0.326242
4568011108,-5.887588,8.179019,30.363813,0.912324,-0.106052,0.321287
4568031069,-38.984875,10.391858,26.873840,0.939455,-0.169026,0.335656
4568051030,-50.566990,13.825679,21.836601,0.831734,-0.233405,0.326357
4568070991,-48.147705,16.537977,24.345047,0.804274,-0.267877,0.386428
4568090952,-43.864670,18.372604,24.500660,0.957739,-0.230715,0.400654
4568110913,-31.220613,16.265926,18.087004,0.931529,-0.234226,0.403145
4568130874,-24.946299,11.051320,14.123501,1.067805,-0.188473,0.420830
4568150835,-36.554050,16.870302,0.142286,1.181194,-0.039401,0.388779
4568170796,-41.015266,22.765585,-17.473520,0.873012,0.011642,0.341586
4568190757,-54.068764,20.479485,-10.288123,0.931562,-0.013846,0.393161
4568210718,-85.209862,25.614712,-9.647355,1.064997,-0.019428,0.366924
4568230679,-103.476044,31.682930,-19.954905,0.846253,-0.031130,0.387782
4568250642,-120.523354,26.566576,-12.163731,0.805682,-0.189111,0.427872
4568270602,-130.548660,28.848038,-9.202453,0.882456,-0.282056,0.392101
4568290564,-114.610252,32.617672,-15.302839,0.904423,-0.205228,0.390152
4568310525,-96.425865,33.867912,-18.925478,0.969289,-0.110432,0.441421
4568330485,-96.116722,40.038483,-24.489128,1.082643,-0.040201,0.438434
4568350447,-103.787186,41.258583,-34.974510,1.077619,0.015011,0.350109
4568370408,-116.125748,39.672146,-45.471119,0.993142,0.075788,0.300212
4568390369,-146.718338,43.123314,-53.159199,0.952734,0.139045,0.295794
4568410330,-189.783585,52.588913,-58.506817,0.942360,0.124996,0.216519
4568430291,-223.117889,61.391495,-64.215935,0.928128,-0.004263,0.113199
4568450252,-224.689178,58.410843,-62.698792,0.970420,-0.213921,0.103112
4568470213,-200.628876,49.535744,-62.378334,0.961258,-0.286223,0.087920
4568490172,-172.658661,34.180393,-67.590714,0.946462,-0.188015,0.079847
4568510134,-174.118271,27.384394,-72.275642,1.026179,-0.038162,0.139593
4568530095,-210.542770,40.297806,-80.801613,1.102102,0.040640,0.130589
4568550056,-251.114944,61.564743,-86.712654,1.106166,-0.058317,0.104692
4568570017,-271.391846,79.831833,-92.385170,1.101124,-0.230644,0.108789
4568589978,-262.118317,85.043839,-99.003052,1.146620,-0.339493,0.088458
4568609939,-226.033005,78.584816,-107.146614,1.164523,-0.358000,0.091275
4568629900,-181.289764,63.801891,-122.459053,1.125368,-0.238590,0.135862
4568649861,-152.625275,47.390450,-137.374420,1.134482,-0.068194,0.170483
4568669822,-146.537338,36.113663,-145.921082,1.239971,0.046987,0.183644
4568689783,-155.226929,37.515423,-154.679703,1.224906,0.067546,0.142872
4568709744,-173.345551,36.109592,-163.966202,1.125814,0.064799,0.158402
4568729705,-194.789307,28.850569,-173.467453,1.120037,0.112607,0.116535
4568749666,-213.615997,24.501318,-180.270157,1.198971,0.112201,0.057524
4568769627,-234.830414,24.224861,-188.786865,1.230091,0.045614,0.032778
4568789588,-237.662399,26.085075,-198.505859,1.210106,-0.059683,0.047431
4568809549,-220.515259,24.177961,-204.419205,1.181420,-0.126204,0.146705
4568829512,-195.557999,15.644092,-206.934738,1.037991,-0.123091,0.208405
4568849473,-167.950348,-0.863406,-207.076889,0.862569,-0.080486,0.250202
4568869434,-148.793854,-23.084400,-202.851730,0.798320,-0.033367,0.219295
4568889395,-130.906097,-41.525913,-185.658524,0.780139,-0.061904,0.163243
4568909356,-124.550659,-62.944611,-173.454849,0.718553,-0.051124,0.154379
4568929317,-128.581207,-78.751656,-163.001526,0.662217,-0.032856,0.151590
4568949278,-134.179001,-82.953957,-143.911194,0.641622,-0.029852,0.317806
4568969239,-139.670731,-96.965866,-116.768661,0.700856,0.057350,0.380388
4568989200,-125.554832,-113.793053,-81.922188,0.684828,0.111725,0.345237
4569009161,-110.282867,-125.779892,-50.995262,0.722037,0.142027,0.386219
4569029122,-96.571854,-143.006271,-26.175142,0.958808,0.081306,0.423428
4569049101,-92.027145,-140.253571,-49.236042,1.016508,0.307645,0.557371
4569069043,-98.913544,-117.988998,-102.812607,1.160249,0.873947,0.745604
4569089004,-105.634087,-86.688637,-102.881584,1.338847,0.864760,0.728632
4569108965,-104.434273,-69.304756,-90.176163,1.021270,0.270436,0.720522
4569128926,-74.186234,-79.716507,-76.536308,0.937291,0.035952,0.601529
4569148887,-45.432514,-67.416809,-63.694290,1.018936,0.206641,0.551967
4569168848,-48.168301,-51.384129,-63.507195,1.061303,0.331116,0.521930
4569188809,-49.304008,-43.791393,-71.331802,0.975311,0.321657,0.529068
4569208770,-44.589695,-43.847298,-84.020813,0.894132,0.381640,0.570306
4569228731,-38.317528,-33.736393,-87.195145,0.881358,0.333360,0.566674
4569248692,-21.066399,-15.692806,-76.410919,0.886173,0.219162,0.574551
4569268653,0.526259,-0.360393,-60.652397,0.858237,0.210831,0.563157
4569288615,11.091986,5.670838,-51.215622,0.802885,0.300864,0.557844
4569308576,10.053968,10.113874,-48.220291,0.783503,0.383718,0.515882
4569328537,16.861692,23.379278,-47.549747,0.747391,0.319537,0.433951
4569348498,35.641064,29.082170,-40.840302,0.730180,0.230003,0.334843
4569368459,58.565872,24.191807,-34.905796,0.706975,0.247494,0.327210
4569388420,66.801895,21.257156,-36.521095,0.677492,0.447926,0.312186
4569408382,59.372307,27.837807,-43.317650,0.675926,0.553306,0.306606
4569428343,39.954247,39.718948,-42.784836,0.747167,0.557591,0.345542
4569448304,20.212982,57.105988,-46.564510,0.713759,0.532290,0.363374
4569468265,16.165306,66.770813,-49.703987,0.586558,0.503127,0.324093
4569488227,30.848970,72.158409,-36.146774,0.533407,0.518681,0.199930
4569508188,34.969990,69.519783,-14.438672,0.455907,0.503798,0.202668
4569528152,20.077026,52.734413,2.765160,0.505901,0.650711,0.077425
4569548110,-0.359991,54.123280,40.559113,0.505381,0.767660,0.173847
4569568071,-35.946316,62.876114,78.178169,0.617340,0.727235,0.279917
4569588032,-82.870445,58.623856,127.641441,0.617593,0.528503,0.284817
4569607993,-96.867638,37.019772,177.755524,0.607461,0.419251,0.334410
4569627952,-83.547951,4.663637,226.533997,0.547858,0.250333,0.390174
4569647914,-28.322521,-38.405045,260.143860,0.635371,-0.023321,0.281251
4569667875,21.085333,-58.344879,281.928833,1.140245,0.235409,0.311041
4569687836,25.544512,-58.374657,341.975861,1.499914,0.463348,0.500945
4569707797,16.014648,-44.777412,428.344635,1.975964,0.411617,0.240252
4569727758,-17.959034,34.548225,475.615967,2.387617,-0.044710,0.158386
4569747719,-127.573654,-10.054667,268.463379,1.978205,-0.341685,0.334952
4569767680,-53.286228,-87.614342,199.161606,2.719006,2.421340,0.050492
4569787641,118.366783,51.901772,39.634228,1.754988,3.283482,1.261866
4569807602,-37.421654,36.609772,1.096543,0.189730,0.137763,0.445187
4569827563,-61.504578,-43.936348,-45.689335,1.164521,0.440617,-0.565158
4569847524,-107.267220,4.685906,8.138557,1.736682,0.898180,0.323781
4569867485,-234.804016,-23.195057,-24.769455,1.241814,0.004704,0.333347
4569887446,-137.224106,-13.839769,-61.838814,1.205664,-0.364227,0.198219
4569907407,4.523685,3.865024,-70.830482,0.988552,-0.056871,0.288369
4569927369,52.159603,-2.180662,-66.922455,0.878389,0.378902,0.371638
4569947330,38.904301,-1.913771,-64.940285,0.904951,0.447681,0.269920
4569967292,5.453305,-0.299183,-71.496643,0.846993,0.429518,0.136660
4569987253,-35.821007,-5.379534,-80.421577,0.811154,0.492691,0.098543
4570007214,-84.514328,3.942103,-98.165909,0.810750,0.436507,0.178679
4570027175,-117.505241,16.095390,-116.135811,0.782215,0.184587,0.230910
4570047136,-103.096535,12.177736,-124.020851,0.737271,-0.120908,0.281622
4570067097,-38.228733,1.776046,-118.417648,0.743098,-0.310240,0.317886
4570087058,2.326840,-4.262147,-121.993423,0.797725,-0.193113,0.334908
4570107019,-3.990364,2.036639,-131.032333,0.873354,0.052668,0.300306
4570126980,-32.591068,19.937355,-135.471970,0.907240,0.077176,0.253448
4570146941,-59.274738,37.750851,-134.880951,0.872696,-0.033079,0.204627
4570166902,-70.841507,46.170555,-133.823700,0.846794,-0.112095,0.184684
4570186870,-70.626259,52.398434,-133.756409,0.913956,-0.147591,0.260349
4570206823,-58.217560,59.056271,-127.448914,0.944533,-0.177079,0.310657
4570226784,-31.005201,61.444149,-110.810059,0.795831,-0.224337,0.349135
4570246745,9.152992,51.796658,-87.166107,0.652270,-0.270322,0.347711
4570266706,52.586006,40.779564,-58.705200,0.654952,-0.291192,0.289913
4570286667,94.029800,36.177570,-23.801867,0.683797,-0.282755,0.290577
4570306628,123.037788,28.422651,0.508216,0.619045,-0.206468,0.246069
4570326589,146.967270,24.521046,15.612570,0.812032,-0.060349,0.304767
4570346551,148.036560,57.881451,1.078060,1.222558,0.459194,0.611211
4570366512,117.167725,116.465111,-38.728230,1.090155,0.903966,0.591571
4570386473,95.491455,121.892944,-32.630192,0.578291,0.462301,0.398370
4570406434,135.123306,61.955116,-16.843763,0.400802,0.221132,0.072790
4570426395,163.596252,22.371311,-2.042950,0.456467,0.243644,-0.101578
4570446356,127.507904,19.482723,1.758244,0.527371,0.538785,-0.071055
4570466317,26.417995,28.566765,20.702885,0.615952,0.786100,0.052184
4570486278,-78.239349,49.179359,71.387779,0.457479,0.557707,0.247709
4570506239,-131.187485,26.568209,122.315735,0.316369,0.169311,0.230265
4570526200,-89.003471,-9.108686,184.134476,0.144562,-0.074505,0.293941
4570546162,5.269100,-61.850044,249.748230,0.389633,-0.245288,0.350770
4570566123,90.702744,-91.834373,291.634979,1.429153,-0.069908,0.274444
4570586085,106.708595,-64.768440,358.343170,2.160497,0.498803,0.347020
4570606045,26.109730,-12.852598,413.880066,2.454772,0.469874,0.230413
4570626006,-101.697174,18.976696,344.908112,2.210728,0.006866,0.265757
4570645968,-128.086136,-36.232021,210.601196,2.080399,0.958760,0.601277
4570665929,40.546474,-10.555878,98.030304,1.949224,2.479311,0.704547
4570685890,134.725433,49.776714,11.185637,0.886955,0.853224,0.215868
4570705851,100.947945,-18.091951,-20.798742,1.090599,0.816354,-0.427880
4570725812,-37.770550,8.624433,0.924709,1.500154,1.378004,0.358572
4570745773,-219.287766,-20.505184,-12.655034,1.270808,0.613216,0.436191
4570765732,-222.009995,-20.744408,-29.967531,1.467631,-0.092990,0.215063
4570785693,-107.817146,-0.846681,-39.774532,1.277703,-0.146223,0.188593
4570805655,-20.386122,-3.025731,-39.049751,1.065632,0.181717,0.222860
4570825615,3.671225,-4.526312,-39.848381,1.046985,0.385692,0.215352
4570845576,-14.384720,-7.183449,-47.303757,1.007285,0.402712,0.213616
4570865538,-40.453094,-13.847698,-63.325291,0.981119,0.346762,0.173257
4570885499,-62.427315,-12.191261,-83.717224,0.969208,0.284675,0.121149
4570905460,-60.849018,-3.465863,-95.010513,0.855348,0.172555,0.131096
4570925421,-44.916077,-3.062078,-99.572830,0.683961,0.068218,0.203786
4570945382,-46.692024,-15.670732,-98.466980,0.606653,0.041240,0.281032
4570985304,-78.525818,-22.958431,-82.130203,0.823528,-0.051028,0.210485
4571005265,-81.973434,-10.862169,-77.856483,0.910554,-0.134676,0.171289
4571025226,-71.912399,0.935774,-79.427055,0.845337,-0.142666,0.200366
4571045187,-81.116516,7.034370,-82.957718,0.807516,-0.077073,0.233201
4571065148,-86.563782,15.703716,-80.408272,0.866932,-0.101317,0.233595
4571085109,-74.996132,32.741844,-75.636948,0.915181,-0.160426,0.228892
4571105072,-41.396255,47.257851,-72.329697,0.926477,-0.225338,0.323410
4571125033,-10.623928,47.540573,-75.711960,0.948508,-0.174800,0.401117
4571144994,19.519556,46.214855,-74.441597,0.936931,-0.043706,0.387648
4571164955,33.065155,47.393211,-72.045883,0.918467,0.057531,0.410055
4571184916,22.008263,52.344761,-74.101021,0.930759,0.065812,0.382098
4571204877,11.196977,61.058208,-73.261810,0.930848,0.011798,0.368415
4571224838,13.700091,67.945206,-67.055687,0.924780,-0.053901,0.384314
4571244799,33.408283,77.807213,-51.735405,0.853786,-0.079632,0.433153
4571264760,54.661499,85.739952,-36.551331,0.781878,-0.035608,0.477463
4571284721,79.152557,87.122040,-21.415071,0.679608,0.007423,0.463409
4571304683,104.115768,79.855225,0.953204,0.607100,-0.005919,0.369779
4571324644,118.800949,68.107674,28.948322,0.692083,-0.127878,0.295204
4571344603,129.760239,73.258202,39.731033,0.908344,-0.099066,0.410887
4571364564,148.686111,96.245781,19.685232,0.848072,0.362259,0.449213
4571384525,157.678131,88.918327,1.860426,0.599832,0.640146,0.298234
4571404486,151.537216,54.966434,16.743351,0.466474,0.526598,0.258855
4571424447,117.913063,11.600838,41.461288,0.479996,-0.005943,-0.051892
4571444408,108.235886,-22.771511,57.205940,0.484058,0.015382,-0.337919
4571464369,109.728508,-13.153763,122.313652,0.422387,0.292192,-0.013212
4571484330,16.939663,-0.121687,139.860596,0.234938,0.970158,0.197988
4571504291,-90.365349,-8.550755,179.590683,0.260664,0.583651,0.197870
4571524252,-128.558136,-48.579479,226.358551,0.783364,0.203965,0.189271
4571544213,-109.861237,-89.599846,286.301361,1.110724,-0.077097,0.153984
4571564174,-57.914917,-87.496437,351.799561,1.494516,-0.261444,-0.065707
4571584135,-35.868042,-25.336594,351.407623,2.309262,-0.427506,0.525373
4571604097,-118.224121,-21.998400,239.862122,2.473559,-0.055678,1.086788
4571624058,60.516022,-23.278576,141.048615,1.880784,1.541197,0.773295
4571644019,206.915924,18.823032,37.919559,1.300485,1.722245,0.602787
4571663980,154.133972,15.572063,-2.170310,0.973212,0.924163,-0.100243
4571703903,-165.101822,3.901028,-31.372131,1.613816,0.908728,0.510764
4571723864,-249.101379,-19.303532,-44.691597,1.565527,0.081265,0.290496
4571743825,-166.389069,0.076141,-59.557743,1.463673,-0.232156,0.243587
4571763787,-41.821224,10.787231,-71.730156,1.171119,0.087293,0.299190
4571783747,29.625250,-3.025228,-80.170876,1.155154,0.418627,0.300300
4571803708,40.312950,-17.084051,-92.060280,1.293955,0.571060,0.198906
4571823669,23.253435,-16.755138,-106.795074,1.201382,0.596216,0.106736
4571843630,-6.133354,-11.369184,-118.549973,1.032634,0.579707,0.114019
4571863592,-47.956406,-9.775103,-129.672440,0.957802,0.526729,0.186637
4571883553,-80.588715,-5.494373,-136.510895,0.976540,0.345563,0.255968
4571903517,-96.688576,3.393590,-140.463165,0.963504,0.110559,0.294819
4571923474,-89.161049,11.983566,-141.627487,0.871732,-0.022228,0.312067
4571943435,-82.361176,8.145167,-141.136322,0.765688,-0.035575,0.312617
4571963396,-85.946335,-0.293595,-141.704758,0.813298,-0.038933,0.284496
4571983357,-94.057030,6.467012,-135.791580,0.903533,-0.024410,0.266062
4572003318,-101.528107,23.601173,-132.411453,0.873709,-0.089243,0.243538
4572023279,-94.663925,28.858580,-127.896118,0.791892,-0.118771,0.223945
4572043240,-82.749535,24.282013,-123.326599,0.712871,-0.121427,0.253682
4572063201,-70.233528,21.436970,-118.992981,0.681609,-0.110090,0.310656
4572083162,-51.038071,20.495274,-114.344131,0.684861,-0.079351,0.394900
4572103123,-24.871910,27.275702,-104.652008,0.774788,-0.073453,0.482870
4572123084,-5.728037,43.329803,-81.859680,0.821731,-0.048869,0.537602
4572143045,5.054517,61.109989,-46.058971,0.767573,-0.138956,0.480260
4572163006,25.057549,65.373810,-11.930371,0.680525,-0.257726,0.446005
4572182967,51.897133,60.445522,11.525897,0.695828,-0.323440,0.420044
4572202928,83.969406,56.892342,35.050526,0.709789,-0.341608,0.380985
4572222889,124.517693,53.240307,56.918465,0.574109,-0.324598,0.335328
4572242850,162.593567,48.006207,67.237099,0.713481,-0.167191,0.518978
4572262813,181.964478,67.664780,30.045675,0.976495,0.502211,0.531595
4572282774,168.732330,94.590927,19.002600,0.696836,0.704981,0.480619
4572302735,169.736801,57.933243,64.771729,0.528977,0.263807,0.197649
4572322696,154.340836,-20.789927,41.895710,0.430078,0.032046,-0.679207
4572342657,84.084862,14.110655,93.454651,0.626362,0.229658,-0.036311
4572362618,-8.434731,9.701243,169.952744,0.059191,0.503964,0.144485
4572402540,-141.204453,-45.212189,239.403442,1.114439,0.315918,0.128856
4572422501,-75.781044,-125.134705,326.569550,1.008680,-0.217857,0.165710
4572442462,51.907501,-122.994270,398.397095,1.999280,-0.181577,0.034579
4572482383,-101.808884,-2.311354,298.644196,2.290224,-0.037669,0.901462
4572502344,-79.498642,-56.833454,204.759003,2.387715,2.293073,0.605819
4572522305,123.711189,44.427330,7.279045,1.385166,2.461170,0.786654
4572542266,81.143112,49.087017,10.440392,0.365006,0.342583,0.315556
4572562227,55.447483,-15.256760,-52.039574,1.371435,0.874654,-0.039859
4572582188,-90.767624,4.707178,-49.334690,1.868936,0.830841,0.437495
4572602149,-161.475189,-19.437645,-51.573814,1.572099,-0.055351,0.158811
4572642071,-21.912104,3.653361,-70.591179,1.150736,0.384493,0.169467
4572662032,-25.781052,-10.397627,-63.980194,1.107305,0.722556,0.232158
4572681993,-82.773384,-18.015654,-74.000603,1.130118,0.666453,0.247154
4572701954,-117.130676,-26.358776,-90.934990,1.102339,0.398379,0.152325
4572721915,-111.131012,-24.833012,-105.428398,1.114295,0.203858,0.080422
4572741876,-83.216858,-13.968506,-111.674370,1.164450,0.063032,0.052324
4572761838,-51.992168,1.415709,-119.031792,1.104190,0.016313,0.041056
4572781798,-41.022854,10.382975,-123.744751,0.921874,0.071970,0.137606
4572821722,-96.650826,-4.055823,-123.664131,0.758059,0.027390,0.330113
4572841683,-111.448715,-16.975420,-108.848831,0.800481,-0.097977,0.315643
4572861644,-119.824409,-11.857652,-99.678215,0.903499,-0.165183,0.293227
4572881605,-119.340836,7.536941,-101.663666,1.003472,-0.217991,0.264874
4572901566,-110.420013,28.321281,-98.804024,0.917848,-0.275995,0.315612
4572921527,-73.246895,38.839207,-85.043564,0.782054,-0.365466,0.391990
4572941491,-26.194962,40.585052,-76.269112,0.720450,-0.370890,0.418814
4572961449,15.500851,44.630821,-70.597092,0.686123,-0.235942,0.422894
4572981410,46.469707,50.878056,-65.024536,0.731778,-0.073772,0.424263
4573001371,63.074703,56.850368,-60.144138,0.832750,0.084726,0.437542
4573021332,57.188049,58.037025,-58.017567,0.931062,0.196346,0.425861
4573041292,41.449181,60.473526,-55.105759,0.926457,0.275244,0.434774
4573061253,20.930798,66.171318,-49.057423,0.871562,0.323332,0.476871
4573081214,-4.004356,78.519005,-44.650162,0.870169,0.229400,0.529743
4573101175,-15.428162,99.425148,-43.785664,0.832365,0.075920,0.581192
4573121136,6.012849,112.136177,-42.177979,0.712387,-0.064120,0.598406
4573141097,44.920990,114.030067,-29.468985,0.601931,-0.108375,0.545928
4573161059,90.549355,107.212250,-8.148733,0.420885,-0.150394,0.440942
4573181020,135.877823,83.804153,10.743942,0.259385,-0.177432,0.286350
4573200981,179.722305,56.322376,36.073620,0.292926,-0.195600,0.192649
4573220942,193.334976,43.513191,56.355938,0.656530,-0.137794,0.319210
4573240903,210.690369,62.222881,43.179760,0.911413,0.410227,0.336581
4573260864,195.975525,71.917305,41.583580,0.653415,0.740827,0.395914
4573280825,155.320648,-0.882266,95.131683,0.298058,0.183655,-0.219696
4573300786,195.580902,-110.881325,105.340889,1.041994,0.718686,-0.882208
4573320747,51.139030,-23.511641,191.533081,0.848282,1.127760,0.170777
4573340708,-124.820061,-3.786981,265.897888,0.306122,1.044222,0.508510
4573360669,-239.931717,-24.182995,309.923248,0.761048,0.493247,0.312794
4573380631,-269.458862,-55.210888,379.998230,1.007740,0.110678,-0.151212
4573400593,-191.940186,-83.608315,457.048584,1.175235,-0.751253,-0.213427
4573420553,-199.161285,-132.403732,361.729095,2.894518,-1.391659,0.643963
4573440515,-98.247101,-51.629181,172.601227,2.840488,1.560620,1.327206
4573460476,170.687759,9.224939,48.052292,1.330848,2.281682,1.840362
4573480437,102.291664,32.249249,24.818718,0.592383,0.218040,0.432589
4573500398,120.073036,-15.925775,-51.384819,1.255302,0.964985,-0.659229
4573520359,-1.027036,28.810223,-67.789627,1.757465,1.388395,0.399727
4573540320,-220.283859,-21.260672,-56.911053,1.172766,0.296020,0.426111
4573560281,-218.626648,-34.249199,-61.485348,1.245282,-0.344072,0.100086
4573580242,-116.203201,-5.372816,-68.680779,1.037860,-0.192581,0.155632
4573600221,-51.948826,-4.157892,-58.353577,0.872911,0.158079,0.303853
4573620163,-56.177601,-12.649362,-44.625614,0.936848,0.219096,0.375601
4573640124,-67.538040,-11.763041,-45.476547,1.071552,0.129764,0.379353
4573660085,-64.249962,-4.813883,-56.192314,1.039294,0.105785,0.345370
4573680046,-71.844826,7.399114,-68.447021,1.035566,0.100811,0.282186
4573700007,-73.755959,24.243113,-83.201965,0.967176,0.067830,0.203705
4573719968,-55.075138,20.627716,-96.583267,0.858828,0.045309,0.184421
4573739929,-50.083912,5.026622,-105.430656,0.857119,-0.010274,0.261246
4573759890,-49.122013,1.087527,-111.310982,0.929684,-0.023469,0.336644
4573779851,-46.743946,8.706965,-115.420395,0.948064,0.011258,0.318746
4573799812,-28.721445,13.641856,-113.622635,0.855198,-0.070217,0.288327
4573819773,-18.432384,-4.139123,-101.456947,0.791149,-0.209067,0.283508
4573839734,-15.657212,-24.319683,-80.584679,0.790749,-0.254194,0.118598
4573859695,-3.879277,-26.572386,-59.018822,0.861905,-0.138596,0.192043
4573879656,-13.539824,-15.212155,-41.171898,0.986107,0.082331,0.288867
4573899617,-41.038971,4.978957,-13.113464,0.954771,0.061586,0.277795
4573919578,-52.848442,17.505474,21.504808,0.802639,-0.100439,0.266823
4573939539,-32.816895,19.776535,44.252357,0.775615,-0.175935,0.250626
4573959502,7.700411,19.490614,60.893650,0.759701,-0.166200,0.271028
4573979463,45.423424,11.390063,70.949783,0.724737,-0.079074,0.242916
4573999424,78.251411,-7.452171,75.283363,0.791278,0.045409,0.155862
4574019385,83.062241,-19.290953,87.680099,0.928187,0.139914,0.157371
4574039346,45.621330,-27.465130,108.075188,1.060586,0.066865,0.210078
4574059307,4.750348,-16.042242,118.882164,1.219857,0.012788,0.311139
4574079268,-29.761898,-4.062130,125.709702,1.057894,-0.012172,0.354564
4574099229,-41.078461,-13.581439,127.652176,0.959932,-0.045140,0.274630
4574119191,-22.873758,-26.252010,122.175835,1.000208,-0.150371,0.187123
4574139152,28.186626,-30.312704,112.734840,1.019310,-0.190659,0.149614
4574159113,65.242897,-27.597197,100.080269,0.998685,-0.084072,0.157143
4574179079,73.068497,-21.288406,88.242043,0.953741,0.016450,0.161592
4574199033,57.084476,-17.417183,74.423828,0.951257,0.064133,0.244270
4574218994,25.185061,-16.261816,57.582035,1.014462,0.085556,0.255914
4574238955,11.080578,-13.056094,44.818375,0.975162,0.037346,0.232034
4574258916,16.322401,-13.512681,37.907246,0.859480,-0.021281,0.206377
4574278878,29.672382,-17.456949,30.231234,1.005123,-0.009618,0.162142
4574298838,35.207481,-14.017226,17.539715,1.102469,0.001846,0.163376
4574318799,20.367731,-11.507936,5.207258,1.069778,-0.016602,0.152970
4574338760,8.294395,-11.004696,1.827267,1.012303,-0.107777,0.124634
4574358721,1.161744,-9.239256,2.385442,0.990350,-0.185695,0.114216
4574378683,0.944420,-7.115293,6.889660,0.919554,-0.225454,0.105191
4574398643,10.424091,-12.148029,7.672271,0.892111,-0.184243,0.075511
4574418605,20.707092,-15.965442,5.237810,0.899128,-0.127224,0.063414
4574438566,19.688700,-17.300228,5.448942,0.895035,-0.145767,0.085497
4574458527,6.879998,-19.236378,9.318054,0.989468,-0.184874,0.107539
4574478488,-10.536006,-17.571072,15.572401,1.039616,-0.242203,0.126426
4574498449,-13.665946,-13.872458,19.449898,0.922324,-0.256481,0.123781
4574518410,4.728702,-13.674733,22.181864,0.911204,-0.235312,0.108933
4574538372,22.370626,-11.953647,21.137129,0.958510,-0.209379,0.131777
4574558333,25.509993,-9.008770,19.450663,0.996467,-0.166124,0.151525
4574578294,14.246858,-5.919394,17.579777,1.047016,-0.164149,0.135847
4574598256,2.585606,-2.583860,16.466148,0.991541,-0.202346,0.126349
4574618217,2.372165,-1.992986,18.748972,1.030986,-0.217204,0.139063
4574638178,10.908786,-4.077873,20.389254,1.054967,-0.238262,0.158242
4574658143,20.769316,-8.642179,16.489756,1.056609,-0.200432,0.135524
4574678100,25.403191,-7.528575,14.150686,0.996351,-0.146020,0.115133
4574698060,17.337717,-6.783281,16.460461,1.004028,-0.078707,0.123733
4574718022,1.421449,-3.173548,12.592584,1.016844,-0.028218,0.147910
4574737983,-18.960613,2.854273,9.055448,0.913085,-0.054678,0.217013
4574757942,-30.315506,3.608594,6.868992,0.931617,-0.166696,0.228203
4574777904,-23.573227,5.725041,3.601896,0.966468,-0.300669,0.204174
4574797864,-5.264527,6.154312,0.352774,1.022466,-0.320400,0.193686
4574817826,11.035710,0.951196,-4.655309,0.950943,-0.255289,0.101156
4574837787,15.531440,-9.038902,0.057144,0.847101,-0.186112,0.064972
4574857747,8.727620,-9.106289,8.641153,0.855135,-0.124282,0.152801
4574877709,-15.171865,4.321234,22.180277,0.867869,-0.164998,0.261974
4574897670,-45.071301,8.954097,32.092567,0.942553,-0.231209,0.306317
4574917631,-39.591743,4.204053,30.964186,1.125586,-0.371843,0.173927
4574937592,-2.114701,-1.392235,15.401496,0.934137,-0.363488,0.087413
4574957553,38.056210,-7.665171,4.189862,0.937187,-0.124532,0.168971
4574977514,36.940525,-0.355716,6.748062,1.031751,-0.000679,0.301354
4574997475,1.520461,8.204179,9.365585,1.090913,-0.000822,0.308633
4575017436,-18.955906,11.633960,10.848621,1.098677,-0.082261,0.239992
4575037397,-22.154556,7.790418,8.043303,1.006991,-0.124052,0.182810
4575077319,-5.672489,14.043870,5.083018,1.037724,-0.077908,0.320576
4575097282,-8.711930,14.337866,2.757763,1.029851,-0.045303,0.275733
4575117242,-5.747624,12.643562,-3.058576,1.004658,-0.015835,0.202940
4575137204,-10.634151,5.671849,-2.267417,1.130533,-0.012414,0.165399
4575157165,-24.248871,3.690656,-6.908631,1.015267,0.038749,0.132487
4575177126,-41.856495,4.380334,-9.571017,0.788829,0.041224,0.234836
4575197087,-70.920303,5.470119,5.828887,0.965220,-0.130053,0.308718
4575217048,-89.147621,12.956596,4.960575,0.862029,-0.291629,0.213857
4575237009,-64.014145,6.488812,9.037740,0.820244,-0.448736,0.163486
4575256970,-40.707844,2.323918,17.059505,0.903688,-0.436856,0.239401
4575276931,-17.832766,4.761335,13.723812,0.865811,-0.201840,0.233764
4575296892,-3.014940,5.029181,11.632166,0.900213,0.000647,0.298919
4575316853,-22.990189,14.200639,10.125639,1.044632,0.142466,0.389761
4575336813,-58.312641,17.367641,4.873736,1.170372,0.178174,0.334659
4575356774,-71.000809,18.170166,-1.908791,1.086798,0.130336,0.273718
4575376735,-76.273796,20.371033,-4.972858,1.028769,0.173964,0.288330
4575396696,-94.518929,26.657497,-1.331326,0.986445,0.219947,0.307199
4575416657,-131.291367,31.673037,2.683478,1.076676,0.258473,0.307858
4575436618,-164.433090,35.384644,6.947500,1.152333,0.135341,0.289408
4575456579,-172.466537,38.096451,3.979797,1.176974,0.035885,0.225287
4575476540,-165.702057,42.577454,-7.062318,1.233821,0.123984,0.142202
4575496501,-158.909409,52.599857,-19.342106,1.133456,0.197795,0.102090
4575516462,-178.477097,61.890869,-25.021639,1.177971,0.229559,0.099017
4575536423,-203.547775,71.410988,-35.151917,1.234394,0.219802,-0.018715
4575556384,-222.532013,78.748314,-47.049923,1.127203,0.145763,-0.054254
4575576345,-246.933411,78.108208,-56.153412,1.048339,0.041843,-0.161360
4575596306,-257.703247,73.982567,-67.521416,1.047218,-0.037249,-0.274732
4575636229,-257.643036,57.384216,-107.242165,1.023416,0.023183,-0.299015
4575656190,-279.735657,61.194752,-123.114418,1.102580,-0.030571,-0.363339
4575676152,-297.747559,65.990089,-126.907516,1.128007,-0.230919,-0.389004
4575696113,-285.208649,54.715328,-131.782349,1.205943,-0.366187,-0.408944
4575716074,-274.155701,45.683651,-139.185120,1.233769,-0.289265,-0.456318
4575755996,-263.504608,41.675888,-152.440582,1.339978,-0.100044,-0.395911
4575775957,-268.360748,41.977448,-165.184525,1.274897,-0.013129,-0.360192
4575795918,-267.906891,34.455898,-179.659973,1.385795,0.007670,-0.363689
4575815879,-261.822083,22.245930,-183.348007,1.426982,-0.096710,-0.379800
4575835840,-244.260239,6.466408,-189.117844,1.325032,-0.123649,-0.392065
4575855801,-227.444336,-10.665920,-184.346390,1.178184,-0.127963,-0.424283
4575875763,-220.252533,-26.543161,-172.072388,1.114060,-0.118416,-0.450931
4575895738,-234.974991,-37.929642,-162.419922,1.082940,-0.079151,-0.392317
4575915683,-252.352356,-51.701874,-148.355621,1.104679,-0.138294,-0.374649
4575935644,-255.679535,-65.163589,-131.535950,1.085243,-0.291013,-0.282899
4575955605,-232.250092,-85.194168,-112.933197,0.967381,-0.326707,-0.208804
4575975566,-197.294174,-113.662796,-93.232407,0.910493,-0.265628,-0.187354
4575995527,-167.942993,-134.008560,-82.001694,1.034897,-0.151810,-0.086040
4576015488,-172.578094,-133.434509,-76.219566,1.049224,-0.003675,0.071246
4576035449,-195.901428,-113.349998,-67.963120,0.892401,0.050519,0.216459
4576055411,-210.145142,-83.807655,-46.690155,0.952525,-0.033054,0.250438
4576075372,-201.811127,-59.562202,-25.509214,1.049008,-0.084584,0.300950
4576095333,-195.719498,-46.314465,-19.657442,1.036352,-0.021607,0.303238
4576115294,-179.680527,-48.056725,-21.013470,1.084136,0.043065,0.258981
4576135255,-149.483429,-55.856071,-35.617893,1.048449,0.187566,0.262607
4576155216,-128.164932,-72.933327,-45.403332,0.944906,0.199265,0.230921
4576175177,-123.828842,-90.997955,-36.239536,0.890696,0.105126,0.250865
4576195138,-125.834061,-92.915634,-13.679975,0.928463,0.046845,0.301686
4576215099,-134.410645,-80.943298,3.949528,1.077923,0.112607,0.348152
4576235060,-139.323288,-62.786221,9.522323,1.254891,0.281442,0.369941
4576255023,-145.458466,-47.911667,3.256501,1.316556,0.324755,0.404237
4576274984,-157.791672,-38.725998,-5.480270,1.250359,0.203470,0.461559
4576294945,-149.671326,-41.025536,-12.872442,1.164997,0.033469,0.455949
4576334866,-80.012993,-27.752108,-10.491512,1.134114,-0.002652,0.425559
4576354828,-60.130135,-16.469164,-10.533742,1.107024,0.039355,0.413356
4576374788,-48.825073,-9.596000,-12.312935,1.074990,0.028340,0.389546
4576394750,-36.960884,-7.542107,-15.858999,0.986488,0.039000,0.378278
4576414711,-33.158161,-5.362684,-15.189411,0.937505,0.075118,0.370504
4576454633,-28.679016,4.695149,-2.302821,0.895405,-0.124978,0.320467
4576474593,-11.125463,4.154140,2.340000,0.862831,-0.121202,0.331828
4576494554,6.006713,2.073407,4.570297,0.839018,-0.038042,0.370005
4576514515,11.491573,5.920752,16.634657,0.878519,-0.096619,0.376789
4576534476,24.133358,15.474174,26.141331,0.939822,-0.145090,0.337911
4576554437,45.905434,23.174391,32.447857,0.896865,-0.100858,0.317367
4576574398,66.709656,25.044996,38.888916,0.821952,0.022230,0.302139
4576594359,68.755577,23.614130,52.847153,0.850171,0.032232,0.253866
4576614320,62.601662,27.591307,69.365791,0.880889,-0.070943,0.238180
4576634281,50.724125,23.821569,74.310822,0.909446,-0.172705,0.249203
4576654242,62.934494,21.347191,65.892677,0.823718,-0.088084,0.243877
4576674203,69.137115,4.426023,60.534809,0.808858,-0.000323,0.261108
4576694164,77.918289,-5.173834,61.913906,0.834444,-0.016356,0.034094
4576714125,90.695465,-4.822673,75.244659,0.818414,-0.003345,0.036046
4576734086,71.675102,-0.616585,86.855637,0.727806,0.124597,0.030831
4576754047,64.811584,-17.943182,104.830566,0.558105,0.096519,0.023262
4576774008,43.362385,-19.907366,111.274345,0.837001,-0.042820,-0.052025
4576793969,16.662077,-7.166399,119.340858,0.903626,0.016533,-0.054962
4576813932,-8.103504,-9.412565,135.298798,0.797410,-0.092394,0.104414
4576833893,2.786226,-29.880459,158.528259,1.095804,-0.406141,0.007664
4576853854,62.512856,-26.960440,188.828461,1.467358,-0.389493,-0.026772
4576873815,110.693535,-20.131847,223.281631,1.606780,-0.169768,0.035838
4576893776,120.084694,-20.833128,252.373550,1.960132,0.019702,0.064439
4576913737,54.078793,-7.501110,238.649109,2.239560,0.063492,-0.000542
4576933698,-18.591972,0.960833,190.362930,2.110496,0.540908,0.076235
4576953659,-58.288345,-11.815371,78.724457,1.863042,1.314515,0.171122
4576973620,8.237937,8.438142,-18.534008,1.448584,1.234213,-0.025666
4576993581,42.267452,32.159679,-27.829927,0.809799,0.341401,0.226206
4577013542,92.502266,16.301075,-13.561861,0.739632,-0.042155,0.347761
4577033513,42.436687,-4.206492,-27.289295,1.258790,-0.114524,0.248192
4577053463,-50.068237,12.990319,-63.344055,1.530645,-0.171388,0.051497
4577073424,-43.951210,30.207909,-76.228790,1.185724,-0.386318,0.109248
4577093385,-2.271249,22.133530,-69.544502,0.927413,-0.434639,0.134168
4577113346,27.202557,14.768353,-58.613609,0.889611,-0.274338,0.060458
4577133307,56.430271,12.752605,-54.028664,0.921099,-0.111803,0.070576
4577153268,60.598576,6.316522,-56.115124,0.952460,-0.030306,0.152227
4577173229,39.761806,9.754637,-62.366901,0.954193,0.006276,0.199740
4577193190,9.145375,18.206739,-75.390297,0.907252,0.034549,0.228922
4577213151,-19.629660,20.103424,-89.255402,0.876149,0.049523,0.223826
4577233112,-40.348820,21.517292,-99.746262,0.889054,0.041782,0.232021
4577253073,-48.269928,26.062256,-102.352036,0.935995,-0.006869,0.251527
4577273034,-41.992008,28.418133,-97.007050,0.962027,-0.033901,0.286322
4577292995,-36.234520,35.026558,-95.555901,0.962507,-0.069086,0.292462
4577312956,-36.419273,42.230297,-98.678940,0.973048,-0.118150,0.282805
4577332918,-31.769114,49.846336,-97.119125,0.982159,-0.128560,0.254913
4577352879,-21.039724,53.467819,-90.683617,0.989651,-0.126506,0.232798
4577372840,-9.908936,52.044449,-84.998184,0.982554,-0.102462,0.218524
4577392802,-3.749386,46.728882,-78.890762,0.900453,-0.037923,0.241185
4577432724,-2.285403,29.882141,-66.201614,0.739527,0.043866,0.243814
