Timestamp (us),Gyroscope X (deg/s),Gyroscope Y (deg/s),Gyroscope Z (deg/s),Accelerometer X (g),Accelerometer Y (g),Accelerometer Z (g)
7894291260,-0.022771,0.038862,-0.105616,0.309120,0.836539,0.455419
7894311290,0.015090,0.084513,-0.022485,0.309682,0.835180,0.453680
7894331329,0.060999,0.137159,-0.037905,0.310286,0.835527,0.455885
7894351348,0.045807,0.106171,-0.143674,0.307192,0.834999,0.456103
7894371378,0.159484,0.082638,-0.112763,0.309365,0.835983,0.456878
7894391408,0.166280,0.014035,-0.081531,0.311880,0.835900,0.452810
7894411438,0.074702,-0.031316,-0.126454,0.310388,0.835565,0.449313
7894431467,-0.017207,-0.091220,-0.049887,0.310081,0.838279,0.452803
7894451498,-0.031969,0.007838,-0.035572,0.307680,0.835463,0.454107
7894471527,-0.053520,0.159709,-0.165453,0.309507,0.837091,0.454152
7894491557,0.014175,0.052622,-0.080832,0.307911,0.833448,0.455827
7894511587,0.067447,0.113297,-0.028070,0.307735,0.834359,0.455924
7894531617,0.204400,0.096422,-0.186906,0.309838,0.836078,0.455700
7894551646,0.165544,0.043429,-0.140496,0.308751,0.835722,0.455405
7894571676,0.103968,-0.055172,-0.131831,0.309394,0.835812,0.454960
7894591708,0.111528,0.059207,-0.071827,0.307784,0.836103,0.453567
7894611738,0.073375,0.043905,-0.116997,0.306624,0.838389,0.453295
7894631768,0.004762,0.067097,-0.079090,0.307598,0.836739,0.454118
7894651797,0.065840,0.165520,-0.034207,0.310331,0.835726,0.453057
7894671827,-0.063724,0.036264,-0.124006,0.309251,0.838643,0.453797
7894691857,0.081366,0.210471,-0.094827,0.308954,0.836183,0.454226
7894711887,-0.064101,-0.078540,-0.152705,0.310052,0.835907,0.453602
7894731917,-0.079835,-0.115652,0.022094,0.307852,0.835913,0.454936
7894751962,-0.056235,-0.024542,-0.069627,0.307586,0.835553,0.454380
7894771975,0.005297,0.043248,-0.175965,0.308202,0.834725,0.455204
7894792004,0.081281,0.118938,-0.123162,0.307507,0.836648,0.454115
7894812034,-0.018394,-0.025065,-0.038346,0.309418,0.838182,0.454526
7894832064,0.012525,0.020337,-0.121885,0.307944,0.833641,0.453821
7894852094,0.103836,0.118646,-0.092121,0.310046,0.835087,0.453594
7894872124,-0.002982,0.050486,-0.083763,0.308491,0.835637,0.454578
7894892154,0.066189,0.186499,-0.175571,0.309752,0.835535,0.455146
7894912183,0.156331,0.064393,-0.068040,0.308849,0.836542,0.455323
7894932213,0.080300,0.110016,-0.098602,0.307668,0.837185,0.455675
7894952243,0.072385,0.010737,-0.188364,0.309857,0.835540,0.454234
7894972273,0.079879,0.155586,-0.045266,0.309665,0.834538,0.454496
7894992303,0.003576,0.109951,-0.052367,0.308637,0.836020,0.451206
7895012334,0.034326,0.177809,-0.090620,0.310533,0.836822,0.452249
7895032364,-0.003592,0.208037,-0.083146,0.308180,0.834626,0.456572
7895052394,0.056039,-0.066480,-0.080558,0.307686,0.833705,0.458747
7895072423,0.064283,0.139038,-0.051776,0.309175,0.834891,0.456956
7895092454,0.101667,-0.006247,-0.095894,0.308277,0.835899,0.456768
7895112483,0.238504,0.076797,-0.118992,0.309037,0.836725,0.454962
7895132513,0.176888,0.053989,-0.088226,0.309594,0.835817,0.453776
7895152543,0.062288,-0.059713,-0.140100,0.309865,0.836633,0.454245
7895172592,0.062702,0.138399,-0.065675,0.308511,0.836008,0.453487
7895192601,0.047116,0.016277,-0.140264,0.309143,0.837638,0.454425
7895212631,0.001517,0.077273,-0.110160,0.308228,0.835915,0.454120
7895232661,-0.021129,0.092471,-0.132704,0.310039,0.836811,0.454797
7895252691,-0.097715,-0.013633,-0.055831,0.309225,0.835818,0.454135
7895272721,-0.044212,-0.006271,-0.078378,0.308100,0.835539,0.456306
7895292751,0.085241,0.030906,-0.086053,0.309673,0.836357,0.454787
7895312781,-0.028592,0.122880,-0.056374,0.310754,0.836166,0.455259
7895332810,0.024669,0.129860,-0.071428,0.308865,0.836457,0.454227
7895352840,-0.043646,0.190798,-0.026336,0.309134,0.835091,0.453853
7895372870,-0.035909,0.068091,-0.169098,0.307600,0.834741,0.453095
7895392900,-0.059092,-0.038321,-0.167878,0.308033,0.836456,0.455217
7895412930,-0.067208,-0.121487,-0.068237,0.307697,0.835924,0.453199
7895432961,-0.073836,0.007884,-0.137349,0.310932,0.837799,0.456190
7895452991,0.063470,0.159413,-0.100393,0.309186,0.833260,0.455481
7895473021,-0.059459,-0.113893,-0.037297,0.308953,0.835638,0.454038
7895493051,-0.020414,0.098957,-0.054079,0.308950,0.833910,0.453474
7895513080,-0.043431,-0.045820,-0.143697,0.309316,0.836544,0.454509
7895533110,-0.088293,0.137043,-0.106947,0.310235,0.836542,0.453793
7895553140,-0.110756,0.175042,-0.069165,0.310284,0.837162,0.456721
7895573170,-0.049677,0.189367,-0.076618,0.311085,0.833881,0.456248
7895593202,0.017910,-0.009006,-0.044493,0.308025,0.835091,0.455113
7895613228,0.192702,-0.040687,-0.134869,0.310965,0.833326,0.457884
7895633258,0.215440,0.081103,-0.120364,0.310278,0.835707,0.456434
7895653288,0.230100,0.118941,-0.082609,0.309823,0.836924,0.451234
7895673318,0.100738,0.225763,-0.060595,0.309188,0.837109,0.451317
7895693348,0.084760,0.042531,-0.134629,0.309912,0.837831,0.451792
7895713377,-0.097812,0.028375,-0.096386,0.308042,0.834824,0.453924
7895733407,0.009370,0.256081,-0.014730,0.308881,0.837280,0.453596
7895753437,-0.098116,-0.116737,-0.117653,0.307785,0.835468,0.453196
7895773467,0.092929,0.171476,-0.036358,0.308733,0.836170,0.456778
7895793497,0.092002,0.003867,-0.042427,0.309669,0.835538,0.454688
7895813527,0.084210,-0.064929,-0.147815,0.309188,0.834986,0.456136
7895833556,-0.045243,-0.101952,-0.139591,0.308760,0.834999,0.454485
7895853588,0.039148,0.072629,-0.148205,0.308830,0.835445,0.456043
7895873618,-0.029599,0.004444,-0.147355,0.310222,0.834539,0.453683
7895893648,0.039067,0.125840,-0.072190,0.308293,0.836087,0.455857
7895913678,-0.067863,-0.064214,-0.153735,0.309460,0.835075,0.456232
7895933708,0.023567,-0.026484,-0.130984,0.310243,0.834728,0.452407
7895953738,0.038732,0.057457,-0.047975,0.308470,0.836538,0.456321
7895973767,0.114867,0.148295,-0.018338,0.307394,0.836913,0.455668
7895993797,0.167540,0.048544,-0.085593,0.307817,0.836388,0.451562
7896013829,0.038728,0.193489,-0.116958,0.309072,0.835829,0.452307
7896033855,0.053902,0.230999,-0.086671,0.309609,0.834006,0.452025
7896053885,-0.122231,-0.034585,-0.038862,0.309760,0.836991,0.455342
7896073915,-0.128396,0.201094,-0.078632,0.308494,0.835820,0.454489
7896093945,-0.068064,-0.012671,-0.106836,0.307545,0.835266,0.456842
7896113975,-0.044592,0.177422,-0.040018,0.308021,0.834544,0.455108
7896134004,0.115134,0.130338,-0.107719,0.308375,0.835084,0.455941
7896154034,0.098976,-0.006761,-0.091139,0.310493,0.836172,0.454524
7896174064,0.152330,0.076767,-0.114210,0.309222,0.835271,0.454130
7896194094,0.190072,0.106587,-0.129269,0.309764,0.835358,0.454323
7896214124,0.174357,0.121644,-0.106437,0.307447,0.836387,0.452012
7896234154,0.052109,0.069021,-0.067912,0.309608,0.835731,0.452863
7896254183,-0.008490,0.152718,-0.060885,0.310411,0.836630,0.454162
7896274215,0.105390,0.022013,-0.195959,0.309129,0.834998,0.454126
7896294244,0.014137,0.197838,-0.030355,0.308506,0.834553,0.453108
7896314274,0.020882,0.022638,0.016665,0.311210,0.836436,0.455269
7896334304,0.074651,0.120832,-0.075125,0.308882,0.836372,0.453131
7896354334,0.088995,-0.039197,-0.065969,0.307502,0.835556,0.453922
7896374364,-0.055442,-0.007857,-0.050978,0.307695,0.835196,0.453009
7896394394,-0.062130,0.174580,-0.067556,0.308631,0.836926,0.452036
7896414424,-0.115458,0.075632,-0.089284,0.309140,0.835911,0.453861
7896434452,0.006362,0.150991,0.001245,0.310123,0.834718,0.454322
7896454482,-0.054542,0.074693,-0.058771,0.309417,0.837819,0.454431
7896474512,0.014333,0.119586,-0.111958,0.309383,0.835263,0.455411
7896494542,0.066609,-0.047984,-0.064790,0.309277,0.837165,0.457253
7896514572,0.067131,0.149951,-0.020888,0.307700,0.836742,0.453389
7896534602,-0.009028,0.050821,-0.126005,0.308878,0.836643,0.453498
7896554631,-0.047346,0.035812,-0.049930,0.310678,0.837262,0.454811
7896574662,-0.017297,-0.131861,-0.101372,0.310982,0.835092,0.451784
7896594691,-0.053899,0.203279,-0.096410,0.308771,0.836910,0.454686
7896614721,-0.085059,0.020468,-0.064231,0.308123,0.837364,0.455684
7896634751,0.006810,0.072992,-0.125126,0.309017,0.835446,0.455681
7896654780,0.021625,-0.010908,-0.108907,0.310638,0.835067,0.456342
7896674810,0.044224,0.042630,-0.025795,0.308947,0.835272,0.454308
7896694842,0.097934,0.102657,-0.132273,0.309641,0.834983,0.456234
7896714871,0.188384,0.003045,-0.146174,0.310381,0.833076,0.454494
7896734901,0.158096,0.147588,-0.147073,0.309797,0.835006,0.452037
7896754931,0.020760,0.186527,-0.003155,0.309714,0.836463,0.452232
7896774961,0.028432,0.262051,0.026528,0.309531,0.837736,0.452880
7896794991,-0.183760,0.429992,0.077909,0.308652,0.838115,0.451226
7896815021,-0.358131,0.422386,0.107998,0.306337,0.840145,0.449199
7896835051,-0.523660,0.787928,0.346955,0.307981,0.839957,0.448493
7896855079,-0.879146,0.894670,0.443373,0.310400,0.839294,0.450261
7896875109,-1.034871,1.357456,0.559541,0.311322,0.840111,0.449736
7896895139,-1.282416,1.553390,0.632129,0.312211,0.841734,0.451682
7896915169,-1.331837,1.724849,0.727469,0.303957,0.833305,0.453205
7896935198,-1.671175,1.539813,0.742065,0.304000,0.835377,0.457150
7896955228,-0.902828,0.313483,0.258408,0.306437,0.803223,0.501718
7896975258,1.186984,-0.346071,-0.235457,0.309663,0.809184,0.507120
7896995288,2.433964,-1.478708,-0.747189,0.305944,0.821311,0.477502
7897015318,3.135091,-1.967799,-1.075016,0.308831,0.829382,0.464842
7897035347,3.158299,-1.731539,-1.008660,0.309112,0.837785,0.444840
7897055377,2.573995,-1.209838,-0.710038,0.313132,0.851383,0.420290
7897075407,1.042016,0.170195,-0.176454,0.317549,0.866865,0.400238
7897095437,-1.265101,1.966709,0.755110,0.318446,0.867855,0.401357
7897115469,-3.115225,4.027488,1.768079,0.315073,0.867201,0.407778
7897155528,-6.620749,7.830007,4.297210,0.285300,0.841920,0.448325
7897175558,-5.798346,5.592576,3.459615,0.278720,0.780677,0.539768
7897195590,-0.804275,-0.875956,0.453170,0.304587,0.714296,0.649857
7897215618,6.745257,-8.000956,-3.608023,0.301091,0.709897,0.674044
7897235647,13.903428,-13.568701,-6.962180,0.305771,0.761844,0.601291
7897255677,18.228857,-16.541189,-8.095193,0.283541,0.789190,0.543029
7897275706,20.792051,-18.741686,-8.788196,0.299162,0.812655,0.500957
7897295735,23.042919,-20.947554,-9.306916,0.297405,0.803751,0.498928
7897315765,25.885138,-23.804533,-10.115584,0.319322,0.793535,0.509415
7897335795,29.589197,-26.286663,-11.275763,0.302844,0.792224,0.517534
7897355825,33.273098,-29.940727,-12.380617,0.299728,0.804938,0.496056
7897375855,36.734604,-34.218422,-13.677478,0.283491,0.814411,0.482003
7897395885,40.718491,-38.748848,-14.608022,0.273231,0.823071,0.491776
7897415914,45.293381,-43.685436,-15.421138,0.266679,0.832588,0.491301
7897435944,50.283813,-48.835567,-15.701511,0.258761,0.847084,0.481629
7897455974,55.700348,-53.797207,-15.846786,0.267903,0.854520,0.446059
7897476004,60.061497,-58.013309,-15.513576,0.269599,0.872824,0.397962
7897496034,63.966377,-61.997604,-14.871665,0.263813,0.883551,0.360537
7897516065,67.906235,-66.506363,-13.952377,0.256791,0.881504,0.344153
7897536095,71.793442,-70.717339,-12.838482,0.261443,0.904043,0.300616
7897556125,75.209770,-74.383659,-11.213801,0.248957,0.923335,0.254214
7897576155,78.580116,-77.804771,-9.174188,0.236843,0.922746,0.227354
7897596184,81.728981,-80.948524,-6.492530,0.238636,0.936509,0.176843
7897616214,84.820801,-82.918747,-3.509887,0.249830,0.956022,0.114121
7897636244,86.612129,-82.902145,-0.271599,0.251905,0.968012,0.038948
7897656274,87.073959,-82.680832,2.896088,0.242628,0.956680,-0.023296
7897676303,86.741211,-83.177475,6.349957,0.252208,0.976779,-0.075448
7897696332,85.783607,-84.204414,9.572931,0.255000,0.972877,-0.128115
7897716362,84.848320,-85.307404,12.849630,0.256612,0.969938,-0.157148
7897736392,84.467560,-86.336395,16.368603,0.242691,0.956601,-0.167083
7897756422,85.091415,-86.966644,20.081848,0.229874,0.946113,-0.182452
7897776452,86.989960,-87.814995,24.320709,0.225559,0.939126,-0.182496
7897796482,89.958122,-89.148117,28.693048,0.240871,0.934306,-0.200185
7897816512,93.306702,-90.001984,33.584721,0.231507,0.924271,-0.250459
7897836542,96.064339,-90.166946,38.682617,0.225313,0.905957,-0.321482
7897856571,97.694443,-89.268921,43.475338,0.242885,0.884557,-0.404198
7897876601,97.847549,-86.190498,46.952499,0.250791,0.848928,-0.473143
7897896631,97.249344,-81.764381,49.364071,0.242224,0.822983,-0.529394
7897916660,96.085052,-76.835014,51.141823,0.255394,0.796462,-0.588310
7897936692,93.568787,-70.669403,51.718155,0.277815,0.734235,-0.656991
7897956722,89.748436,-64.699295,50.945881,0.297767,0.705664,-0.715085
7897976752,84.860397,-57.229965,48.401455,0.301129,0.662219,-0.734969
7897996781,79.960907,-50.498062,46.113415,0.285663,0.622512,-0.750925
7898016811,75.732918,-47.822762,47.302048,0.295393,0.616178,-0.737314
7898036841,72.655403,-48.365913,50.709484,0.315036,0.625800,-0.752517
7898056871,69.663452,-45.525803,50.790344,0.290471,0.585572,-0.779034
7898076901,67.123039,-43.210747,51.634033,0.287208,0.599868,-0.790366
7898096935,66.963814,-41.849827,53.176865,0.265019,0.644080,-0.709797
7898116959,72.729958,-42.464073,58.431629,0.248438,0.758759,-0.613421
7898136989,82.930145,-44.906986,65.606995,0.275274,0.727791,-0.642485
7898157019,90.137421,-46.343109,73.197075,0.248924,0.591465,-0.761122
7898177049,92.632339,-45.103733,79.003342,0.231165,0.497183,-0.835226
7898197078,93.172821,-42.898220,83.822487,0.241222,0.433610,-0.862673
7898217108,93.441956,-39.623711,86.941696,0.273056,0.412018,-0.864547
7898237138,95.637825,-36.393238,89.053780,0.283027,0.426099,-0.868819
7898257168,98.721779,-33.280617,91.470581,0.270183,0.381441,-0.897925
7898277198,101.325806,-29.812906,94.604469,0.253162,0.331110,-0.917930
7898297227,103.476196,-26.566921,98.998627,0.234785,0.272794,-0.941957
7898317257,105.296227,-22.368011,103.301208,0.247763,0.218896,-0.960229
7898337287,106.510414,-17.136593,105.843369,0.255597,0.143194,-0.967101
7898357319,106.749504,-12.012829,106.520767,0.253100,0.072775,-0.978657
7898377348,105.748146,-5.994762,106.348442,0.246041,-0.001348,-0.990412
7898397379,103.126396,-0.479262,105.830772,0.248787,-0.080836,-0.998772
7898417408,100.621071,5.048600,106.912880,0.240261,-0.100040,-1.007943
7898437438,99.163940,10.327365,108.005173,0.242939,-0.088172,-0.999665
7898457468,100.767326,15.723390,110.311096,0.246311,-0.079763,-1.008296
7898477498,104.061722,21.695789,112.385529,0.219537,-0.106347,-0.997657
7898497528,108.150200,28.279665,114.197418,0.212947,-0.142766,-0.993262
7898517556,112.231812,34.870472,115.796951,0.221326,-0.197462,-0.979025
7898537586,115.864441,42.717461,116.756409,0.221600,-0.271228,-0.966009
7898557616,118.762405,50.443172,116.708107,0.210553,-0.348195,-0.938690
7898597675,119.993477,64.423599,111.101883,0.220413,-0.517212,-0.861672
7898617705,118.763016,69.671677,105.673920,0.225912,-0.588129,-0.827273
7898637735,116.959908,73.816963,99.618034,0.208989,-0.644824,-0.786625
7898657765,114.251762,76.813194,92.229340,0.215579,-0.697066,-0.738068
7898677795,110.854744,78.793541,84.977730,0.230628,-0.755848,-0.670170
7898697825,106.516708,79.110947,77.443939,0.238169,-0.777669,-0.622229
7898717854,102.403969,78.742096,69.908432,0.247342,-0.805554,-0.582716
7898737884,97.806625,76.883438,62.241135,0.234012,-0.838665,-0.528919
7898757914,92.362701,73.747871,53.795616,0.207391,-0.832279,-0.454888
7898777945,88.299538,76.034752,50.643040,0.272541,-0.862962,-0.495561
7898797975,85.042351,78.936394,48.228737,0.295150,-0.892274,-0.491539
7898818005,83.036652,80.519829,45.113384,0.219653,-0.895765,-0.484034
7898838035,84.391792,84.844276,42.992657,0.222059,-0.858681,-0.551574
7898858065,89.663811,90.102020,41.639351,0.243093,-0.824632,-0.586705
7898878095,97.834549,97.879875,40.501335,0.230555,-0.850087,-0.597643
7898898125,106.289719,106.310287,36.924122,0.231530,-0.886639,-0.531229
7898918154,112.595230,112.602356,32.400890,0.221327,-0.915400,-0.413983
7898938183,116.007500,116.727921,26.431108,0.221592,-0.952460,-0.290619
7898958213,116.900246,117.858459,19.954510,0.231798,-0.986943,-0.198108
7898978243,117.052429,116.878922,14.101835,0.182072,-0.969188,-0.127726
7898998272,115.433174,115.946960,8.285817,0.208781,-1.013216,-0.009108
7899018302,111.901245,113.653709,2.086034,0.198347,-0.985016,0.055619
7899038332,107.832138,111.857452,-4.300153,0.219382,-0.966973,0.094654
7899058362,104.910622,110.414825,-10.104931,0.232012,-0.968683,0.093200
7899078392,103.351723,111.393730,-15.732248,0.218017,-0.987040,0.132333
7899098422,102.628105,113.729713,-21.666260,0.215071,-1.000162,0.152248
7899118451,102.922974,115.693718,-27.960594,0.197197,-0.998298,0.164026
7899138481,104.878952,117.782791,-35.195358,0.176505,-0.993930,0.171307
7899158511,108.410011,119.716995,-42.996712,0.169381,-0.997728,0.189780
7899178541,112.728928,120.587502,-51.236107,0.163767,-0.987212,0.251775
7899198572,116.238647,119.287354,-58.866264,0.166108,-0.957657,0.336259
7899218602,118.775818,116.738327,-65.925331,0.143029,-0.925028,0.404656
7899238632,120.206329,113.228783,-72.893463,0.138645,-0.877106,0.486189
7899258662,119.854660,108.218521,-78.485062,0.141884,-0.806941,0.572250
7899278692,118.172882,102.343666,-82.970657,0.140031,-0.750135,0.658561
7899298721,114.808365,95.142769,-86.050812,0.130338,-0.684313,0.721914
7899318751,110.915588,87.833763,-88.152229,0.139891,-0.629502,0.762928
7899338781,106.753731,80.651505,-89.200920,0.152380,-0.581717,0.787127
7899358810,102.535202,73.304909,-89.406647,0.169760,-0.531514,0.813162
7899378839,98.567657,66.621872,-88.821709,0.173500,-0.494374,0.828904
7899398869,94.624901,59.310047,-87.306458,0.191769,-0.453120,0.857883
7899418899,90.301338,51.473629,-83.936951,0.204008,-0.401452,0.888231
7899438929,86.042656,44.572865,-80.643501,0.173858,-0.361854,0.877608
7899458959,82.144142,39.937069,-82.320015,0.216618,-0.373519,0.895724
7899478989,78.966728,37.094616,-86.035675,0.232061,-0.338951,0.934090
7899499018,78.007706,34.601360,-88.797836,0.219522,-0.453423,0.911921
7899519049,83.099617,33.842499,-93.679466,0.209931,-0.568820,0.857565
7899539079,91.672241,31.713804,-99.783791,0.186404,-0.556687,0.863868
7899559108,99.768784,27.803844,-106.669525,0.146572,-0.469513,0.890228
7899579138,105.529877,22.310282,-112.807602,0.146290,-0.354127,0.925617
7899599168,109.183487,16.745388,-116.307541,0.167935,-0.241982,0.962428
7899619199,111.153847,11.200246,-116.578476,0.165850,-0.142957,0.978009
7899639229,111.685585,5.190644,-114.624657,0.159903,-0.060905,0.971550
7899659259,111.158813,-0.230726,-111.440392,0.166584,0.009434,0.976691
7899679289,110.524651,-6.147374,-108.578056,0.161115,0.041243,0.963385
7899699319,110.981529,-11.729746,-106.453468,0.172533,0.053917,0.964692
7899719349,112.184402,-17.309345,-104.593918,0.173992,0.072773,0.978675
7899739378,114.988647,-23.360889,-104.746460,0.166932,0.088235,0.990115
7899759408,118.345627,-29.008045,-106.009125,0.174051,0.191389,1.069333
7899779441,118.619926,-35.552643,-109.646523,0.095725,0.371569,0.852629
7899799466,114.111671,-42.339020,-111.221886,0.117538,0.503556,0.876024
7899819496,109.194954,-49.484489,-111.573692,0.098367,0.472586,0.833796
7899839526,107.569099,-57.456238,-110.248917,0.145159,0.425856,0.862699
7899859556,108.832390,-63.219070,-106.188980,0.173215,0.436972,0.879234
7899879586,110.771317,-68.586983,-101.328339,0.141707,0.494736,0.847486
7899899615,111.928741,-73.631355,-96.554192,0.152547,0.577471,0.783700
7899919645,111.249680,-77.828735,-91.795601,0.167770,0.665855,0.715108
7899939675,108.154045,-81.769913,-87.085861,0.163403,0.759408,0.624243
7899959705,103.454536,-85.297859,-81.986076,0.185925,0.784853,0.594626
7899979735,100.003662,-88.612534,-77.145264,0.169679,0.765050,0.602761
7899999765,98.842812,-91.191864,-71.847023,0.191273,0.773474,0.619075
7900019794,98.853416,-93.930855,-66.918396,0.173077,0.784289,0.579897
7900039826,99.532845,-96.833679,-62.116962,0.165719,0.813401,0.546815
7900059856,100.014885,-99.644012,-57.286079,0.182324,0.826158,0.512420
7900079885,100.635193,-101.867996,-52.164345,0.188979,0.853684,0.470788
7900099915,101.598923,-103.827591,-47.105320,0.189351,0.876278,0.422252
7900119945,102.144913,-105.380280,-41.670807,0.197424,0.913127,0.357905
7900139975,101.422913,-106.377701,-36.082348,0.185083,0.957236,0.272753
7900160005,98.825874,-106.695511,-30.545998,0.219351,0.969784,0.176928
7900180035,95.690781,-106.905228,-25.405083,0.220121,0.971622,0.157512
7900200064,93.826782,-106.855606,-20.364296,0.223691,0.957812,0.131880
7900220093,92.673042,-106.170959,-15.502889,0.218476,0.964414,0.114146
7900240123,92.249115,-105.574165,-10.716211,0.231370,0.956178,0.075388
7900260153,92.033638,-104.400826,-6.184483,0.231106,0.972192,0.047231
7900280182,92.045288,-103.411133,-1.582864,0.228604,0.979850,0.001522
7900300213,91.684196,-102.533928,2.936116,0.238140,0.975495,-0.058799
7900320243,90.641563,-100.960350,7.479249,0.234463,0.969286,-0.099451
7900340272,89.744797,-99.419540,11.560217,0.231275,0.970230,-0.133273
7900360303,88.994629,-97.216713,15.810086,0.256494,0.966554,-0.186030
7900380332,88.299667,-95.153786,19.287783,0.253276,0.956652,-0.234468
7900400362,86.777611,-92.721275,22.716480,0.258427,0.925935,-0.299213
7900440421,82.543526,-87.203995,29.256964,0.264636,0.895868,-0.367496
7900460451,80.529800,-84.526871,32.220863,0.268060,0.891258,-0.408656
7900480482,78.247658,-80.967064,34.669220,0.277583,0.871888,-0.440086
7900500512,76.625412,-78.028290,36.827408,0.286278,0.849488,-0.466353
7900520542,73.866043,-74.368378,38.865261,0.282375,0.812897,-0.529565
7900560602,61.753292,-63.549366,38.669998,0.313272,0.674760,-0.774369
7900580632,49.781746,-56.526436,37.088818,0.292188,0.712986,-0.715017
7900600662,45.447132,-51.060871,34.864761,0.346915,0.771459,-0.600017
7900620691,43.643768,-48.214355,34.195511,0.326696,0.737789,-0.599562
7900640720,40.869263,-45.143097,33.182709,0.334955,0.718191,-0.637313
7900660750,37.324932,-42.310398,32.452076,0.321707,0.697141,-0.653152
7900680780,34.143345,-39.913052,31.854166,0.320026,0.696145,-0.668069
7900700809,31.184713,-37.121944,30.995266,0.316917,0.699030,-0.659511
7900720839,29.675945,-34.985855,30.036423,0.323483,0.710040,-0.633102
7900740869,29.569183,-33.402889,29.780451,0.330068,0.729018,-0.598493
7900760899,31.751116,-33.154453,30.135778,0.328602,0.738494,-0.581722
7900780929,33.914524,-33.208271,31.122952,0.331036,0.709865,-0.611070
7900800959,34.931419,-32.982414,31.985907,0.329455,0.678653,-0.646076
7900820989,34.887558,-32.143196,32.486839,0.322640,0.657750,-0.678424
7900841018,34.209103,-30.830868,32.339016,0.324407,0.640504,-0.706400
7900861048,33.101620,-29.123236,31.361214,0.334140,0.614807,-0.730855
7900881078,31.275272,-26.956671,29.909122,0.335875,0.591815,-0.741903
7900901109,28.920656,-24.271580,27.898924,0.337764,0.567336,-0.763553
7900921139,26.018063,-21.720594,25.889587,0.344400,0.550433,-0.777569
7900941169,23.047550,-19.376139,23.472519,0.345650,0.540095,-0.786683
7900961199,19.668922,-16.909721,20.462828,0.358032,0.520714,-0.803550
7900981229,16.022408,-13.576475,16.755751,0.354155,0.505065,-0.818182
7901001259,11.359618,-10.270988,12.244715,0.350215,0.486485,-0.830104
7901021288,6.462961,-6.285863,8.015980,0.321905,0.463682,-0.841456
7901041318,0.518042,-4.932786,7.160130,0.325411,0.456289,-0.842563
7901061355,-5.008845,-6.707603,9.401499,0.347791,0.510676,-0.820881
7901081377,-5.635436,-7.862756,11.230602,0.252126,0.682646,-0.686461
7901101407,1.665617,-11.770679,17.309889,0.296928,0.795767,-0.591384
7901121436,14.309149,-18.226545,25.619543,0.292200,0.842312,-0.523291
7901141466,27.962538,-23.945103,32.945404,0.295119,0.808379,-0.533782
7901161496,45.246777,-29.006956,39.820164,0.277214,0.885845,-0.427547
7901181526,62.198006,-32.937248,49.930405,0.324639,0.825385,-0.497814
7901201556,74.282227,-36.947620,60.251263,0.309655,0.756955,-0.650786
7901221585,86.177872,-41.317673,71.970154,0.207099,0.733610,-0.646187
7901241615,99.062447,-44.195389,85.375389,0.227606,0.726160,-0.718684
7901261645,112.236435,-46.303165,99.577995,0.182136,0.695138,-0.739520
7901281675,125.769028,-45.196373,115.057922,0.132877,0.668860,-0.788858
7901301705,139.794159,-42.072762,131.218704,0.147003,0.626806,-0.840416
7901321736,153.851791,-36.780838,147.118668,0.120465,0.563444,-0.896483
7901341766,167.967896,-28.238585,163.135422,0.079675,0.465002,-0.951007
7901361796,179.012863,-15.545783,177.197586,0.094118,0.278336,-1.024439
7901381826,186.132202,0.334273,186.704529,0.090072,0.115895,-1.077314
7901401856,191.347916,17.052486,191.191772,0.075079,-0.016766,-1.101699
7901421886,194.440536,34.456161,190.175186,0.083859,-0.181044,-1.087100
7901441915,195.441956,51.488861,184.186874,0.069492,-0.306087,-1.043390
7901461945,195.941940,68.890739,178.543961,0.005321,-0.342864,-1.072801
7901482000,199.505936,87.759331,177.030075,0.010711,-0.410954,-1.117438
7901502003,203.944473,107.868935,176.984665,0.017761,-0.548405,-1.014702
7901522033,204.203247,127.295494,173.205002,0.002852,-0.672757,-0.901064
7901542063,203.215912,146.421906,164.210770,-0.039918,-0.750264,-0.825059
7901562093,201.944641,162.571411,150.032486,-0.012520,-0.813843,-0.712910
7901582123,201.485321,176.776825,133.937469,-0.033745,-0.882798,-0.658112
7901602153,200.849777,189.073654,115.902252,0.010354,-0.983538,-0.579997
7901622183,198.307953,197.984924,95.354500,-0.002926,-1.046274,-0.443853
7901642213,194.037903,204.920563,75.383575,-0.021627,-1.096816,-0.315535
7901662242,188.711426,208.414474,55.653347,-0.020386,-1.068005,-0.195836
7901682272,182.737427,209.077652,37.425079,0.041104,-1.152017,-0.130795
7901702302,181.216583,208.015076,20.055063,-0.049035,-1.081039,-0.163556
7901722332,181.874466,205.897186,2.406848,0.031941,-1.096516,-0.094461
7901742363,182.576950,201.785217,-17.385506,-0.068703,-1.071294,0.030762
7901762393,180.843063,197.009323,-36.976326,-0.070392,-1.042766,0.186837
7901782423,178.758362,190.195831,-54.154263,-0.065026,-0.997981,0.264755
7901802452,174.735764,179.837891,-69.051491,-0.034215,-0.971129,0.455122
7901822482,168.466980,167.064850,-81.344025,-0.052426,-0.909379,0.538931
7901842512,163.589737,156.011658,-91.557663,-0.009016,-0.896538,0.555549
7901862542,160.681183,145.529404,-100.918373,0.010627,-0.864191,0.579721
7901882572,159.212280,135.885223,-110.042786,0.012045,-0.819798,0.619502
7901902613,157.396652,125.651382,-118.510361,0.004801,-0.746801,0.715370
7901922630,152.938446,114.266617,-124.793472,-0.003550,-0.572679,0.840731
7901942660,141.702667,100.651451,-125.943207,0.038204,-0.310954,0.994830
7901962690,126.759308,87.534943,-122.708900,0.077686,-0.290264,0.981604
7901982720,118.052948,76.003075,-120.561531,0.091674,-0.438001,0.902591
7902002749,113.626343,65.404564,-119.322205,0.093863,-0.369534,0.921336
7902022780,106.226791,55.181366,-115.282082,0.144551,-0.179911,0.964722
7902042809,96.090134,45.102753,-108.765152,0.157455,-0.093513,0.974039
7902062839,84.981750,35.348942,-99.991936,0.157470,-0.021431,0.999903
7902082869,74.095627,27.418924,-89.505219,0.175640,0.002115,1.003976
7902102899,64.267822,20.811722,-77.838699,0.211158,0.006603,0.993092
7902122928,53.811592,15.496899,-65.379623,0.247106,0.095406,0.987011
7902142958,41.849075,11.635474,-53.168537,0.247865,0.158200,0.995912
7902162990,28.324347,8.909475,-40.778183,0.320803,0.231482,1.003618
7902183020,13.608950,6.622396,-28.763615,0.297279,0.211332,1.000950
7902203050,0.151902,4.928425,-19.482979,0.295650,0.185213,0.982971
7902223080,-11.470557,3.268394,-8.533676,0.286909,0.112751,0.969195
7902243110,-21.215389,0.987253,1.754526,0.282931,0.092704,0.959085
7902263139,-31.042658,-1.172379,11.829367,0.284385,0.102383,0.969149
7902283169,-41.941265,-3.563975,21.405220,0.281609,0.107434,0.980654
7902303199,-52.902901,-5.914885,29.396038,0.254410,0.072630,0.979890
7902323227,-63.473839,-9.264399,37.569820,0.235690,0.041717,0.990346
7902343257,-74.010750,-13.489021,45.872280,0.223303,0.006735,0.988634
7902363287,-84.362419,-18.328798,54.885132,0.212876,-0.044205,0.987994
7902383317,-94.290009,-24.873484,64.610054,0.204180,-0.091156,0.988696
7902403347,-103.537849,-32.624809,74.224113,0.177156,-0.165109,0.953247
7902443406,-118.773453,-47.822449,87.415924,0.171039,-0.307258,0.937591
7902463436,-126.755821,-57.265598,91.623604,0.123401,-0.335843,0.922949
7902483466,-134.988831,-67.380302,94.926949,0.081150,-0.421264,0.886416
7902503496,-142.224976,-77.371399,95.811043,0.066811,-0.502062,0.855309
7902523526,-149.050690,-88.533905,95.310059,0.050347,-0.559253,0.808135
7902543556,-156.090912,-100.565018,94.217285,0.061207,-0.631864,0.783264
7902563585,-163.073044,-111.760765,90.372795,0.047523,-0.694502,0.729969
7902583617,-168.896027,-121.873314,84.510513,0.021205,-0.807799,0.613919
7902603646,-172.110779,-131.465134,76.886070,0.020689,-0.894754,0.514509
7902623676,-174.256683,-139.660889,67.339729,0.026749,-0.946601,0.416809
7902643706,-175.447617,-146.093246,56.270214,0.033977,-1.007406,0.339130
7902663736,-175.854736,-151.177704,44.355721,0.025324,-1.021896,0.223825
7902683766,-176.443314,-154.122208,32.461079,0.063982,-1.067049,0.146344
7902703795,-176.332291,-155.840057,19.745193,0.030590,-1.061062,0.060588
7902723825,-177.028290,-156.421417,6.450716,0.050332,-1.068111,0.014010
7902743854,-178.979568,-156.834778,-6.398435,0.092793,-1.083197,-0.037568
7902763884,-181.980850,-156.920746,-18.613943,0.066951,-1.041739,-0.090737
7902783913,-185.785858,-157.081146,-31.587425,0.054697,-1.057225,-0.156081
7902803943,-190.463120,-157.132004,-45.062672,0.046346,-1.039235,-0.217856
7902823973,-196.248260,-156.231537,-60.328232,0.064379,-1.059320,-0.323741
7902844003,-200.479507,-152.751297,-75.591965,0.031204,-0.977504,-0.464664
7902864033,-202.043579,-145.393356,-90.212158,0.061133,-0.957773,-0.616638
7902884063,-202.655396,-135.986328,-102.877739,0.050500,-0.840231,-0.690767
7902904093,-201.692810,-124.761459,-113.465172,0.075889,-0.769607,-0.802176
7902924122,-199.234894,-112.143280,-121.591797,0.061986,-0.668987,-0.860538
7902944152,-196.551758,-99.118233,-128.334198,0.067100,-0.591077,-0.902825
7902964182,-194.219711,-85.875954,-134.411392,0.083190,-0.524356,-0.943759
7902984212,-192.386261,-72.825211,-139.380219,0.079094,-0.452490,-0.986160
7903004243,-190.640808,-59.914845,-143.218170,0.083883,-0.375392,-1.013762
7903024273,-189.188324,-47.121025,-145.955872,0.092320,-0.299104,-1.031178
7903044303,-186.540436,-35.741631,-148.665985,0.136145,-0.166767,-1.091778
7903064333,-182.830078,-24.044821,-150.377380,0.096726,-0.052653,-1.062240
7903084363,-178.213608,-11.330029,-151.255280,0.145155,0.017422,-1.056241
7903104393,-174.751999,1.634706,-152.060028,0.147803,0.074215,-1.019885
7903124422,-171.179398,14.059389,-150.304993,0.157120,0.148307,-1.036485
7903144452,-168.077896,25.446905,-147.608902,0.130541,0.203386,-1.018788
7903164481,-165.885986,36.400814,-143.999741,0.123878,0.273468,-1.002181
7903184511,-164.091873,45.861389,-139.172684,0.138351,0.338995,-0.992393
7903204540,-162.645508,54.840302,-133.257507,0.137417,0.407400,-0.959731
7903224570,-161.157639,63.035965,-127.047615,0.142097,0.477854,-0.925133
7903244600,-160.005585,71.066528,-120.662109,0.155870,0.516995,-0.888213
7903264630,-158.945999,78.647896,-114.454849,0.147860,0.588013,-0.843134
7903284660,-157.621445,86.183151,-107.958961,0.148388,0.655403,-0.794026
7903304690,-155.884476,92.759026,-100.901306,0.138288,0.707097,-0.728437
7903324719,-153.513733,98.618027,-93.245934,0.129705,0.764858,-0.658385
7903344749,-150.820267,103.699974,-85.273003,0.130195,0.809966,-0.599531
7903364779,-148.191666,107.808052,-77.276779,0.131946,0.833465,-0.538210
7903384809,-145.686768,111.597839,-69.050461,0.130249,0.874926,-0.492116
7903404839,-142.707809,114.434708,-60.505058,0.116717,0.928209,-0.351251
7903424870,-134.251770,113.647530,-50.364662,0.094983,1.022563,-0.026912
7903444900,-116.223526,107.283676,-40.157650,0.178691,1.034980,0.129946
7903464930,-101.520912,101.949356,-32.356831,0.234060,0.969927,-0.020939
7903484960,-92.762466,97.783905,-25.865248,0.162017,0.976672,0.008445
7903504990,-83.265282,91.801888,-19.684082,0.199983,0.988849,0.082757
7903525020,-72.324829,84.307800,-14.960453,0.252859,0.986052,0.131429
7903545050,-62.055782,78.172302,-12.470114,0.267584,1.008699,0.105676
7903565079,-56.346115,68.795006,-10.121566,0.331601,0.971367,-0.028287
7903585108,-53.592308,62.741005,-8.818354,0.257254,0.920664,-0.016909
7903605138,-52.268810,57.803856,-5.857148,0.282015,0.922518,0.061110
7903625167,-46.856163,52.089619,-3.448515,0.280051,0.914626,0.183430
7903645197,-39.306744,45.905109,-1.709709,0.282316,0.928749,0.195922
7903665227,-32.380196,41.358891,-0.432303,0.281072,0.930254,0.189069
7903685257,-26.718473,37.555809,0.277174,0.296440,0.945483,0.153672
7903705287,-22.414928,34.406815,0.950175,0.293842,0.947942,0.140872
7903725317,-18.770229,31.587309,1.233403,0.305519,0.935262,0.131541
7903745347,-14.881242,27.030550,1.379693,0.301473,0.926110,0.206343
7903765376,-9.946782,21.317909,1.240492,0.314412,0.920869,0.200936
7903785406,-4.842645,14.172704,0.908685,0.300956,0.915225,0.246220
7903805436,1.803889,6.706975,0.496911,0.306277,0.914409,0.271405
7903825466,8.460249,1.463045,-0.153394,0.325195,0.921410,0.237451
7903845497,13.762397,-1.938501,-0.577196,0.305419,0.924409,0.197079
7903865527,18.459772,-5.974669,-0.533453,0.308619,0.925225,0.178515
7903885557,22.388046,-10.349489,-0.547896,0.320400,0.928468,0.140667
7903905586,25.352539,-14.323582,-0.619244,0.323448,0.924663,0.118131
7903925616,28.265516,-17.710594,-0.483247,0.312442,0.931308,0.099207
7903945646,30.890509,-20.661354,-0.093260,0.306258,0.938984,0.085849
7903965676,33.379658,-23.383123,0.271991,0.301806,0.944232,0.065193
7903985706,35.406960,-25.477661,0.821306,0.306729,0.947284,0.036178
7904005734,36.828854,-26.861034,1.387103,0.308583,0.949999,0.005833
7904025764,37.910328,-27.915689,1.836244,0.313155,0.948845,-0.020031
7904045794,38.370758,-28.235727,2.460886,0.315152,0.948637,-0.049215
7904065824,38.268360,-28.674877,2.995272,0.315523,0.943264,-0.081211
7904085854,37.794907,-28.769615,3.503840,0.322854,0.937315,-0.099953
7904105884,36.958210,-28.459070,3.993665,0.324710,0.937577,-0.131509
7904125914,35.728947,-27.690683,4.198918,0.323661,0.940128,-0.161994
7904145944,34.280899,-26.502481,4.408122,0.317226,0.933856,-0.188815
7904165973,32.020924,-24.944721,4.583503,0.322603,0.930580,-0.226553
7904186003,29.093611,-23.079445,4.611918,0.329542,0.926655,-0.248296
7904206033,26.104994,-21.465588,4.475609,0.329521,0.923377,-0.248418
7904226063,23.534672,-19.815863,4.346782,0.332476,0.922230,-0.257966
7904246094,20.980089,-18.059759,4.186742,0.328828,0.918464,-0.264451
7904266124,18.470226,-16.547567,3.998443,0.330109,0.915438,-0.278061
7904286154,15.620738,-14.531668,3.669272,0.334822,0.908569,-0.292290
7904306184,12.505945,-12.454030,3.172649,0.335466,0.906331,-0.299695
7904326214,9.650232,-10.248416,2.659911,0.337663,0.907323,-0.300380
7904346246,6.817656,-8.005046,2.093793,0.335095,0.907238,-0.298779
7904366273,4.152173,-5.701236,1.656145,0.336884,0.905821,-0.291916
7904386303,1.743704,-3.901738,1.048466,0.339123,0.904978,-0.290336
7904406333,-0.375178,-1.982166,0.386845,0.346444,0.915186,-0.283549
7904426361,-2.022403,-0.034797,-0.320275,0.330998,0.909750,-0.256188
7904446391,-2.714013,1.680613,-0.592804,0.331844,0.912528,-0.233508
7904466421,-3.026454,3.142780,-0.878188,0.333703,0.911284,-0.225182
7904486451,-3.051635,4.261159,-1.084726,0.336956,0.913257,-0.223285
7904506481,-3.091923,5.348943,-1.359253,0.330983,0.916538,-0.217235
7904526510,-2.996921,6.170086,-1.487415,0.330655,0.919336,-0.212376
7904546540,-2.766564,6.533435,-1.725400,0.342026,0.923577,-0.217721
7904566570,-2.831468,7.210449,-1.958579,0.326063,0.917800,-0.209726
7904586600,-2.526701,7.391616,-1.929624,0.329194,0.920614,-0.211292
7904606630,-2.502870,7.573888,-2.014547,0.330496,0.917494,-0.208835
7904626660,-2.350761,7.634179,-1.954322,0.329163,0.919206,-0.204093
7904646690,-2.145824,7.518793,-1.991165,0.329667,0.921005,-0.200691
7904666721,-2.107598,7.564234,-1.999110,0.328993,0.920722,-0.198331
7904686751,-1.781487,7.448689,-1.891833,0.328289,0.921700,-0.193494
7904706781,-1.410888,6.990107,-1.865057,0.328428,0.919106,-0.186121
7904726810,-1.220799,5.368793,-1.563231,0.325886,0.929805,-0.222034
7904746841,-2.510081,4.378805,-1.464557,0.335537,0.922101,-0.238929
7904766870,-3.715811,3.533682,-1.162342,0.320356,0.915058,-0.217604
7904786900,-3.918487,2.729654,-0.640106,0.320871,0.919293,-0.178848
7904826960,-2.585498,1.726543,-0.312590,0.329937,0.924717,-0.181389
7904846988,-2.336228,1.352356,-0.278999,0.329709,0.926676,-0.189135
7904867018,-2.337488,1.032624,-0.291479,0.328463,0.924604,-0.191730
7904887048,-2.239796,0.819261,-0.206237,0.328394,0.925305,-0.186978
7904907078,-2.142822,0.430836,-0.119526,0.329504,0.925000,-0.182580
7904927108,-1.833564,-0.172119,-0.114314,0.328799,0.925069,-0.178118
7904947137,-1.455817,-0.637919,0.041422,0.326795,0.924898,-0.177787
7904967167,-1.046610,-0.921512,0.104658,0.326976,0.925805,-0.177319
7904987197,-0.721098,-1.189312,0.205632,0.327258,0.924898,-0.178327
7905007227,-0.410157,-1.289527,0.320355,0.329316,0.921910,-0.183616
7905027257,-0.258310,-1.397123,0.253093,0.329790,0.923129,-0.190170
7905047286,-0.455749,-1.350459,0.237441,0.331061,0.923030,-0.190151
7905067316,-0.493378,-1.335367,0.138729,0.331780,0.924965,-0.194686
7905087348,-0.622273,-1.205109,0.190648,0.331326,0.924513,-0.194880
7905107377,-0.728602,-1.158800,0.212954,0.326267,0.924248,-0.190765
7905127407,-0.888076,-1.112286,0.212486,0.327463,0.924246,-0.191750
7905147437,-0.918538,-1.142647,0.189980,0.327996,0.924057,-0.191104
7905167467,-0.962772,-0.822802,0.164527,0.330815,0.923042,-0.191889
7905187505,-1.090825,-0.548182,0.139413,0.331574,0.923412,-0.193790
7905207527,-1.425105,-0.577240,0.025763,0.329431,0.923496,-0.190264
7905227557,-1.478058,-0.523729,0.010124,0.330489,0.923296,-0.188331
7905247586,-1.538327,-0.363464,0.039078,0.331762,0.924379,-0.187936
7905287645,-1.636118,-0.211147,-0.091144,0.330776,0.925901,-0.182277
7905307674,-1.522260,-0.165698,0.022261,0.328203,0.925451,-0.180497
7905327705,-1.582056,-0.128214,-0.243457,0.333503,0.923011,-0.189563
7905347734,-1.566295,0.092795,-0.139155,0.329152,0.924370,-0.183596
7905367764,-1.641876,0.123311,-0.238015,0.329394,0.924539,-0.181582
7905387794,-1.565665,0.222088,-0.170569,0.328408,0.926730,-0.181395
7905407824,-1.466895,0.229278,-0.140253,0.330924,0.925524,-0.180270
7905427854,-1.504679,0.267460,-0.163338,0.327860,0.926914,-0.181129
7905447884,-1.626351,0.268130,-0.155820,0.327104,0.925182,-0.179970
7905467913,-1.618804,0.291077,-0.110517,0.328758,0.925270,-0.181220
7905487943,-1.542719,0.298260,-0.118122,0.328415,0.925518,-0.176568
7905507975,-1.444261,0.259910,-0.049514,0.329273,0.927584,-0.172426
7905528004,-1.200511,0.326946,-0.103034,0.329017,0.927955,-0.173340
7905548034,-0.957685,0.180912,-0.139601,0.330699,0.927747,-0.170667
7905588094,-0.653797,0.110747,-0.154029,0.329998,0.925580,-0.173255
7905608124,-0.501458,0.178445,-0.154524,0.329406,0.925964,-0.175908
7905648183,-0.600383,0.163771,-0.146866,0.329501,0.924420,-0.176834
7905668213,-0.562680,0.148603,-0.070899,0.328971,0.925792,-0.177195
7905688242,-0.517605,0.003692,-0.084825,0.328423,0.927338,-0.176277
7905708272,-0.684926,-0.003008,-0.077268,0.329696,0.926241,-0.176905
7905728301,-0.548908,-0.201604,-0.067952,0.328765,0.926965,-0.175088
7905748331,-0.556910,-0.262302,-0.021954,0.331148,0.927140,-0.176417
7905768361,-0.594551,-0.231911,-0.098048,0.334396,0.926840,-0.175271
7905788391,-0.654134,-0.057062,-0.258769,0.334162,0.925708,-0.184050
7905808421,-0.749082,0.826107,-0.349634,0.321329,0.925924,-0.176131
7905828451,-0.891699,1.275947,-0.353480,0.331500,0.924987,-0.182548
7905848481,-1.025572,1.900376,-0.487684,0.333601,0.928704,-0.181658
7905868511,-1.311953,2.403775,-0.636109,0.329622,0.928007,-0.183007
7905888540,-1.698550,2.595731,-0.751639,0.328362,0.925748,-0.184692
7905908570,-2.047718,2.833947,-0.632495,0.329240,0.925516,-0.177102
7905928601,-2.023986,3.077469,-0.611781,0.325956,0.928222,-0.169005
7905948631,-1.826247,3.091645,-0.611805,0.324091,0.927546,-0.160369
7905968661,-1.515156,3.021850,-0.504919,0.327131,0.929963,-0.156280
7905988691,-0.996497,3.307861,-0.651130,0.332864,0.932806,-0.150044
7906008721,-0.404346,3.145110,-0.581238,0.329718,0.929624,-0.147660
7906028751,0.430358,2.714313,-0.615128,0.329179,0.930141,-0.142004
7906048781,1.225899,2.132025,-0.488540,0.332845,0.929495,-0.144506
7906068810,1.783667,1.140376,-0.237316,0.326937,0.930653,-0.149339
7906088838,2.258525,0.148428,-0.206012,0.331518,0.925892,-0.165832
7906108869,2.126669,-0.413827,-0.110369,0.328265,0.921284,-0.168849
7906128898,2.263463,-1.912487,0.364789,0.312948,0.933620,-0.159124
7906148928,2.151009,-1.493126,0.399124,0.340939,0.927357,-0.192871
7906168958,1.181977,-0.750813,0.051228,0.331930,0.921022,-0.206040
7906188988,0.026547,-0.660840,0.087824,0.329568,0.924034,-0.204590
7906209018,-0.937195,-0.397730,-0.149896,0.332110,0.928130,-0.191091
7906229047,-1.687818,0.001591,-0.290090,0.332508,0.924961,-0.194765
7906269107,-2.922965,1.035775,-0.276625,0.326053,0.926202,-0.181986
7906289137,-3.280397,1.014833,-0.276622,0.328607,0.928428,-0.175899
7906309167,-3.636676,1.244941,-0.316636,0.328737,0.928590,-0.172517
7906329197,-3.720109,1.275753,-0.339682,0.329541,0.928547,-0.165931
7906349228,-3.810459,1.504630,-0.326483,0.328980,0.928544,-0.164845
7906369258,-3.939721,1.490041,-0.341587,0.330128,0.925981,-0.163937
7906389288,-3.855484,1.588342,-0.403029,0.329829,0.929789,-0.160529
7906409318,-3.847788,1.519416,-0.516178,0.329719,0.930236,-0.159066
7906449378,-3.474788,1.708061,-0.419014,0.330743,0.930627,-0.148912
7906469407,-3.338222,1.631196,-0.425885,0.330189,0.929627,-0.148748
7906489437,-3.119052,1.333285,-0.392949,0.329445,0.928899,-0.147945
7906509468,-2.890440,1.453834,-0.401433,0.328360,0.932632,-0.146558
7906529495,-2.707451,1.566989,-0.417459,0.327521,0.929994,-0.146323
7906549525,-2.571776,1.284666,-0.407440,0.325378,0.933110,-0.147242
7906569555,-2.602619,1.155330,-0.436698,0.327927,0.933914,-0.147284
7906589585,-2.511302,1.254128,-0.338916,0.327623,0.931815,-0.146213
7906609614,-2.519441,1.117137,-0.345352,0.328345,0.932263,-0.145740
7906629644,-2.412856,1.169930,-0.322997,0.328785,0.930256,-0.145752
7906649675,-2.556427,1.368516,-0.347480,0.328509,0.932198,-0.150486
7906669705,-2.746719,1.316242,-0.347133,0.330325,0.932914,-0.150176
7906689734,-2.883229,1.431267,-0.310255,0.329124,0.933879,-0.142609
7906709765,-2.746657,1.392613,-0.271953,0.329013,0.930932,-0.136795
7906729794,-2.557306,1.270053,-0.202594,0.329205,0.934750,-0.135752
7906749824,-2.268911,1.032108,-0.336934,0.328980,0.931737,-0.134323
7906769855,-2.231146,1.001589,-0.298749,0.328241,0.932918,-0.132955
7906789884,-2.026483,0.917057,-0.214537,0.328166,0.930926,-0.134892
7906809914,-2.117694,0.948088,-0.184514,0.331037,0.932837,-0.137658
7906829944,-2.017970,1.145386,-0.208868,0.329615,0.934129,-0.139038
7906849974,-2.161896,1.214398,-0.285338,0.329371,0.934050,-0.140869
7906870004,-2.458094,1.177425,-0.429231,0.330934,0.935774,-0.141375
7906890034,-2.677463,1.506115,-0.363858,0.330241,0.933576,-0.138668
7906910064,-3.012031,1.462065,-0.409143,0.326383,0.932436,-0.142119
7906930092,-3.367742,1.867389,-0.405136,0.328910,0.934902,-0.145889
7906950122,-3.861267,2.014547,-0.429357,0.328914,0.935687,-0.139948
7906970152,-4.157259,2.107301,-0.475771,0.327870,0.936131,-0.136857
7906990182,-4.590595,2.086633,-0.513718,0.328531,0.936557,-0.132460
7907010211,-4.833210,2.308884,-0.447462,0.330352,0.933186,-0.134288
7907030241,-5.106761,2.256670,-0.560888,0.329241,0.933458,-0.132842
7907050271,-5.379687,2.601273,-0.374360,0.326791,0.934348,-0.126666
7907070301,-5.630130,2.640352,-0.465795,0.328844,0.935140,-0.124069
7907090331,-5.821026,2.489335,-0.403962,0.326413,0.934732,-0.113887
7907110361,-5.798193,2.489188,-0.411532,0.326517,0.936883,-0.107932
7907130391,-5.487899,2.206195,-0.325603,0.330120,0.936214,-0.106419
7907150420,-5.298343,2.029921,-0.384688,0.326229,0.937720,-0.094965
7907170450,-4.691927,1.661683,-0.282735,0.328041,0.941002,-0.081576
7907190481,-3.758055,1.329388,-0.294658,0.327108,0.938603,-0.075223
7907210511,-2.901472,0.738910,-0.243793,0.326347,0.936414,-0.073978
7907230541,-1.947253,-0.164236,-0.213002,0.326369,0.935968,-0.075625
7907250571,-0.999546,-0.709221,-0.071490,0.324876,0.935814,-0.078937
7907270601,-0.347338,-0.986159,0.090375,0.325716,0.939848,-0.084364
7907290631,0.358059,-1.332137,0.177024,0.324743,0.938945,-0.068959
7907310661,0.776196,-1.364899,0.147173,0.338459,0.935135,-0.117705
7907330690,0.594368,-1.311087,0.017737,0.327511,0.943087,-0.110688
7907350718,0.511708,-1.067053,0.023231,0.328654,0.938274,-0.098846
7907370748,0.867812,-1.388703,0.003357,0.329155,0.938403,-0.090164
7907390778,1.117250,-1.770706,-0.023643,0.327438,0.937905,-0.096678
7907410808,1.450521,-1.939341,0.152322,0.315576,0.938455,-0.115946
7907430838,0.968141,-0.848072,0.218747,0.361262,0.943313,-0.091696
7907450868,2.148658,-2.354421,0.049996,0.314165,0.926151,-0.065963
7907470897,3.581894,-3.069051,0.306899,0.308781,0.945783,-0.084401
7907490927,3.932153,-2.887998,0.373787,0.332135,0.935118,-0.108039
7907510957,3.644364,-2.581882,0.408988,0.335134,0.930683,-0.116066
7907530987,3.638007,-2.399679,0.255813,0.339912,0.940940,-0.115071
7907551017,3.542025,-1.836471,0.084231,0.330896,0.933115,-0.122685
7907571047,3.035295,-1.286184,-0.049530,0.323542,0.938565,-0.143478
7907591077,2.026416,-0.709946,-0.047274,0.326282,0.938678,-0.150279
7907611108,0.981261,0.193377,-0.169096,0.332172,0.936423,-0.144727
7907631138,0.200595,0.707133,-0.279937,0.330843,0.934583,-0.124407
7907651168,0.184747,0.562647,-0.263567,0.326097,0.934990,-0.110969
7907671197,0.511524,0.652790,-0.104942,0.324460,0.936238,-0.104411
7907691228,0.799963,0.590599,-0.036041,0.325870,0.937098,-0.112961
7907711257,0.799152,0.392701,-0.034380,0.327537,0.938893,-0.125882
7907731287,0.549277,0.545850,-0.157100,0.331814,0.935385,-0.122284
7907751317,0.450464,0.576921,-0.127081,0.327552,0.936197,-0.116412
7907771345,0.366732,0.577466,-0.096797,0.327561,0.937233,-0.122336
