Timestamp (us),Gyroscope X (deg/s),Gyroscope Y (deg/s),Gyroscope Z (deg/s),Accelerometer X (g),Accelerometer Y (g),Accelerometer Z (g)
6113534970,0.069554,0.077514,0.229113,0.987846,0.096371,0.108694
6113555014,-0.548992,-0.948147,0.006276,0.994887,0.098658,0.111640
6113575058,-0.790866,-0.765393,0.289835,0.997860,0.094359,0.103321
6113595103,0.034771,0.351492,0.945240,0.992850,0.082044,0.104570
6113615147,0.823537,0.950909,0.153941,0.990026,0.089974,0.111039
6113635192,0.995246,-0.219867,-0.112909,0.987742,0.096967,0.115153
6113655237,-0.311288,-0.856924,0.491938,0.987300,0.090373,0.110106
6113675282,-0.317668,-0.393232,0.590587,0.988157,0.085306,0.104691
6113695327,0.632921,-0.021671,0.476291,0.990540,0.087310,0.109335
6113715372,0.646993,-0.500557,0.408071,0.988642,0.088337,0.108766
6113735416,0.394808,-0.895643,0.258012,0.992232,0.090649,0.108136
6113755461,0.190075,-0.872605,0.389071,0.994151,0.090042,0.103785
6113775506,0.222464,-0.264475,0.616797,0.991086,0.085325,0.100797
6113795550,0.478611,-0.416955,0.074078,0.991941,0.089658,0.109144
6113815597,0.202494,-0.743762,-0.403449,0.992068,0.097274,0.103619
6113835641,-0.699329,-0.947813,0.456908,0.995067,0.089265,0.099155
6113855686,-0.682335,0.161845,0.394782,0.996075,0.082855,0.097303
6113875731,0.518604,1.148650,-0.156258,0.992296,0.087603,0.103063
6113895776,0.039325,0.655089,0.000250,0.988453,0.094832,0.111443
6113915820,-0.614737,-0.195466,0.348892,0.990481,0.088838,0.106136
6113935865,-0.090051,0.024464,0.268478,0.989867,0.083635,0.103989
6113955910,0.442035,0.403945,0.058346,0.990918,0.087366,0.105331
6113975953,0.312404,0.031658,0.135875,0.989864,0.090776,0.108209
6113995998,0.052920,-0.500169,0.130749,0.993212,0.088708,0.106521
6114016043,-0.044480,-0.127562,0.329219,0.993855,0.088216,0.102797
6114036088,-0.021223,0.533589,0.130340,0.990925,0.087350,0.103056
6114056132,-0.158667,0.237274,0.116437,0.992598,0.090546,0.107229
6114076177,-0.409711,0.085492,0.148979,0.992540,0.085879,0.104718
6114096222,-0.340580,0.442671,0.163347,0.992590,0.082771,0.103652
6114116267,-0.097416,0.457645,0.123377,0.991253,0.085076,0.104442
6114136312,0.000942,0.244730,0.099970,0.993079,0.085701,0.106362
6114156356,-0.059311,0.396830,0.176471,0.992837,0.087796,0.105706
6114176401,-0.044171,0.472800,0.122955,0.989413,0.084580,0.107620
6114196446,0.441341,0.373467,-0.109223,0.991739,0.088105,0.108336
6114216492,0.038803,0.320670,0.023425,0.992739,0.087249,0.105528
6114236537,-0.401225,0.921485,-0.019479,0.991410,0.090101,0.106223
6114256581,-0.446800,0.959525,-0.026784,0.990035,0.090800,0.111852
6114276626,-0.762143,-0.256481,-0.396513,0.994138,0.091205,0.113244
6114296671,-0.403588,-0.423825,0.004666,0.998802,0.083396,0.102053
6114316716,-0.041388,1.187438,0.510791,0.995260,0.077604,0.100709
6114336761,0.868968,2.029913,-0.411181,0.987478,0.084469,0.113524
6114356805,0.585480,0.411301,-0.209401,0.985680,0.094024,0.119987
6114376849,-0.700951,-0.674438,-0.099474,0.988437,0.086793,0.109142
6114396893,-0.251544,-0.028807,-0.187331,0.990772,0.083636,0.106090
6114416938,0.213762,0.487709,-0.031403,0.989940,0.084053,0.111543
6114436983,0.182098,0.054442,-0.152643,0.987143,0.086102,0.111778
6114457028,0.280122,-0.150913,-0.267475,0.990912,0.087288,0.107062
6114477072,0.111944,-0.401645,-0.387841,0.992678,0.090006,0.108418
6114497117,-0.290675,-0.355665,-0.323851,0.992868,0.090079,0.106325
6114517162,-0.184028,0.047018,-0.462179,0.987703,0.085686,0.105868
6114537207,-0.537739,-0.773846,-1.113865,0.994368,0.094385,0.112218
6114557252,-1.181100,-0.864139,-0.316544,0.994695,0.089664,0.103064
6114577296,-1.353072,0.162224,-0.049555,0.994054,0.082735,0.101751
6114597341,0.008065,1.224945,-0.495239,0.991574,0.083100,0.109195
6114617387,0.036841,0.168458,-0.418278,0.986300,0.091606,0.114640
6114637432,-1.840515,-0.225009,-0.091161,0.989841,0.094856,0.105080
6114657477,-2.127832,1.105261,-0.311147,0.990320,0.102306,0.102472
6114677522,-2.755436,1.508959,0.394167,0.994805,0.092821,0.111142
6114697567,-3.447354,0.696450,0.765918,1.002525,0.076235,0.102868
6114717611,-1.219858,1.226446,0.481698,1.024799,0.082285,0.090690
6114737656,-1.419233,4.669688,0.380934,1.004014,0.097640,0.103339
6114757701,-5.286788,7.979784,1.382599,0.969357,0.093352,0.119236
6114777744,-7.495839,2.220205,1.031685,0.987412,0.082553,0.125740
6114797789,-6.362281,0.721401,-0.049769,0.994095,0.062673,0.113570
6114817833,-1.144559,1.520859,-3.838731,1.003165,0.057641,0.104847
6114837878,-1.809647,2.410090,-5.221002,0.998534,0.065938,0.107840
6114857923,-1.718722,4.547110,-2.336386,0.984442,0.081662,0.109883
6114877968,0.667810,3.808753,-0.182771,0.987987,0.096466,0.121987
6114898013,0.382502,2.151031,-2.434032,0.984692,0.102458,0.124372
6114918058,-1.827098,1.703128,-5.471604,0.988423,0.094244,0.118185
6114938102,-2.177528,2.137393,-3.869486,0.997074,0.080140,0.114723
6114958147,-1.078453,4.068010,-1.678051,0.986216,0.074332,0.121064
6114978192,-1.698660,3.741267,-2.670983,0.979127,0.090736,0.130710
6114998237,-3.345263,2.716295,-3.335418,0.977837,0.103362,0.134147
6115018283,-3.458654,1.173862,-2.426513,1.001554,0.090847,0.129507
6115038328,-1.650811,1.096119,-2.813597,1.023220,0.059962,0.114170
6115058372,3.026150,5.735251,-4.705087,1.012411,0.052814,0.099401
6115078417,8.495056,9.438265,-7.813075,0.988815,0.082731,0.115460
6115098462,6.225441,9.575636,-10.919304,0.986257,0.098466,0.130243
6115118507,3.574842,10.156680,-8.476912,1.001338,0.055161,0.123518
6115138552,10.551025,12.112638,-6.254379,1.007778,0.018707,0.113487
6115158596,21.497238,15.172094,-10.180819,0.985512,0.037504,0.119998
6115178640,27.074171,14.808809,-12.920112,0.970683,0.101412,0.139574
6115198684,25.477720,12.045047,-9.568444,0.982813,0.148887,0.149012
6115218729,21.076923,9.520304,-4.054761,0.984531,0.158830,0.140749
6115238774,17.666542,11.220024,-0.022997,0.956434,0.144017,0.139482
6115258819,18.294781,12.169032,-1.209547,0.974589,0.146827,0.174644
6115278863,20.888012,10.357399,-2.157149,0.971447,0.172973,0.190702
6115298908,24.696375,7.885244,0.855689,0.937724,0.205681,0.193554
6115318953,23.978703,2.772244,4.507572,0.960569,0.229986,0.197982
6115338998,18.634207,-3.356448,5.514249,0.980524,0.230420,0.173451
6115359043,15.155849,-2.395524,6.027580,0.940575,0.229452,0.121089
6115379088,10.774335,1.924248,3.352594,0.912410,0.248283,0.120091
6115399132,-3.796255,6.913775,0.000886,0.945574,0.259290,0.172593
6115419178,-15.958117,2.683409,0.707596,0.968820,0.229489,0.209335
6115439223,-21.836843,-5.496807,2.162169,1.019448,0.186198,0.202597
6115459268,-19.650560,-3.933682,0.544086,1.021580,0.165596,0.157078
6115479312,-12.523893,0.314175,-4.725485,0.966257,0.212222,0.136442
6115499357,-16.296982,-0.838774,-6.721933,0.946953,0.268896,0.154952
6115519402,-29.110987,-3.578061,-4.289898,0.981828,0.277358,0.174347
6115539447,-39.261909,-5.194738,-1.841251,0.978050,0.217326,0.147957
6115559491,-41.786144,-1.650513,-1.573844,0.962202,0.162350,0.127537
6115579547,-35.896038,0.943036,-3.350810,0.949079,0.166694,0.146161
6115599580,-33.169865,-0.603207,-5.450044,0.942776,0.224940,0.181960
6115619624,-41.623150,-4.555797,-5.290075,0.946330,0.267128,0.198846
6115639669,-57.097298,-8.091490,-4.253894,0.957071,0.249429,0.181590
6115659714,-67.361015,-7.923044,-4.327725,0.970280,0.205866,0.160741
6115679758,-70.222557,-5.542412,-6.227847,0.974242,0.196876,0.136171
6115699803,-68.917664,-7.202263,-10.152087,0.977843,0.210673,0.097754
6115719848,-75.452896,-6.720203,-15.534283,1.006069,0.254877,0.104150
6115739893,-88.847794,3.480034,-24.095612,0.978221,0.326275,0.123934
6115759938,-101.673027,4.414671,-32.347813,0.940749,0.361144,0.140398
6115779982,-121.221153,-6.132200,-29.658688,0.949457,0.339891,0.144278
6115800027,-137.538574,-13.564505,-24.597519,0.967444,0.271771,0.116111
6115820072,-138.877518,-10.060287,-26.502758,0.972173,0.201693,0.092324
6115840118,-133.028442,-6.965522,-29.308352,0.977115,0.180284,0.104555
6115860163,-132.395523,-10.013966,-29.348413,0.965782,0.194614,0.121106
6115880208,-138.500092,-16.682411,-30.026661,0.947461,0.220141,0.121034
6115900252,-146.705139,-24.034103,-32.920319,0.941907,0.244041,0.111601
6115920300,-151.004791,-27.626125,-34.262867,0.947946,0.253831,0.091261
6115940342,-149.639053,-27.570845,-27.043627,0.967708,0.207671,0.090239
6115960387,-144.649368,-30.822779,-14.920008,1.033483,0.128833,0.090824
6115980431,-136.163177,-38.990414,-8.623691,1.035735,0.064998,0.042841
6116000475,-123.279419,-40.067554,-12.865808,1.002567,0.061888,-0.001806
6116020519,-116.476463,-39.090229,-23.706402,1.047716,0.131873,-0.013343
6116040564,-119.775635,-41.152073,-34.573318,1.074563,0.185096,-0.048274
6116060609,-132.005508,-37.768978,-39.396549,1.071977,0.171462,-0.098164
6116080654,-150.356155,-21.941412,-34.364635,1.074292,0.115700,-0.101511
6116100699,-162.120331,3.329987,-25.224937,1.064406,0.043642,-0.039169
6116120743,-151.657288,25.774147,-23.581791,1.030409,-0.005488,0.054855
6116140788,-125.290825,31.760437,-30.425144,0.968926,-0.015247,0.140706
6116160833,-105.064270,15.679348,-37.848106,0.918007,0.033766,0.206483
6116180878,-98.882561,-7.342147,-40.616325,0.919766,0.110838,0.227710
6116200922,-96.190018,-23.148170,-44.713047,0.894169,0.119862,0.149697
6116220967,-92.748131,-33.466011,-46.321907,0.973008,0.144333,0.116839
6116241013,-90.093170,-30.738256,-43.221336,1.014947,0.172452,0.095882
6116261058,-86.699936,-23.108749,-40.260582,1.007126,0.168858,0.074550
6116281103,-85.009567,-21.360327,-36.443192,1.024326,0.199644,0.106014
6116301147,-87.494637,-21.796104,-29.978649,1.033225,0.226051,0.119973
6116321192,-84.607559,-24.578285,-25.175770,1.015484,0.197805,0.098135
6116341237,-83.297539,-24.889801,-22.420082,1.018044,0.162919,0.082600
6116361282,-82.789268,-22.305794,-21.954086,0.985173,0.170016,0.075746
6116381346,-83.485863,-20.335798,-20.152691,0.936143,0.206436,0.093569
6116401370,-88.336685,-22.754837,-17.065893,0.937006,0.216944,0.098587
6116421415,-88.606834,-24.378582,-11.371418,0.968704,0.207577,0.091886
6116441459,-81.741547,-19.350342,-5.806507,0.964989,0.217920,0.102426
6116461504,-71.162460,-12.921746,-5.939405,0.947865,0.255906,0.125659
6116481549,-67.391342,-12.621023,-6.044786,0.904722,0.295310,0.139858
6116501594,-69.451759,-17.315468,-3.815245,0.881611,0.322442,0.162500
6116521638,-79.541786,-24.757065,9.418331,0.942595,0.331818,0.173338
6116541683,-86.952003,-40.666794,25.663830,1.040706,0.296864,0.119626
6116561728,-99.766197,-42.090561,29.412590,1.006308,0.199147,0.038150
6116581773,-119.881866,-24.219765,11.220304,0.907718,0.146800,-0.004292
6116601817,-129.035690,-10.875131,-11.142775,0.934365,0.128417,0.017541
6116621862,-118.598289,-19.444422,-15.336197,1.045561,0.175748,0.085609
6116641909,-109.289062,-30.368793,-19.175919,1.063063,0.222871,0.095271
6116661953,-120.044106,-28.813459,-29.135845,1.018964,0.227119,0.024537
6116681998,-132.071732,-23.835093,-35.516266,1.017528,0.240959,-0.005906
6116722087,-149.445740,-6.881497,-26.120001,0.992986,0.295482,0.044541
6116742132,-159.495163,-8.960591,-20.761507,0.955781,0.224777,0.048677
6116762177,-171.114120,-9.466621,-19.026392,0.977181,0.102305,0.050299
6116782242,-168.356339,-6.680387,-20.886179,0.976636,0.039251,0.053638
6116802265,-151.433792,-3.591635,-32.667221,0.908204,0.110676,0.081318
6116822310,-149.949890,-15.470573,-44.567146,0.903316,0.291090,0.133328
6116842354,-172.462036,-36.019615,-46.782494,0.896277,0.390565,0.070454
6116862399,-180.303513,-53.216560,-37.343227,0.894299,0.372447,-0.018088
6116882444,-179.039398,-68.730179,-19.412405,1.021758,0.355687,-0.104331
6116902489,-189.335663,-77.572632,-11.744896,1.145685,0.306932,-0.197345
6116922533,-211.235229,-65.452858,-10.506648,1.237856,0.206833,-0.308013
6116942578,-230.734161,-30.705784,-4.630567,1.230296,0.061748,-0.328903
6116962623,-234.048386,12.189409,-1.080348,1.147810,-0.082822,-0.232898
6116982668,-221.034256,42.261311,-1.993245,1.065590,-0.202464,-0.080739
6117002713,-196.346207,54.503288,-11.358917,0.954251,-0.249807,0.036923
6117022757,-157.190674,39.508785,-33.768482,0.850933,-0.206833,0.129590
6117042803,-118.137428,3.747051,-61.101906,0.833043,-0.086687,0.216507
6117062848,-101.386467,-29.131378,-74.736961,0.891409,0.062984,0.245561
6117082893,-103.858711,-49.110016,-71.507057,0.973182,0.188314,0.172652
6117102938,-109.361870,-52.597084,-61.534927,0.999251,0.250420,0.078918
6117122984,-120.634201,-39.122818,-53.347755,1.000008,0.315262,0.046068
6117143027,-135.547241,-21.559700,-52.831009,0.943167,0.345803,0.029194
6117163072,-149.128723,-24.153896,-50.362755,0.956552,0.323683,0.048867
6117183117,-166.220520,-34.485542,-37.644138,0.999114,0.289641,0.068852
6117203160,-165.865326,-37.954369,-26.574196,1.035227,0.209165,0.046199
6117223205,-146.611359,-35.209389,-20.919273,1.067495,0.093491,0.014705
6117243249,-128.669846,-31.335194,-25.037249,1.040191,0.048023,-0.000688
6117263294,-124.153145,-33.327766,-35.880356,1.010199,0.074117,0.003065
6117283339,-120.080185,-35.451672,-35.422005,1.040639,0.129695,0.023496
6117303384,-109.163879,-37.988132,-26.567043,1.057777,0.189397,0.032051
6117323428,-110.200546,-39.778236,-20.432291,1.044025,0.197824,0.009302
6117343473,-117.810387,-36.797668,-15.737221,1.022111,0.176734,-0.015084
6117363518,-116.433563,-26.885107,-10.317685,1.010740,0.148154,-0.007010
6117383563,-105.718475,-20.340946,-6.741625,0.975157,0.147307,0.028790
6117403607,-101.962440,-24.121792,-6.858268,0.961173,0.178226,0.064487
6117423652,-104.226509,-28.598192,-10.287765,0.961606,0.209707,0.069420
6117443698,-104.591080,-29.662601,-11.678111,0.949507,0.218458,0.044313
6117463743,-105.205521,-32.275982,-10.063469,0.956311,0.215224,0.039837
6117483788,-113.113007,-33.002731,-1.896287,0.973889,0.193106,0.030861
6117503833,-119.878967,-33.433975,6.421848,0.999826,0.150648,0.025119
6117523878,-120.676392,-32.292427,8.095289,1.020305,0.107896,0.042920
6117543922,-118.411163,-27.315252,9.596876,1.027903,0.058725,0.041561
6117563967,-107.145386,-22.755428,12.995368,1.018293,0.023927,0.013099
6117584011,-93.335037,-18.817207,8.093849,1.016970,0.029968,0.026149
6117604055,-91.795525,-16.711855,-5.891900,1.031032,0.097293,0.061204
6117624100,-95.844223,-20.278189,-17.201132,1.036969,0.192607,0.054543
6117644145,-104.244682,-21.821072,-16.304871,1.008046,0.228187,0.023447
6117664189,-118.265297,-15.999819,-11.403348,0.985362,0.212358,0.006477
6117684234,-131.543594,-11.670747,-10.498094,1.010530,0.205395,0.028478
6117704279,-138.573013,-6.930093,-11.941867,0.997102,0.213088,0.043339
6117724324,-144.209290,-8.240173,-12.004069,0.976864,0.179338,0.036732
6117744368,-151.713303,-15.446104,-10.568428,0.968755,0.121343,0.005651
6117764413,-151.704010,-12.808141,-9.390159,0.967561,0.081753,-0.025078
6117784458,-145.303696,-8.944992,-9.564776,0.974867,0.101220,-0.028463
6117804503,-150.145233,-8.030557,-13.619543,0.988749,0.170334,0.014041
6117824548,-166.939209,-11.899107,-11.620643,0.997809,0.173758,-0.010503
6117844594,-174.540512,-16.342716,-3.124707,1.014118,0.095509,-0.043424
6117864638,-178.173752,-8.753819,-2.540272,1.042463,0.027139,-0.034459
6117884683,-176.391479,0.249005,-7.994293,1.036144,-0.013312,-0.006129
6117904728,-171.096603,0.896546,-11.418026,1.021344,-0.047615,0.022634
6117924773,-161.477539,-1.506178,-11.855183,1.019493,-0.079520,0.031806
6117944818,-147.030991,-0.676805,-15.905392,0.987472,-0.088070,0.031278
6117964862,-133.817062,-3.968769,-26.212109,0.938031,-0.052220,0.032624
6117984907,-124.719101,-14.135565,-35.977962,0.937833,0.013139,0.043737
6118004950,-123.772240,-21.806038,-37.204517,0.991177,0.073266,0.047454
6118024995,-128.925613,-21.168015,-31.185246,1.009877,0.102963,0.032597
6118045040,-138.414429,-16.757334,-27.459883,0.988648,0.087968,0.020456
6118065084,-143.307465,-17.316866,-30.354879,1.008050,0.069965,0.029396
6118085129,-138.615540,-17.846931,-33.826202,1.025926,0.072488,0.037062
6118105174,-134.284790,-17.547941,-36.701317,1.006237,0.085182,0.037087
6118125219,-134.034973,-18.150412,-40.687031,0.984589,0.117061,0.051142
6118145263,-136.754227,-21.432354,-42.438137,0.995327,0.147075,0.076010
6118165308,-137.909973,-29.165411,-34.780815,1.025180,0.139646,0.056259
6118185353,-135.403854,-31.792677,-24.284302,1.041494,0.072170,0.012961
6118205398,-134.697464,-28.492678,-20.057064,1.062452,0.011389,-0.027901
6118225443,-125.844505,-19.767715,-21.367355,1.051909,0.001262,-0.025527
6118245487,-110.380463,-12.964715,-24.623472,1.045091,0.052143,0.024351
6118265533,-102.738770,-14.724788,-19.553282,1.038351,0.101236,0.041832
6118285578,-103.692032,-15.861467,-13.793084,0.997275,0.126762,0.032308
6118305623,-110.653374,-15.643252,-15.156920,0.993387,0.104992,0.039470
6118325668,-120.969666,-17.921579,-13.887216,0.987053,0.051696,0.043869
6118345723,-115.251221,-23.873739,-4.753004,0.975963,0.011721,0.027639
6118365758,-97.418999,-23.496647,6.011699,0.943852,0.007129,0.044559
6118385802,-86.636581,-21.550102,11.503781,0.973792,0.021325,0.065055
6118405847,-82.037971,-32.910789,8.683350,1.063710,0.046544,0.019981
6118425890,-83.928925,-36.315075,6.887912,1.103214,0.039884,-0.049689
6118445935,-85.359550,-14.107260,17.848228,1.147039,-0.056971,-0.077248
6118465980,-73.122780,18.507675,25.197124,1.207294,-0.220677,-0.011817
6118486025,-56.563198,53.495209,26.591211,1.138340,-0.342149,0.116600
6118506070,-36.507984,63.388752,25.605314,0.932375,-0.335359,0.224748
6118526114,-2.039016,39.214252,14.713512,0.784440,-0.263752,0.289084
6118546159,32.074184,-7.271971,-5.029780,0.829666,-0.178525,0.292626
6118566204,36.274113,-31.535500,-18.500572,0.968591,-0.084300,0.222212
6118586249,27.303146,-17.768930,-15.039427,1.055576,-0.033642,0.096423
6118606293,24.810658,10.307473,-4.228880,1.036626,-0.035677,0.028383
6118626338,25.009117,34.975323,4.111166,1.030388,-0.049803,0.091365
6118646383,29.532234,33.422943,8.702259,1.115131,-0.081836,0.211153
6118666429,32.746223,29.231956,8.194009,1.031019,-0.053041,0.248995
6118686474,45.098713,22.101141,-4.875535,0.967323,0.080385,0.212285
6118706519,45.252201,13.299173,-22.222870,0.959856,0.295679,0.228844
6118726563,19.830648,5.881402,-36.061462,0.969947,0.412375,0.187440
6118746608,-26.105415,3.895707,-27.159658,0.960060,0.219685,0.084257
6118766653,-74.337051,15.973097,15.015549,0.957629,-0.024719,-0.044119
6118786698,-44.172287,38.343002,41.396683,0.997904,-0.167518,-0.078336
6118806743,27.731882,69.545776,31.689163,0.966435,-0.035318,0.146134
6118826786,39.207111,26.750713,12.984436,1.119716,0.108595,0.280994
6118846830,7.773458,2.651711,9.568590,1.182157,-0.007677,0.104144
6118866875,0.177176,35.164291,21.632999,1.200409,-0.225357,-0.130368
6118886920,48.362251,75.521400,23.907042,1.092502,-0.225000,-0.103027
6118906965,77.556305,77.343994,8.917228,1.000396,-0.059732,0.105887
6118927010,94.445396,75.177475,6.839500,0.958513,0.132960,0.265503
6118947054,90.956497,47.181160,10.473319,0.912069,0.232672,0.241671
6118967099,70.114532,25.777998,21.989374,0.949739,0.165501,0.133975
6118987144,64.017014,32.383728,28.772076,1.003620,0.051302,0.049001
6119007189,81.392532,51.764591,26.312183,0.995838,0.014510,0.038323
6119027233,102.200203,66.705025,26.839407,0.965626,0.072651,0.110731
6119047278,108.544136,71.718903,33.261581,0.946241,0.135099,0.208493
6119067324,103.070717,65.519768,46.351933,0.965676,0.115629,0.228825
6119087369,106.322777,59.859039,56.533245,1.008912,0.104663,0.226591
6119127458,122.205910,65.945267,65.829544,0.932618,0.192277,0.333017
6119147503,129.780182,62.974430,65.759041,0.871849,0.199615,0.414452
6119167548,127.606743,47.501148,65.439896,0.844443,0.189778,0.446927
6119187593,123.268692,25.096951,63.026009,0.829235,0.224878,0.428318
6119207638,121.211823,18.423571,59.155140,0.829921,0.283550,0.361649
6119227681,117.076744,16.581970,46.298428,0.831568,0.344660,0.318912
6119247726,103.229988,10.309662,32.796627,0.879226,0.403167,0.326334
6119267770,101.124084,0.869863,29.355373,0.967855,0.482266,0.353824
6119287815,93.292336,0.563158,25.278978,1.020194,0.598858,0.410055
6119307860,74.061592,10.086187,3.895733,0.985552,0.754561,0.450125
6119327905,35.330536,28.809406,-13.705153,0.909665,0.797377,0.514951
6119347949,-25.745796,23.365444,0.016493,0.776604,0.590791,0.616562
6119367994,-91.666306,-23.157667,27.100422,0.742714,0.290046,0.724044
6119388039,-115.288742,-62.901394,49.953075,0.757235,0.054754,0.579693
6119408083,-77.294197,-43.876659,55.715561,0.726039,-0.044809,0.401475
6119428128,-30.058783,-7.526550,36.159019,0.551408,-0.047783,0.472695
6119448173,-9.800130,-11.824533,-0.392464,0.434848,0.026914,0.600420
6119468219,6.088480,-68.239166,-25.547997,0.571835,0.190949,0.535243
6119488264,3.110796,-109.664642,-34.947926,0.888420,0.471811,0.407228
6119508308,-43.606941,-89.496048,-48.245552,0.985575,0.592260,0.121155
6119528353,-108.413742,-79.448318,-55.246952,1.083764,0.453822,-0.046419
6119548398,-185.953537,-77.342812,-18.124702,1.291592,0.222085,-0.143593
6119568443,-236.517517,-3.717871,46.880325,1.348670,-0.082343,-0.166975
6119588488,-199.717743,110.513405,84.551186,1.491334,-0.379267,-0.072892
6119608533,-118.907921,151.976944,74.651405,1.365105,-0.438031,-0.051934
6119628576,-41.084599,150.072540,12.096921,0.992435,-0.215812,0.302043
6119648620,-11.100245,140.165359,-39.257610,0.757037,-0.056272,0.744215
6119668665,-59.776867,49.632339,-50.721443,0.574657,-0.025716,0.596322
6119688710,-119.385254,-35.639683,-46.488922,0.643235,-0.095679,0.218655
6119708755,-131.680511,-54.415916,-41.904957,0.850855,-0.158099,0.086396
6119728800,-128.927048,-12.087311,-35.909546,1.032284,-0.398231,0.196954
6119748844,-148.191299,33.204826,10.522198,1.102946,-0.764121,0.324584
6119768889,-121.132446,44.793480,56.973461,1.036629,-1.086452,0.330493
6119788934,20.213978,-7.536083,27.035391,1.123040,-1.088420,0.150326
6119808978,201.810547,-40.985035,-59.528336,1.184313,-0.686090,0.140260
6119829023,280.820160,18.230255,-97.428337,1.019652,-0.112190,0.403539
6119849068,221.948822,101.339386,-102.121689,0.830803,0.443780,0.683541
6119869114,83.386696,149.045105,-89.463669,0.588342,0.642159,0.660558
6119889159,-28.932487,107.346901,-70.393440,0.357111,0.552764,0.490537
6119909204,-90.585152,4.321865,-31.510925,0.531656,0.488605,0.715219
6119929248,-204.081985,-74.301247,17.406017,0.804575,0.196688,0.913547
6119989383,-94.039375,105.081299,73.133781,0.784826,-0.630582,0.017706
6120009428,-18.284769,93.103737,69.044632,0.719438,-0.767176,0.330457
6120029478,88.416718,39.508255,14.027315,0.749356,-0.581243,0.523430
6120049516,163.361542,19.807896,-43.224030,0.841572,-0.040944,0.656848
6120069560,116.410759,65.533119,-50.114193,0.897199,0.364647,0.857755
6120089605,-54.740147,94.212280,-3.294509,0.754731,0.029371,0.707073
6120109650,-156.237961,55.843712,20.854805,0.562388,-0.366043,0.833845
6120129695,-104.596390,48.723019,21.196951,0.461036,-0.558695,0.660527
6120149739,16.656761,29.971125,15.295029,0.441847,-0.601825,0.569789
6120169784,115.393883,7.669723,0.015754,0.494204,-0.527656,0.772133
6120189829,158.472916,-7.797453,-18.058165,0.566158,-0.210885,0.915716
6120209873,124.658913,-10.498641,-21.917854,0.586529,0.170438,1.004035
6120229918,53.178658,-8.548635,-14.606600,0.501974,0.363797,0.917058
6120249963,-4.855881,-32.198479,0.030752,0.435854,0.251233,0.997442
6120270008,-56.688084,-59.829964,12.186457,0.424933,-0.107914,0.931679
6120290054,-38.715397,-90.242226,8.725361,0.471227,-0.435570,0.588115
6120310099,50.110268,-120.578583,5.939878,0.737982,-0.286363,0.067966
6120330143,220.840012,-179.084000,-27.394466,1.013456,0.359353,0.282063
6120350188,219.605042,-154.218536,-105.975990,1.401569,1.086609,0.720461
6120370233,-68.855392,-39.389038,-139.937912,1.140001,0.704721,0.270941
6120390278,-209.982956,4.437709,-104.355934,0.907588,0.244148,0.268583
6120410323,-284.580505,74.113548,6.097393,0.747238,-0.028569,1.135770
6120430367,-170.049728,45.883366,54.185890,0.375861,-0.634284,0.934482
6120450411,-12.155705,-84.544891,18.801037,0.426805,-0.443718,0.053608
6120470456,120.622871,-176.335312,-39.983559,0.565270,-0.166120,-0.138046
6120490500,235.141220,-212.637939,-110.938446,1.172968,0.103645,0.336779
6120510545,140.971878,-134.392822,-114.853767,1.763460,0.644599,0.646542
6120530590,-1.577865,-13.785755,-86.235672,1.186344,0.667989,-0.045890
6120550634,-22.352962,35.483940,-71.069214,0.874661,0.536163,-0.186377
6120570679,-45.693916,60.813095,-23.482687,0.839400,0.509162,0.001869
6120590724,-48.690128,84.301270,8.956786,0.892677,0.534369,0.268082
6120610769,-72.213966,112.310699,33.214954,1.055863,0.381651,0.514443
6120630813,-97.591339,67.928719,48.657608,1.144088,0.221183,0.343336
6120650858,-105.463921,45.220100,38.614719,1.355399,0.004425,0.532764
6120670903,-111.012619,132.932526,28.883865,1.181657,-0.150009,0.676347
6120690949,-61.462097,164.660370,-5.396988,0.565462,-0.059692,0.669097
6120710994,-30.437403,82.878502,-26.660221,0.338794,0.040197,0.712048
6120731038,-30.061462,-21.881678,-25.474642,0.352801,0.094600,0.537260
6120751083,-61.492043,-50.706032,-23.827497,0.471049,0.174330,0.511974
6120771128,-92.563568,13.500832,-24.381327,0.501660,0.171441,0.616467
6120791173,-92.347511,64.544861,-12.089600,0.298332,0.194920,0.630539
6120811218,-6.239328,15.947658,-28.930832,0.355537,0.252483,0.527874
6120831262,-5.046438,-118.773399,-74.316689,0.849229,0.360505,0.678445
6120851305,-202.296768,-140.729797,-76.806046,1.561077,0.206005,0.982636
6120871351,-390.573914,-52.146267,11.874668,2.032517,-0.722826,0.596701
6120891395,-221.745789,208.168137,128.798615,1.425574,-1.290696,0.124889
6120911440,-114.607956,164.432892,163.573120,-0.252594,-1.964572,1.108394
6120931485,63.342712,-53.877773,24.813484,-0.660844,-1.510923,0.431306
6120951529,220.711884,-129.243469,-88.844070,-0.125362,-0.467002,0.039206
6120971574,339.686432,-196.740372,-136.636398,0.286046,0.048457,0.373000
6120991619,352.532379,-243.684540,-150.784363,1.002083,0.546353,1.187877
6121011663,108.398865,-133.382950,-112.060463,0.893514,0.657825,0.497594
6121031708,-24.627773,-100.484062,-124.053223,0.684022,0.471977,0.084437
6121051753,-86.763298,-135.148056,-118.912117,1.073565,0.539345,0.159198
6121071798,-178.315414,-106.736275,-40.652309,1.613966,0.341497,0.442647
6121091844,-153.387848,3.789915,67.460426,1.223486,-0.112841,0.107317
6121111889,-20.926254,42.571014,90.367699,0.679674,-0.055849,-0.108440
6121131933,93.221001,-20.398016,28.567593,0.591506,0.063747,-0.079025
6121151978,152.707199,-81.323250,-55.388371,1.077616,0.241937,0.302256
6121172023,41.395206,-47.136856,-69.697182,1.731846,0.578724,0.549164
6121192068,-62.065624,-4.813946,-60.639999,1.337180,0.517514,-0.143149
6121212113,-94.216621,44.619099,-42.125847,1.208093,0.339795,-0.100562
6121232158,-127.054977,113.518150,10.124226,1.136001,0.300832,0.122019
6121252201,-106.574982,150.597504,5.841122,0.906685,0.318411,0.311574
6121272246,-90.538078,132.383255,-20.639158,0.753912,0.366538,0.359134
6121292291,-93.276390,82.303093,-40.881191,0.672928,0.506406,0.370316
6121312335,-134.336609,52.289879,-47.828712,0.765660,0.658975,0.467516
6121332380,-191.998138,35.628593,-58.348824,0.778921,0.677966,0.198147
6121352424,-239.279037,4.326015,-71.083038,0.946592,0.486958,0.127930
6121372469,-404.867798,-6.219617,-8.293354,1.320069,-0.048044,0.403292
6121392514,-568.491882,39.921379,143.874084,1.902977,-1.319371,0.737701
6121412559,-419.207642,251.699829,244.881088,1.104861,-2.051746,0.004461
6121432604,-204.954971,126.809326,158.793365,-0.459887,-2.286387,0.005530
6121452648,117.646042,-22.241993,-19.110394,-0.642907,-1.540584,-0.174948
6121472693,305.607819,-62.397205,-82.069389,-0.253290,-0.764549,0.380051
6121492739,377.355408,-137.526794,-105.890923,0.294308,-0.306544,1.104256
6121512784,282.843445,-135.196075,-107.492073,0.697958,0.250068,1.001187
6121532829,72.737633,-44.006359,-96.124535,0.633690,0.463490,0.505767
6121552874,-47.352779,-23.560541,-107.115273,0.503228,0.375612,0.325818
6121572918,-153.571548,-47.115738,-76.003494,0.849131,0.320513,0.532011
6121592963,-291.024902,-61.232407,9.786798,1.208702,-0.068895,0.816448
6121613008,-313.721710,-37.352783,63.494862,1.117648,-0.753856,0.587816
6121633053,-198.871567,45.531933,62.406418,1.033041,-1.075474,-0.034895
6121653096,-49.702587,45.712193,23.102501,0.785203,-1.042731,0.058166
6121673141,122.744164,-35.065498,-11.854267,0.636241,-0.833266,0.598339
6121693186,167.908142,-87.268982,-13.865309,0.846958,-0.569344,0.580492
6121713231,103.938263,-68.605377,7.077875,0.981649,-0.374320,0.459414
6121733276,50.359585,0.645438,41.225582,0.845566,-0.334956,0.351937
6121753320,40.334553,47.676197,67.365883,0.603514,-0.471324,0.645187
6121773365,57.956966,13.474039,69.563828,0.375551,-0.621060,0.721508
6121793410,98.802315,-56.925987,58.247833,0.358489,-0.575101,0.562586
6121813455,144.895111,-89.002022,42.947189,0.500648,-0.428185,0.711361
6121833499,121.688858,-86.224342,22.994946,0.627484,-0.273103,0.560147
6121853544,101.459366,-116.984268,18.166294,0.816055,-0.358006,0.130401
6121873589,118.970192,-163.982849,27.134626,1.243199,-0.302520,0.165748
6121893635,203.592087,-204.198776,19.255981,1.743893,0.264547,0.371122
6121913680,243.625031,-180.018326,-33.061069,1.850610,0.846883,0.235080
6121933724,81.006653,-47.541595,-99.155731,1.290341,1.050738,0.147456
6121953769,-15.306123,33.033752,-147.913345,0.513494,0.446203,-0.200381
6121973814,-10.695695,60.910278,-128.525543,0.457679,0.399285,0.140105
6121993859,-62.882385,65.645897,-25.427641,0.569243,0.264371,0.108529
6122013903,-82.081215,5.246979,114.679047,0.814171,0.158057,0.310219
6122033948,-170.887268,-95.313293,241.103561,0.969109,0.011558,0.654979
6122053992,-194.236710,-159.616669,243.621262,1.140176,-0.330260,0.476232
6122074037,-20.333252,-64.495277,135.633255,1.273319,-0.570563,-0.212477
6122094081,155.835098,44.458862,30.806875,1.083212,-0.517377,-0.323376
6122114126,145.879471,92.749527,-31.144905,1.203065,-0.280072,0.161172
6122134171,40.811848,103.063004,-65.278976,0.977947,-0.002025,0.397681
6122154216,-10.040394,88.694420,-85.604889,0.818249,-0.003078,0.425385
6122174260,-33.231731,26.800611,-48.755016,1.098863,-0.013355,0.442724
6122214350,50.414238,68.548012,3.115191,1.179617,-0.048943,0.115847
6122234395,84.328674,104.645844,5.373166,1.008695,0.034061,0.320949
6122254440,84.384972,93.814407,21.335684,0.902592,0.031705,0.455303
6122274485,61.396114,47.393970,38.079918,0.791581,-0.040568,0.417669
6122294531,51.842819,45.790718,37.743290,0.821984,-0.145635,0.474387
6122314575,71.559891,84.134583,38.142475,0.659571,-0.266096,0.561780
6122334621,113.380699,111.400330,38.512169,0.391224,-0.280265,0.730736
6122354665,158.585739,84.769379,45.001511,0.243373,-0.180740,0.835721
6122374709,205.793686,18.471344,57.401943,0.369696,-0.150483,0.518102
6122394754,192.065140,-55.933697,77.606041,0.882475,-0.444656,0.349106
6122414799,155.946213,-115.613869,110.652359,1.240636,-0.142889,0.648768
6122434844,365.552155,-71.836021,69.076401,1.331494,0.754867,0.578108
6122454905,364.944824,47.955002,-57.831116,1.272164,1.651628,1.176265
6122474932,69.069641,142.866226,-132.642838,0.360557,0.770515,-0.210093
6122494977,54.558861,120.894043,-157.255020,0.307497,1.443630,0.649615
6122515021,21.542423,87.323624,-64.773529,-0.104628,1.318974,0.824078
6122535066,44.344757,-63.945854,95.803574,0.098451,0.704366,0.620959
6122555111,23.348341,-189.184357,186.306458,0.365373,0.276106,0.436889
6122575156,-74.611679,-254.721298,260.011353,0.760147,0.219313,0.573621
6122595200,-208.349045,-265.419617,331.737000,0.947209,0.059704,0.536154
6122615245,-171.578156,-188.150620,301.746887,1.282548,-0.491962,0.184351
6122635291,85.712547,22.152031,202.442062,1.075566,-0.694868,-0.149711
6122655335,170.745483,21.242929,135.991745,0.801288,-0.584648,0.062150
6122675380,189.443451,-66.802528,39.270676,1.094761,-0.200644,0.717829
6122695424,207.773849,-80.570633,-33.878212,1.093299,0.336905,0.380795
6122715471,207.827255,-59.053333,-68.059402,1.121587,0.339748,0.015525
6122735515,159.142395,-65.962631,-43.940987,1.245472,0.225037,-0.158612
6122755560,46.325836,-13.333045,14.887562,1.215726,0.084198,-0.205465
6122775605,-38.464626,62.042976,71.399925,1.252000,0.018533,-0.184264
6122795657,5.950044,107.507782,83.342819,1.492987,-0.127342,0.047495
6122815695,105.268997,144.764221,66.532440,1.312236,-0.221786,0.227223
6122835740,243.691269,157.254364,16.298460,0.847606,0.244818,0.387408
6122855784,323.725159,112.410484,-32.161381,0.832559,0.604117,0.508335
6122875827,241.855896,84.935089,-51.597153,0.782375,0.635414,0.408836
6122895872,143.902084,79.414711,-58.832497,0.621362,0.561167,0.322691
6122915917,82.517487,80.736877,-25.513006,0.550759,0.555571,0.598450
6122935962,62.788975,77.564392,47.974972,0.428954,0.413063,0.884435
6122956007,106.738724,39.151596,117.716934,0.362343,0.129447,0.785230
6122976052,132.142471,-9.390860,139.714432,0.380066,-0.106588,0.520456
6122996096,126.532486,-76.631836,134.236816,0.802310,-0.235406,0.412619
6123016141,242.123886,-138.029968,103.491562,1.119422,0.093691,0.136536
6123036186,446.147888,-56.959930,7.764667,1.144412,1.037123,0.343796
6123056230,230.119522,155.435623,-98.700600,0.880268,1.814087,0.670224
6123076275,161.410522,218.202423,-145.405640,0.255201,1.383069,0.375415
6123096320,69.468483,164.917664,-60.521473,-0.138699,1.783121,0.806523
6123116366,85.313080,-39.007896,106.999985,-0.028343,1.054167,0.672318
6123136411,37.253452,-188.934433,194.069305,0.287148,0.548152,0.289129
6123156456,-42.573208,-259.814850,234.630142,0.729535,0.458164,0.409640
6123176500,-146.873962,-313.683594,298.750702,1.050440,0.285370,0.527125
6123196545,-165.675003,-264.883057,305.469055,1.159540,-0.106900,0.065376
6123216590,99.949768,-38.455948,212.781555,1.085449,-0.360447,-0.351878
6123236635,200.792252,-0.888091,164.693710,0.800891,-0.180534,-0.205400
6123256680,182.241867,-31.059771,85.512306,1.007528,0.005852,0.275742
6123276723,104.953728,-28.851900,13.104286,1.210498,0.287186,0.617503
6123296768,67.499794,-40.729893,-3.845140,1.168323,0.262243,0.159993
6123316813,78.669861,-73.910126,10.461075,1.306814,0.334004,-0.016579
6123336857,51.162487,-36.585175,54.274288,1.383982,0.303027,-0.030509
6123356902,-9.432478,46.947350,91.837189,1.020652,-0.013575,-0.149362
6123376947,-53.498909,89.131561,109.337296,0.923901,-0.238370,-0.082479
6123396992,-73.722267,79.834389,117.782219,1.101350,-0.421126,0.187086
6123417037,-38.452988,56.630322,102.967560,1.176847,-0.670734,0.205539
6123437082,56.770515,55.044136,71.491516,1.179482,-0.790852,-0.096719
6123457126,179.139511,57.664520,48.914864,1.246778,-0.572198,0.096985
6123477171,265.977844,80.853271,27.695827,1.014574,-0.112077,0.396035
6123497216,233.339569,106.822884,11.389816,0.853472,0.138341,0.500497
6123517262,151.749649,86.215767,20.064547,0.783170,0.227871,0.594386
6123537307,81.370308,47.367123,50.504608,0.666327,0.124793,0.646279
6123557351,52.648064,20.317516,65.720345,0.515757,-0.056166,0.637841
6123577396,63.807270,20.158800,55.388332,0.442579,-0.265569,0.613452
6123597441,100.583588,21.635860,47.151463,0.421236,-0.324966,0.638095
6123617486,143.382339,17.249872,43.985844,0.371513,-0.371035,0.619357
6123637530,141.231750,0.817293,40.147770,0.445803,-0.484335,0.512036
6123657575,124.728271,-41.270164,36.923950,0.831788,-0.603729,0.384282
6123677618,262.402771,-97.886803,33.026958,1.114360,-0.125564,0.426829
6123697663,472.648743,-63.822346,-23.476589,1.158335,0.800721,0.634551
6123717708,227.163330,78.123154,-117.193481,0.908740,1.541961,0.955190
6123737753,102.670578,100.659180,-187.095215,0.341643,0.889040,0.215607
6123757798,22.374449,36.017384,-117.114807,0.405020,1.268241,0.977714
6123777842,25.408659,-90.164055,35.202408,0.252036,0.665858,0.844547
6123797887,8.875684,-213.995117,137.158096,0.348805,0.297083,0.466639
6123817932,-4.377002,-271.412933,174.338913,0.528374,0.307240,0.252638
6123837977,-13.987013,-286.126190,193.319885,0.874170,0.289680,0.092521
6123858022,-25.004753,-269.234863,194.858734,1.158609,0.139335,-0.112653
6123878066,-26.374664,-189.402695,146.303314,1.250572,-0.080886,-0.293982
6123898111,0.976457,-52.786835,65.987564,1.287511,-0.309780,-0.352277
6123918157,63.813229,43.357517,7.957695,1.375361,-0.284307,-0.178769
6123938202,134.806274,46.545212,-17.935705,1.376859,0.019336,0.020126
6123958247,177.444336,27.157709,-50.088768,1.058126,0.291175,0.062806
6123978291,165.315384,18.748932,-78.632622,1.027747,0.378385,0.032821
6123998336,110.545242,2.198620,-56.682968,1.109107,0.331987,-0.049326
6124018381,29.506002,12.198807,2.010806,1.087225,0.275948,-0.040465
6124038426,-34.409084,48.485352,66.780205,1.262970,0.265867,0.051036
6124058471,-17.454815,65.545494,108.489006,1.487423,0.010432,0.064071
6124078514,78.184479,119.116806,109.815338,1.144150,-0.233520,0.010134
6124098559,191.542908,165.283386,74.033607,0.688808,-0.038250,0.161429
6124118604,246.640564,119.958290,39.988773,0.628890,0.010594,0.473508
6124138648,191.566833,32.418243,46.192284,0.795251,0.023980,0.525689
6124158693,164.826935,-4.110225,63.435875,0.806453,0.088647,0.390126
6124178738,186.962082,36.694092,46.802540,0.617259,0.061409,0.404356
6124198782,198.898438,37.798550,24.342655,0.642097,-0.008643,0.362780
6124218827,219.464447,-40.183746,31.892235,1.002037,0.063110,0.139937
6124238872,278.931000,-92.693047,36.468304,1.348437,0.468594,0.135478
6124258917,294.864807,-47.212849,-5.666056,1.422813,1.070097,0.249141
6124278962,187.986435,65.459091,-77.166954,1.029782,1.260707,0.276654
6124299006,95.600029,141.402313,-108.877701,0.543687,0.877136,0.085713
6124319053,43.407104,171.684204,-55.536148,0.424721,0.769403,0.408031
6124339097,44.772591,106.587585,38.646599,0.261611,0.602262,0.731609
6124359142,96.350853,-37.904533,114.067902,0.317783,0.368841,0.341453
6124379187,133.735443,-123.138107,153.332230,0.678569,0.485262,0.194998
6124399231,59.221901,-145.912292,190.485275,1.156487,0.669761,0.261335
6124419276,-24.195013,-153.269760,216.135056,1.326716,0.522963,0.045374
6124439321,-74.978340,-62.659981,173.601074,1.326134,0.200814,-0.038828
6124459366,-28.383480,89.045395,84.362503,1.389161,-0.110543,0.012547
6124479409,84.796982,156.113968,-2.122161,1.146936,-0.014386,0.199539
6124499454,136.775970,128.872223,-39.245594,0.956221,0.316275,0.458262
6124519498,86.252602,93.338936,-34.969776,0.918431,0.460626,0.548112
6124539543,-7.369731,47.359505,-1.457432,0.899656,0.349536,0.452567
6124559588,-63.571342,-10.910433,35.908737,1.036319,0.187757,0.376420
6124579633,-52.256329,-12.918507,37.416107,0.983644,0.052427,0.199980
6124599678,-15.285048,45.961315,0.989105,0.881959,0.036102,0.202741
6124619722,3.488652,80.536301,-14.919307,0.791360,0.069726,0.464920
6124639767,7.166986,67.419678,-3.027710,0.653344,0.081454,0.552128
6124659812,-5.611249,14.296067,0.998200,0.620305,0.073710,0.560054
6124679857,-22.291256,-18.058844,-11.306855,0.755011,0.168135,0.583475
6124699902,-19.817665,0.470733,-25.452425,0.786644,0.250586,0.578564
6124719948,-30.285925,24.352091,-28.708702,0.701121,0.260811,0.717608
6124739992,-51.134682,12.850595,-21.719603,0.607318,0.189965,0.861449
6124760037,-72.882729,-5.644207,-17.931915,0.466167,0.082319,0.686592
6124780082,-49.547005,-14.073977,-25.126934,0.496087,0.007617,0.292203
6124800126,-10.951509,-101.810837,-39.959408,1.059424,-0.007205,0.292070
6124820171,-22.599398,-148.629395,-41.593281,1.490233,-0.049281,0.370676
6124840216,-79.923805,-68.862862,-5.857436,1.737227,-0.303270,0.353090
6124860261,-40.855221,65.300949,27.091930,1.229836,-0.424889,0.122503
6124880307,21.979889,116.411415,20.093910,0.659931,-0.411492,0.627169
6124900349,57.979210,76.397514,-20.528858,0.342509,-0.337357,0.802777
6124920394,103.282738,-27.009293,-67.120537,0.393394,-0.110470,0.440466
6124940438,133.972351,-106.519730,-91.605888,0.660147,0.138213,0.360607
6124960483,125.034660,-122.883606,-90.920044,1.019080,0.389872,0.340758
6124980528,46.677723,-82.142418,-69.262726,1.217306,0.528442,0.222249
6125000573,-62.349586,-26.405529,-23.082064,1.320742,0.370428,0.206646
6125020618,-112.391960,45.369339,36.047005,1.438591,-0.043344,0.328552
6125040662,-28.084389,128.990967,59.936264,1.078447,-0.202760,0.255767
6125060707,41.859417,71.222557,35.289371,0.686038,0.023923,0.192943
6125080752,140.451691,27.471607,-31.643415,0.691254,0.287006,0.388285
6125100797,143.542267,51.127850,-69.879990,0.963641,0.554014,0.507976
6125120843,51.804081,57.199654,-79.581337,0.985409,0.658206,0.237966
6125140887,-40.433487,32.989433,-92.107079,0.997593,0.662109,0.123033
6125160932,-184.514969,74.376755,-44.455643,0.996763,0.374716,0.354376
6125180977,-278.810791,117.011536,33.209915,0.998468,0.022709,0.531463
6125201022,-205.857803,112.344940,38.589634,0.748136,-0.156898,0.515912
6125221067,-92.927811,92.448402,-10.146013,0.387340,-0.077018,0.402089
6125241112,-53.017460,84.148666,-51.148724,0.332126,-0.026327,0.789846
6125261156,-96.932457,99.940163,-57.073956,0.329783,0.029063,1.167935
6125281209,-134.316589,85.425903,-54.450016,0.106595,0.022028,1.157349
6125301244,-141.479370,44.095715,-62.842800,-0.088457,-0.052226,1.225731
6125321289,-140.760376,-22.055155,-65.932129,0.033392,-0.124261,1.023731
6125341334,-171.705719,-129.466003,-52.939335,0.637261,-0.103182,0.653593
6125361379,-189.358215,-184.822754,-38.109283,1.289884,-0.399886,0.662630
6125381424,-245.493652,-46.881424,48.323158,1.502862,-1.118853,0.433404
6125401468,-197.318512,145.625458,132.692932,0.721239,-1.535832,0.530375
6125421513,-91.323296,32.429016,84.479584,-0.349151,-1.735799,0.914515
6125441558,116.812805,-129.393677,-64.727715,-0.018334,-0.809810,0.156350
6125461602,275.786713,-202.023148,-141.664734,0.519328,-0.251048,0.336571
6125481647,297.572937,-223.447174,-162.198090,1.058596,0.123994,0.817947
6125501692,114.940529,-148.402222,-133.922852,1.066574,0.297027,0.295529
6125521737,-2.811189,-133.897644,-134.869751,0.996062,0.233813,-0.192736
6125541783,-34.724617,-145.848541,-134.339508,1.290154,0.352152,-0.338238
6125561828,-65.980865,-52.848766,-81.469170,1.447592,0.451510,-0.191326
6125581873,-77.466591,87.238365,11.551552,1.444101,0.216140,-0.007593
6125601918,-82.177010,135.461304,79.070656,1.302841,-0.087786,0.143288
6125621962,-105.511810,156.638885,106.327820,0.996633,-0.327641,0.315197
6125642007,-96.749390,155.035522,90.202782,0.712857,-0.402690,0.392315
6125662052,-22.324041,104.969879,30.881481,0.617343,-0.394889,0.453372
6125682106,84.922882,45.843792,-33.970005,0.780002,-0.213549,0.275891
6125702140,149.538544,14.019718,-78.644310,1.382460,0.118021,0.613782
6125722184,54.664795,70.485069,-75.425774,1.538166,0.541338,0.750632
6125742229,-81.201431,170.719162,-40.866905,0.814068,0.182223,0.335967
6125762274,-127.723206,166.649185,-3.131008,0.544178,-0.134862,0.718818
6125782319,-99.372704,103.356674,-2.808584,0.212063,-0.227851,0.811846
6125802364,-18.169703,41.273811,-33.502846,0.075532,-0.128221,0.629029
6125822408,15.576437,14.831758,-51.433891,0.217811,-0.059378,0.961085
6125842453,-9.609858,15.353045,-39.272930,0.256524,0.106012,0.992687
6125862498,-29.015053,15.093689,-27.947861,0.240502,0.205870,1.201877
6125882542,-60.922523,4.172066,-20.364094,0.221630,0.213059,1.574598
6125902587,-56.108181,-23.980579,-10.409657,0.155534,0.208062,1.303117
6125922633,9.812105,-64.087212,-14.031136,0.252929,0.398130,0.599669
6125942678,13.644123,-111.952652,-48.891823,0.874412,0.390545,0.661447
6125962723,-267.201202,-127.088181,-19.405018,1.381991,-0.361747,0.956789
6125982768,-365.667297,29.447266,76.506828,1.063962,-1.192869,0.796717
6126002813,0.608752,118.778191,86.831818,-0.027663,-0.922556,0.629461
6126022857,217.391022,-98.244385,30.332706,-0.311131,-0.479682,0.695386
6126042902,269.842621,-205.116669,-52.108875,0.041242,0.016520,1.105295
6126062947,187.088028,-248.841660,-88.587479,0.575568,0.451476,0.839757
6126082992,30.574486,-192.117493,-84.568993,0.644289,0.469828,0.271079
6126103035,-53.106308,-176.802094,-93.121933,0.650599,0.395648,0.162849
6126123080,-99.970886,-169.015121,-73.198563,0.821441,0.299133,0.205499
6126143125,-98.495499,-140.826340,-24.753693,1.062299,0.102808,0.169274
6126163170,-20.085316,-115.030449,5.497691,1.136520,-0.078758,0.064247
6126183214,45.640434,-106.622772,-0.583162,1.087882,-0.108034,0.037639
6126203259,47.540169,-98.091301,-22.866455,1.115282,0.001187,0.107133
6126223304,23.702608,-87.036316,-26.914680,1.121136,0.102512,0.124549
6126243349,15.506973,-82.307907,-7.201105,1.163063,0.067223,0.109578
6126263393,15.415818,-77.795685,20.571632,1.214806,-0.019979,0.071890
6126283438,22.974573,-68.268311,26.401234,1.170098,-0.064269,0.032234
6126303483,38.765522,-55.522739,4.342657,1.094390,-0.000777,0.019685
6126323528,42.651886,-43.526623,-16.999239,1.055979,0.118726,0.051103
6126343574,25.852137,-31.464640,-16.165718,1.035068,0.187569,0.084979
6126363619,7.373417,-26.811432,2.499260,1.056512,0.164291,0.087331
6126383664,-0.195999,-20.657312,16.279646,1.073612,0.084519,0.084746
6126403708,-1.292881,0.982395,15.345783,1.050310,0.024199,0.091264
6126423753,0.579332,18.042683,11.673756,0.997437,0.014843,0.137479
6126443798,3.952699,17.802132,7.206652,0.962222,0.044784,0.195516
6126463842,0.442365,13.175793,5.996158,0.929101,0.081806,0.228655
6126483887,-3.454369,5.959570,8.371674,0.921619,0.081377,0.229515
6126503931,-4.551259,0.010210,10.671198,0.942236,0.039147,0.206615
6126523976,-1.386379,0.972809,10.767915,0.954661,0.016446,0.181947
6126544020,6.579771,4.263735,8.783915,0.972854,0.042151,0.193795
6126564065,11.099596,4.867304,7.491671,1.010653,0.099364,0.228651
6126584110,0.258041,3.150781,6.319399,1.031735,0.120565,0.228903
6126604154,-16.085886,3.278220,4.799038,1.011104,0.092773,0.200758
6126624199,-19.949038,6.191882,3.157495,0.984900,0.055444,0.191224
6126644244,-17.013117,9.061938,2.111420,0.963776,0.038016,0.220803
6126664288,-15.143449,2.355185,-0.822000,0.966418,0.048408,0.238672
6126684333,-16.235636,-6.143804,-6.039359,0.978681,0.058793,0.212637
6126704378,-20.322800,-5.076937,-7.723148,0.960398,0.057293,0.194398
6126724423,-20.016500,-2.583553,-6.348942,0.953807,0.043124,0.225695
6126744469,-19.889389,-5.220787,-5.646540,0.938448,0.028259,0.230987
6126764514,-15.475659,-7.922674,-5.266438,0.919752,0.022169,0.207502
6126784559,-11.162939,-6.749215,-7.311844,0.907401,0.024328,0.203206
6126804603,-9.108899,-6.494267,-11.083653,0.918935,0.024436,0.216673
6126824648,-6.838379,-7.355242,-11.382124,0.961285,0.019073,0.230956
6126844693,-2.499574,-9.198241,-11.124153,1.010883,0.013209,0.228817
6126864738,0.474008,-11.026274,-14.002087,1.025218,0.036569,0.211067
6126884782,-0.203771,-12.608227,-17.530285,1.019920,0.077107,0.195853
6126904830,-5.726049,-12.556379,-14.265452,1.020626,0.112893,0.191557
6126924871,-11.591125,-10.821325,-4.005989,1.019090,0.096922,0.173560
6126944916,-12.333830,-9.784233,2.100980,1.008281,0.044446,0.156160
6126964960,-8.115326,-7.674562,2.813234,0.997353,-0.008247,0.146409
6126985005,2.621350,-9.828381,0.264623,0.995762,-0.017428,0.146838
6127005050,12.070979,-12.528479,-2.593573,0.974745,0.016131,0.142492
6127025095,13.280376,-13.092687,-4.171680,0.946391,0.048116,0.144753
6127045149,6.788817,-10.319983,-3.187480,0.935418,0.065817,0.149261
6127065184,0.312451,-5.480350,-3.195729,0.934467,0.064324,0.155093
6127085229,-2.501947,-3.564022,-6.467065,0.967846,0.069788,0.172863
6127105274,-2.615534,-5.421638,-13.435179,0.986525,0.089599,0.177570
6127125318,-5.159651,-7.861104,-17.512012,0.991618,0.092347,0.164839
6127145363,-10.499922,-10.060588,-17.278530,0.990896,0.088762,0.146745
6127165409,-10.573763,-8.973601,-17.225664,0.989390,0.091510,0.145346
6127185454,-10.217483,-6.055096,-16.903566,0.979878,0.085070,0.155344
6127205499,-11.605094,-7.695756,-17.142780,0.986467,0.068776,0.159806
6127225544,-11.536509,-12.606586,-18.738508,1.006286,0.061995,0.145713
6127245589,-9.599947,-13.749269,-20.748268,1.006761,0.057233,0.118715
6127265633,-5.246832,-11.443303,-22.711254,0.981080,0.061888,0.104286
6127285678,-4.306322,-7.332392,-23.270868,0.972736,0.088976,0.126217
6127305723,-6.301310,-6.273862,-22.586164,0.974535,0.109843,0.140989
6127325766,-6.119124,-5.241481,-25.148283,0.975643,0.118154,0.145298
6127345811,-5.933093,-2.424671,-31.544123,0.977274,0.130630,0.146846
6127365856,-7.161046,-2.138009,-38.688557,0.992587,0.136301,0.143361
6127385901,-8.532528,-2.876985,-45.099567,0.993724,0.166323,0.149585
6127405945,-7.895144,-2.090081,-51.786442,0.990122,0.216220,0.158616
6127425990,-11.694845,-5.949619,-55.479012,0.995895,0.221214,0.142684
6127446035,-21.717505,-9.001844,-50.607368,0.988781,0.204240,0.125656
6127466080,-23.400837,-7.212283,-46.299438,0.988277,0.193081,0.119644
6127486124,-19.175262,-6.355625,-43.132965,1.006891,0.187776,0.118003
6127506169,-12.637970,-7.575448,-38.847118,1.007841,0.209735,0.118284
6127526214,-7.855346,-2.699128,-37.067619,0.970307,0.275527,0.149514
6127546259,-10.377370,0.373315,-37.988243,0.933751,0.319671,0.177198
6127566305,-20.712915,-3.426186,-39.048149,0.896225,0.354923,0.183643
6127586350,-34.183037,-9.350980,-39.678249,0.910984,0.390195,0.200121
6127606394,-49.909191,-13.599998,-36.597755,0.933014,0.407459,0.200048
6127626439,-55.175591,-16.877068,-32.425163,0.935206,0.409935,0.181380
6127646484,-56.497047,-17.512281,-27.759653,0.926248,0.366287,0.165833
6127666529,-59.586262,-18.580473,-25.906569,0.923325,0.330862,0.152720
6127686573,-62.497055,-17.954708,-25.922932,0.922555,0.332195,0.171368
6127706618,-60.623535,-16.764692,-29.633297,0.899181,0.375648,0.206346
6127726661,-61.418434,-22.563484,-29.956924,0.894177,0.366874,0.193089
6127746706,-68.954529,-29.927366,-24.894579,0.924870,0.314790,0.139572
6127766751,-70.324821,-24.103720,-24.165840,0.943546,0.313579,0.136987
6127786796,-64.561836,-13.013166,-27.458286,0.937529,0.336612,0.182730
6127806841,-60.625732,-16.779249,-28.208645,0.922078,0.336583,0.197094
6127826885,-62.226242,-27.379913,-26.159885,0.955877,0.330729,0.176267
6127846930,-60.958511,-27.062077,-26.817459,0.971778,0.356379,0.163425
6127866975,-59.214565,-19.965721,-29.450615,0.935241,0.378888,0.174626
6127887020,-64.963791,-20.340889,-29.672819,0.890732,0.385462,0.184625
6127907064,-74.164604,-26.184391,-27.257936,0.874815,0.381324,0.184452
6127927109,-81.828171,-29.148100,-23.836706,0.895567,0.386698,0.188930
6127947154,-86.291443,-28.079531,-22.470293,0.899772,0.383331,0.198457
6127967200,-90.480751,-28.440693,-22.346413,0.927545,0.376581,0.205088
6127987245,-94.359642,-31.332754,-21.346415,0.962165,0.384062,0.214475
6128007290,-97.795441,-34.650497,-19.587582,0.991078,0.366780,0.216741
6128027334,-99.290306,-34.610870,-18.852419,0.984469,0.350083,0.213826
6128047379,-98.057938,-31.542730,-22.125399,0.927393,0.347644,0.237192
6128067424,-98.778717,-37.935436,-24.658342,0.874545,0.332015,0.248224
6128087469,-101.835358,-51.340267,-24.309881,0.870737,0.333534,0.248730
6128107514,-101.650436,-57.299599,-24.800856,0.874169,0.325359,0.222238
6128127569,-97.468987,-57.509293,-26.714436,0.863277,0.336958,0.202761
6128147602,-100.572968,-57.499252,-27.254400,0.855365,0.366145,0.213388
6128167646,-109.327774,-59.960960,-25.135626,0.870345,0.382557,0.219462
6128187691,-112.490326,-63.567753,-23.355761,0.904452,0.393803,0.206508
6128207736,-109.590073,-63.189877,-22.593670,0.903677,0.378593,0.181863
6128227781,-107.904953,-64.285919,-22.773155,0.898585,0.371791,0.176237
6128247826,-107.583473,-70.480064,-21.238487,0.917827,0.377758,0.171321
6128267870,-108.003662,-75.860069,-19.196095,0.947028,0.383416,0.157103
6128287915,-108.578354,-76.011192,-18.307823,0.957637,0.380340,0.132169
6128307960,-109.028252,-74.848305,-19.212051,0.941923,0.380646,0.116756
6128328004,-109.620857,-75.463272,-18.810774,0.933820,0.386850,0.113186
6128348049,-110.119720,-76.549164,-17.526049,0.897059,0.382401,0.102666
6128368094,-110.671974,-78.090958,-16.065262,0.870687,0.373110,0.099636
6128388140,-113.039581,-82.025597,-15.007300,0.866459,0.374459,0.088396
6128408185,-116.406586,-86.461327,-14.611612,0.880944,0.369540,0.068604
6128428230,-115.032562,-90.239479,-13.346321,0.917079,0.362385,0.024224
6128448275,-112.365395,-88.561661,-12.522725,0.956570,0.379162,0.005618
6128468320,-115.891815,-76.832230,-15.813118,0.933394,0.410639,0.011380
6128488365,-121.529640,-71.142853,-17.634136,0.901736,0.409880,0.017346
6128508409,-126.858185,-81.716026,-12.311423,0.950909,0.428841,0.030569
6128528454,-132.998611,-93.153687,-4.155280,1.004889,0.446059,0.014706
6128548497,-134.309937,-93.294670,0.936311,1.024847,0.405915,-0.048639
6128568542,-132.626221,-88.088562,3.348716,1.003436,0.364807,-0.091612
6128588587,-136.791855,-83.813316,3.475650,0.981608,0.332753,-0.106347
6128608632,-143.836212,-83.387970,6.165189,0.987837,0.321800,-0.107850
6128628676,-146.352615,-80.981789,11.027444,0.994175,0.335975,-0.088710
6128648721,-143.206985,-73.884521,13.106886,0.992467,0.316237,-0.098665
6128668766,-138.103592,-70.066376,11.784272,0.974718,0.308945,-0.109933
6128688810,-132.066101,-72.671257,11.268110,0.987446,0.324291,-0.117159
6128708855,-132.596771,-75.130913,16.835859,0.992580,0.312392,-0.150619
6128728900,-137.477020,-76.295059,21.574867,0.990542,0.276048,-0.188118
6128748945,-143.381302,-75.726372,24.103165,1.013932,0.242801,-0.211162
6128768990,-146.126129,-71.877113,26.192743,1.045818,0.213330,-0.224069
6128789036,-144.629425,-61.638100,30.986351,1.077241,0.166625,-0.225821
6128809081,-138.695129,-48.849030,35.918747,1.077125,0.116766,-0.212300
6128829125,-133.134399,-36.860359,34.981052,1.031917,0.095452,-0.164929
6128849170,-127.491302,-32.179993,25.250507,0.989706,0.099358,-0.116015
6128869215,-122.451263,-36.581169,17.224434,1.003904,0.112254,-0.080965
6128889260,-121.496735,-41.499886,16.688484,1.033217,0.116569,-0.079148
6128909305,-118.888512,-39.031487,17.626057,1.057347,0.096801,-0.102571
6128929349,-111.466682,-29.156246,19.281551,1.076940,0.065141,-0.128388
6128949393,-100.523003,-14.404346,21.057796,1.041266,0.031893,-0.122820
6128969438,-91.512161,-1.963790,17.503008,0.976079,0.024068,-0.066966
6128989482,-83.398293,1.476677,10.322057,0.937968,0.045293,0.002594
6129009527,-78.580849,-3.751955,4.134480,0.928125,0.097673,0.064364
6129029572,-80.357788,-16.727156,-1.065780,0.952200,0.155572,0.090010
6129049617,-89.883408,-29.009224,-0.996370,1.003829,0.176623,0.057346
6129069661,-98.489777,-29.280260,5.111182,1.046630,0.157703,0.013567
6129089706,-98.311577,-19.534430,9.298284,1.047856,0.120995,0.007961
6129109751,-99.618988,-12.001709,7.754671,1.013492,0.090217,0.042379
6129129796,-104.517159,-18.359922,6.289815,1.014791,0.051033,0.060101
6129149840,-99.640396,-26.526016,9.094151,1.024046,0.011828,0.041009
6129169885,-80.448959,-26.070305,11.399668,1.037454,-0.013292,0.011725
6129189930,-66.659485,-20.595028,10.260294,1.003392,-0.012166,0.008735
6129209976,-62.897430,-16.960285,4.186705,0.982048,0.031764,0.038171
6129230021,-65.557930,-18.936388,-0.727684,0.992896,0.077416,0.070012
6129250065,-69.548454,-21.805273,0.890230,0.986772,0.110846,0.053485
6129270110,-72.030373,-21.687748,3.925993,0.982322,0.127854,0.038836
6129290155,-78.124306,-16.748487,6.466848,0.986176,0.129900,0.039758
6129310200,-86.754967,-10.371405,7.006944,0.982940,0.136627,0.055520
6129330245,-92.486397,-10.907662,3.554597,0.985002,0.112066,0.042173
6129350290,-98.747253,-16.319929,7.150224,1.034127,0.054799,0.015964
6129370333,-103.899155,-13.316625,16.412640,1.069347,0.031559,0.014410
6129390378,-105.534988,2.099122,16.684868,0.966503,0.005160,0.020978
6129410422,-94.217720,-8.138964,4.776563,0.995158,-0.018700,0.045966
6129430467,-82.019684,-34.053894,2.063990,1.085179,-0.026404,0.049601
6129450512,-77.047958,-28.935585,1.480133,1.073506,-0.050958,-0.028671
6129470557,-67.958183,-16.135798,2.502992,1.027343,-0.048119,-0.059349
6129490601,-61.332626,-4.290574,5.739717,1.002934,-0.012884,0.034413
6129510646,-59.691055,-3.325187,9.101123,0.975055,-0.005695,0.062829
6129530691,-53.071320,-13.333328,9.303616,0.981131,-0.042804,0.049705
6129550736,-48.960625,-17.167986,8.513894,1.028937,-0.070497,0.025792
6129570780,-41.293789,-10.022612,7.937930,1.026938,-0.082607,-0.001254
6129590825,-28.193739,-1.405342,11.912750,0.996269,-0.079039,0.000040
6129610871,-19.963703,-3.729707,14.030681,1.029231,-0.074009,0.032469
6129630916,-23.161718,-4.007784,14.885856,1.045750,-0.091766,0.031735
6129650961,-18.279783,3.499578,19.518961,1.053641,-0.149910,0.013153
6129671006,4.943980,11.568196,22.921488,1.035601,-0.180140,0.018642
6129691051,27.353186,15.098060,22.235912,1.002128,-0.145847,0.064456
6129711095,36.734329,10.093700,16.477848,0.993328,-0.077355,0.099971
6129731141,36.520023,-1.522138,11.690948,1.037876,-0.029959,0.090073
6129751185,35.386276,-5.814734,13.501616,1.070773,-0.020448,0.049173
6129771229,37.426220,5.769246,18.556427,1.053575,-0.015375,0.034348
6129791273,40.151340,22.868755,19.220249,1.022543,0.008331,0.096109
6129811318,36.290516,31.907528,15.256937,0.993819,0.034664,0.160232
6129831363,32.984917,30.001411,12.602446,0.976884,0.016494,0.159166
6129851407,33.968643,26.657331,14.982590,0.937536,-0.004269,0.143937
6129871452,40.124809,29.164356,7.253778,0.891726,0.042674,0.198934
6129891497,41.944084,17.675478,1.369366,0.987823,0.071939,0.233900
6129911542,36.988602,4.682855,2.006253,0.975613,0.120884,0.194713
6129931587,31.425064,3.955651,-3.184172,0.968212,0.116496,0.152724
6129951631,19.164194,3.481082,-0.331895,1.006679,0.065195,0.122746
6129971676,24.809799,13.085526,4.186717,1.017347,0.050090,0.111113
6129991721,43.527866,22.677271,5.588267,1.042842,0.077284,0.154685
6130011767,44.134796,21.209978,5.950679,0.998604,0.121794,0.191778
6130031812,33.846363,15.884102,8.007736,0.936224,0.152279,0.168400
6130051857,34.091755,7.607870,10.527717,0.992307,0.205903,0.198594
6130071901,23.747997,5.921741,10.288650,1.014953,0.209246,0.228595
6130091946,12.107752,13.854458,16.358377,0.976536,0.115782,0.197038
6130111991,15.783646,19.586813,26.563766,0.973136,0.004052,0.220696
6130132036,28.412624,26.995378,29.202518,0.957838,-0.066831,0.270516
6130152081,53.351250,25.746078,20.228594,0.893262,-0.064595,0.294426
6130172125,72.699715,14.446903,13.516342,0.867644,0.043638,0.294256
6130192169,69.831429,0.974216,15.440409,0.914522,0.149557,0.300916
6130212213,50.846676,-8.495785,13.827477,0.975046,0.146513,0.257682
6130232258,36.744701,-3.658069,11.820757,1.005429,0.096191,0.195226
6130252303,42.973080,12.465547,12.527207,0.998984,0.072871,0.197101
6130272348,53.500587,17.518049,11.489428,0.960889,0.072747,0.251906
6130292392,52.721088,10.175764,9.963449,0.941813,0.068891,0.271646
6130312437,50.423206,1.862364,9.470882,0.950868,0.050852,0.266853
6130332482,48.807449,-0.095467,13.355216,0.967248,0.035448,0.263367
6130352527,52.103256,-1.357506,18.945822,0.972445,0.028485,0.231870
6130372571,55.907879,-0.730587,17.499056,0.928205,0.027438,0.209887
6130392616,53.821106,-3.225302,9.769608,0.941349,0.025047,0.221566
6130412661,57.588718,-5.493472,9.971415,1.001613,0.050918,0.217513
6130432707,69.689301,-3.373845,14.142881,0.954832,0.119817,0.218333
6130452752,60.253403,-2.212541,9.376511,0.934402,0.159821,0.286501
6130472797,42.467720,-6.683656,4.801378,0.964249,0.145131,0.321255
6130492841,42.580421,-13.827023,7.869823,1.030796,0.061259,0.257974
6130512887,48.998901,-8.313645,9.674263,1.030428,-0.001009,0.181825
6130532931,56.837692,7.864710,0.022667,0.990518,0.044179,0.208201
6130552976,55.601646,14.233266,-4.179176,0.961294,0.190287,0.306567
6130573037,36.965919,3.489838,2.609400,0.946156,0.250043,0.318709
6130593064,14.592083,-7.996577,6.410495,0.945989,0.221823,0.273965
6130613109,2.525158,-3.046929,3.694800,0.962154,0.174851,0.254259
6130633154,0.337658,0.314890,4.630208,0.961769,0.119524,0.242421
6130653198,0.414527,-1.829810,1.889060,0.922636,0.092607,0.246364
6130673243,-1.673972,-5.105630,-1.931452,0.913260,0.092817,0.243471
6130693288,-4.987175,-10.703082,1.169416,0.924523,0.093370,0.229892
6130713332,-9.750399,-12.849962,1.177493,0.961521,0.071973,0.222054
6130733377,-12.266162,-10.462496,-1.761374,0.990546,0.053603,0.212949
6130753422,-13.372117,-8.766473,-1.510712,0.987038,0.036477,0.207511
6130773467,-13.399445,-7.891294,0.873196,0.976868,0.019476,0.205574
6130793512,-7.010083,-10.031786,2.692714,1.001327,0.004210,0.212707
6130813556,-0.238334,-11.792390,4.920330,1.005249,-0.017919,0.199080
6130833603,3.675870,-12.661307,7.009027,1.008805,-0.040984,0.181451
6130853647,6.361780,-12.046050,11.261717,0.996426,-0.045071,0.158087
6130873692,14.126853,-11.018072,13.456224,0.993225,-0.027358,0.155095
6130893737,15.795433,-10.900205,8.354298,1.014064,-0.008648,0.163287
6130913782,14.121764,-6.134278,5.795258,1.003417,-0.004685,0.147244
6130933827,16.244955,-0.647556,7.685984,0.999352,-0.018389,0.159982
6130953871,18.244675,-0.610365,9.712319,1.019274,-0.030427,0.175341
6130973938,21.936710,-0.507511,8.899230,1.016922,-0.038414,0.162916
6130993960,23.438574,3.730152,3.962290,0.987169,-0.031786,0.148077
6131014005,21.192310,7.554908,3.221685,0.956883,-0.026100,0.152907
6131034050,21.465818,6.712954,7.562813,0.957469,-0.023257,0.181476
6131054094,25.110016,1.867702,6.541457,1.015268,-0.001554,0.188548
6131074139,21.009804,1.382829,2.177595,1.036347,0.025635,0.159707
6131094183,13.247610,10.220560,0.004211,1.011843,0.037144,0.149782
6131114228,7.442022,15.165306,-1.593886,0.990851,0.033345,0.198369
6131134273,4.389649,11.846722,-0.965500,0.989537,0.023140,0.221569
6131154318,5.566683,9.520229,-0.218113,0.980674,0.011674,0.206213
6131174362,4.355696,11.352393,-1.658037,0.968113,0.013712,0.209837
6131194407,1.135413,11.597833,-2.905834,0.957600,0.021931,0.227719
6131214452,-1.486387,10.277999,-1.970289,0.961244,0.018229,0.240158
6131234498,-2.480842,9.511532,-1.207729,0.966276,0.012290,0.236147
6131254543,-3.909302,10.599531,-1.502537,0.963207,0.006735,0.230708
6131274587,-3.915453,10.682398,-3.155738,0.966666,0.025459,0.230032
6131294632,-8.045508,8.723403,-6.664728,0.962506,0.030439,0.241888
6131314685,-17.624771,4.954072,-6.793412,1.007578,0.006370,0.234312
6131334722,-15.053781,6.344426,-3.142421,1.013430,-0.030569,0.206527
6131354767,-4.830191,14.642011,-5.681743,0.965872,-0.019447,0.221202
6131374814,-3.255904,12.404791,-8.464758,0.943793,0.027522,0.265993
6131394855,-9.890157,5.289657,-6.274042,0.947384,0.043912,0.270618
6131414900,-16.035809,2.445909,-3.603540,0.984295,0.015444,0.230517
6131434945,-15.273541,8.905581,-4.179245,0.977327,0.005945,0.201319
6131454989,-10.247433,14.076277,-6.477685,0.979982,0.020145,0.203679
6131475034,-11.262770,13.203671,-5.158729,0.983772,0.033974,0.220163
6131495079,-13.698538,16.869976,-3.680807,0.977462,0.022677,0.233230
6131515124,-9.989401,19.133869,0.951012,0.946117,-0.011284,0.249942
6131535168,-4.921416,15.845441,-0.273191,0.935559,-0.040494,0.285887
6131555213,0.809785,7.410289,-2.556555,0.959431,-0.028739,0.284052
6131575258,6.067777,5.597703,-0.515361,0.969410,0.012467,0.254377
6131595302,2.554378,10.168560,-0.949842,0.960541,0.048601,0.253104
6131615347,-4.825411,12.462543,-1.390618,0.959223,0.057363,0.276785
6131635394,-6.380620,10.678507,0.344728,0.956932,0.024389,0.275947
6131655438,-4.447220,9.437563,-0.453607,0.963464,-0.012350,0.264463
6131675483,-2.090970,10.468027,-3.100959,0.976738,-0.006755,0.271342
6131695528,-1.931413,11.120498,-5.433998,0.982158,0.012039,0.284428
6131715573,-2.876499,13.036898,-4.971466,0.963632,0.016879,0.285072
6131735617,-2.170041,11.806069,-2.545483,0.955899,0.003852,0.307975
6131755662,-2.266261,8.651955,-2.343687,0.952571,0.009357,0.318557
6131775709,-0.126162,5.389653,-1.800876,0.956120,0.032484,0.309197
6131795750,-0.266288,5.131918,-0.542539,0.963244,0.037496,0.298555
6131815795,-2.572427,6.988683,-0.092370,0.949184,0.027904,0.291977
6131835840,-2.181324,7.596667,0.498284,0.937451,0.019221,0.302433
6131855885,-0.719154,4.274006,0.734000,0.948004,0.013195,0.310298
6131875930,0.082540,2.889789,0.294919,0.950150,0.008548,0.302614
6131895974,0.948362,3.177700,-0.077670,0.957670,0.011148,0.299552
6131916019,0.524887,4.135817,0.061801,0.950920,0.024971,0.305943
6131936064,-1.601243,5.156239,0.267595,0.939769,0.032162,0.319004
6131956109,-2.372962,2.382796,0.588484,0.944312,0.019835,0.325694
6131976153,-1.034392,-0.628428,0.162061,0.954372,-0.000958,0.307912
