Timestamp (us),Gyroscope X (deg/s),Gyroscope Y (deg/s),Gyroscope Z (deg/s),Accelerometer X (g),Accelerometer Y (g),Accelerometer Z (g)
9070283710,-4.713337,2.729397,1.178386,0.960217,0.213882,0.134710
9070303672,-5.448182,2.425565,0.197377,0.962552,0.197550,0.138481
9070323633,-3.674567,1.348725,0.751285,0.978525,0.174073,0.123223
9070343594,-1.024869,0.649552,1.413776,0.978894,0.174329,0.128507
9070363555,-1.546801,1.602180,1.585184,0.954645,0.202224,0.129244
9070383516,-4.058774,0.841173,1.122655,0.953901,0.198934,0.133746
9070403477,-5.119118,0.152461,1.097412,0.971094,0.185288,0.132737
9070423439,-2.785804,0.466162,1.962258,0.986685,0.176013,0.137364
9070443398,-1.915341,1.239133,1.986747,0.959910,0.185356,0.148103
9070463359,-2.835437,0.601844,1.286433,0.961893,0.181515,0.141736
9070483321,-3.838138,0.733817,1.032472,0.973331,0.186125,0.135587
9070503282,-1.069549,0.931152,1.451154,0.979351,0.162385,0.132626
9070523243,1.224598,1.062629,2.399626,0.967280,0.179533,0.134310
9070543204,-1.692569,1.553230,3.474539,0.965576,0.212933,0.129542
9070563165,-7.963243,1.440760,1.882976,0.955197,0.206589,0.142205
9070583127,-9.212916,0.394179,1.341563,0.974593,0.152718,0.139527
9070603088,-2.790753,0.830692,1.703657,0.979888,0.153132,0.128053
9070623049,1.247565,0.833933,2.164772,0.983593,0.178586,0.149467
9070643010,0.180763,1.345098,1.287701,0.985229,0.177093,0.154257
9070662971,-2.465151,0.918397,0.459938,0.964261,0.180104,0.146356
9070682932,-3.599718,0.076720,-0.111759,0.963477,0.161729,0.144913
9070702894,-2.875847,0.454887,0.003909,0.981202,0.170416,0.129888
9070722855,-2.173343,-0.116477,0.621827,0.979718,0.172632,0.143666
9070742816,-0.221054,-0.182236,1.273476,0.975026,0.155288,0.147780
9070762777,2.979400,-0.004079,0.411004,0.958107,0.170305,0.149500
9070782740,0.520984,0.343555,-0.796766,0.975179,0.193368,0.159816
9070802701,-0.617804,1.793603,-0.066524,0.973728,0.162207,0.147551
9070822663,0.184601,1.922399,0.960506,0.953963,0.166940,0.133998
9070842624,0.723226,1.730927,1.144718,0.962212,0.195355,0.124851
9070862585,-2.205958,1.717312,1.066753,0.966181,0.197227,0.150026
9070902507,-4.045592,1.139163,1.835658,0.975234,0.159490,0.143070
9070922469,-0.659542,0.648341,1.392217,0.972820,0.164860,0.154321
9070942430,1.271705,-0.031018,-0.566043,0.972663,0.159879,0.155492
9070962391,-1.027670,-0.122061,-0.330645,0.983855,0.182716,0.152410
9070982352,-0.503800,0.581929,-1.119264,0.991605,0.159693,0.149924
9071002323,4.175210,0.590059,-0.989973,0.974703,0.144532,0.139299
9071022273,3.307170,-0.683447,-0.323070,0.969320,0.187053,0.152709
9071042234,2.609824,-0.629079,-0.864304,0.959447,0.172972,0.152577
9071062196,2.838163,-1.086960,-1.287872,0.971814,0.168941,0.140485
9071082157,2.562269,-0.841405,-0.636461,0.973039,0.176751,0.153311
9071102118,2.083489,-1.563908,-1.411084,0.968250,0.157487,0.156634
9071122079,4.141402,-1.290145,-1.928362,0.961915,0.157438,0.148779
9071142040,5.352146,-0.383564,-2.988233,0.961129,0.166571,0.157357
9071162001,7.361971,1.007996,-3.643950,0.983588,0.155827,0.153391
9071181963,8.164619,2.539372,-4.759229,0.987704,0.157143,0.153081
9071201924,8.354187,4.425961,-7.941385,0.946705,0.160395,0.172401
9071221885,13.521143,2.016982,-10.182354,0.972353,0.121011,0.157853
9071241846,21.551628,3.132778,-9.831140,1.001938,0.141653,0.148223
9071261807,22.967175,3.558158,-7.838672,0.996648,0.211081,0.149266
9071281769,15.338937,3.599570,-6.930445,0.979451,0.222657,0.133007
9071301730,8.019392,3.031960,-5.845731,0.944195,0.220310,0.121562
9071321691,8.659259,0.278405,-5.118507,0.942899,0.188151,0.115782
9071341654,12.595162,0.390190,-3.792699,0.949403,0.223654,0.111495
9071361615,10.750345,-0.840843,-2.468809,0.964472,0.263967,0.131418
9071381576,4.644811,0.563278,-2.210276,0.953157,0.266133,0.128534
9071401537,1.394569,-0.111477,-2.553943,0.934439,0.239829,0.144102
9071421498,2.052030,-0.957241,-2.315234,0.947940,0.216400,0.124154
9071441459,6.100368,-0.277042,-1.779203,0.971766,0.241441,0.112889
9071461421,5.453173,0.235669,-1.228081,0.961675,0.243330,0.129246
9071481382,1.266505,-0.390150,-1.415538,0.965304,0.238699,0.138404
9071501343,-2.957750,-0.810347,-1.519942,0.962561,0.226193,0.126629
9071521304,-3.415770,-0.572046,-0.982964,0.978802,0.207094,0.125054
9071541266,-0.111819,-1.341826,-0.356153,0.978358,0.185081,0.117484
9071561227,0.569672,-1.213012,0.488331,0.966292,0.227612,0.133049
9071581186,-3.120559,-1.094612,0.559443,0.957941,0.227652,0.142365
9071601147,-3.348350,-0.553171,0.937352,0.958544,0.223747,0.136794
9071621109,-0.985222,-0.204578,0.299540,0.962446,0.213901,0.137574
9071641070,0.139074,0.086390,-0.706571,0.955064,0.202045,0.142186
9071661031,-0.311208,0.195091,-0.313572,0.963647,0.217906,0.138805
9071680992,0.089611,0.118715,0.158410,0.967947,0.210317,0.138826
9071700954,-0.557969,-0.396921,-0.123768,0.972568,0.205970,0.143262
9071720915,-1.411201,-0.751815,-0.217130,0.969368,0.212980,0.147915
9071740876,-1.748195,-0.384065,0.593274,0.981283,0.212605,0.143131
9071760837,1.546982,1.056970,0.108698,0.962630,0.198764,0.134456
9071780798,3.762538,0.295044,-0.861876,0.946047,0.210595,0.136143
9071800760,3.376125,-0.889582,-0.610932,0.955083,0.213965,0.136800
9071820721,2.279208,0.642437,-0.647204,0.973872,0.220445,0.133214
9071840682,2.269408,1.904759,-0.709838,0.972096,0.218671,0.134941
9071860643,4.448886,2.262018,-1.112998,0.950191,0.200294,0.149501
9071880605,9.137751,2.814280,-2.661747,0.945606,0.204138,0.148079
9071900566,13.231202,3.574998,-3.605622,0.969065,0.214315,0.139509
9071920529,14.632691,3.836533,-3.684865,0.965112,0.233394,0.136028
9071940489,6.980902,3.215520,-3.208322,0.973189,0.244447,0.132990
9071960451,-1.863149,2.234960,-1.900347,0.969931,0.225949,0.121396
9071980412,-2.483854,0.657590,-0.678146,0.953115,0.199955,0.115958
9072000373,0.558062,-0.658416,0.191477,0.963003,0.217402,0.122501
9072020334,1.301484,-0.956917,0.422062,0.959411,0.231761,0.138409
9072040296,1.421480,-0.060903,-0.064603,0.948922,0.252975,0.145792
9072060257,-2.321215,0.049692,-0.175798,0.958673,0.246085,0.141530
9072080218,-3.552555,0.540637,-0.028813,0.966693,0.224918,0.129367
9072100179,-1.485056,0.161667,0.107606,0.957619,0.211294,0.136162
9072120140,-0.202326,-0.534314,0.188779,0.961940,0.220114,0.133183
9072140100,-1.162906,-0.598990,0.534814,0.968754,0.231513,0.140497
9072160061,-2.043128,-0.345836,0.227950,0.955018,0.221733,0.139586
9072180022,-2.108247,0.666160,0.393190,0.958641,0.246125,0.137978
9072199984,-3.750842,-0.182300,-0.574826,0.964731,0.221201,0.141138
9072219945,-1.249295,-0.562807,-0.512864,0.975108,0.191002,0.140913
9072239906,1.997833,-0.686618,-0.198372,0.970475,0.212612,0.135921
9072259867,-0.396920,-0.146580,-0.176735,0.951244,0.238947,0.151619
9072279829,-2.821423,-0.117202,-0.761587,0.944998,0.227901,0.137753
9072299790,-2.699606,0.537581,-0.192957,0.961622,0.239459,0.119383
9072319751,-5.037771,1.086960,0.777529,0.960968,0.236708,0.129706
9072339712,-7.339954,2.548000,1.344533,0.952150,0.229054,0.140870
9072379635,-18.754374,5.728030,2.698512,0.936691,0.302135,0.142121
9072399596,-33.319382,9.025857,0.915065,0.928954,0.372610,0.175793
9072419557,-48.002083,8.490068,-5.181416,0.896991,0.328345,0.221918
9072439518,-60.288616,15.334496,-9.550621,0.882077,0.309223,0.128164
9072459479,-62.276897,25.252098,-8.539854,0.859773,0.321305,0.074468
9072479442,-66.318573,35.129238,-4.454511,0.861082,0.341940,0.100289
9072499404,-75.729248,39.419945,4.008118,0.924209,0.273529,0.197453
9072519364,-76.033630,37.014248,13.558186,0.877557,-0.019056,0.303107
9072539325,-64.084602,25.932711,28.102421,0.915334,-0.237262,0.127709
9072559287,-50.248669,29.564495,40.779083,0.975483,-0.059159,0.197105
9072579248,-52.596214,34.388760,45.955273,0.850375,0.019507,0.316364
9072599213,-65.578857,18.264175,46.945862,0.792170,-0.084924,0.313456
9072619170,-50.107201,8.476883,52.703674,0.907296,-0.228814,0.221216
9072639131,-16.723289,15.994137,62.092205,0.960145,-0.180374,0.208188
9072659093,-4.625710,8.578351,65.672333,1.005407,0.056714,0.291279
9072679054,-9.473843,-2.209737,59.638855,1.312495,0.253769,0.258716
9072699013,-11.614538,-6.190511,43.282551,1.541900,0.489681,0.155249
9072718975,-21.662714,-25.439238,-3.040061,1.307195,0.821380,0.063646
9072738936,-22.281099,-12.813812,-29.737751,0.993545,0.641059,0.247706
9072758897,-58.586681,-0.255028,-47.977245,0.941480,0.511737,0.605104
9072778858,-128.103943,1.894626,-72.564598,0.841683,0.170408,0.484838
9072798819,-100.083649,-50.818996,-60.318481,1.069427,-0.424295,-0.058998
9072818781,-2.967808,-31.118645,-93.185120,1.199997,0.206098,-0.240766
9072838742,0.981090,-39.711521,-94.130676,0.853618,0.709020,-0.071594
9072858703,-89.876755,-65.025406,-97.079750,1.071307,0.831196,0.070633
9072878664,-167.266647,-66.862625,-112.466034,1.181888,0.678079,0.021807
9072898625,-158.565948,-72.921799,-120.328796,1.086037,0.136274,-0.092098
9072918586,-108.009857,-74.986374,-132.536972,0.968164,0.101891,-0.202060
9072938548,-98.631966,-84.820656,-137.082886,0.965135,0.342456,-0.301033
9072978470,-132.608826,-108.818848,-147.943863,1.019993,0.304356,-0.362600
9072998431,-128.382416,-122.312195,-142.361862,1.003150,0.199499,-0.421383
9073018392,-134.431320,-130.154602,-137.733002,1.007046,0.293460,-0.389613
9073038355,-150.661880,-139.194931,-132.339111,1.005366,0.157133,-0.370474
9073058316,-142.089569,-140.819244,-124.756889,1.046797,0.114145,-0.377843
9073078278,-127.712616,-139.063736,-113.927437,1.057578,0.152015,-0.304232
9073118200,-111.263535,-128.836411,-81.041397,1.063275,0.269267,-0.176376
9073138161,-101.873558,-120.937347,-67.399178,1.060038,0.404076,-0.190937
9073158122,-89.133270,-104.376549,-59.898670,1.100947,0.468976,-0.155918
9073178084,-85.833992,-98.562569,-49.028419,0.983501,0.414877,-0.215192
9073198045,-84.228271,-105.461922,-28.506216,0.903265,0.339091,-0.251665
9073218006,-102.141029,-97.263191,-7.592941,0.919161,0.405452,-0.190356
9073237967,-149.088364,-91.625206,2.344994,0.812785,0.496054,-0.155545
9073257927,-225.689301,-88.664177,6.792866,0.960015,0.604618,-0.142603
9073277888,-298.888519,-70.023972,11.782574,1.062520,0.518770,-0.259245
9073297850,-325.310547,-72.893097,6.622230,0.896390,0.386249,-0.326323
9073317811,-316.389984,-77.492340,-4.763481,0.907697,0.403936,-0.202744
9073337772,-323.500031,-74.618774,-16.539679,0.958849,0.398801,-0.051196
9073357733,-335.657654,-74.983521,-20.563753,0.971626,0.182358,-0.042681
9073377694,-305.032501,-82.908752,-13.999702,0.923660,-0.073718,-0.039822
9073397655,-238.672836,-90.305222,5.879630,0.889926,-0.153223,-0.005445
9073417617,-178.715805,-106.646027,15.179123,0.897685,-0.161773,0.043282
9073437578,-139.465851,-108.529312,29.655632,0.929544,-0.020612,0.090181
9073457539,-128.493500,-110.259224,41.450470,0.988467,0.110525,0.135920
9073477500,-134.399841,-107.642456,47.506165,1.048869,0.225680,0.171384
9073497461,-152.089340,-101.853058,50.664555,1.000207,0.308321,0.181249
9073517423,-177.761276,-102.155655,48.508259,0.979055,0.304507,0.147868
9073537384,-200.823593,-103.241875,39.030392,1.046337,0.256872,0.089508
9073557345,-205.173798,-96.764023,27.629805,1.018252,0.233460,0.078631
9073577306,-199.957382,-90.459061,17.300844,0.946006,0.216382,0.109093
9073597269,-193.684799,-84.496277,8.660732,0.939408,0.139630,0.096024
9073617230,-180.810486,-75.860542,4.721109,1.039366,0.087534,0.085324
9073637191,-169.209549,-66.272308,7.226855,1.136209,0.026988,0.103755
9073657153,-173.973083,-59.389149,15.101402,1.086968,-0.009064,0.158444
9073677114,-194.587662,-52.268364,10.135056,0.981142,0.047219,0.233894
9073697075,-215.719147,-40.911861,0.478005,1.020208,0.180789,0.226686
9073717036,-233.207703,-34.057018,0.569344,1.114383,0.107944,0.185350
9073736997,-243.483032,-33.301506,-3.085890,1.274287,0.084435,0.145505
9073756958,-229.294647,-23.315334,-25.366795,1.302482,0.099315,0.101340
9073776919,-201.878311,-7.715725,-45.054745,1.039488,-0.017006,0.085127
9073796881,-177.201752,-15.473657,-40.370010,0.922417,-0.273899,0.026631
9073816841,-139.809341,-20.054344,-31.435879,0.968268,-0.346184,0.120082
9073836802,-105.480194,-16.490692,-42.658749,1.001789,-0.074853,0.205493
9073856763,-105.478325,-20.548893,-45.020576,0.982542,0.084645,0.170929
9073876724,-125.578072,-25.877552,-45.504040,0.989878,0.124686,0.092004
9073896685,-143.462967,-22.709433,-45.218769,1.018039,0.085594,0.030692
9073916646,-150.908234,-17.907091,-40.135281,0.990125,-0.031336,-0.009884
9073936608,-142.586884,-12.220946,-39.425644,0.971113,-0.062739,-0.001341
9073956569,-134.593292,-12.198392,-41.972073,0.970305,0.034496,0.008526
9073996491,-177.259430,-25.058355,-37.934853,1.127221,0.086143,-0.028599
9074016453,-200.502701,-25.420147,-35.438313,1.111833,0.000211,-0.016637
9074036414,-212.621613,-25.980894,-34.779297,1.074087,-0.005850,0.020834
9074056375,-220.987976,-31.206678,-33.546883,1.008578,-0.013134,0.029586
9074076336,-222.664856,-36.012505,-32.194328,0.983209,-0.044453,0.020710
9074096297,-220.763382,-34.589306,-32.417854,0.979389,-0.081591,0.026985
9074116259,-218.956818,-29.585110,-37.010956,0.966746,-0.132245,0.041424
9074136220,-212.395172,-25.662487,-42.444328,1.027987,-0.162730,0.076375
9074156182,-204.924164,-24.568495,-46.238750,1.137940,-0.138200,0.153389
9074176144,-199.392075,-22.566536,-47.862774,1.183846,-0.034872,0.221473
9074196105,-201.876373,-20.567595,-48.594959,1.112835,0.063317,0.253165
9074216066,-207.692505,-20.716208,-44.773720,1.093445,0.065977,0.259687
9074236027,-207.905411,-16.301807,-50.882904,1.011326,-0.021224,0.280553
9074255988,-201.206787,-11.394226,-80.497162,0.870810,-0.024203,0.257081
9074275950,-180.987656,-6.609119,-111.713463,0.798726,-0.080160,0.196119
9074295911,-136.643784,-16.385336,-130.100830,0.724246,-0.118792,0.124722
9074315872,-96.329018,-56.773209,-133.193466,0.805313,0.057520,0.036539
9074335833,-65.664169,-106.452179,-139.203262,0.886704,0.325879,0.045747
9074355795,-77.692932,-108.386528,-159.556976,0.994973,0.726076,-0.035952
9074395715,-207.540985,-122.347580,-172.100677,1.090247,0.648139,-0.064162
9074415677,-188.073807,-123.959564,-197.640610,1.361608,0.434341,-0.045940
9074435638,-131.458282,-151.755173,-213.349731,1.276452,0.711713,-0.010703
9074455599,-89.387108,-146.675598,-207.306137,1.262551,1.165489,-0.114097
9074475560,-77.736504,-124.289986,-179.220276,0.812271,0.195244,-0.238047
9074495522,-16.612360,-126.291634,-136.051636,0.758529,-0.520610,-0.320281
9074515483,26.468901,-143.066528,-112.349434,0.907289,-0.553695,-0.227041
9074535444,-8.012465,-166.730316,-94.008514,0.892569,0.371832,-0.214515
9074555405,-125.624290,-168.016235,-92.088074,0.900618,1.001742,-0.192541
9074575366,-249.368927,-148.435272,-96.616966,1.099908,0.794940,-0.113651
9074595327,-246.551941,-134.628967,-98.017143,1.195086,-0.096960,-0.044662
9074615289,-117.788445,-139.260666,-82.800529,1.061719,-0.251678,0.128171
9074635250,-13.312452,-141.058685,-58.500412,1.070855,0.216325,0.349329
9074655211,-17.754345,-113.477531,-47.635147,1.178556,0.687807,0.461506
9074675172,-85.301231,-73.460793,-41.679672,1.183500,0.920352,0.360534
9074695133,-111.415665,-65.513878,-22.857450,1.078964,0.465500,0.188041
9074715096,-61.226860,-82.426964,3.911798,1.056142,0.042079,0.096940
9074735057,-21.539549,-115.973160,36.097630,1.059005,0.327116,0.084492
9074755018,-25.916437,-120.250389,87.773445,1.074951,0.791073,0.064527
9074774980,-56.487251,-71.445038,165.907013,0.924897,0.907720,0.264572
9074794941,-100.300064,-15.146099,254.565262,0.918630,0.404693,0.435788
9074814902,-120.782089,45.252560,346.565552,0.996440,-0.269891,0.558996
9074834863,-143.457245,70.694382,417.762726,1.308999,-0.240092,0.269018
9074854825,-124.399460,22.750444,409.002533,1.283813,0.505486,0.251608
9074874786,-92.500153,-23.504341,195.178467,-0.242527,1.693078,0.530618
9074894747,7.348695,-39.527424,-71.994362,-0.258963,1.998917,0.049145
9074914708,62.077530,-66.186829,-186.996109,1.779778,2.172322,0.782504
9074934680,-126.762665,-49.652153,-277.731171,2.102250,0.938165,0.513685
9074954629,-69.692123,-16.420313,-323.819336,1.765539,-0.066665,0.031597
9074974590,38.946125,-41.257786,-340.157867,1.425532,-1.101390,0.008617
9074994551,171.261200,-55.512276,-328.117889,1.293505,-1.752768,0.140437
9075014513,247.529572,-64.957039,-218.579376,0.814134,-1.697010,0.487785
9075034474,179.468475,-28.628746,-62.941715,0.058829,-0.675506,0.926715
9075054435,38.428764,5.978836,-12.360020,1.149956,2.134838,0.707277
9075074396,-40.392212,77.870949,-105.455368,0.248145,2.169875,0.027052
9075094358,14.730600,45.249432,-61.706760,1.382613,-0.431406,-0.909118
9075114319,130.760025,11.457028,-38.208611,0.413508,0.353632,-0.680043
9075134280,21.167299,-20.297647,-6.511178,0.504929,1.066131,-0.309125
9075154241,-79.683853,-16.315136,32.303364,0.693081,0.679072,-0.269193
9075174202,-76.068550,-17.734198,80.927612,0.707501,0.473009,-0.320555
9075194164,-60.363579,8.498157,156.151367,0.916363,0.587695,-0.330258
9075214125,-115.472473,48.856182,256.567261,1.256714,0.900792,-0.086647
9075234086,-237.418854,95.722610,371.058655,1.457456,0.654581,-0.034950
9075254047,-313.780914,94.973572,466.760376,1.339464,0.324286,-0.128320
9075274008,-328.743011,70.032532,463.461975,1.942693,0.531726,1.040384
9075293971,-309.232025,-41.748814,326.621124,1.925978,-0.306142,0.559427
9075313933,226.853241,-42.905151,259.353577,2.700004,0.159198,-0.160582
9075333894,511.593597,103.513901,145.718460,1.863373,2.622235,-0.319353
9075353855,186.315186,69.625557,60.155746,0.325022,3.440434,-0.519963
9075373816,-207.807465,11.065179,60.625679,-0.042323,1.431857,-0.365038
9075393777,-279.923676,-45.175644,73.373413,0.064813,-0.532740,-0.105150
9075413739,-27.867035,-3.628926,107.279633,0.003485,-1.727078,0.387539
9075433700,80.845215,64.901253,84.548149,0.358338,-0.529832,0.146417
9075453661,157.192368,53.385529,106.455078,1.145386,0.868709,0.170908
9075473622,103.979538,86.821190,58.400791,-0.183197,0.558418,0.091158
9075493583,-80.003654,28.551441,75.745354,1.199928,0.583813,-0.233204
9075513551,-83.012688,51.995945,89.080498,1.157796,-0.298860,-0.258402
9075533504,-18.201000,47.323261,92.071793,0.264700,-0.466028,0.434324
9075573427,-91.424393,52.092377,33.186901,1.755634,0.633024,-0.092143
9075593388,-111.564346,28.730574,20.420229,0.814015,-0.244320,-0.091308
9075613349,-101.102150,-2.962663,23.917404,1.195039,-0.356598,0.009674
9075633310,-80.800018,0.194539,26.476692,1.463352,-0.380005,0.283975
9075653271,-81.278557,3.535238,19.252588,1.505892,-0.189199,0.482513
9075673232,-87.550674,-7.765836,-2.031958,1.111717,-0.288691,0.511152
9075693194,-36.048374,-22.777895,-29.730412,1.160280,-0.269862,0.378329
9075713155,15.907637,-14.798695,-44.635620,1.061211,-0.187013,0.254680
9075733116,49.679508,-9.501337,-45.556503,0.593108,-0.150652,0.221641
9075753078,47.217701,-8.550350,-30.447956,0.595703,-0.047527,0.145511
9075773039,14.855914,6.010277,-19.010395,0.339751,0.030034,0.164770
9075793000,-23.400316,4.757002,-7.219571,0.327261,0.117941,0.231033
9075812961,-43.390465,11.431079,12.360969,0.866588,0.021692,0.197335
9075832923,-31.605330,27.804533,27.258278,0.905351,-0.134921,0.144608
9075852884,2.115352,21.191452,21.930399,1.099582,0.019790,0.095370
9075872846,34.321247,21.241335,26.021196,1.228785,-0.039289,0.069112
9075892807,49.506851,15.644699,31.498581,1.272732,-0.247406,0.184422
9075912769,76.186127,14.367377,39.952183,1.164571,-0.484124,0.138053
9075932730,87.527824,9.765631,34.919228,1.327489,-0.005745,0.126740
9075952691,53.558388,-8.008873,17.962273,1.213096,0.237789,0.257974
9075972652,33.727245,-9.436905,-1.256799,1.044749,-0.071484,0.410660
9075992613,42.732086,-27.663958,-19.930468,1.300084,-0.304704,0.494289
9076012574,75.709038,-22.691664,-58.777779,1.389493,-0.009736,0.196239
9076032536,95.146408,-38.565948,-97.183304,0.939723,0.563520,-0.051877
9076052497,72.055611,-49.737450,-141.147675,0.813744,0.859661,-0.353897
9076072458,-2.743872,-80.500687,-169.725693,0.947124,0.473213,-0.223826
9076092418,-37.355717,-83.802139,-179.731735,1.518959,0.229649,0.135229
9076112379,11.592279,-74.829422,-193.213974,1.524723,0.324790,0.317630
9076132340,57.603146,-57.880650,-219.612244,1.378037,0.670378,0.361822
9076152302,51.281136,-59.773155,-236.577454,1.375409,0.721952,0.187911
9076172262,6.099973,-56.809341,-267.642883,1.422755,0.848327,0.160757
9076192224,-4.118907,-53.851070,-280.051788,1.373994,0.196722,0.055980
9076212185,0.278743,-38.683460,-286.472961,1.226098,0.085179,0.124939
9076232146,-1.542711,-10.122369,-287.068115,1.043244,-0.101502,0.271253
9076252108,-14.843142,31.376642,-248.392227,0.548540,-0.709733,-0.011788
9076272069,-30.198298,54.411179,-167.672913,0.080852,-0.978324,-0.267206
9076292030,-47.489212,35.299938,-82.146057,-0.291092,-0.696292,-0.184580
9076311991,-65.724220,10.472071,-8.278708,-0.160555,0.288721,-0.035502
9076331952,-79.996887,-6.684686,104.607430,-0.068015,0.340733,-0.105685
9076351913,-83.117615,-19.596624,201.882294,0.040116,-0.124586,0.145507
9076371875,-63.265682,-11.180620,239.480133,0.779641,0.321507,0.554348
9076391836,-2.908201,-19.038448,243.607498,1.231584,0.611311,0.433590
9076411797,38.842289,-61.666317,225.678070,2.298963,0.771644,0.043767
9076431760,71.323250,-82.442932,179.187103,1.980241,1.894237,-0.116240
9076451721,119.696289,-111.954948,68.813362,0.882909,2.356871,-0.044959
9076471694,165.830399,-124.648659,-84.602127,1.225101,2.744116,-0.841545
9076491643,4.640089,-143.427429,-99.648056,1.198955,2.760190,1.186935
9076511605,-52.332241,-29.523787,-100.788261,2.479704,-2.157144,2.017736
9076531566,-135.943451,30.773569,-109.783836,0.172239,1.200258,-0.161981
9076551527,-88.848434,-76.009323,-130.514053,0.107779,-0.234312,-0.952483
9076571488,140.627548,-76.371246,-176.437653,-0.032760,-0.138220,-0.821135
9076591450,247.925323,-144.317200,-159.148209,0.920912,0.426741,-0.387093
9076611411,142.295975,-133.933395,-121.368416,1.025057,1.242966,0.441584
9076631372,-22.199039,-48.772430,-124.953613,0.971543,0.984707,0.415511
9076651332,-45.693333,0.471819,-138.325607,0.734372,0.308254,-0.211003
9076671293,27.993465,1.623941,-129.113129,0.492671,0.141795,-0.439726
9076691254,120.147774,-2.469014,-104.615036,0.785527,0.063249,-0.313504
9076711216,138.390060,19.500853,-72.385712,0.878804,0.267063,-0.233996
9076731177,134.998962,53.606663,-52.518097,0.654914,0.624092,-0.195597
9076751138,14.100357,61.932354,-48.771069,0.475880,1.141173,-0.201886
9076771099,-126.807922,106.720673,-48.021042,1.023109,1.500856,-0.356371
9076791060,-261.813446,87.309547,-82.453918,0.810794,1.050370,-0.387216
9076811021,-212.900345,10.655397,-71.173073,1.027858,-0.082222,-0.984086
9076830982,-149.244934,-37.946548,-18.932972,0.422482,-0.296721,0.001718
9076850943,-210.483414,-28.254189,81.781754,0.471370,0.176323,0.577571
9076870905,-182.973450,3.108660,129.107803,0.193595,-0.057186,0.481324
9076890866,-91.174599,-44.744953,140.790894,-0.214165,-1.531732,-0.152729
9076910827,126.968506,-66.190933,146.864029,0.716863,-0.823686,-0.655650
9076930788,229.280045,-43.716709,185.237015,1.239277,0.190117,-0.224212
9076950749,114.392654,-3.766341,128.673965,0.450040,1.823250,-0.204609
9076970711,-83.306107,-146.450470,-93.817093,0.257747,6.497352,-0.343342
9076990672,-211.783722,83.558693,-196.101379,1.932123,0.965595,0.186117
9077010635,-33.624275,-22.778721,-199.414032,1.631613,2.123521,-1.394608
9077030596,33.971252,-60.560444,-205.699036,1.662611,0.619994,-1.237190
9077050557,35.044220,-147.256180,-151.149857,1.566826,0.769291,-0.150926
9077070518,-66.510689,-99.213448,-122.300072,1.445753,1.103296,0.338306
9077090479,-140.594696,-63.179436,-102.987709,1.200042,-0.015207,0.353305
9077110440,-45.152809,-65.591782,-77.092392,0.838657,-0.433701,0.421828
9077130404,26.454731,-52.127052,-89.861351,1.128597,0.916014,0.422977
9077150363,-13.503080,-26.150303,-101.158295,1.082618,0.805812,0.475480
9077170324,4.233410,-15.126090,-74.568405,1.042850,0.186687,0.646709
9077190285,53.777058,5.899880,-76.090591,0.833497,0.439090,0.508698
9077210247,83.493492,10.794489,-75.741661,0.653497,0.468650,0.195485
9077230206,92.523178,7.267058,-68.375183,0.578958,0.657869,0.096496
9077250168,110.577415,-7.410918,-62.654648,0.446846,0.452669,-0.205073
9077270129,112.980606,-16.914244,-87.563721,0.415970,1.363605,-0.269461
9077290090,16.663475,-24.857054,-105.955704,0.513824,2.013872,-0.345977
9077310051,-71.707306,-25.536274,-85.003967,0.257055,0.947140,-0.310630
9077330012,-82.861816,-46.966949,-27.374811,0.037954,0.365927,-0.427970
9077349973,-141.992294,-49.288334,2.411424,-0.144333,1.045612,-0.394184
9077369935,-182.198288,-69.268021,9.586662,-0.431963,0.592481,-0.360803
9077389896,-83.282730,-104.252876,10.550212,-0.448318,0.749269,-0.242832
9077409857,-30.375225,-134.904510,24.553230,-0.168497,1.345113,-0.176067
9077429818,-42.204067,-162.093063,43.004635,0.019145,1.399385,-0.192091
9077449779,-57.620075,-181.870071,50.420868,-0.073745,1.184232,-0.170146
9077469740,-61.851879,-209.203735,73.048996,-0.058487,0.797474,-0.176189
9077489702,-23.362719,-227.889816,110.923492,0.041477,0.341562,-0.363490
9077509663,28.373997,-251.040619,158.130264,0.311559,0.320949,-0.357288
9077529624,45.571465,-239.508148,183.237701,0.578840,0.675260,-0.356004
9077549585,31.589338,-249.535782,125.117126,0.605512,1.711630,-0.797386
9077569548,-68.327148,-173.652847,58.008148,0.850935,2.104861,-0.163168
9077589509,-201.739761,-158.715317,118.806671,1.129575,0.111580,-0.220931
9077609470,-60.507980,-160.294022,98.974083,0.602003,0.035261,-0.878719
9077629431,-95.839111,-187.163605,98.882294,0.687040,0.178821,-0.175420
9077649393,-186.287628,-196.326447,65.590744,1.078229,-0.118977,0.064196
9077669354,-197.295395,-201.336594,3.768870,1.409223,0.175769,0.476218
9077689315,-158.836136,-191.183365,-32.950623,1.311467,0.011964,0.425477
9077709276,-15.984053,-164.294434,-33.960720,1.309687,-0.254741,0.181396
9077729238,113.164352,-139.760803,-25.427156,1.340109,0.380857,0.017375
9077749199,122.828773,-115.094933,-23.656160,1.286012,0.903615,-0.034433
9077769160,29.737480,-94.033447,-26.089947,1.197777,0.934337,0.014896
9077789123,-52.949070,-86.714363,-34.805969,1.132224,1.014685,0.086137
9077809081,-84.752060,-65.231598,-32.954750,1.166462,1.035149,0.223205
9077829042,-82.920662,-12.937568,-17.483736,1.152885,0.477555,0.474587
9077849004,-12.462290,45.715553,1.779172,0.833600,0.000847,0.514422
9077868965,81.039886,86.677277,11.141829,1.092405,0.144252,0.234710
9077888926,84.841034,112.361900,-0.268113,1.137279,0.306312,0.097287
9077908887,46.938152,112.579849,-1.258886,0.885337,0.144191,-0.071959
9077928849,55.149681,94.144493,18.733185,0.732779,0.217590,-0.264366
9077948810,52.854225,82.632858,61.364937,0.662745,0.006334,-0.289236
9077968771,14.780846,80.223312,107.151062,0.807332,0.455834,-0.118653
9077988732,-25.322849,94.436966,119.049278,1.033449,1.453408,-0.162080
9078008693,-78.602074,104.106483,149.542725,1.211553,1.453106,-0.990294
9078028654,-120.686852,73.240067,257.097992,1.287558,0.678927,-0.536208
9078048616,-167.777512,78.674515,376.824158,1.333012,0.570690,-0.035311
9078068577,-144.711395,100.709435,437.582764,1.503063,-0.005585,0.006933
9078088538,-88.878464,128.964615,463.301361,2.678598,-0.340191,-0.373437
9078108499,-66.279137,115.325981,380.869202,1.565145,0.079575,-0.255035
9078128461,74.435127,-49.602127,272.027527,2.982062,4.631913,-0.519888
9078148423,138.721039,124.749878,50.808784,1.574317,3.607982,0.815138
9078168384,-74.731987,12.100294,-37.188618,0.436112,1.142334,0.397281
9078188346,-33.123661,-18.010761,-29.439472,0.599285,-0.695655,-1.931309
9078208307,-71.692833,-39.461700,91.485870,0.648400,-0.424456,0.073427
9078228268,-140.864578,10.451923,118.876450,0.847226,0.951292,1.363280
9078248229,4.860616,-32.250744,51.413128,0.640875,-0.753779,-0.117828
9078268195,168.328873,33.254967,82.493881,0.783642,-0.140610,-0.237897
9078288152,87.974831,74.460190,103.121132,-0.345316,1.055895,0.746427
9078308113,-69.869644,33.459019,70.375427,-0.116533,0.094554,-0.135142
9078328074,2.169160,37.577850,69.848389,0.788910,-0.059315,-0.169925
9078367995,6.417346,44.127125,73.510742,1.318539,-0.087406,-0.037364
9078387956,21.203650,77.844048,91.496117,0.551082,-0.424134,0.038946
9078407917,-6.620324,31.198246,82.753654,0.698542,0.079354,0.285736
9078427878,19.659512,26.461740,42.175919,1.482106,0.457425,0.462469
9078447840,58.056614,39.785919,20.258429,1.119933,0.176786,0.234955
9078487762,-55.331806,-7.112265,-0.249203,1.447219,0.307846,-0.187996
9078507723,-33.873066,-9.910633,-11.368487,1.237735,0.091282,0.009495
9078527684,-5.933536,-5.982045,-17.687490,1.039291,0.256013,0.112887
9078547645,-19.914627,-8.208738,-23.968863,1.216279,0.309695,-0.007225
9078587568,-66.766525,-9.775064,-26.382996,0.794071,0.044313,-0.066624
9078607529,-74.251839,-12.714839,-17.751408,0.952632,0.021995,0.111033
9078627491,-57.336754,-1.541658,-12.824628,1.206530,0.020592,0.170077
9078647452,-21.856749,9.153600,-8.071054,1.031312,-0.060437,0.086963
9078667413,-7.995313,17.459480,-11.855135,0.930769,0.274336,0.039477
9078687374,-42.139801,11.830523,-6.267499,1.083752,0.387272,0.032146
9078707337,-47.581017,15.579702,3.924263,1.190525,0.093548,0.012963
9078727298,-27.894655,14.321465,10.768544,1.261353,0.025251,0.036234
9078747259,-15.327191,22.345552,8.498491,1.144200,0.151966,0.158495
9078767221,-11.025954,20.616644,6.488916,1.001973,0.100074,0.226581
9078787182,-1.557316,16.333805,2.010908,0.943707,-0.024819,0.254148
9078807143,27.544121,12.927970,-0.331623,0.998853,-0.172246,0.250654
9078827110,75.622169,10.863400,-1.399141,1.084914,-0.035141,0.114213
9078847065,96.432556,15.500243,-7.203915,1.025736,0.342301,0.067424
9078867026,56.258224,12.455420,-11.908540,1.058305,0.580511,0.044086
9078886987,-2.448137,3.441072,-19.397675,1.135305,0.389703,0.011106
9078906949,-14.467582,-8.836876,-32.654976,1.169519,0.274160,0.041036
9078926908,23.812355,-10.565492,-52.311485,1.139539,0.215116,0.134701
9078946870,45.325649,-22.517147,-76.895714,1.065817,0.616423,0.099639
9078966831,-19.948320,-46.158165,-107.243988,0.879078,0.900035,0.048223
9078986792,-59.374924,-66.271248,-130.977646,0.866669,0.417882,-0.061122
9079006753,-25.085634,-67.806061,-151.361053,1.124685,0.142302,-0.025377
9079026714,-4.059038,-70.168633,-165.776215,1.212172,0.428144,0.064884
9079046675,-2.009787,-82.883301,-196.032211,0.983272,0.603798,-0.014221
9079066637,-25.062935,-98.111298,-230.169647,1.152268,0.520971,-0.026247
9079106559,84.005447,-126.248322,-230.290848,1.253447,0.102684,0.203923
9079126520,95.521149,-113.939270,-225.019333,1.445395,0.720683,0.424519
9079146481,33.769718,-74.765289,-209.215149,1.346660,0.460184,0.493087
9079166443,20.585501,-26.073803,-186.290024,1.013556,-0.075506,0.318546
9079186404,4.127344,54.442085,-139.516647,0.782927,-0.194912,0.325742
9079206365,-32.514153,94.884064,-77.495361,0.210918,-0.447012,-0.032118
9079226326,-35.624466,64.351479,-21.624714,0.083616,-0.246006,-0.089651
9079246287,-28.036310,36.075325,16.184761,0.099947,0.437368,-0.490381
9079266250,-94.528000,19.985634,92.862228,0.025690,0.342108,-0.044708
9079286211,-210.522934,40.234138,144.914230,0.824273,0.460909,0.620633
9079306173,-181.161514,64.815384,147.228561,0.764059,0.382067,0.326781
9079326134,-0.304783,1.211019,156.201355,0.854051,0.279827,-0.255148
9079346095,208.759262,-50.081402,119.241920,1.273424,1.829452,-0.951614
9079366056,65.533760,-57.666290,30.704844,0.596343,3.719487,-0.633567
9079386017,-45.175388,-178.147568,-112.480637,0.980432,1.618015,-0.505774
9079405978,113.349075,-189.338318,-213.805115,0.376929,0.795649,-0.926263
9079425940,330.520050,-281.090698,-182.372589,3.148201,0.027450,1.748618
9079445901,156.512894,-39.338554,-107.786682,1.257954,1.413530,1.374715
9079465862,-178.097321,-0.809002,-134.693314,0.570851,1.201090,0.650758
9079485822,-115.009895,24.531649,-132.291412,0.229087,-0.176146,-1.166026
9079505783,150.031342,-27.552561,-137.652100,0.181647,0.065197,-0.944379
9079525744,177.011551,-48.306160,-87.365913,0.523657,0.733643,-0.225387
9079545705,68.414406,-10.489687,-53.431641,0.526428,0.898814,0.044507
9079565667,-49.710632,72.216721,-39.260090,0.578237,0.978185,0.051078
9079585628,-146.120575,87.190147,-45.217236,0.450807,0.744655,-0.170354
9079605589,-180.616364,56.519482,-58.361954,0.758172,0.421931,-0.165805
9079625550,-157.902145,22.935947,-75.244560,0.987847,0.429744,-0.314522
9079645511,-138.411850,-19.782539,-33.966534,0.956895,-0.045525,-0.083839
9079665473,-168.421509,4.170597,34.089363,1.076645,0.114089,0.747502
9079685434,-180.766739,35.536926,87.878914,0.264522,-0.050288,0.829731
9079705395,-54.654545,-2.038249,144.581757,-0.196757,-1.502108,0.244863
9079725356,161.009827,-8.989756,146.488785,0.301616,-1.468609,-0.394541
9079745318,270.659821,51.339649,157.788391,0.732852,-0.178577,-0.047796
9079765279,171.209213,109.999306,190.188690,0.570120,0.294961,0.418081
9079785240,48.604527,-21.631432,129.492661,0.569012,3.243602,-1.351399
9079805201,-62.861954,-44.230797,-211.067627,2.453400,6.739567,-0.177459
9079825164,-139.546051,20.975956,-289.809509,1.688577,0.679651,-0.719002
9079845125,66.159660,-0.787488,-204.589142,1.331764,-0.395570,-1.678290
9079865086,122.083458,-128.216156,-78.882332,1.101595,1.231615,0.509102
9079885047,-99.147751,-17.440226,-92.324272,0.839341,2.186441,0.478818
9079905008,-142.381699,-46.874401,-132.108185,1.228684,1.055386,0.227657
9079924970,-19.462875,-53.546574,-123.525818,1.333338,-0.594022,0.195583
9079944931,86.915779,-48.850456,-85.165924,1.259310,0.492510,0.484854
9079964892,14.719821,-37.931568,-68.450897,0.698214,0.636201,0.583396
9079984853,1.716996,-12.869051,-37.953590,0.517967,0.194993,0.556994
9080004815,11.192561,16.913147,-18.553074,0.806067,0.752346,0.608240
9080024776,23.332628,24.902794,-27.252720,0.869223,0.811904,0.218496
9080044735,43.634560,19.445862,-12.294639,0.783787,0.538786,0.198000
9080064697,37.937740,19.352959,0.467242,0.642017,0.688260,0.323808
9080084658,-2.256029,28.066526,3.842881,0.519153,0.615060,0.409353
9080104619,4.090116,19.768063,-16.971857,0.402097,0.864498,0.195955
9080124580,81.824371,-1.359235,-67.615929,0.445660,1.047127,-0.146081
9080144541,134.519745,-40.079597,-72.711693,0.358889,0.821348,-0.349409
9080164502,63.358250,-79.292168,-80.621864,0.266923,1.703532,-0.185153
9080184464,-72.033028,-109.175446,-93.175270,0.030226,0.813602,-0.309871
9080204425,20.968359,-169.437943,-70.920364,0.120392,-0.528674,-0.633904
9080224386,160.350388,-192.926178,-18.277817,-0.067806,0.764079,-0.602255
9080244347,112.329430,-188.859100,40.534729,-0.101000,1.903495,-0.198272
9080264309,-14.454544,-155.982544,58.630318,-0.509902,1.798695,-0.512482
9080284270,-19.037628,-146.632141,30.763237,-0.786590,1.461369,-0.944666
9080304231,-21.816412,-154.059280,42.832321,-0.310007,1.791584,-1.100510
9080324192,-127.106934,-169.538651,66.664597,-0.091856,1.533798,-1.225328
9080344154,-187.648865,-202.820404,101.387611,0.099986,0.610230,-1.171076
9080364115,-191.073303,-256.481293,137.081177,0.465872,0.234731,-0.773751
9080384077,-217.299194,-275.796661,197.799393,0.831293,0.048350,-0.286650
9080424000,-129.601852,-206.951920,233.527512,1.000978,0.024376,0.140292
9080443961,-95.082527,-168.968384,181.217880,1.103408,1.252798,0.112214
9080463922,-148.319427,-141.609818,16.090767,0.719601,2.243485,0.204323
9080483883,-227.542587,-161.412170,7.942801,1.011967,-0.951408,0.045017
9080503844,-65.167686,-144.028519,-29.508820,0.836878,-1.085272,-0.107983
9080523806,74.632065,-178.611267,-13.323016,0.542354,-0.350318,-0.078982
9080543767,114.219017,-200.620926,-3.930578,0.984516,0.600197,-0.259915
9080563728,68.221512,-194.613754,-1.731255,1.077213,0.927653,-0.273049
9080583689,1.258957,-173.699081,5.886421,1.086207,1.072564,-0.234553
9080603649,-62.255604,-171.484512,-3.426486,1.099989,0.872149,-0.086320
9080623610,-96.600609,-170.001617,-27.653759,1.210793,0.926276,0.300017
9080643571,-101.340897,-130.957672,-46.283882,1.442192,1.494150,0.546016
9080663533,-96.878838,-57.993168,-45.315662,1.127871,1.172085,0.609361
9080683494,3.554525,5.342196,-32.540714,0.781766,0.574891,0.415647
9080703455,119.599609,37.010967,-17.519049,0.842520,0.637651,-0.161235
9080723417,96.756561,50.356125,-20.490868,1.016001,0.735564,-0.155650
9080743378,3.920183,36.278557,-13.369355,0.931573,0.249214,-0.142767
9080763339,-5.652898,33.190136,-2.566286,0.741066,0.791102,-0.064348
9080783300,-17.468161,63.987206,11.214496,0.862927,0.689548,0.058204
9080803262,1.070227,84.890656,39.294983,0.815153,0.343372,0.010182
9080823223,-5.996939,97.822723,78.876610,0.677312,0.618218,-0.083994
9080843184,-62.429901,96.462700,137.062317,0.807503,0.526238,-0.171435
9080863145,-120.363670,116.725822,216.620453,0.895001,0.625293,-0.098785
9080883106,-99.820526,157.632935,271.794617,1.265992,0.920401,0.061360
9080903067,-101.374924,197.574173,329.637024,1.517253,0.291399,-0.000950
9080923029,-74.721390,193.016052,419.324890,1.548442,0.007891,-0.494662
9080942991,10.607870,156.982712,467.033813,1.401030,0.532531,-0.776322
9080962952,-140.049332,106.849037,378.414337,1.317499,1.082089,-1.204920
9080982913,-179.990509,-98.535461,297.238403,2.403336,3.210408,-0.412969
9081002874,-131.135010,16.414278,153.120346,1.366889,3.048542,1.767541
9081022836,-72.767822,-14.175757,-0.736451,0.844036,-0.514913,0.970904
9081042797,58.135826,38.330006,-0.101524,1.165229,-0.035110,-1.009475
9081062758,113.513130,29.935345,12.745571,0.307401,0.882684,-1.066012
9081082719,17.307785,2.315773,30.759407,0.507063,0.873961,0.208743
9081102680,-192.767548,-11.213736,74.840157,1.076840,0.677083,1.186399
9081122642,-183.986832,-0.430043,81.152267,0.508860,-0.119944,0.223053
9081142603,25.462040,21.480440,100.231178,0.198822,-0.965838,-0.087949
9081162563,186.629501,88.102913,119.577026,0.394749,-0.503478,-0.083460
9081182524,48.237667,100.944031,132.366776,0.458552,1.230213,0.585935
9081202485,-177.518753,80.526306,99.881989,0.003675,1.031462,0.715073
9081222446,-149.477829,53.872971,77.413216,0.875327,-1.208159,-0.783403
9081242408,38.905750,22.030546,137.796829,0.214343,-1.311240,-0.343081
9081262369,78.245232,96.212830,100.301514,-0.531285,0.378252,1.220171
9081282330,-161.138367,14.485012,133.215698,1.626954,-0.526010,0.952753
9081302291,66.217644,48.522694,73.921890,3.044387,-0.661131,-0.441879
9081322253,250.077667,79.222389,13.897329,0.542136,1.420951,0.093065
9081342213,-38.494255,9.429614,-6.919732,1.463897,1.264790,0.056070
9081362175,-170.797592,-20.099850,6.196336,2.026631,-0.334289,-0.057942
9081382136,-62.370232,-34.908924,3.343693,1.747074,-0.755481,-0.053984
9081402097,38.026608,-11.893761,-28.560799,0.889048,-0.017779,0.373778
9081422058,7.990173,-17.662451,-32.939453,0.664358,0.146289,0.319709
9081442019,-41.897732,-13.030997,-36.503700,0.539412,0.167113,0.244136
9081461980,-72.156326,-20.043568,-28.297993,1.050694,0.151778,0.091765
9081481942,-59.003250,-2.014502,-34.937386,0.887371,0.051168,-0.060199
9081501904,-35.184258,11.139183,-28.791620,0.771430,0.134733,-0.078264
9081521866,-41.316586,17.859562,-9.552414,1.043299,0.101623,-0.011542
9081541827,-50.559063,34.795502,13.364878,1.013955,-0.046737,0.010566
9081561788,-50.242878,26.530529,33.459854,1.059789,-0.066151,0.101785
9081581749,-53.201851,28.467100,34.980244,1.240938,0.173609,0.283668
9081601710,-60.103413,25.711826,34.225384,1.072036,0.018620,0.288299
9081621672,-35.879963,16.555346,38.569187,1.010630,-0.183177,0.182752
9081641633,10.424772,10.799906,25.942652,1.325232,-0.124933,0.304583
9081661594,25.692778,11.236790,10.365856,1.123655,-0.112483,0.516225
9081681555,1.173349,2.359636,-6.907099,1.110142,0.044613,0.595086
9081701516,-14.234152,-2.397091,-18.016268,1.312273,-0.082257,0.422846
9081721484,15.699059,-11.583267,-34.395409,1.134968,-0.266970,0.259619
9081761398,-34.558804,-66.413101,-71.629715,1.244745,0.320747,0.334052
9081781360,-87.804558,-80.273842,-127.954193,1.332841,-0.035417,0.215108
9081801321,94.482208,-73.801605,-163.229050,0.880933,-0.227579,-0.086439
9081821282,240.403748,-32.637901,-185.561401,0.430436,0.732419,0.066689
9081841243,92.734467,-58.411396,-223.502563,0.733910,1.192265,0.211788
9081861204,-10.447693,-76.796196,-234.145264,1.456573,-0.094325,-0.083437
9081881166,66.593094,-70.640160,-223.456848,1.121802,-0.029454,-0.073975
9081901127,62.341599,-81.548355,-235.294067,1.042130,0.812240,0.040358
9081921088,2.922148,-86.033325,-249.235703,1.142806,0.564482,0.095709
9081941049,38.041660,-82.202629,-239.957382,1.124954,-0.053781,0.154682
9081961010,65.365494,-78.480659,-221.544235,1.137170,0.272035,0.264763
9081980972,73.173546,-46.921703,-198.637985,0.881456,-0.123562,0.600477
9082000933,93.153282,3.431201,-166.695770,0.773083,-0.254390,0.522228
9082020894,35.590668,83.682663,-135.107651,0.561580,0.022399,0.122886
9082040855,-28.530376,97.908432,-72.386627,0.214081,-0.203028,-0.172740
9082060818,-60.801762,47.796627,-23.269360,0.218305,0.280810,-0.308621
9082080779,-41.060844,5.124957,11.467361,0.320400,0.168083,-0.492126
9082100740,-126.348351,-1.927475,104.887337,0.625489,0.592026,0.376440
9082120701,-194.861282,54.142956,161.854401,0.747383,0.742829,0.599671
9082140663,-101.656799,23.516685,169.319458,0.707219,0.064584,0.095909
9082180585,147.639526,-30.572365,99.088593,1.217213,2.824489,-0.684194
9082200546,25.849276,-83.200844,-8.071367,0.595416,3.157637,-0.160421
9082220507,61.071918,-121.664116,-139.368866,0.307483,1.413680,-0.627321
9082240468,104.235664,-181.790543,-192.520264,0.065280,1.630011,-1.092528
9082260430,162.436707,-247.741974,-142.693298,3.285200,-0.989693,2.302963
9082280394,87.001030,-31.441027,-91.680611,1.038891,1.011593,0.449361
9082300351,-102.757851,-51.487679,-116.958504,0.578890,0.885509,0.484059
9082320312,-31.139042,-13.500940,-120.330444,0.235712,0.123207,-1.035763
9082340273,123.484406,-62.949120,-136.070389,0.092978,0.476566,-0.662074
9082360234,129.611221,-89.155769,-96.325951,0.437158,0.402370,-0.263800
9082380195,62.943775,-70.234077,-58.384617,0.257449,0.586746,-0.202548
9082400157,22.619938,-51.943161,-31.268866,0.276182,0.423908,-0.384574
9082420118,79.037628,-45.393238,-16.323223,0.436391,0.506742,-0.176009
9082440079,114.438972,-12.178297,-10.943286,0.840254,0.605250,0.027388
9082460041,73.686729,34.666458,10.428728,0.599811,0.939177,0.040729
9082480002,44.944439,86.165466,31.985264,0.897493,0.763145,-0.012941
9082499963,10.631032,145.652893,42.582699,0.901739,0.856515,-0.177029
9082519924,-108.333298,144.993576,21.258955,1.034757,1.616178,-0.051441
9082539885,-251.675735,97.677002,-5.251600,1.204268,1.650033,-0.302039
9082559846,-254.375565,33.940369,-5.658579,1.101862,0.582404,-0.834986
9082579807,-184.921585,-4.119043,4.106995,0.579961,0.196772,-0.335488
9082599769,-201.902740,-17.721848,34.899399,0.618815,0.204849,0.587548
9082619732,-204.818771,-0.823752,75.429909,0.646768,-0.168298,0.794327
9082639693,-17.180113,20.566847,96.304512,0.542991,-1.349736,0.596506
9082659654,108.368927,59.142311,115.764290,0.597184,-0.853250,-0.212797
9082679615,190.750717,71.936829,130.831940,0.601728,-0.360552,-0.264676
9082699576,175.781952,74.479385,123.470085,0.658471,0.167476,-0.325191
9082719538,93.375267,58.278656,97.463509,0.324579,0.889456,-0.509147
9082759459,-71.332642,45.674458,-115.375732,1.445430,2.444613,0.293109
9082779421,-41.067139,-8.845133,-221.787491,1.218651,2.344540,-0.558017
9082799382,34.794140,-13.862556,-277.842743,1.624100,0.596763,-0.863343
9082819343,85.060287,-64.968399,-195.012268,1.155985,0.240044,-0.667661
9082839305,32.734818,-73.777588,-154.864670,1.539621,2.046349,0.227418
9082859264,-137.608673,-50.671936,-171.050766,1.086620,0.897749,0.281542
9082879226,-77.301422,-69.293716,-127.085884,1.191683,-0.472339,0.348073
9082899187,28.878914,-62.030071,-98.019928,1.124478,0.211303,0.472964
9082919148,31.635036,-46.656765,-57.931343,0.948513,0.432688,0.450630
9082939109,-10.809738,-23.755735,-22.124439,0.687978,0.440134,0.514390
9082959071,-22.944099,-4.650838,-10.535755,0.859331,0.837086,0.541536
9082979032,1.738325,2.781993,-30.334373,0.905573,0.947565,0.358815
9082998993,30.879032,7.270952,-20.887041,0.787071,0.389686,0.310870
9083018954,46.044544,14.154248,-11.550183,0.656770,0.624769,0.424740
9083038916,28.792217,11.436568,-10.062483,0.598495,0.628013,0.300593
9083078838,13.146277,2.626009,0.827732,0.448447,0.548718,0.167283
9083098799,-6.921181,-9.166885,49.290558,0.283098,-0.134597,0.067990
9083118760,-38.524971,-16.548405,83.539230,0.326376,0.454060,0.035101
9083138721,-105.588959,-16.675850,61.232620,0.076414,1.125980,-0.131106
9083158682,-109.029556,-63.301369,-26.875259,0.758757,1.893736,-0.132533
9083178643,53.125290,-95.920204,-132.481689,0.516460,1.444764,-0.112139
9083198606,148.645737,-164.444458,-137.748093,-0.293481,2.334277,-1.100354
9083218567,33.659191,-181.228516,-116.291031,0.468743,1.742061,0.473745
9083238528,-81.489471,-171.034195,-66.900246,-0.437661,0.345918,-0.386190
9083258490,-40.554123,-188.682556,-42.270336,-0.553800,0.778805,-0.666684
9083278451,45.506428,-200.676605,6.672523,-0.279677,0.394877,-1.154478
9083298412,78.438789,-220.411499,92.533241,-0.162176,0.791989,-0.874350
9083318375,-16.242634,-236.098465,135.769058,0.138705,1.219506,-1.077537
9083338334,-71.511261,-252.570847,138.669571,0.646241,1.010846,-1.162520
9083358296,-111.347549,-262.134827,167.520996,0.774090,0.500367,-0.628390
9083378257,-153.939545,-253.856522,177.492157,0.931257,0.784290,-0.501852
9083398218,-149.772797,-238.739532,183.296814,1.322047,0.341147,-0.504910
9083418178,-195.720993,-177.055038,152.543350,1.219947,0.751153,-0.051542
9083438139,-322.172882,-159.451996,120.853577,1.047524,-0.060385,0.288779
9083458100,-318.942627,-182.960846,57.216640,1.320946,-0.678046,0.471010
9083478061,-195.710602,-189.202667,0.773336,1.327058,0.022466,0.626655
9083498023,-56.508049,-161.542236,-11.854185,1.345962,0.044080,0.613717
9083517984,95.683418,-119.359200,-1.555646,1.504639,-0.028607,0.423492
9083537945,203.409500,-84.015076,-6.132463,1.383599,0.663765,0.068540
9083557906,171.308334,-61.336262,-11.251093,1.235965,1.076567,-0.153104
9083577867,11.122545,-47.098122,-15.224552,1.131891,1.083643,-0.084647
9083598260,-106.023308,-48.256775,-28.625784,0.998587,0.601084,0.103392
9083618222,-116.424438,-45.157562,-39.320320,0.883857,0.392561,0.171725
9083638183,-65.785347,-25.531755,-32.010315,0.900610,0.322291,0.214525
9083658144,-9.247168,19.739849,-10.618016,0.802887,0.270635,0.268034
9083678106,37.503353,53.303490,0.855254,0.937949,0.340365,0.115383
9083698067,39.737545,64.843307,-1.575631,1.183602,0.202055,0.111864
9083718028,-10.397352,68.575546,4.848311,0.894385,0.327946,-0.031366
9083737989,-21.027075,57.674946,31.840187,0.787678,0.333759,-0.051358
9083757952,-14.131496,56.957855,64.217705,0.743694,0.346577,-0.082425
9083777913,3.379022,47.657619,107.237946,0.717218,0.097241,-0.163059
9083797874,34.251125,65.202560,167.520554,0.871775,0.643291,-0.252217
9083817835,-27.223125,96.425232,245.669327,1.174224,0.857201,-0.117405
9083837796,-116.649391,108.979317,348.115662,1.650866,0.487385,0.025518
9083857758,-158.409836,128.048569,445.753906,1.888380,0.117805,0.014984
9083877719,-120.585274,145.860931,495.069641,2.015209,-0.169335,-0.634725
9083897680,-91.492363,117.832855,467.605011,2.190357,-0.578601,-0.138994
9083917641,128.805878,-25.423679,317.768250,2.296004,1.774725,-1.036229
9083937603,120.201027,58.079224,146.549698,2.855058,5.743210,0.425564
9083957563,14.074207,54.535995,20.523636,0.417310,1.569869,1.238629
9083977523,-115.669037,-10.029383,-75.237885,0.695311,-0.410060,-0.650436
9083997484,-11.738868,-11.459254,-12.636353,0.988319,0.135780,-1.614524
9084017446,44.816750,-23.494762,25.599066,0.245234,0.085899,-0.595877
9084037407,-32.793106,-57.102501,75.240074,0.696536,0.166704,0.694775
9084057368,-108.895798,52.542110,134.037308,1.067296,0.264222,1.342328
9084077329,-162.643600,19.529512,90.649384,0.120647,-0.245086,0.136574
9084097291,13.264060,75.198433,113.255455,0.476298,-0.368780,-0.207378
9084117252,45.635674,110.031189,120.368515,-0.562914,-0.785934,0.823236
9084137213,46.281143,12.790792,115.696701,1.113263,0.280663,-0.742506
9084157174,119.324280,71.323441,56.850529,1.710974,1.243069,-0.851665
9084177135,-28.613688,85.975594,73.894058,-0.502227,0.278894,1.638939
9084197097,-137.276932,-13.686913,56.402813,2.486784,-0.385264,-0.091375
9084237019,96.964767,44.259918,60.323391,-0.331483,-0.183456,0.164516
9084256980,-21.806984,3.874290,36.426125,1.410700,0.809088,0.664751
9084276941,-64.493378,12.727411,10.839715,1.528632,-0.565492,0.650637
9084296902,72.220665,6.963496,-9.836389,1.021018,-0.815972,0.200320
9084316865,109.452515,-6.296476,-28.522863,1.392573,0.340584,0.010710
9084336826,41.721237,-4.601133,-38.015892,1.056727,0.452274,0.138039
9084356787,16.335415,-19.790213,-37.765919,0.888546,-0.047159,0.098242
9084376748,52.803146,-9.143184,-32.735790,1.161695,0.105053,-0.010155
9084396710,40.684223,-0.823079,-29.152948,0.862410,0.282456,-0.006985
9084416671,8.068682,-2.487398,-19.923267,0.515855,0.165073,0.093940
9084436632,-15.455372,1.632820,-5.238168,0.868425,0.085261,0.144604
9084456594,-14.768306,11.140240,7.765733,1.108337,-0.047065,0.117297
9084476555,30.511112,9.171964,19.818504,0.978566,-0.131207,0.021317
9084496516,62.595230,7.543619,17.407278,0.993194,0.197875,-0.016769
9084516480,43.292973,5.817537,17.118389,0.887803,0.446298,0.063464
9084536437,3.837542,6.455366,18.239304,1.373424,0.368646,0.126094
9084556398,-1.528044,12.081303,5.151787,1.359042,0.263303,0.023290
9084576359,12.408346,11.996774,-10.883993,1.224069,0.403761,0.009590
9084596320,8.508634,6.458682,-21.657978,1.212449,0.413657,0.012948
9084616281,-12.464842,1.801006,-30.182520,1.239600,0.448074,0.085914
9084636242,-22.468081,-6.363244,-63.111061,1.282701,0.679775,0.022626
9084656204,-43.810711,-29.615973,-99.067520,1.110714,0.882870,-0.079105
9084676165,-101.020256,-51.263367,-112.346313,1.110112,0.754974,-0.141675
9084696126,-142.820648,-66.990776,-122.190567,1.300893,0.504247,-0.057669
9084716087,-114.886147,-58.354954,-139.908340,0.996004,-0.036770,-0.054125
9084736048,-99.528465,-70.642555,-144.772339,1.144244,0.308900,-0.100323
9084756010,-131.549545,-85.259987,-180.723877,0.962305,0.308096,-0.085161
9084775971,-96.071632,-95.871452,-216.245819,1.066771,-0.150730,0.072792
9084795932,-29.851624,-114.798317,-246.166626,1.019669,-0.628153,0.287734
9084815893,78.603546,-143.120117,-252.148560,1.314711,-0.933996,0.325291
9084835855,133.578522,-114.076599,-232.816681,1.518011,0.130550,0.469575
9084855817,85.159973,-71.039429,-207.282562,1.093851,-0.284226,0.580141
9084875778,108.401108,-38.568249,-178.976135,0.631323,-0.479968,0.094421
9084895740,170.768692,-21.512466,-137.858231,0.512866,-0.061520,-0.006214
9084915701,188.659912,7.455445,-94.142563,0.569150,0.219409,0.204850
9084935662,153.240875,65.178940,-36.165462,0.576129,0.154376,0.175993
9084955624,49.036682,108.139725,10.153979,0.515626,0.545302,0.117940
9084975585,-62.804173,121.273788,29.231598,0.631885,0.863153,-0.281071
9084995546,-162.645844,91.161469,49.855488,0.937975,1.123619,-0.447642
9085015507,-191.484940,71.141571,73.916840,0.465881,0.277059,-0.570557
9085035469,-231.959564,30.852259,123.599472,0.506797,0.121391,-0.146187
9085055430,-263.602142,21.439459,191.274826,1.437114,0.100250,0.503555
9085095351,86.741165,-19.654919,102.840286,1.798483,0.460131,0.125015
9085115312,287.637115,-1.227133,6.969687,1.516500,2.634826,-1.190826
9085135273,103.386063,-73.474487,-81.363472,0.593288,3.653125,-0.847715
9085155234,-51.140961,-156.766296,-195.272064,0.536525,0.919928,-0.668759
9085175195,52.960419,-178.490997,-210.089600,1.325925,0.558361,0.229660
9085195156,83.905144,-82.726166,-204.499084,2.113603,-1.165102,1.393490
9085215118,74.307076,-88.781509,-164.130936,0.413038,0.294389,0.242647
9085235079,63.634396,-62.221233,-152.730713,0.746359,0.075897,-0.458672
9085255040,56.311207,-70.291679,-127.477684,0.262166,0.894561,-0.384345
9085275001,38.474731,-82.664528,-121.628761,0.462777,0.438095,-0.245611
9085294962,53.963951,-48.323872,-98.708862,0.428054,0.078003,-0.123062
9085314924,61.460304,-38.734684,-57.055328,0.319332,-0.129408,-0.310430
9085334885,139.890060,-28.677479,-10.379157,0.530235,-0.010760,-0.047340
9085354846,152.279648,22.659695,29.983498,1.008454,0.649088,0.030028
9085374807,31.731565,71.405411,22.932261,0.626825,1.435874,-0.094853
9085394768,-102.941383,113.706322,10.667997,0.711358,1.439259,0.003896
9085414731,-237.973862,123.416550,-15.240042,0.677697,1.403461,-0.012617
9085434692,-275.004822,45.577179,-30.106152,1.150866,0.809758,-0.594130
9085454653,-185.811386,16.983181,-20.585478,1.014368,-0.039031,-0.544575
9085474614,-123.306549,0.779565,-25.932924,0.707141,0.127877,0.054075
9085514537,-176.918961,2.635101,47.345043,0.687016,0.174193,0.385414
9085534498,-141.431824,-13.346754,75.157188,0.494368,-0.271419,0.384809
9085554460,-34.702740,-6.978357,109.910767,0.765934,-0.595251,0.356575
9085574421,104.073761,20.621475,145.656815,0.776894,-0.442206,0.330957
9085594382,151.243118,46.093449,146.488052,1.063760,-0.007877,-0.038149
9085614343,128.907578,76.006973,135.433182,0.925279,0.891270,-0.307658
9085634319,28.149635,60.643925,69.694862,0.198354,1.863511,-0.265341
9085654264,-78.017853,-22.886621,-21.922829,0.490957,2.442077,-0.221097
9085694186,-74.543282,-11.371033,-64.489975,1.453782,1.525819,-0.414446
9085714147,3.354751,-49.123886,-59.022911,1.987508,1.309712,-0.119372
9085734108,-17.737402,-59.234123,-71.417885,1.341307,1.426597,-0.092889
9085754070,-68.244690,-82.983955,-94.636299,1.059096,1.723601,0.001609
9085774031,-108.166977,-59.740528,-81.096481,0.920327,0.215314,-0.088054
9085793992,-94.133133,-48.710911,-35.105122,0.522900,-0.674155,-0.245413
9085813953,-66.729004,-60.334312,10.448208,0.618197,-0.480171,-0.177818
9085833914,-94.700508,-71.179977,56.029877,0.742834,-0.294558,0.053271
9085853876,-160.046600,-93.864357,62.412670,1.008302,0.545813,0.085170
9085873837,-168.560760,-91.524513,32.683678,1.099944,0.995510,-0.129411
9085893798,-215.079346,-106.009964,24.074223,1.281845,0.664751,-0.010836
9085913759,-200.992661,-104.382500,20.004881,1.131554,0.187312,0.073816
9085933720,-135.599335,-141.922089,9.621553,1.353349,0.211495,-0.030147
9085953682,-57.083248,-153.447327,-18.668297,1.686649,1.342060,-0.321112
9085973643,-67.789040,-145.249969,-84.880409,1.645386,2.688709,-0.272990
9085993605,-111.324776,-68.387650,-123.883095,0.953227,-0.449669,-0.422411
9086013567,-94.603439,-130.796265,-23.508804,0.763378,-1.066505,-0.773571
9086033528,-73.727127,-101.562950,-1.785381,0.906677,-0.128261,-0.531338
9086053489,-169.514145,-118.204399,7.690520,0.689832,0.027218,-0.383694
9086073450,-232.201294,-127.539024,23.579275,0.938739,-0.219061,-0.271376
9086093412,-214.584625,-127.054382,20.289837,1.138943,-0.426469,-0.083913
9086113373,-145.252579,-110.699005,26.892384,1.182243,-0.447976,0.092437
9086133334,-114.394180,-85.256508,28.747437,1.056582,-0.175624,0.309228
9086153295,-139.085159,-72.666077,18.188818,1.004384,0.063481,0.361814
9086173257,-159.568573,-77.033798,10.917715,1.011486,-0.045033,0.312272
9086193217,-140.057556,-80.018181,6.273628,1.068421,-0.248870,0.306547
9086213177,-87.045647,-77.751389,0.017194,1.025314,-0.233934,0.327731
9086233138,-38.699867,-68.061806,-5.901461,1.077183,-0.101496,0.333069
9086253100,-30.424721,-53.540993,1.147157,1.055532,0.267267,0.341019
9086273061,-49.585243,-34.611172,1.548859,0.889541,0.346063,0.247171
9086293022,-56.442039,-33.271591,6.313117,0.862383,0.121826,0.123223
9086312983,-48.790607,-32.447277,16.119921,0.917816,0.105564,0.088446
9086332944,-46.085991,-34.627098,21.778637,0.992858,0.145102,0.066682
9086352906,-43.954498,-32.695820,24.962757,1.013543,0.246375,0.144262
9086372867,-42.896004,-30.474930,26.761627,1.092363,0.169228,0.158445
9086392828,-36.984138,-29.569298,32.661606,1.154826,0.132245,0.160105
9086412789,-25.525131,-25.258997,34.886368,1.167031,0.150423,0.181067
9086432750,-13.834850,-12.490630,30.640671,1.007787,0.152986,0.218809
9086452712,-0.535363,-9.014536,25.640057,0.891361,0.260756,0.226929
9086472673,5.831736,-2.969672,16.370216,0.956381,0.320393,0.211208
9086492634,13.561366,8.317338,6.656855,1.017841,0.323663,0.099001
9086512595,20.383360,10.092461,3.959737,1.035149,0.387755,0.030792
9086532557,17.260807,14.098462,-1.862468,1.027042,0.479387,0.087513
9086552519,12.709111,22.910757,-13.714982,0.955977,0.431446,0.040917
9086572480,10.177614,22.489513,-22.951443,0.913093,0.376496,-0.017522
9086592442,8.178789,15.012479,-26.802296,0.902771,0.404846,-0.038027
9086612403,-0.293633,8.487409,-25.166050,0.905090,0.412541,-0.019898
9086632364,-7.809482,15.237044,-16.215111,0.964560,0.353424,0.001466
9086652325,-14.510543,22.849760,3.392763,0.857101,0.296203,0.040500
9086672286,-20.365772,18.624874,22.186287,0.793053,0.336544,0.037389
9086692247,-23.782379,18.849155,37.452148,0.819220,0.356612,0.035810
9086712209,-22.915951,18.820549,51.009743,0.871203,0.314305,0.051389
9086732170,-16.042913,13.064129,62.121597,0.925765,0.265393,0.083333
9086752131,-5.056309,16.527176,62.061653,0.996871,0.284794,0.111546
9086772095,5.949181,22.011715,61.330887,1.000318,0.336505,0.119413
9086792052,12.180069,22.819237,60.583744,1.013981,0.318866,0.103926
9086812014,20.673531,23.607327,57.559689,1.011043,0.294322,0.108008
9086831975,28.754784,24.657211,51.718208,0.987082,0.314974,0.142016
9086851936,32.197514,24.745417,44.360134,0.977407,0.331258,0.136017
9086871897,33.095718,24.359789,35.590321,0.950195,0.276126,0.082421
9086891858,32.039257,18.184753,26.473587,0.944896,0.293814,0.038780
9086911819,31.974478,16.343838,22.347485,0.952256,0.379625,0.043975
9086931781,23.977148,18.054106,20.580524,0.930709,0.419009,0.080179
9086951742,6.489500,14.522592,17.879309,0.941603,0.420095,0.093747
9086971703,-10.954497,8.116208,11.380237,0.940227,0.387950,0.120018
9086991664,-19.946613,-0.067871,0.342927,0.941556,0.363568,0.119532
9087011625,-20.587471,-2.893262,-10.158712,0.975357,0.355423,0.108629
9087031586,-16.407200,-3.968596,-20.108189,0.939161,0.395695,0.182796
9087051547,-10.516697,-10.675411,-33.018642,0.912559,0.443330,0.226330
9087071523,-3.367947,-14.289207,-48.783180,0.950110,0.466933,0.232187
9087091470,0.781540,-12.653716,-64.588249,0.959023,0.490118,0.251276
9087111431,3.272732,-12.717183,-77.003784,0.982445,0.482709,0.246090
9087151355,23.040413,-6.958610,-90.099518,0.930825,0.310386,0.148981
9087171316,37.462135,-10.546056,-88.854958,0.899234,0.227159,0.085658
9087191278,51.383965,-15.685463,-81.151146,0.892659,0.107896,0.031123
9087211239,73.312462,-22.772974,-68.932625,0.873930,0.075002,-0.000006
9087231200,92.498055,-27.888708,-52.483627,0.823988,0.074582,-0.014393
9087251161,93.941742,-39.498253,-37.343395,0.740999,0.142374,-0.018573
9087271122,74.278046,-41.458557,-18.629244,0.765965,0.212830,-0.012804
9087291084,47.373669,-30.988798,5.484009,0.789175,0.170326,-0.024886
9087311045,30.665234,-24.831608,34.137920,0.829821,0.061902,-0.081737
9087331006,38.571827,-24.943668,58.920876,0.869840,0.004111,-0.132781
9087350967,61.586754,-35.271847,68.612976,0.946673,0.242785,-0.074361
9087370927,50.327629,-33.837521,64.384262,1.185875,0.713250,0.129941
9087390888,-16.917948,-3.959117,55.275730,1.356866,0.859417,0.300786
9087410849,-74.916359,-5.408783,32.758183,1.013231,0.551617,0.044097
9087430810,-27.841085,-38.663391,10.172449,1.061725,0.484586,-0.154343
9087450771,21.187336,-22.523687,2.136554,1.051528,0.548184,0.066528
9087470733,-4.866730,-22.584723,-12.801930,0.890744,0.566830,0.183658
9087490694,-17.672092,-10.509893,-18.873110,0.940645,0.461214,0.070381
9087510655,5.240859,6.061810,-16.234165,0.927925,0.273364,0.002014
9087530616,25.608566,13.339260,-14.371454,0.931789,0.217430,-0.009747
9087550578,34.691051,17.620186,-11.623239,0.947849,0.273057,-0.029760
9087570539,37.262321,18.171762,-9.331154,0.925447,0.313203,-0.029189
9087590500,35.915436,14.426873,-9.314828,0.920089,0.313097,-0.046496
9087610461,35.914940,9.965086,-8.177340,0.926798,0.309478,-0.090388
9087630423,38.774872,5.433449,-6.977169,0.932559,0.317152,-0.114813
9087650384,36.966709,2.179733,-5.483167,0.936881,0.366032,-0.100964
9087670345,25.982458,-0.339655,-5.098283,0.927984,0.399541,-0.078455
