Timestamp (us),Gyroscope X (deg/s),Gyroscope Y (deg/s),Gyroscope Z (deg/s),Accelerometer X (g),Accelerometer Y (g),Accelerometer Z (g)
4591405452,3.126989,2.995893,1.151756,0.938711,-0.206536,0.250203
4591425412,2.342756,2.564362,0.876591,0.944897,-0.213469,0.246697
4591445373,2.717996,2.059264,-0.100448,0.952044,-0.224316,0.243454
4591465335,4.478045,1.694505,-0.944101,0.939392,-0.218863,0.240674
4591485296,4.817481,0.490991,-1.366188,0.938985,-0.204226,0.240518
4591505257,5.178549,-0.666350,-1.484695,0.949131,-0.200413,0.234905
4591525217,5.056840,-0.810731,-1.621491,0.952416,-0.196157,0.242362
4591545179,2.950113,-0.034939,-1.143890,0.956853,-0.195001,0.249983
4591565140,0.832441,1.645609,-0.796698,0.948984,-0.198930,0.255458
4591585101,-0.071559,2.089728,-0.724455,0.939694,-0.198270,0.250450
4591605062,0.130525,1.138242,-0.836206,0.939273,-0.205708,0.238817
4591625023,2.782258,-0.156098,-1.151853,0.937537,-0.206968,0.238442
4591644984,5.321698,-0.879498,-1.362473,0.933032,-0.192850,0.243410
4591664945,5.197498,-1.380841,-1.271061,0.931864,-0.169654,0.249929
4591684906,2.511309,-1.608337,-1.431387,0.933040,-0.163141,0.248569
4591704868,-1.329092,-1.353214,-1.679731,0.939651,-0.162077,0.251405
4591724829,-4.633322,-0.278563,-1.973064,0.941300,-0.166514,0.253784
4591744790,-6.194123,0.927219,-2.359495,0.950537,-0.180793,0.259833
4591764751,-5.793573,1.540881,-2.882758,0.947744,-0.199612,0.263915
4591784712,-3.276308,0.901067,-3.161880,0.956902,-0.214072,0.263682
4591804674,-0.578036,0.299484,-3.053402,0.964273,-0.223595,0.264155
4591824634,2.013353,-0.271125,-2.839072,0.956813,-0.218655,0.261024
4591844596,4.449376,-0.809347,-1.896719,0.952032,-0.211589,0.262186
4591864557,4.443495,-1.370495,-1.106602,0.955475,-0.197473,0.260197
4591884518,3.515785,-0.583068,-0.534049,0.955144,-0.181610,0.250734
4591904479,1.623089,0.450639,-0.040947,0.942331,-0.171683,0.249152
4591924438,-1.003474,0.749194,0.541901,0.935945,-0.166748,0.252597
4591944399,-2.936186,0.679198,0.482492,0.936847,-0.170336,0.256588
4591964361,-3.751829,1.639033,-0.007360,0.952424,-0.180973,0.261237
4591984321,-3.023634,3.257107,0.265847,0.952575,-0.193595,0.256073
4592004283,-3.083213,4.117632,0.750087,0.933997,-0.193240,0.267201
4592024244,-3.883033,3.331620,1.909798,0.943424,-0.200791,0.254749
4592044204,-3.034368,3.746125,1.388314,0.955912,-0.212572,0.247430
4592064166,-0.552920,3.661598,1.115832,0.942856,-0.206884,0.241725
4592084127,1.824662,0.901216,1.211298,0.946778,-0.205568,0.247512
4592104087,3.089648,-1.789676,0.065910,0.954432,-0.196934,0.246601
4592124049,4.148682,-2.890765,-1.219145,0.948747,-0.185361,0.244486
4592163971,0.900770,-2.416145,-1.048442,0.941166,-0.181436,0.258943
4592183932,-2.076159,-0.710242,-0.802789,0.936772,-0.181564,0.265694
4592203893,-3.118840,0.729748,-1.134731,0.933344,-0.183952,0.267856
4592223854,-3.559416,1.599353,-0.522744,0.941061,-0.198766,0.261046
4592243815,-0.783804,2.688310,0.820537,0.943141,-0.222065,0.254363
4592263776,3.061377,3.028684,2.221597,0.943032,-0.228945,0.262488
4592283738,5.461355,2.642062,2.860027,0.952135,-0.218291,0.257745
4592303699,6.958964,2.013150,2.600287,0.951809,-0.206923,0.245441
4592323660,8.155924,0.129851,2.075798,0.946257,-0.196936,0.234431
4592343622,8.422792,-0.854056,1.076348,0.941893,-0.188099,0.238941
4592363582,7.255936,-0.563006,0.252401,0.951732,-0.165373,0.245943
4592383543,3.728069,0.799810,-0.801043,0.945363,-0.162481,0.252700
4592403504,0.814512,0.614115,0.548110,0.935171,-0.178351,0.254321
4592423466,-0.005732,-0.294799,1.070427,0.946237,-0.189987,0.255898
4592443427,-0.156992,-0.188063,0.963516,0.953176,-0.189158,0.255283
4592463388,1.162390,0.217782,0.663693,0.944573,-0.185823,0.259715
4592483349,1.389060,-0.437437,0.430150,0.939801,-0.182533,0.263763
4592523269,1.094657,-0.906515,1.166051,0.959528,-0.189216,0.262048
4592543230,1.117381,-0.056633,0.276895,0.956174,-0.185998,0.268400
4592563191,0.446234,1.207520,0.075463,0.941401,-0.191256,0.277594
4592583152,1.183560,2.188303,1.116183,0.944525,-0.199951,0.281983
4592603113,2.655674,3.553366,1.551604,0.945537,-0.199558,0.259776
4592623075,6.010361,10.526820,2.963899,0.970150,-0.203538,0.228785
4592643035,7.918545,31.542250,3.720507,1.003148,-0.210611,0.272032
4592662996,-3.427380,46.123852,-1.454043,0.917883,-0.157537,0.341446
4592682957,-22.859722,34.650009,-8.612389,0.827968,-0.135058,0.279510
4592702918,-29.024343,17.276003,-5.464780,0.817750,-0.296704,0.239536
4592722880,-30.445347,8.151659,4.349679,0.814188,-0.411330,0.274404
4592742840,-32.972744,12.401310,18.428513,0.767850,-0.467796,0.252897
4592762802,-27.096371,11.950611,34.249756,0.771888,-0.554035,0.301099
4592782763,-16.293892,7.616748,44.264412,0.856895,-0.517451,0.351778
4592822685,4.137301,6.683295,39.893524,0.913065,-0.322723,0.330587
4592842647,23.138554,3.134202,29.723511,0.881868,-0.421799,0.327540
4592862609,61.922146,4.681024,21.022877,0.901559,-0.528049,0.217908
4592882570,107.265427,16.467997,39.688446,0.768888,-0.574148,0.278699
4592902530,120.709702,-9.441773,53.508430,0.740180,-0.498738,0.218384
4592922492,134.413681,-26.806276,36.313755,0.905699,-0.241552,0.157015
4592942453,101.377319,-15.693307,19.043499,0.933213,-0.028071,0.204471
4592962413,42.989555,-4.951290,7.693238,0.811679,0.038187,0.304512
4593002336,-24.917410,-1.762678,3.024260,0.991898,-0.216622,0.418898
4593022297,-14.163596,8.332214,6.535839,1.064354,-0.440992,0.350233
4593042257,22.236776,-4.725307,15.213731,0.832765,-0.420506,0.225630
4593062240,59.144470,-34.288754,8.033331,0.946456,-0.142490,0.296557
4593082178,50.283817,-31.862251,9.343748,1.212246,-0.023983,0.408401
4593102139,49.832146,-14.166443,0.686649,1.304152,-0.029952,0.512993
4593122100,54.255344,9.585288,-10.361644,1.236862,0.071716,0.580120
4593142061,52.486965,22.038725,-18.613022,1.040597,0.231469,0.555691
4593162022,55.578388,7.488047,-18.710079,0.996452,0.223738,0.424517
4593181983,37.185566,-5.954302,-23.645943,0.990202,0.149195,0.369984
4593201944,-4.496584,-3.467662,-33.167915,1.084038,0.132335,0.221912
4593221905,-20.760735,16.077139,-39.982681,1.083599,0.071527,0.116084
4593241866,3.225642,23.391869,-44.058163,0.957161,-0.087602,0.253238
4593261827,22.967705,11.145403,-44.217484,0.981539,-0.096727,0.473566
4593281788,24.608232,-0.868045,-59.289448,1.260018,0.291506,0.477596
4593301749,-17.561441,-2.717147,-77.572311,1.394775,0.732942,0.425120
4593321710,-92.167076,1.751220,-95.539223,1.304640,0.723918,0.309697
4593341671,-138.972672,12.343887,-102.274574,1.212287,0.461439,0.191190
4593361632,-133.366318,22.892076,-115.909988,1.087951,0.448439,0.065643
4593381593,-103.912209,8.016171,-137.427811,0.901241,0.540335,-0.023519
4593401554,-108.618568,-39.935013,-160.989960,0.907316,0.457534,-0.155457
4593421517,-145.687012,-79.649734,-190.386200,1.183683,0.582589,-0.428172
4593441478,-215.490250,-71.067055,-208.259888,1.336422,0.743889,-0.453965
4593461439,-309.514160,-61.802841,-216.940384,1.230781,0.718791,-0.604196
4593481400,-359.327271,-76.468300,-225.750198,1.118387,0.422171,-0.746824
4593501361,-365.579834,-82.019287,-242.861511,1.224053,0.123029,-0.795443
4593521322,-350.432800,-96.412590,-240.103271,0.843566,-0.340466,-0.709686
4593541283,-275.772095,-128.429382,-223.741928,1.065173,-0.861472,-0.904709
4593561244,-196.067993,-135.966843,-188.555984,0.823367,-0.337650,-0.823748
4593581205,-184.493820,-123.854286,-126.135689,1.129641,0.105867,-0.462696
4593601166,-199.184052,-98.155685,-92.123421,0.926555,0.164513,-0.593229
4593621127,-209.115540,-94.825157,-85.452164,1.043458,0.091829,-1.161490
4593641087,-222.105621,-121.283257,-83.694817,1.137091,-0.015949,-1.435381
4593661047,-213.407730,-158.362762,-80.210602,1.250348,0.106934,-1.163133
4593681009,-242.763840,-170.923386,-46.235153,1.275682,0.505150,-0.991074
4593700970,-327.133820,-139.357315,18.874756,1.236712,0.519017,-0.318068
4593720931,-420.233154,-92.163635,54.902973,1.544370,0.196440,-0.041787
4593740892,-458.083496,-56.459435,62.367058,2.046340,-0.315937,-0.530218
4593760853,-403.638397,-80.553940,42.008106,2.322651,-0.672262,-0.713549
4593780814,-414.929810,-45.030838,-28.269173,1.931626,-0.427866,-0.414385
4593800775,-467.014099,-2.438796,-82.033058,1.221157,-0.543342,-0.322624
4593820736,-479.110382,-0.223747,-103.918663,0.758903,-0.629987,-0.147286
4593840697,-433.175598,-8.446128,-80.955994,0.699538,-0.698802,-0.251786
4593860658,-327.730896,-4.873782,-35.675972,0.779940,-0.809081,-0.214539
4593880619,-233.212418,-7.127060,-4.031168,0.832458,-0.532255,-0.069315
4593900580,-199.362762,-10.567677,10.262855,0.966400,-0.213045,-0.026557
4593920541,-197.427841,-10.011938,13.607759,1.182663,-0.070448,-0.005803
4593960463,-227.177078,-5.624888,-26.379461,1.275033,-0.247720,-0.040908
4593980426,-267.759155,-4.715741,-13.203104,1.106924,-0.355763,-0.188558
4594000387,-287.460175,-5.345462,-13.502539,1.156620,-0.096656,-0.156923
4594020348,-308.028748,10.670210,-12.289067,1.033223,-0.034179,-0.061954
4594040309,-326.443695,9.015401,-13.538987,1.006345,-0.143485,-0.083968
4594060270,-326.083618,10.414997,-12.826485,1.049967,-0.298779,-0.105211
4594080231,-284.293182,11.330302,-20.688990,1.090763,-0.360001,-0.166566
4594100192,-243.124146,12.761976,-33.677170,1.167521,-0.301164,-0.160294
4594120153,-222.799347,27.684988,-45.638756,1.210974,-0.208255,-0.191160
4594140114,-212.725494,42.184383,-57.633587,1.130329,-0.115219,-0.245340
4594160075,-210.233810,44.265766,-69.915710,1.096025,-0.067300,-0.318511
4594180036,-237.859955,44.611382,-81.801468,1.145855,-0.049919,-0.375251
4594199997,-291.189514,45.117111,-85.188782,1.249166,-0.088781,-0.404864
4594219957,-337.047607,56.002068,-77.501556,1.322551,-0.289302,-0.439481
4594239918,-367.012238,83.403412,-83.067955,1.206880,-0.461248,-0.469019
4594259879,-362.316528,93.572449,-82.543968,0.994636,-0.612249,-0.489743
4594279840,-335.031799,74.669266,-75.739281,0.930748,-0.740176,-0.530799
4594299801,-294.502136,53.595779,-72.014412,0.984283,-0.697647,-0.419054
4594319762,-253.141739,57.705532,-72.840141,1.064778,-0.481160,-0.265044
4594339723,-253.297302,73.612816,-77.941742,1.006291,-0.202116,-0.146206
4594359684,-263.881287,62.956760,-84.153748,0.951756,-0.145649,-0.382888
4594379645,-251.054825,37.126713,-88.315239,0.995426,-0.396280,-0.602085
4594399606,-233.185837,26.562895,-86.699753,1.082501,-0.516293,-0.473495
4594419567,-262.122375,49.726257,-87.884926,1.131595,-0.307957,-0.265016
4594439528,-307.787048,68.358246,-92.359283,1.099584,-0.259803,-0.382678
4594459489,-333.755066,68.955254,-78.830589,1.047649,-0.535279,-0.447506
4594479450,-339.672363,66.785629,-62.939499,0.991030,-0.741818,-0.395077
4594499411,-313.029633,60.888321,-63.950699,0.922411,-0.680528,-0.336328
4594519372,-285.938690,49.373234,-63.138145,1.002908,-0.497116,-0.249981
4594559295,-272.173370,65.206223,-49.129032,1.057526,-0.670999,-0.023758
4594579257,-258.593018,67.062241,-23.692757,0.830901,-0.519057,-0.050528
4594599218,-209.992325,20.953485,-33.488853,1.366886,-0.262617,-0.118203
4594619179,-192.972397,34.461025,-66.201096,1.693413,-0.320998,-0.404933
4594639140,-215.708252,61.015530,-84.249702,1.099202,-0.412942,-0.150610
4594659101,-223.225998,43.260967,-83.397995,1.123838,-0.456667,-0.008751
4594679062,-200.909210,52.003815,-102.196999,1.139299,-0.582258,-0.263114
4594699023,-178.450455,92.675598,-130.340271,0.447132,-0.642918,0.028512
4594718984,-197.855820,90.678207,-103.223732,0.236294,-0.878384,0.138323
4594738945,-217.315460,80.610764,-88.101768,0.162093,-1.336007,0.171048
4594758906,-189.300018,43.597923,-32.376617,0.117026,-1.721135,0.277426
4594778876,-121.367455,7.390238,10.698676,0.039768,-1.648515,0.396296
4594818788,26.130186,-12.950619,71.878670,0.445578,-0.783526,0.588814
4594838749,98.804337,-12.930147,80.224289,0.843648,-0.649349,0.373456
4594858710,150.031952,-35.799309,74.067825,1.069966,-0.557351,0.036348
4594898632,121.873283,9.315414,26.951662,1.406560,0.562311,0.376773
4594918593,-3.742730,27.231182,0.796847,1.281537,0.814593,0.445929
4594938554,-110.311966,9.804966,-18.783617,1.375270,0.632300,0.304479
4594958515,-165.060684,12.733827,-40.871960,1.447827,0.336265,0.277057
4594978476,-168.630249,31.674768,-70.533531,1.355597,0.097154,0.289755
4594998437,-124.052689,43.780479,-87.275566,1.109149,-0.172411,0.298847
4595018398,-40.236080,35.757729,-105.102524,1.022533,-0.243083,0.352871
4595038359,16.002232,19.505054,-144.630554,1.128927,0.136272,0.666506
4595058321,47.797245,0.937981,-178.877747,1.431577,0.687383,0.611853
4595078281,92.498123,17.066111,-195.716461,1.058974,0.300531,0.529855
4595098242,77.742279,-11.956234,-171.094223,0.711913,-0.056487,0.778392
4595118203,91.039627,-13.183436,-121.360565,1.172567,0.490962,0.541386
4595138165,69.940468,-29.060320,-172.445343,1.196557,0.989921,0.048111
4595158126,-1.689580,-61.933243,-178.742401,0.513711,0.904296,-0.205417
4595178087,-44.251869,-105.151917,-189.527145,0.836440,1.260050,-0.420869
4595198048,-146.006821,-102.449646,-187.302216,0.940524,1.312730,-0.418457
4595218009,-256.107849,-102.194633,-197.517517,0.928191,1.035523,-0.505295
4595237971,-292.477081,-118.682777,-202.659988,0.933995,0.350811,-0.591318
4595257931,-240.024765,-145.078918,-198.515900,0.900952,0.173751,-0.576366
4595277892,-197.149246,-162.904373,-190.720215,1.038429,0.463189,-0.478327
4595297854,-208.127777,-165.508499,-168.280350,1.180374,0.519950,-0.499510
4595317815,-238.466125,-158.538940,-146.791565,1.145781,0.644802,-0.496088
4595337776,-249.649155,-160.408875,-133.923721,1.124526,0.492543,-0.573390
4595357739,-235.615219,-165.909180,-127.767258,1.025653,0.320753,-0.561644
4595377696,-214.124649,-175.914764,-118.900330,0.832765,0.243258,-0.577116
4595397657,-191.014954,-188.666702,-100.438522,0.817770,0.266299,-0.609731
4595417618,-193.121704,-186.196259,-66.706657,1.000046,0.383871,-0.552675
4595437580,-233.977417,-170.320816,-20.190521,1.200282,0.340583,-0.455593
4595457540,-284.108215,-152.999588,0.807563,1.188196,0.145491,-0.396889
4595477501,-320.924011,-149.374008,-16.972486,1.025682,0.119993,-0.309847
4595497462,-323.576660,-161.791107,-50.409229,1.104786,0.101085,-0.291149
4595517424,-274.101929,-176.293976,-70.191795,1.186883,-0.176099,-0.110264
4595537385,-182.131744,-195.264877,-73.676994,1.025841,-0.324041,0.071238
4595557345,-100.589142,-200.622025,-59.298393,0.940562,-0.081082,0.302000
4595577307,-89.358772,-184.353760,-44.645618,0.939609,0.216817,0.296192
4595597268,-126.312164,-145.026382,-30.406631,0.631776,0.196569,0.297434
4595617229,-156.332245,-98.632408,33.244186,0.986494,0.168761,0.188383
4595637190,-143.577148,-67.551193,72.173569,1.001223,0.301465,-0.019867
4595657151,-96.311501,-88.997459,30.028072,1.129441,0.625568,-0.013354
4595677112,-126.798737,-101.697678,8.179876,1.260596,0.725360,-0.002475
4595697073,-210.037048,-89.985840,-14.129581,1.243317,0.435882,-0.018084
4595717035,-249.317108,-84.914635,-24.163555,1.246076,0.080448,0.032955
4595736996,-252.503525,-79.235229,-26.163412,1.270121,-0.150959,0.176420
4595756957,-229.746933,-63.955486,-27.105259,1.278967,-0.171850,0.333187
4595776918,-177.712677,-50.933121,-26.284897,1.256725,-0.107133,0.485158
4595796879,-118.517143,-49.412983,-30.979130,1.179375,-0.078031,0.574416
4595816840,-60.712246,-50.598930,-33.480576,1.139213,-0.108897,0.573638
4595836804,-9.382106,-42.524628,-36.184219,1.193403,-0.034950,0.478170
4595856763,29.702362,-30.182386,-46.175014,1.170717,0.146560,0.410947
4595876723,46.350468,-19.958679,-48.632191,1.124737,0.222617,0.376440
4595916646,28.883980,-11.670448,-35.405651,1.045846,0.240074,0.333274
4595936605,23.290159,-6.299488,-32.024517,1.060051,0.322190,0.264621
4595956567,27.686779,11.818711,-42.267593,0.989360,0.264487,0.184682
4595976527,23.381514,21.310352,-52.488586,0.927703,0.158655,0.251396
4595996489,19.854504,30.712185,-53.235291,0.910845,0.153000,0.325303
4596016450,22.668774,40.981274,-58.865089,0.871252,0.303535,0.353437
4596036410,36.919266,45.531994,-61.207874,0.865582,0.469231,0.310916
4596056372,37.741749,48.286148,-55.562752,0.862811,0.391979,0.297469
4596076333,20.998796,52.714195,-50.942024,0.891920,0.314594,0.316208
4596096294,7.464325,51.894875,-63.811634,0.828296,0.375831,0.293914
4596116255,-2.983063,51.764156,-62.221832,0.780795,0.261303,0.347916
4596136216,14.570924,48.212727,-57.020481,0.792054,0.261627,0.328266
4596156177,43.691250,42.859879,-51.884468,0.844639,0.348463,0.336186
4596196099,46.160088,48.285053,-42.799896,0.685779,0.410185,0.329347
4596216060,27.138382,60.868073,-36.779671,0.696549,0.391595,0.290237
4596236021,18.284199,66.185059,-27.626101,0.641384,0.334620,0.289886
4596255982,22.305716,66.422668,-16.585751,0.604913,0.429228,0.225290
4596275944,25.113562,67.266891,-0.822117,0.550417,0.435730,0.214804
4596295905,24.876364,67.338432,22.916668,0.506014,0.440581,0.160730
4596315866,3.589594,59.325825,43.425602,0.447456,0.373536,0.177965
4596335827,-14.253082,35.977219,55.870934,0.477707,0.386918,0.157175
4596355788,-30.634941,38.667957,93.258934,0.599021,0.395701,0.259515
4596375749,-43.631603,22.987226,129.463684,0.579057,0.267002,0.221645
4596395710,-59.090641,-1.872533,161.833755,0.645862,0.243792,0.167338
4596415671,-56.816555,-26.516600,208.545395,0.448668,0.195583,0.355286
4596435633,-21.282301,-73.237289,255.369553,0.613270,-0.077884,0.363695
4596455593,-11.006315,-74.287781,293.693665,1.576784,0.168458,0.635947
4596475554,-27.626095,-53.106621,369.751648,1.934505,0.032222,0.853908
4596495516,-35.280697,-23.085854,419.915833,2.023547,-0.323880,0.241789
4596515475,14.202744,7.013062,399.618835,2.217617,-0.488867,-0.068935
4596535436,6.205724,-52.269032,243.111481,2.804514,-0.734090,-0.198670
4596555397,135.546341,-60.355717,190.349197,3.169177,2.380072,0.014895
4596575358,171.256958,87.186035,-62.427551,1.551386,4.488880,1.114634
4596595319,-53.187992,95.786591,-56.237804,-0.216427,1.258440,1.299676
4596615280,-125.379745,-12.263668,-94.869095,0.288046,-0.468897,0.136116
4596635241,-135.546234,-13.558874,-130.927673,2.251136,0.589511,-0.678888
4596655202,-62.868290,43.021748,-91.299545,1.875234,0.105842,0.157542
4596675163,-91.223145,-7.252072,-138.744339,1.073750,-0.378956,0.334819
4596695124,-14.457566,-24.278183,-148.468063,1.072491,-0.149960,0.123333
4596715085,66.313553,-19.210829,-147.518082,0.918811,0.210670,0.196654
4596735046,59.842491,-34.553841,-137.088684,0.889154,0.488277,0.306027
4596755007,-19.596216,-28.781893,-138.566528,0.933993,0.571237,0.366684
4596774968,-94.217842,-0.023083,-156.395233,0.944907,0.359383,0.271097
4596794929,-121.405258,26.048006,-164.796509,0.809792,0.085680,0.274924
4596814890,-117.400475,33.794147,-160.081818,0.609632,-0.043013,0.333826
4596834852,-103.775322,35.434593,-154.696304,0.569333,-0.166927,0.316631
4596854814,-70.488899,34.394909,-149.917267,0.665399,-0.286400,0.239578
4596874775,-27.046926,35.452843,-141.039871,0.689214,-0.333648,0.183147
4596894736,2.104609,36.675312,-133.545685,0.595193,-0.262682,0.214226
4596914697,10.776418,27.937126,-127.432449,0.531203,-0.193200,0.245789
4596934658,13.941042,11.102712,-117.242203,0.544292,-0.183647,0.274375
4596954619,28.054358,-1.942699,-100.168198,0.599678,-0.181892,0.247042
4596974581,62.387718,-7.697850,-63.837051,0.799083,-0.103709,0.270727
4596994542,74.017517,8.111115,-23.697035,0.960871,0.007434,0.433235
4597014503,67.366020,29.916363,4.382343,0.937198,0.076540,0.498782
4597034464,63.279545,43.196243,21.341684,1.055305,0.138242,0.593640
4597054425,56.082634,75.323036,7.988416,1.410152,0.456832,0.806557
4597094345,71.591347,122.452896,-60.510025,0.671034,0.365004,0.461857
4597114307,134.132294,75.367981,-19.500610,0.414875,-0.077363,0.208885
4597134268,157.671127,56.292328,12.693715,0.290251,-0.196474,0.068679
4597154229,165.615723,53.800659,15.319272,0.382172,0.191197,0.026498
4597174189,112.744766,51.518097,14.001963,0.604795,0.745679,-0.022121
4597194151,33.291615,70.749352,34.391800,0.645089,0.907162,0.021777
4597214111,-47.798988,51.509590,75.894341,0.422207,0.646282,0.026061
4597234072,-85.715149,25.249092,136.030273,0.396583,0.343357,0.104586
4597254033,-74.807793,1.737548,211.137955,0.227634,0.280213,0.354308
4597293955,12.390668,-83.637733,343.996521,1.308146,-0.075008,0.324942
4597313916,40.851757,-87.219833,430.288849,2.295071,0.422119,0.289278
4597333877,-33.016140,24.552647,518.210815,2.581879,0.168488,0.472803
4597353838,-198.353943,-10.729526,353.247101,2.595104,-0.631769,0.827089
4597373799,-101.731644,-54.935860,228.027710,3.233946,1.887898,0.388301
4597393760,122.182213,42.395313,0.355485,1.709530,3.910192,1.263333
4597413721,80.575485,80.318245,-29.164167,0.056597,0.573696,0.709882
4597433684,-46.033314,-23.058111,-102.673477,0.674259,0.332899,-0.283992
4597453645,-93.249298,-12.315437,-80.988060,1.999828,1.187325,0.285443
4597473606,-176.460373,-27.385410,-68.042534,1.350393,0.093281,0.375685
4597493567,-114.034889,-29.551048,-115.259232,1.053043,-0.183543,0.113054
4597513528,13.211774,-15.933270,-144.981445,0.856789,0.372069,0.156084
4597533489,44.351006,-42.874031,-142.963699,0.761407,0.713198,0.261208
4597553450,-10.146770,-57.978550,-139.356873,0.959981,0.655762,0.209879
4597573411,-67.613167,-46.999363,-152.313400,1.023142,0.570053,0.137133
4597593372,-99.466820,-38.015587,-163.861755,0.880016,0.456561,0.175615
4597613333,-129.714493,-31.068815,-172.320435,0.781873,0.262611,0.338626
4597633294,-141.703766,-31.986456,-178.718597,0.835807,0.036200,0.347331
4597653266,-100.753242,-27.932573,-166.446274,0.887522,-0.125082,0.214328
4597673214,-61.705528,-23.790220,-162.323822,0.929577,-0.202182,0.112370
4597693175,-52.802227,-22.401958,-161.241531,1.014208,-0.137931,0.102762
4597713137,-60.108940,-10.091296,-154.817902,1.081014,-0.107204,0.231244
4597733098,-64.842674,14.392062,-149.466476,1.006234,-0.082249,0.262428
4597753059,-62.819748,37.793129,-123.326477,0.830953,-0.037410,0.351544
4597773020,-63.569515,52.216827,-69.465698,0.704604,-0.264118,0.380167
4597792981,-28.100349,65.464828,-13.282535,0.650819,-0.456906,0.330525
4597812942,33.545746,67.235802,42.283291,0.558586,-0.488736,0.251679
4597832903,90.545181,42.107971,101.691437,0.510637,-0.549863,0.127683
4597852864,125.501976,24.490427,150.929184,0.851234,-0.443580,0.382973
4597872825,126.561836,49.630280,132.794373,1.420264,0.642982,0.719279
4597892786,105.449066,119.152161,105.814896,1.742983,0.897502,0.698901
4597912747,26.672136,43.701607,202.257767,-0.293912,-0.598850,-0.392301
4597932708,181.264435,-46.866035,246.846680,0.921729,-0.180189,-0.578292
4597952669,161.405899,-31.914455,283.347260,0.913935,0.758299,-0.127753
4597972630,31.159609,-19.683617,338.179810,0.697650,0.598144,0.186706
4597992592,-48.403290,-61.498276,376.609497,1.331035,0.035253,-0.057356
4598012553,-131.030792,-27.883167,393.438293,2.590622,0.496145,-0.059197
4598032515,-222.680084,-69.046051,246.068604,1.919489,0.359664,0.894164
4598052476,-90.742722,-65.321823,129.902924,1.610266,0.309963,0.782218
4598072437,154.243881,-5.649793,105.092560,1.040240,-0.194187,0.115817
4598112359,165.738098,-43.224010,48.835316,1.325953,1.417036,-0.023989
4598132320,-71.013641,-22.591679,9.619686,1.013104,1.272251,0.284714
4598152280,-205.403656,-13.265094,-5.660482,1.002955,0.487873,0.253211
4598172242,-211.999939,-2.799956,-8.179659,0.924190,-0.081533,0.415170
4598192203,-151.171860,12.236249,-16.766886,0.960483,-0.610231,0.302746
4598212164,-50.169350,40.957050,17.228542,0.798368,-1.028664,-0.006171
4598252085,118.543587,-8.715583,66.978973,1.010723,-0.216530,0.027676
4598272046,25.094746,8.545294,61.134453,1.188500,0.410736,0.213075
4598292006,-51.043587,-9.564297,48.789623,0.818744,0.161522,0.102832
4598311968,-64.019127,-17.409718,52.272366,0.703624,-0.378222,0.091531
4598331929,-52.737007,-2.304038,56.195621,0.670099,-0.428835,0.293174
4598351890,-64.685989,10.522116,58.231640,0.868705,-0.343795,0.499493
4598371851,-74.589302,13.487928,50.051044,1.035008,-0.504029,0.289169
4598391812,-13.597687,5.412827,26.691959,1.022134,-0.609118,-0.056655
4598411773,68.096603,11.102604,5.938347,0.821478,-0.418657,0.008119
4598431734,77.157494,16.309959,19.264744,0.810346,-0.127490,0.324685
4598451695,-0.232544,20.748844,31.228905,0.885680,0.066493,0.546173
4598471656,-66.217354,17.218859,27.889290,1.041518,-0.022484,0.402422
4598491617,-76.424652,14.277628,12.681131,1.004623,-0.183595,0.280540
4598511578,-39.296688,15.361085,-2.133756,0.820882,-0.204879,0.348638
4598531539,-16.759178,14.734690,5.766341,0.993941,-0.160178,0.426206
4598551500,-17.713964,25.222691,0.897879,1.044818,0.028338,0.424051
4598571462,-28.412056,29.003534,-4.129368,1.050113,0.129920,0.474481
4598591423,-76.866226,29.441225,-7.136175,1.064449,0.109092,0.427824
4598611385,-95.106354,30.211246,-16.198643,0.994845,0.056963,0.356828
4598631345,-94.850563,30.863544,-16.646549,1.056898,0.048585,0.393618
4598651307,-109.907730,44.154205,-26.749372,0.950378,0.143266,0.390204
4598671267,-135.566620,53.166809,-36.820122,0.943565,0.094566,0.405629
4598691229,-149.751663,59.600853,-44.048607,0.998545,-0.077241,0.338514
4598711189,-137.361923,61.265129,-51.402237,0.863272,-0.077183,0.258994
4598731151,-127.433167,52.597641,-57.238270,0.801893,0.060687,0.232298
4598751112,-142.014069,46.329311,-62.399937,0.927665,0.197349,0.149773
4598771073,-170.284363,44.423191,-71.871017,1.008147,0.222702,0.050575
4598791033,-202.546204,43.366493,-81.280670,0.917250,0.227028,-0.022646
4598810993,-234.318100,37.669678,-90.469269,0.870718,0.219272,-0.076280
4598830954,-264.301086,33.524368,-96.777878,1.058533,0.182913,-0.098648
4598850915,-281.643250,31.050179,-110.424126,1.234070,0.056876,-0.182968
4598870876,-287.969116,28.171488,-122.416824,1.215643,-0.168207,-0.203022
4598890838,-278.440857,20.476688,-133.014175,1.109061,-0.253821,-0.265133
4598910798,-264.778259,16.527756,-142.503021,1.166866,-0.209532,-0.222727
4598930760,-257.507233,19.830265,-163.901245,1.332063,-0.083341,-0.185158
4598950721,-252.600037,23.051994,-187.614334,1.512244,-0.019911,-0.201924
4598970682,-239.293884,24.545996,-217.565964,1.459438,-0.102920,-0.265367
4598990643,-205.528595,15.340406,-245.020554,1.307476,-0.142531,-0.278251
4599010603,-181.753952,-1.535742,-264.300110,1.347019,0.142039,-0.197044
4599030565,-207.738388,-6.586911,-272.248657,1.560703,0.304815,-0.234219
4599050526,-253.776031,9.368790,-280.757812,1.762922,0.231440,-0.185417
4599070487,-274.809570,22.047678,-290.689728,1.690472,-0.095519,-0.130122
4599090448,-252.187271,19.003736,-293.539917,1.479570,-0.330402,-0.005297
4599110409,-202.834152,-1.544737,-271.966766,1.151827,-0.384365,0.100672
4599130371,-147.224457,-31.224413,-235.597870,0.803951,-0.369312,0.125461
4599150333,-92.476097,-67.201317,-189.477600,0.653479,-0.264647,0.114704
4599170294,-60.302353,-112.491150,-143.638092,0.654549,-0.028499,0.133256
4599190255,-67.452980,-150.862289,-93.112015,0.785225,0.286665,0.058461
4599210216,-126.674637,-140.706589,-57.227676,0.865450,0.433279,0.058714
4599230177,-213.188843,-111.744904,-49.899143,0.959624,0.431491,0.308068
4599250138,-274.762177,-72.571915,-68.178421,1.133432,0.329570,0.548138
4599270099,-256.882050,-52.474571,-105.109810,1.041518,0.235509,0.721011
4599290060,-189.978378,-75.105827,-123.054291,0.980933,0.168978,0.821795
4599310021,-107.061020,-119.677032,-123.093147,0.802500,0.113004,0.721638
4599329982,-31.765659,-149.943237,-112.530617,0.758188,0.116722,0.726957
4599349943,2.549581,-155.626709,-97.214722,0.800597,0.235971,0.718770
4599369902,8.726460,-142.193726,-89.867828,0.941180,0.521391,0.743081
4599389863,-13.039602,-122.666634,-91.562714,1.039138,0.732385,0.769833
4599409824,-73.271683,-98.459473,-88.580032,0.999512,0.632973,0.818724
4599429785,-113.141319,-74.005402,-85.515251,0.908375,0.451449,0.798080
4599449746,-96.951309,-64.766571,-86.841644,0.901664,0.190220,0.776101
4599469708,-34.986374,-58.718651,-100.792572,1.002959,0.117950,0.766758
4599489668,25.698158,-56.168613,-109.058037,0.868239,0.015528,0.809766
4599509629,79.580414,-43.830639,-105.293442,0.737587,0.095923,0.782012
4599529591,124.027908,-21.604078,-107.836075,0.697829,0.238057,0.738979
4599549552,154.121780,11.644027,-113.250694,0.716292,0.473918,0.631917
4599569513,158.242844,42.909401,-109.731956,0.722595,0.510045,0.514517
4599589474,155.367706,60.355576,-102.747314,0.822410,0.535719,0.326610
4599609435,123.575546,67.927727,-109.003532,0.883955,0.525112,0.272547
4599629396,72.505760,93.401184,-123.486053,0.486090,0.811747,0.241158
4599649357,45.278294,113.550980,-111.675591,0.225138,0.945988,0.160595
4599669318,40.679695,126.545708,-86.111122,0.251983,1.040384,0.132587
4599689279,32.784393,124.546432,-56.793560,0.324726,1.262673,0.055883
4599729202,-106.664757,115.536926,-5.116852,0.347136,1.455990,0.075984
4599749164,-226.714859,127.303459,9.192298,0.182407,1.278372,0.096270
4599769124,-250.010452,117.923325,53.542568,-0.031121,0.289932,0.350860
4599789085,-96.597321,21.232191,129.374741,0.022637,0.085667,0.120616
4599809047,-38.267906,-30.680580,201.972183,0.083809,1.321373,0.064071
4599829007,-189.119812,-53.135948,284.368408,0.097442,1.456631,0.179393
4599868930,-256.672760,-159.890747,431.235748,0.749229,0.261298,0.493219
4599888891,-171.422287,-170.335922,564.188354,0.825718,0.053713,0.394120
4599908852,-212.711075,-215.752808,709.517639,2.027193,-1.816534,0.750937
4599928811,24.860556,-262.969177,356.251495,6.459186,-0.508554,0.152055
4599948772,522.510132,61.386353,20.517324,-0.951451,7.529002,2.715871
4599968733,90.488808,-23.649570,-333.842651,0.056947,3.558426,-0.330119
4599988694,-177.419830,-7.064752,-370.460999,1.796428,2.532768,-0.106759
4600008655,-224.790070,16.743034,-431.876862,2.938487,-0.005040,0.327380
4600028616,-128.948318,111.831024,-572.091248,2.329530,-1.530012,0.349113
4600048577,-59.059891,156.871216,-610.238953,1.153016,-1.516365,0.194362
4600068538,-8.532230,172.061874,-517.283752,0.472328,-1.843359,0.058837
4600088499,154.329178,142.433884,-361.072784,0.351713,-2.340458,-0.341460
4600108460,352.833344,26.574467,-212.121094,0.438742,-1.993491,-0.211504
4600128422,380.964600,-73.652779,-59.513329,0.163202,-0.910294,-0.050720
4600148383,190.040024,-16.661343,112.938156,0.424971,0.297465,0.555158
4600168344,-139.034256,158.073914,148.246384,1.009545,2.392249,1.122922
4600188305,-180.618530,208.039688,49.371952,0.986720,2.503816,0.959496
4600208266,-75.664108,98.437187,34.438137,0.239298,0.906754,0.403358
4600228227,71.169281,-38.274315,135.884720,0.044314,0.473833,-0.454208
4600248187,-57.300209,-46.970196,224.633560,-0.010603,2.022425,0.017345
4600268150,-308.029388,-48.395405,300.945862,-0.179154,0.842564,0.149320
4600288111,-276.486969,-133.554550,396.333435,0.033500,-0.225862,0.108890
4600308072,-80.096626,-173.527328,499.127319,1.041553,0.099360,0.299166
4600328033,-45.593521,-130.857559,673.384888,1.650144,0.059163,0.293594
4600347994,-205.121796,-239.509277,831.289612,3.927431,-2.310120,1.793641
4600367956,179.866898,-9.766270,170.839386,4.957844,3.952440,0.645263
4600387916,529.912598,99.699097,-133.785431,-1.388494,5.999320,1.808543
4600407877,-6.744611,27.458567,-395.699432,1.132671,2.606241,-0.525816
4600427838,-89.356552,1.924570,-381.635803,2.027753,1.798782,0.333946
4600447799,-130.977905,41.588806,-501.608765,3.559505,-0.251014,0.269950
4600467760,-44.071045,108.762550,-627.914673,2.371269,-1.583187,0.192120
4600487720,-2.132949,128.595856,-689.735352,1.366874,-1.831065,0.022226
4600507681,42.746098,129.768829,-610.370483,0.490413,-2.394353,-0.230034
4600527642,205.299835,69.459236,-362.222107,-0.113361,-2.816407,-0.290835
4600547603,341.986176,-43.655418,-111.841408,-0.353715,-1.430236,-0.192192
4600567564,262.914917,-72.879639,98.835518,0.188276,-0.286815,0.333552
4600587525,-94.262619,76.131165,230.444519,1.145351,1.700034,1.586323
4600607487,-229.860123,225.622452,156.026688,0.546100,1.462921,0.915740
4600627447,-29.176769,33.923775,186.514343,0.593214,0.950795,-0.419626
4600647408,-132.534424,-42.012104,305.007416,-0.815203,2.212269,-0.033486
4600667369,-293.434662,-85.892845,464.450165,-0.339837,0.760600,0.417076
4600687330,-157.762497,-124.665703,564.529480,1.130226,-0.075139,0.034199
4600707291,-138.730835,-106.255760,729.315796,1.352210,-0.359325,0.625357
4600727252,-221.013901,-342.813873,765.098022,5.031661,-3.828786,1.139869
4600747214,424.550049,33.958900,78.134209,4.147442,6.578257,0.217040
4600767174,495.822815,-4.253845,-199.596039,-1.516697,6.329991,2.051924
4600787135,-161.440308,43.218868,-394.177460,1.228537,2.493047,-0.390893
4600807096,-144.730072,8.633767,-381.790863,2.111396,1.302906,0.174683
4600827059,-63.214561,58.717537,-487.362366,3.185012,-1.001740,0.043626
4600847020,34.489979,102.332611,-629.785706,1.844961,-1.068565,0.306624
4600866981,6.263116,132.712860,-660.054321,0.763068,-1.091529,0.338699
4600886942,33.001343,160.490128,-521.675232,0.404873,-2.265002,-0.172528
4600906903,225.395996,106.957985,-312.189880,-0.260677,-2.566208,-0.087555
4600926864,390.978821,-22.766022,-87.735764,-0.314088,-0.829446,-0.125088
4600946825,308.177216,-47.438393,119.074196,0.317092,0.152818,0.041322
4600966786,-29.190739,70.867760,257.640137,0.788177,1.356746,0.931572
4600986747,-280.084045,158.181732,242.070953,1.045825,1.676399,0.650409
4601006708,-193.029999,0.736104,258.774567,0.232929,1.627171,-0.433580
4601026669,-331.613892,-86.670860,418.006958,-0.724795,1.365314,0.171819
4601046630,-280.494293,-132.515640,565.395447,0.337527,0.067733,-0.330263
4601066590,-106.167160,-158.741882,643.043335,1.369125,-0.107716,-0.253195
4601086551,-210.995529,-236.306305,924.258484,1.556289,-2.471864,2.202102
4601106512,203.996979,-139.086838,201.993698,8.055673,3.184578,0.325275
4601126473,594.187744,123.090416,-168.359894,-1.880524,6.449374,2.294080
4601146434,45.286880,-19.267941,-325.673004,1.430660,1.597879,-1.378756
4601186356,-213.025009,-38.277485,-472.958679,2.689602,0.586730,-0.122700
4601206317,-127.341072,20.885979,-568.466431,2.439434,-1.135510,0.308151
4601226278,-59.487679,66.587799,-643.696167,1.431011,-1.047761,0.703279
4601246240,-42.771336,127.164742,-562.729675,0.662984,-1.677447,0.301021
4601266200,124.457390,157.995667,-365.847076,0.528095,-2.851866,0.088763
4601286161,322.208191,43.748562,-135.260986,0.240624,-1.943190,0.092283
4601306123,349.552979,-19.246078,109.644089,-0.093440,-0.496483,-0.386294
4601326084,170.809723,35.221279,301.727875,0.331274,0.458812,0.426315
4601346045,-107.334435,82.634094,292.928345,1.159859,2.263271,0.414777
4601366005,-268.162079,45.456062,322.149780,0.289270,2.468508,-0.502513
4601385966,-431.980652,-53.644608,431.522186,-0.091295,1.544586,-0.199773
4601405929,-369.361328,-115.606064,577.356201,0.134070,-0.065840,-0.458565
4601425890,-199.104095,-150.825119,706.900330,0.794655,-0.572507,0.421747
4601445851,-172.358246,-338.884979,802.941956,4.993565,-3.207055,2.007005
4601465812,680.421753,107.433670,-144.061401,4.394991,7.245363,1.891655
4601485773,260.452606,-24.368137,-307.862976,-0.965827,3.067083,-0.926083
4601505734,-39.698250,-34.891228,-329.672058,0.960265,2.073026,-0.385837
4601525695,-172.213242,-63.776127,-438.231110,1.975127,2.279213,0.148542
4601545656,-254.506561,7.496732,-519.611328,2.500159,-0.358423,0.486309
4601565617,-156.203537,114.089462,-600.227539,2.138173,-1.730103,0.517255
4601585578,-45.011086,182.134338,-588.236084,1.098007,-2.054497,0.205355
4601605539,139.064377,155.599350,-425.926056,0.232368,-2.463240,0.023885
4601625509,328.517548,36.783947,-218.629776,-0.460024,-1.605720,-0.102573
4601645460,313.645721,-0.605557,4.391809,0.159846,-0.477021,0.042927
4601665421,95.771721,60.108604,241.562225,0.247930,-0.369041,0.347376
4601685382,-115.168152,52.029522,328.292084,0.940131,0.988206,0.564401
4601705342,-253.888977,55.172077,399.639984,0.065238,1.667393,0.191286
4601725304,-247.214279,-58.217010,481.819916,0.532419,1.272089,-0.029794
4601745265,-200.551636,-70.171425,597.229431,0.704437,0.283984,-0.580774
4601765226,-169.551270,-74.949379,743.055847,0.345793,0.173273,0.422880
4601785187,-247.812210,-323.862976,805.235413,6.276639,-1.305572,2.263925
4601805148,552.706909,140.068115,-175.739883,3.374083,6.991246,1.774649
4601825109,155.787399,-58.881416,-346.423065,-1.011877,2.530942,-1.096080
4601845070,-22.426380,-41.557495,-342.157928,1.214678,2.117404,0.262638
4601865031,-163.722595,-36.193501,-470.172943,2.247354,1.762718,0.316983
4601884992,-179.908508,24.323580,-561.154602,2.446944,-0.808354,0.400822
4601904953,-74.475098,101.084625,-621.780334,1.915691,-1.695695,0.711399
4601924914,-7.407402,165.385880,-571.397705,1.000355,-1.977764,0.211686
4601944875,118.916107,176.336426,-405.851044,0.367667,-2.818739,0.039930
4601964838,309.609283,81.708115,-168.547836,-0.146044,-1.767723,-0.055460
4601984799,318.733551,35.755749,92.543243,-0.275778,-0.766704,-0.339317
4602004760,135.268112,-27.183153,302.758606,0.457393,0.015221,0.130199
4602024721,-227.487595,108.687614,396.072601,0.588266,1.929708,0.597709
4602044682,-184.688507,25.078697,376.955658,0.762150,2.504955,-0.005708
4602064643,-317.891754,-49.122448,527.701172,0.428319,0.784261,-0.088549
4602084604,-219.406006,-56.650272,657.551086,0.578121,0.307127,-0.791182
4602104565,-274.738190,-154.234467,860.910278,0.510378,-0.931590,1.550763
4602124526,147.461670,-233.974731,367.868347,8.203276,1.820570,1.884080
4602144487,495.348053,171.199020,-294.545349,-0.888005,4.998508,1.043517
4602164448,28.077976,-103.107567,-354.353271,1.200194,2.537807,-0.981225
4602184409,-124.340500,-52.750660,-325.750916,1.216070,2.236828,0.262255
4602204369,-180.998306,-22.126934,-453.577087,2.010274,0.677028,0.138733
4602224330,-98.574814,18.576607,-502.931976,1.740026,-0.758068,0.405063
4602244291,-10.329943,73.763901,-556.159912,1.071002,-0.631977,0.603812
4602264252,23.822021,130.736755,-507.529633,0.959573,-1.292331,0.085792
4602284213,113.978592,128.077271,-363.909271,1.153533,-2.152405,0.250412
4602304174,187.610336,30.839758,-191.574905,-0.342124,-1.178114,0.099751
4602324135,187.592392,-10.770327,62.527565,-0.643682,-0.275135,-0.278171
4602344096,-1.339119,46.077541,340.197845,0.374691,-0.971542,0.262407
4602364057,-56.420792,-72.876503,446.096313,1.057371,0.656806,0.169941
4602384018,-212.784286,-33.210567,499.336761,0.644989,2.115349,0.483703
4602403979,-328.215118,-49.292862,603.925659,0.889095,0.767766,0.067237
4602423940,-254.793579,-82.107330,742.936584,0.508302,-0.077582,-0.019967
4602443901,-250.430984,-276.161224,848.096313,2.561959,-2.318548,1.773562
4602463862,380.323547,-61.946091,19.844713,7.379569,5.998345,0.761889
4602483823,342.488312,35.192390,-220.182571,-1.624509,4.471278,1.243261
4602503784,-127.188972,-6.556551,-400.850708,1.781860,2.191009,-0.046609
4602523745,-159.951660,-5.346162,-391.830688,1.992034,0.898783,0.471422
4602543707,-88.576149,30.260311,-515.970276,2.182426,-0.601805,0.121405
4602563668,26.653181,44.719471,-581.107727,1.304265,-1.029418,0.319560
4602583630,43.468323,88.728233,-570.029724,0.627798,-0.587951,0.447260
4602603591,41.366581,136.534180,-463.514862,0.962218,-1.477678,0.293129
4602623552,104.234955,124.800232,-307.478912,0.678796,-1.921702,0.461392
4602643513,205.872223,55.792271,-90.825188,-0.113626,-0.961470,0.263576
4602663474,195.060547,35.559361,149.852310,0.093018,-0.293997,-0.101350
4602683434,42.739326,62.347393,369.925507,0.035916,-0.245972,0.302133
4602703396,-84.120117,15.813403,440.605103,1.003338,1.568235,0.041924
4602723357,-218.691711,-4.392599,483.920746,0.653593,1.663382,-0.338583
4602743318,-293.653442,-21.649227,613.272705,0.684732,0.939200,-0.906031
4602763279,-309.305328,-91.199463,729.928711,-0.254954,0.412378,0.036687
4602783238,-271.392365,-276.505920,727.173828,4.212866,0.151485,2.936167
4602803199,351.573181,28.667130,-160.778427,4.570847,4.792345,1.564621
4602823160,101.767319,-8.009633,-400.478973,-0.621609,2.050372,-0.935989
4602843121,22.850203,-74.014320,-386.767700,1.080781,1.914759,0.533227
4602863082,-87.260391,-26.991392,-458.367737,1.825662,1.454404,0.530024
4602883043,-125.397774,4.326300,-522.101929,1.891501,-0.185514,0.242565
4602903004,-51.687428,56.190571,-537.934326,1.686613,-0.914466,0.544422
4602922966,-7.293061,105.616730,-519.563477,1.200750,-0.948445,0.363050
4602942927,46.257744,116.685028,-395.725922,1.076143,-1.710536,0.375980
4602962888,129.792389,63.379925,-208.336761,0.408547,-1.632452,0.369559
4602982849,148.684494,12.579852,13.837402,-0.297466,-0.885274,0.097321
4603002810,78.258469,22.694721,252.655975,0.229762,-0.493776,0.171424
4603022771,-49.384354,92.903900,412.440430,0.315016,0.079144,0.659344
4603042732,-9.722061,8.286624,401.184814,1.082791,1.476704,-0.088070
4603062693,-79.270096,-50.175430,477.907837,1.052364,2.129846,-0.301393
4603082654,-232.824127,-13.410363,631.751953,0.778460,1.126991,-1.064379
4603102615,-344.647247,-93.305161,715.888489,-0.108241,0.980703,0.533640
4603122577,-239.311096,-186.406372,636.891846,3.629698,0.955776,3.132576
4603142538,242.165604,62.272614,-270.067871,3.760958,3.048100,1.722762
4603162499,171.463470,9.549802,-440.999634,0.377390,1.205141,-0.839988
4603182460,159.301056,-8.163143,-419.368408,0.480808,2.029034,0.363907
4603202421,22.623234,-32.767345,-437.094757,1.242869,1.452657,0.134173
4603222382,-59.968025,-57.164417,-424.884583,1.553281,0.294979,0.275934
4603262305,-140.137833,58.064186,-360.250122,1.228191,-1.211716,0.312591
4603282266,-58.202374,45.234379,-178.201370,0.452205,-1.894253,0.144899
4603302227,105.867599,-41.102108,59.631355,-0.592383,-1.367651,-0.152883
4603342157,291.963074,-191.853058,425.962494,1.182882,-0.129579,-1.154122
4603362109,-34.306664,-23.899387,519.394653,3.044348,2.307420,0.534943
4603382070,-540.424255,-27.533558,611.745117,0.450443,2.281549,1.194706
4603402031,-530.651245,-93.735718,453.424683,-0.287875,-0.045579,0.716987
4603421992,-0.683067,-84.372536,403.781738,2.582899,-1.143206,0.138073
4603441953,476.909760,48.386585,259.315887,1.514638,1.428158,-0.317572
4603461913,293.597168,-15.165730,49.572620,1.224622,3.877526,0.114243
4603481875,-198.496094,-32.579613,2.473932,0.879117,1.317266,-0.026816
4603501835,-282.802704,-32.167637,54.258076,1.100298,-0.311396,0.473342
4603521797,-136.633850,-3.469888,91.787674,1.698164,-0.874369,0.360305
4603541758,166.989731,3.862291,26.570057,1.118936,-0.109449,-0.443430
4603561718,122.534897,6.595353,2.891892,0.400464,1.226475,0.021076
4603581679,-36.426857,-11.424162,32.151588,0.597312,1.202087,0.233526
4603601640,-137.799927,-23.371960,41.025223,1.309124,0.270474,0.229969
4603621602,-100.015350,-19.674976,14.687875,1.161087,-0.267633,0.102025
4603641563,4.490589,-19.408939,-0.821447,1.014897,0.019178,0.061864
4603661523,26.328833,-14.700333,-3.359485,0.953864,0.455777,0.273872
4603681486,-23.847605,-1.383804,4.036620,0.871638,0.231489,0.350162
4603701447,-22.017216,2.383903,19.838192,1.049548,-0.181000,0.160210
4603721408,45.670315,2.739876,5.686997,0.999512,0.307067,-0.066978
4603741369,35.918743,-3.593611,-9.028861,0.647926,0.582611,0.009024
4603761330,-12.754951,-4.481408,1.565812,0.695436,0.253821,0.285462
4603781291,-12.854546,0.160648,14.210093,1.011372,-0.048588,0.224362
4603801252,31.306711,9.063423,22.524111,0.778233,-0.083864,0.096000
4603821213,46.662544,9.096851,40.759033,0.701425,0.145733,0.090011
4603841175,39.014030,9.559604,43.154087,0.958378,0.372155,0.109501
4603861136,30.127872,1.605706,25.764448,1.016242,0.453370,0.103495
4603881097,39.574078,5.932747,10.511713,0.994737,0.620153,0.142803
4603901058,19.699696,5.159802,3.039927,1.084761,0.632849,0.223288
4603921017,-9.315125,7.295983,1.939048,1.290660,0.476072,0.190567
4603940979,-6.913422,9.058764,-2.563760,1.040252,0.329987,0.118431
4603960939,8.301429,10.073894,0.725681,0.932197,0.477106,0.137989
4603980900,3.991042,10.240018,-6.673308,0.990832,0.625337,0.090468
4604000861,-15.387530,0.861762,-15.413205,0.911342,0.524154,0.077008
4604020822,-43.388046,-2.697502,-7.068583,1.052361,0.396366,0.172021
4604040783,-49.337425,4.659620,-7.380047,0.802144,0.191069,0.153584
4604060744,-50.444878,3.508637,0.852524,0.781995,0.028274,0.233284
4604100666,21.918499,4.388803,1.348383,1.375397,0.190891,0.099629
4604120627,59.517551,2.588632,-5.871225,1.520609,0.531925,-0.029597
4604140588,62.790398,-2.220314,-17.055193,1.324857,0.897665,-0.040817
4604160549,11.875068,-7.974811,-24.834618,1.124684,0.892731,0.076978
4604180510,-67.772400,-0.318062,-27.241894,1.169225,0.667198,0.114272
4604200472,-114.590584,2.592150,-34.732330,1.092903,0.183271,0.112057
4604220432,-110.759102,2.669477,-35.569798,1.008479,-0.291924,0.141877
4604240393,-69.542397,11.644267,-33.906353,0.916506,-0.518191,0.249984
4604260356,-7.508302,14.311471,-30.980740,0.808604,-0.569634,0.329619
4604280317,47.981281,6.310918,-22.383932,0.835245,-0.607920,0.316256
4604300278,98.578232,2.344448,-8.511913,0.898695,-0.582685,0.228039
4604320239,143.972351,7.759746,3.325287,0.889570,-0.471604,0.121968
4604340200,169.347397,7.150785,13.048604,0.901869,-0.354718,0.017744
4604360161,185.619736,3.142718,23.581757,0.950756,-0.309016,-0.092202
4604380122,196.275162,-0.707056,39.590839,1.044552,-0.280001,-0.130387
4604400083,196.987228,3.830239,54.362995,1.166510,-0.266297,-0.151231
4604420044,191.120697,16.291979,58.795151,1.192728,-0.297059,-0.222367
4604440006,193.019043,24.321127,53.454063,1.133596,-0.315596,-0.307380
4604459966,212.609787,21.681091,49.993675,1.050000,-0.343380,-0.426748
4604479926,242.569077,11.110136,48.370502,1.066762,-0.431588,-0.498118
4604499887,275.320190,2.252347,48.416077,1.152301,-0.427134,-0.568197
4604519848,302.199280,6.023026,52.597549,1.240202,-0.298048,-0.617508
4604539809,309.233093,24.256039,58.179352,1.274755,-0.213362,-0.676268
4604559770,299.570465,40.868198,59.450737,1.234771,-0.210947,-0.707274
4604579731,284.264709,43.450058,55.950706,1.191095,-0.249692,-0.758344
4604599692,278.198730,41.571445,46.264561,1.195380,-0.249467,-0.802161
4604619653,293.465424,44.460411,39.844513,1.262102,-0.209436,-0.870800
4604639614,319.157196,52.851925,48.212105,1.298575,-0.256335,-0.894313
4604659575,339.124695,54.762325,57.966915,1.260381,-0.160785,-0.876910
4604679536,334.919403,51.676399,59.672836,1.238278,0.045857,-0.872322
4604699498,312.143219,55.668015,57.064327,1.292902,0.234608,-0.880604
4604719458,276.176605,67.201218,58.711742,1.289351,0.244705,-0.776842
4604739419,235.325195,73.983200,61.078712,1.264830,0.206093,-0.649628
4604759380,199.595154,75.419739,56.898151,1.171066,0.190296,-0.540449
4604779342,184.533524,72.917175,55.394947,1.112308,0.153892,-0.466806
4604799303,181.004425,75.880447,56.039139,1.096463,0.073076,-0.441004
4604819265,197.736877,81.008377,57.240364,1.077797,0.015864,-0.413091
4604839226,230.241043,66.079163,59.320564,1.040808,-0.005777,-0.402396
4604859187,257.581146,49.694103,62.896172,1.118173,0.093025,-0.453863
4604879148,252.220535,47.663548,61.925224,1.173201,0.277375,-0.352428
4604899109,220.132370,47.932537,53.994102,1.104274,0.416978,-0.296970
4604919070,179.419739,44.560944,48.559601,1.014479,0.398809,-0.285116
4604939031,152.664978,40.660892,52.059219,1.079977,0.296679,-0.223324
4604958992,137.019897,38.798214,53.930420,1.198082,0.265866,-0.114475
4604978953,121.969391,42.675961,52.341827,1.227602,0.322299,-0.051115
4604998914,114.128647,41.682522,48.864220,1.138471,0.297664,0.010122
4605018875,127.719452,35.685009,41.609493,1.117917,0.249728,-0.012781
4605038844,136.360992,38.584003,29.680399,1.095979,0.294456,0.027972
4605058796,130.193069,42.614090,15.909568,1.055000,0.311061,0.102712
4605078757,115.328072,45.535950,4.479550,1.121347,0.321333,0.099936
4605098718,106.128128,48.917053,-4.063635,1.046788,0.297665,0.063442
4605118679,100.067940,42.490032,-14.069310,1.008320,0.316416,0.037934
4605138640,96.055603,31.686279,-26.535826,0.947642,0.405022,0.105396
4605158601,86.872269,21.678160,-37.313004,0.907007,0.412429,0.154340
4605178562,65.376656,18.049391,-45.552410,0.927437,0.384409,0.142334
4605198523,43.619637,16.353563,-49.803539,0.921317,0.357911,0.128632
4605218484,32.203926,10.710902,-52.701626,0.892961,0.268744,0.146419
4605238445,30.158058,4.003266,-52.220238,0.897447,0.188337,0.171040
4605258406,33.430416,1.648566,-49.412998,0.896471,0.105490,0.248780
4605278367,36.672112,-0.109156,-41.013359,0.817890,0.086482,0.204851
4605298328,55.381260,0.849977,-29.804117,0.680716,0.047772,0.152156
4605318289,68.254433,-1.221464,-14.655554,0.638886,0.060413,0.122862
4605338251,60.027328,1.579601,14.949722,0.779226,0.082338,0.254749
4605358212,35.309067,19.386538,56.795692,1.095502,0.142574,0.408358
4605378174,37.927147,37.267384,69.292557,1.416544,0.497710,0.566421
4605398135,49.228920,37.193058,20.272064,1.150316,0.947604,0.323327
4605418096,26.426805,37.779694,33.674629,0.463033,0.424428,0.200638
4605438057,26.278931,-7.383744,90.965797,0.333537,-0.048434,0.215024
4605458018,17.898619,-60.033833,99.691490,0.612820,-0.068874,0.133790
4605477979,1.953064,-54.358967,79.040237,1.013722,0.541181,0.145264
4605497940,-9.875218,-45.694347,129.374298,0.865234,0.490469,0.239988
4605517901,-75.885277,-30.916422,161.282806,0.986728,0.377055,0.421554
4605557823,-105.788193,-24.953089,219.917130,1.291496,0.045446,0.189349
4605577784,-65.635246,-11.980042,241.523651,1.748716,-0.039926,0.306950
4605597759,-31.561121,20.030146,213.128113,1.824726,0.159322,0.578266
4605617704,-67.166771,16.462418,118.709763,1.403412,0.706580,0.711372
4605637665,-83.528969,33.047096,20.530180,1.002632,0.823353,0.487020
4605657626,-57.257435,37.504166,-31.733833,0.732759,0.291149,0.421764
4605677588,-23.586948,19.867382,-54.258186,0.695738,-0.117904,0.240015
4605697548,9.115801,11.543464,-64.823570,0.899640,0.047529,0.228479
4605717509,-18.328800,15.484113,-69.929153,1.090631,0.141115,0.317413
