Timestamp (us),Gyroscope X (deg/s),Gyroscope Y (deg/s),Gyroscope Z (deg/s),Accelerometer X (g),Accelerometer Y (g),Accelerometer Z (g)
939623255,-14.685882,3.704633,-0.702688,0.624725,-0.637838,0.476067
939643253,-12.116505,5.085142,-0.705484,0.609750,-0.655861,0.471267
939663250,-5.061650,4.831106,-0.242602,0.600669,-0.671240,0.475790
939683249,-1.899875,2.206235,1.251924,0.614276,-0.640862,0.477924
939703247,-4.056090,1.033168,1.837041,0.618149,-0.614146,0.470255
939723246,-7.844750,1.430270,2.946851,0.611130,-0.623799,0.458657
939743244,-8.093225,0.434332,3.423660,0.591189,-0.649840,0.451650
939763243,-5.782099,0.397750,3.512060,0.587538,-0.659963,0.450309
939783242,-4.225016,0.672857,2.948949,0.595366,-0.657875,0.455373
939803240,-4.124308,1.081070,2.255099,0.593922,-0.651999,0.457275
939823238,-4.543254,1.102066,3.229632,0.594681,-0.649321,0.448576
939843238,-4.097457,0.163914,3.437031,0.580774,-0.662305,0.448179
939863237,-3.044348,-1.335491,3.021054,0.590379,-0.674834,0.444455
939883235,-0.415218,-1.920321,3.460056,0.601824,-0.674198,0.448665
939903234,2.321607,-2.343875,4.209407,0.608892,-0.666527,0.448892
939923232,4.303279,-2.728769,4.620063,0.602801,-0.658366,0.457462
939943233,4.466805,-3.629957,4.410620,0.604324,-0.643301,0.464270
939963228,2.095366,-3.404151,3.987267,0.610340,-0.638624,0.463346
939983226,0.910269,-2.348963,3.904305,0.613315,-0.645448,0.461018
940003225,2.767378,-1.576920,3.801130,0.621771,-0.642112,0.458863
940023223,4.206645,-2.077357,3.637239,0.616016,-0.639585,0.468161
940043222,1.601444,-2.910845,3.196957,0.617479,-0.626763,0.476918
940063220,-3.496233,-1.701520,2.743602,0.604845,-0.622627,0.474082
940083219,-6.886266,-0.651951,1.766415,0.588412,-0.635391,0.459883
940103217,-6.316632,0.525574,1.180926,0.591504,-0.658074,0.448405
940123217,-4.536154,1.258142,0.743909,0.585321,-0.665153,0.452829
940143216,-3.858906,0.927431,0.544732,0.593784,-0.658512,0.446610
940163214,-3.116966,1.279811,1.337676,0.604885,-0.668225,0.444955
940183213,-1.932210,0.133874,1.580637,0.608283,-0.673299,0.451179
940203211,-0.906705,-0.835172,2.051505,0.609656,-0.675608,0.444296
940223210,-0.336812,-1.338741,2.324760,0.603811,-0.671555,0.445725
940243207,0.609397,-1.250458,2.206048,0.597988,-0.667448,0.444600
940263205,1.951750,-1.262775,2.009989,0.593211,-0.663844,0.447963
940283204,2.515700,-1.393139,2.190387,0.602462,-0.656502,0.447487
940303203,3.232787,-1.409102,2.468360,0.614769,-0.652175,0.444079
940323201,2.980464,-1.523436,2.325643,0.610175,-0.652273,0.449507
940343200,2.771868,-2.116583,2.542066,0.605482,-0.653109,0.454033
940363198,3.272689,-2.755279,3.226614,0.610621,-0.659281,0.455913
940383197,4.562342,-2.695475,3.744806,0.614978,-0.650266,0.457095
940403195,4.056219,-1.612067,3.582621,0.617571,-0.629204,0.458987
940423195,1.429474,-2.090014,2.525280,0.608195,-0.631179,0.465855
940443193,-1.369421,-2.019164,2.948108,0.615650,-0.635404,0.467546
940463192,-3.810791,-0.493950,3.157528,0.606344,-0.645000,0.469242
940483191,-4.822240,0.215849,2.695371,0.601092,-0.654008,0.454550
940503189,-3.438759,0.917155,1.857545,0.602395,-0.648491,0.441799
940523187,-4.144797,0.098847,0.914562,0.606720,-0.645751,0.442713
940543184,-7.184880,-2.381152,0.316546,0.608256,-0.647308,0.463276
940563183,-10.105186,-3.929233,1.773177,0.612739,-0.665887,0.435786
940583181,-9.093525,-2.792937,0.790690,0.616456,-0.674674,0.449823
940603180,-13.152391,-11.038290,-0.604865,0.610982,-0.670059,0.440210
940623179,-18.610136,-15.381800,1.582767,0.625204,-0.668311,0.418252
940643177,-16.899300,-16.904093,4.811570,0.590078,-0.693347,0.389094
940663176,-10.134589,-15.790792,7.253007,0.572074,-0.695051,0.383101
940683174,-3.863412,-12.526537,9.550159,0.605995,-0.689686,0.376245
940703173,0.371530,-7.270039,9.453791,0.612429,-0.681363,0.389317
940723172,-1.750961,-4.302179,8.553311,0.624904,-0.632263,0.421253
940743171,-20.538004,-6.296338,12.691015,0.617165,-0.582428,0.468207
940763169,-37.483391,-9.327806,17.866116,0.554088,-0.527495,0.471836
940783168,-53.421741,-13.201180,31.103333,0.496696,-0.474905,0.440805
940803166,-67.428314,-12.129391,48.017780,0.560552,-0.679354,0.395697
940823165,-44.517162,-6.332479,49.155937,0.727449,-0.951914,0.311078
940843162,21.021677,11.757389,33.887459,0.913156,-0.946319,0.373703
940863161,80.920502,47.220295,19.204332,0.966198,-0.748296,0.568587
940883159,89.337906,67.357201,7.850383,0.836733,-0.372418,0.762824
940903158,41.362373,70.043060,-9.132341,0.773917,-0.093121,0.913333
940943154,-77.326523,80.510208,-57.942120,0.813990,0.050879,0.814196
940963153,-110.254059,97.213058,-86.554916,0.839276,0.083722,0.656506
940983151,-122.335976,118.641556,-116.074684,0.892474,0.099118,0.515237
941003150,-128.849243,144.617920,-141.529266,0.995562,0.066531,0.468066
941023150,-150.858459,207.647583,-167.385010,1.221882,0.232650,0.532465
941043148,-236.204529,225.408554,-205.034363,1.022959,0.680137,0.577587
941063147,-343.378357,185.612701,-220.740982,1.295302,0.698689,0.047703
941083146,-385.188995,189.559738,-200.847610,1.536764,0.145017,-0.239729
941103144,-347.500397,210.482147,-183.240967,1.659481,-0.365215,-0.532490
941123142,-258.412628,234.233231,-186.894104,1.712376,-0.566492,-0.645348
941143139,-166.221710,239.626465,-205.927643,1.728823,-0.384584,-0.709640
941163138,-95.884689,220.485748,-225.996445,1.574193,-0.116724,-0.808262
941183137,-71.708229,179.591553,-250.847290,1.372304,0.136490,-0.755259
941223134,-155.781189,83.597015,-302.060760,1.629901,0.561062,-0.536164
941243132,-256.102936,61.050903,-335.993683,1.895669,0.668271,-0.419838
941263131,-369.248047,60.269150,-375.415405,2.144831,0.670718,-0.565777
941283129,-446.161560,77.624054,-401.915222,2.291313,0.640127,-0.803093
941303128,-437.754364,79.617714,-402.623779,1.985968,0.787485,-1.033189
941323127,-349.371216,16.515053,-414.345673,2.174437,1.327416,-0.846756
941343126,-593.790833,68.630814,-317.128632,2.891232,0.976464,-1.687935
941363124,-739.371094,-11.574828,-142.257660,2.387942,0.087388,-2.180030
941383123,-604.073975,12.617485,-105.414238,2.193121,-0.900128,-1.464724
941403122,-382.586853,85.075348,-69.046524,1.657104,-1.250516,-1.035106
941423133,-140.734116,90.999390,-103.060471,1.015881,-0.518152,-0.890996
941443118,-21.810879,65.964981,-181.732956,0.894365,0.358936,-0.669444
941463116,9.995416,21.228003,-182.450592,0.979008,0.726541,-0.310468
941483114,-67.535706,-17.862776,-127.576385,1.146091,0.860283,-0.074407
941503113,-209.624344,-25.773483,-107.824738,1.164446,0.893759,-0.020189
941523111,-347.437897,-25.420515,-111.916016,1.126223,0.855450,-0.117587
941543110,-440.011719,-25.317684,-116.212807,1.190201,0.718310,-0.318705
941563108,-477.036255,-20.295242,-114.531395,1.311245,0.673292,-0.598107
941583107,-473.042572,-14.026237,-118.370110,1.346635,0.606676,-0.709563
941603107,-430.958313,-10.082517,-122.068321,1.263263,0.399790,-0.692081
941623105,-371.759918,-3.091985,-129.194626,1.170163,0.296554,-0.630682
941643104,-322.602661,5.408020,-140.773117,1.086572,0.344821,-0.557924
941663102,-295.374054,7.364126,-149.592392,1.075864,0.504172,-0.536216
941683101,-303.778137,-1.936855,-151.062103,1.105978,0.705056,-0.531155
941703099,-345.989014,-23.010740,-150.021439,1.091577,0.848065,-0.602366
941723096,-380.055634,-39.713238,-148.490616,1.166998,0.688817,-0.590859
941743095,-374.921478,-31.265890,-134.265610,1.316620,0.364347,-0.624959
941763093,-343.028412,-10.291165,-113.851379,1.396334,0.257201,-0.644311
941783092,-316.500214,-1.606827,-106.184616,1.412148,0.400391,-0.588338
941803090,-309.863983,-9.523108,-109.043983,1.343890,0.574967,-0.464642
941823089,-315.389893,-13.971607,-104.894943,1.334424,0.618957,-0.479278
941843087,-323.894653,-8.301244,-95.914589,1.362865,0.629283,-0.528681
941863086,-339.963257,-3.199667,-90.810753,1.319739,0.694182,-0.548721
941883084,-363.447327,-3.923065,-94.925423,1.271800,0.745374,-0.593500
941903084,-371.652496,-1.099129,-100.896629,1.236119,0.637443,-0.648117
941923083,-356.072662,3.179583,-102.704628,1.236864,0.540939,-0.688769
941943081,-334.726379,8.882551,-103.025581,1.243232,0.543111,-0.648238
941963080,-326.884705,14.074393,-104.992363,1.289168,0.567610,-0.583388
941983078,-330.474426,20.023291,-108.468231,1.257943,0.582947,-0.542526
942003077,-336.396393,23.199089,-112.832794,1.230190,0.646950,-0.564221
942023074,-343.653381,21.407471,-117.130745,1.218092,0.688912,-0.584782
942043072,-346.660492,18.092073,-120.248108,1.270902,0.617363,-0.621279
942063071,-340.443237,18.467497,-122.641602,1.291065,0.548344,-0.630962
942083070,-327.601227,19.640192,-125.030975,1.285837,0.553238,-0.601627
942103068,-317.822083,16.891687,-129.675980,1.235357,0.604734,-0.565436
942123067,-314.381317,9.209177,-133.380539,1.209809,0.674510,-0.517144
942143065,-318.319519,2.437246,-135.946030,1.281836,0.720318,-0.487294
942163063,-326.956787,0.075143,-134.269608,1.316648,0.734159,-0.446839
942183062,-338.956879,-1.917535,-133.878983,1.264480,0.796908,-0.433551
942203062,-356.857880,-4.227207,-139.585037,1.252754,0.929405,-0.466718
942223061,-382.169952,2.579192,-147.205994,1.302911,0.996838,-0.470077
942243059,-403.749207,15.225779,-157.583450,1.382728,0.890803,-0.557767
942263058,-403.810516,34.990749,-173.661774,1.486586,0.731434,-0.506201
942283056,-335.544617,68.329605,-200.509628,1.413832,0.491855,-0.337238
942303055,-288.787598,78.752136,-224.693176,1.245862,0.818026,-0.395661
942323052,-283.562439,83.381958,-252.148819,0.995695,1.229303,-0.314194
942343050,-316.486816,51.035908,-276.967590,0.944574,1.487723,-0.315578
942363049,-371.358826,10.081103,-287.329956,1.085432,1.270450,-0.488511
942383047,-400.631287,-12.397905,-285.490875,1.247767,1.012724,-0.591465
942403046,-366.220734,-14.931217,-275.005096,1.237711,0.737028,-0.572918
942423044,-311.526520,-14.201376,-262.187378,1.173505,0.540002,-0.479594
942443043,-256.186157,-9.546625,-244.519272,1.155806,0.387991,-0.341706
942463041,-207.461487,-9.789114,-216.607986,1.106346,0.394598,-0.156589
942483040,-135.596146,-17.430725,-170.560867,0.957360,0.440832,0.045709
942503040,-105.488495,-32.908058,-118.063629,0.997584,0.556641,0.225582
942523038,-149.374283,-53.013935,-74.189835,1.078755,0.528539,0.338662
942543037,-177.856232,-53.443726,-23.552597,1.186883,0.390417,0.248650
942563035,-169.948578,-24.674841,39.712524,1.247245,0.231721,0.301865
942583034,-159.772339,6.734283,99.885178,1.123281,0.083341,0.377238
942603032,-134.526154,17.809296,145.057281,1.198638,-0.045851,0.392661
942623029,-108.767181,27.673159,174.532318,1.404973,-0.164763,0.418366
942643028,-81.027725,38.364120,205.962799,1.568371,-0.279785,0.487181
942663027,-72.106911,53.052010,229.671768,1.568047,-0.403060,0.537143
942683025,-80.344307,61.958145,224.767456,1.342211,-0.356992,0.594911
942703024,-117.445709,64.283821,189.521088,1.054032,-0.271595,0.685016
942723022,-172.504868,65.707031,159.194000,0.695841,-0.194006,0.551420
942743021,-227.414886,58.458160,141.436859,0.335926,-0.279711,0.381731
942763019,-263.587830,29.191599,135.602112,0.044399,-0.498628,0.177560
942783018,-237.254562,-12.054723,155.662643,-0.192627,-0.800079,0.029389
942803017,-152.550552,-61.134998,161.266113,-0.273748,-0.985861,0.057515
942823016,-68.914284,-104.768349,147.289047,0.028047,-1.040414,0.154615
942843015,8.627489,-119.354141,138.649323,0.313671,-0.887929,0.199023
942863013,38.143219,-117.559006,144.031067,0.400570,-0.481515,0.243093
942883011,-8.771962,-133.924042,151.288132,0.318272,-0.257815,0.507187
942903011,-85.845047,-177.343597,125.588928,0.218967,-0.577004,0.632136
942923007,-99.264496,-198.624252,75.385895,0.484188,-0.833199,0.432866
942943005,-60.517746,-154.230850,23.978127,0.634146,-0.690456,0.300648
942963004,-37.573711,-108.507843,-20.030127,0.689376,-0.321255,0.562340
942983002,-57.237701,-67.956787,-13.619092,0.673880,-0.389702,0.749409
943003001,-94.116905,-15.847589,24.477016,0.701044,-0.564227,0.771702
943023000,-115.023254,23.180765,46.897228,0.740661,-0.820404,0.633374
943042998,-115.304184,45.747101,68.735497,0.704992,-1.055002,0.392159
943062997,-102.797310,32.926785,90.288200,0.547699,-1.242083,0.140415
943082997,-45.466614,11.526386,89.500183,0.388937,-1.328964,-0.004062
943102995,29.828871,10.322548,71.409637,0.438378,-1.216708,-0.033384
943122994,65.225670,15.054436,49.659599,0.289075,-0.816524,0.095698
943142993,57.602016,7.195517,24.462254,0.184123,-0.649171,0.238382
943162991,32.571358,5.487173,2.873033,0.233966,-0.658267,0.299135
943182989,9.302541,13.280655,-15.795969,0.285336,-0.590287,0.246888
943202986,-0.597276,26.437027,-43.798737,0.399084,-0.546391,0.243071
943222985,-0.873420,45.387321,-54.872017,0.516625,-0.590580,0.226052
943242983,-2.146113,57.482349,-73.136635,0.484318,-0.437730,0.339497
943262982,-42.770020,38.183548,-87.735489,0.452424,-0.665171,0.330903
943282980,-51.331600,26.673000,-93.822464,0.510258,-0.898520,0.213844
943302979,-38.888718,21.639450,-104.480362,0.582861,-1.032335,0.162631
943322977,-9.292925,21.940973,-123.258087,0.577073,-1.085439,0.114861
943342976,36.076092,29.156242,-147.663925,0.452657,-0.972180,0.094993
943362974,67.208473,34.305149,-174.100388,0.424512,-0.812499,0.171068
943382974,90.662033,36.692711,-200.496841,0.602732,-0.558380,0.316820
943402973,97.565033,22.902721,-210.231018,0.700417,-0.268966,0.344917
943422971,80.279022,-16.081638,-216.890717,0.883638,-0.261207,0.173878
943442970,53.807835,-51.775269,-241.138641,1.305406,-0.563531,0.222814
943462968,39.374313,-49.328125,-297.060547,1.624074,-0.626595,0.455306
943482967,43.210155,-1.480664,-361.281342,1.666600,-0.279325,0.633106
943502964,41.050629,71.854218,-387.418884,2.102069,0.279876,0.181572
943522962,113.698311,72.399902,-302.275848,1.052394,0.806420,1.149422
943542961,-126.193253,140.362045,-296.320587,1.656742,0.401156,0.316702
943562959,-380.782196,92.224953,-156.350357,0.880894,-2.113766,-0.139474
943582958,-263.656097,-119.328606,96.310768,0.654302,-3.726585,0.055424
943602957,149.895584,9.967137,233.488586,1.731296,-2.627479,0.173891
943622955,374.473206,89.520851,282.455292,1.560380,-0.579042,-0.083149
943642954,394.647430,60.018608,308.927368,1.391488,0.405170,-0.170573
943662952,275.705414,-3.703459,335.156525,0.854387,0.791373,0.115817
943682952,76.994263,-53.742348,317.657471,0.549261,0.849023,0.230258
943702950,-110.358665,-89.659355,261.521484,0.287542,0.656484,0.376255
943722949,-198.670029,-113.597855,248.438232,0.345214,-0.373927,0.348427
943742947,-121.022156,-129.483704,250.435364,0.581703,-1.226067,0.242765
943762946,39.134140,-131.269882,238.708038,0.943298,-1.230461,0.153797
943782944,166.901031,-100.840645,230.311127,1.006781,-0.854567,0.285577
943802942,145.028778,-85.841431,222.264938,0.931854,-0.366765,0.599961
943822940,56.638523,-83.065735,200.215286,0.888436,-0.181394,0.739794
943842938,-13.187124,-76.242844,167.795761,0.842198,-0.179980,0.617624
943862937,-41.017990,-53.793110,118.965004,0.666641,-0.074097,0.521098
943882935,-70.819862,-28.378237,67.120468,0.612047,0.145280,0.479687
943902934,-93.748070,15.563183,43.338882,0.872947,-0.016303,0.736190
943922933,-118.372101,70.215485,97.766846,0.425603,-0.552231,0.801765
943942931,-167.029175,99.991692,83.377388,0.458784,-0.520862,0.527329
943962930,-160.650330,111.953522,52.676308,0.395649,-0.701887,0.120459
943982930,-123.315063,124.989044,32.095650,0.399471,-0.821692,-0.070129
944002928,-61.221931,119.939018,7.030677,0.262296,-0.924327,-0.095565
944022927,7.592031,112.886398,-13.412724,0.339368,-1.037799,-0.084471
944042925,57.905643,117.915932,-29.411175,0.302393,-0.846092,0.120185
944062924,42.459450,84.355988,-83.105774,0.085949,-0.501886,0.208404
944082930,-27.396959,45.632549,-135.570908,0.212092,-0.547908,0.145891
944102919,-34.064774,37.409676,-167.891541,0.276159,-0.735098,0.106449
944122918,13.158998,53.963428,-185.128815,0.297072,-0.884766,0.154020
944142916,46.839439,59.230431,-227.133301,0.268209,-0.802054,0.205638
944162915,72.654495,38.963787,-278.226868,0.499785,-0.707141,-0.047983
944182913,117.921799,16.198845,-304.069397,0.797586,-0.735559,0.033624
944202912,114.470634,-16.558907,-342.106995,1.183498,-0.593022,0.236543
944222910,70.449043,-28.181604,-388.497955,1.457928,-0.333506,0.381083
944242909,32.817413,-17.816374,-384.421387,2.179695,0.073619,0.151225
944262908,96.276436,-10.376373,-296.372314,1.222868,0.789446,0.997151
944282907,-114.899200,40.618134,-337.070404,1.784149,0.674820,0.806441
944302906,-408.175507,157.416641,-230.089890,1.730488,-1.305548,0.068649
944322904,-390.112793,-42.092575,17.809175,0.633250,-2.666880,-0.286622
944342903,-173.826538,-93.543304,138.286636,0.901851,-2.682095,-0.126153
944362901,150.050125,-13.943251,185.112518,1.352269,-1.232901,-0.192229
944382898,325.995056,-1.632552,177.611191,1.128607,-0.481280,0.004043
944402897,329.724304,-41.843624,152.843002,0.966692,-0.159821,-0.038010
944422895,249.835159,-65.348061,198.363358,0.938042,0.505107,0.074537
944442894,69.826927,-76.408875,229.321503,0.771905,0.739840,0.451820
944462892,-117.038116,-77.200562,197.250778,0.704719,-0.013925,0.449864
944482891,-143.759186,-85.260506,179.528107,0.813800,-0.776453,0.204717
944502889,-52.990112,-86.056679,181.229721,0.963893,-1.202282,0.025321
944522888,73.501289,-82.331795,173.332062,0.930292,-1.222841,-0.012739
944542886,160.858109,-81.268425,167.905045,0.936451,-0.834801,0.057071
944562886,167.133789,-73.632675,169.088058,0.964840,-0.440040,0.210190
944582885,89.008591,-61.809101,165.568878,0.779038,-0.287831,0.400911
944602883,6.338366,-53.580437,152.063202,0.698665,-0.541968,0.436936
944622882,7.176330,-28.253796,143.684097,0.729848,-1.025445,0.315516
944642881,83.690979,2.105046,135.080872,0.642545,-1.183922,0.216095
944662879,157.601105,17.648033,119.922493,0.570312,-0.971317,0.259716
944682876,180.183395,25.411554,101.211372,0.499403,-0.557462,0.475668
944702875,146.209320,39.813614,75.638313,0.477869,-0.309415,0.561853
944722873,93.562439,60.078739,42.007896,0.369370,-0.208243,0.546710
944742871,43.911465,66.808258,8.273157,0.259931,-0.183909,0.477825
944762870,17.988499,63.271812,-26.458149,0.183212,-0.296391,0.330280
944782869,15.572638,52.912716,-62.998558,0.152123,-0.367957,0.212759
944802867,21.363638,35.153011,-108.563316,0.182341,-0.405159,0.186179
944822866,29.860596,17.427122,-158.305023,0.161437,-0.432785,0.251156
944842864,43.274654,6.712424,-202.652237,0.246247,-0.443092,0.317206
944862864,63.101334,4.643401,-225.485870,0.632541,-0.450011,0.425097
944882863,52.473293,6.916149,-205.727325,0.965013,-0.596022,0.668854
944902861,16.610895,0.560276,-169.589844,0.926197,-0.901663,0.623173
944922859,5.390571,-22.002283,-173.121994,0.702277,-0.706631,0.459205
944942858,-8.112446,-53.872540,-185.644714,0.580007,-0.482797,0.298646
944962856,5.392729,-74.421638,-185.636047,0.747384,-0.498817,0.322834
944982853,37.153290,-64.955757,-170.769775,0.964147,-0.541287,0.560187
945022850,9.229023,-17.918173,-101.496300,0.902456,-0.297980,0.776572
945042849,-30.599287,7.119905,-65.695786,0.826177,-0.376346,0.695004
945062848,-44.425095,13.693293,-28.304102,0.922418,-0.461993,0.538116
945082846,-39.677292,10.456954,7.983309,0.959782,-0.511976,0.461178
945102845,-22.202744,5.528858,21.209463,0.832428,-0.562620,0.430664
945122843,18.729015,-6.309795,25.232996,0.781321,-0.514676,0.363828
945142842,59.020218,-13.299429,30.400169,0.787980,-0.372323,0.366907
945162842,65.418655,-16.459478,41.662685,0.838658,-0.184873,0.441980
945182840,42.283508,-17.418211,50.990700,0.819956,-0.095406,0.491590
945202839,15.958451,-14.217724,49.416992,0.793533,-0.107942,0.510216
945222837,-15.981530,-14.558773,48.599319,0.785527,-0.128639,0.468676
945242836,-52.937012,-27.904303,53.699802,0.734298,-0.265477,0.384793
945262834,-51.693840,-44.078079,50.932888,0.793532,-0.539485,0.344447
945282831,25.590424,-42.567886,33.938065,0.973873,-0.795491,0.362966
945302830,107.002739,-13.388939,22.186893,1.085120,-0.481359,0.442267
945322829,103.330254,15.853237,18.446228,0.942898,-0.017411,0.667130
945342827,21.854952,19.204514,14.342399,0.786451,0.100424,0.786157
945362825,-55.336494,8.801473,9.794991,0.789011,-0.117517,0.609470
945382824,-74.596786,14.613792,1.945714,0.802021,-0.409374,0.453909
945402822,-45.319725,24.117577,-7.494692,0.773141,-0.605409,0.408377
945422821,-6.909138,25.622536,-13.133292,0.698216,-0.579763,0.374299
945442820,10.653723,16.989363,-17.604795,0.607032,-0.463779,0.359011
945462819,12.738010,5.506702,-29.250044,0.607475,-0.415758,0.367582
945482818,17.993107,-2.668287,-45.833939,0.647489,-0.392447,0.372370
945502816,24.818748,-8.686559,-53.589157,0.669427,-0.287620,0.431092
945522815,19.821854,-13.728902,-53.809448,0.684827,-0.301274,0.567005
945542813,14.500872,-16.920458,-48.162369,0.813139,-0.339938,0.640769
945562817,-5.384508,-16.194653,-38.636448,0.861861,-0.310487,0.630135
945582809,-25.077040,-13.649811,-26.452293,0.783565,-0.428989,0.586836
945602807,-10.176567,-5.178632,-22.432318,0.749050,-0.561378,0.552766
945622806,17.317142,6.037010,-14.226679,0.771171,-0.542722,0.529806
945642805,34.178288,7.201911,-2.856781,0.781101,-0.467127,0.548083
945662803,35.968231,-2.646578,6.982830,0.741231,-0.438381,0.553898
945682802,28.537870,-11.555007,11.761143,0.748502,-0.445585,0.524984
945702801,30.020704,-14.876893,18.084473,0.746195,-0.495491,0.470907
945722799,44.702358,-15.555898,20.300289,0.710649,-0.473190,0.477412
945742799,58.711803,-16.482872,22.892666,0.707863,-0.460818,0.492975
945762797,66.461578,-21.862465,26.688919,0.690619,-0.404068,0.481804
945782796,70.205948,-24.009975,29.516104,0.698006,-0.355815,0.510509
945802794,73.064423,-29.758095,33.093193,0.706640,-0.352699,0.531436
945822793,75.043121,-32.730038,36.289349,0.751028,-0.369234,0.572455
945842791,76.264282,-36.320545,40.456879,0.768672,-0.372847,0.587557
945862788,74.187439,-38.645180,42.673115,0.781059,-0.357977,0.577784
945882787,77.391129,-40.081699,40.696762,0.786310,-0.342499,0.574497
945902785,84.967758,-34.272671,36.851353,0.797984,-0.372979,0.609016
945922784,92.305588,-24.208540,34.568405,0.813941,-0.381798,0.651637
945942782,89.936699,-16.268780,28.729740,0.772978,-0.262810,0.622122
945962781,80.598785,-8.102029,26.470774,0.729370,-0.169769,0.573277
945982779,69.170052,-4.787112,37.093826,0.666175,-0.222658,0.582575
946002778,62.178513,-10.549737,51.187859,0.613174,-0.350387,0.573605
946022776,72.006798,-21.516895,53.305294,0.638409,-0.390788,0.513000
946042776,90.958229,-30.407120,51.761955,0.664613,-0.375439,0.506369
946082773,86.983910,-50.160294,51.672077,0.647289,-0.240017,0.567601
946102772,78.029167,-54.437286,46.435631,0.661058,-0.361142,0.636189
946122770,82.508484,-50.745419,46.162853,0.662316,-0.494474,0.690882
946142769,94.043449,-45.010273,41.942532,0.680989,-0.468477,0.673887
946162766,117.586098,-31.426516,43.832829,0.778093,-0.442970,0.726192
946182764,120.554497,-23.899054,52.463589,0.837396,-0.437797,0.800687
946202763,105.244354,-16.202127,55.378784,0.825079,-0.431838,0.843160
946222762,100.898293,-4.865340,60.575584,0.783557,-0.572033,0.812241
946242760,122.316109,18.942213,65.795746,0.741908,-0.454705,0.703751
946262759,136.017914,46.233566,75.974937,0.680211,-0.465086,0.769969
946282757,128.462662,53.376354,93.827919,0.723937,-0.438098,0.821258
946302756,93.376442,44.326984,105.633392,0.664641,-0.417095,0.778105
946322754,71.890083,24.525600,109.157410,0.653404,-0.584283,0.703574
946342754,87.872307,2.658053,117.299629,0.651529,-0.748808,0.625630
946362752,112.700867,-9.384720,121.800400,0.642756,-0.717967,0.639754
946382751,133.212006,-19.762070,126.016975,0.599090,-0.594603,0.664236
946402750,133.397888,-28.081232,132.566452,0.605268,-0.506543,0.728530
946422748,126.625839,-33.706478,141.939697,0.596105,-0.441745,0.751797
946442747,112.458008,-36.531857,147.199951,0.630365,-0.413583,0.794855
946462744,89.755997,-35.515987,150.224808,0.663208,-0.441629,0.770350
946482743,74.446251,-34.585796,155.670837,0.610698,-0.441579,0.759604
946502741,70.648018,-43.763226,165.426544,0.509746,-0.479061,0.830404
946522740,74.191811,-58.693672,175.524368,0.555937,-0.627687,0.848477
946542738,89.946228,-61.573406,177.372879,0.665561,-0.693515,0.787744
946562736,97.622421,-51.463802,180.111359,0.547717,-0.372710,0.809723
946582735,44.404442,-52.578182,178.862427,0.439576,-0.316307,0.842977
946602734,8.963840,-62.559158,177.154526,0.393719,-0.566920,0.757156
946622732,28.731405,-67.873131,172.878296,0.353154,-0.676167,0.660551
946642732,57.918961,-68.144455,166.659134,0.353370,-0.557095,0.659727
946662730,61.924202,-77.565582,148.627502,0.200675,-0.350823,0.643527
946682729,38.678009,-106.879715,107.868164,0.063080,-0.200955,0.506936
946702727,57.904594,-115.302490,72.831184,0.114200,-0.005726,0.649851
946722726,60.900631,-75.077774,62.254471,0.314173,0.215369,1.023003
946742733,-56.558285,-62.897137,77.159332,0.092636,0.317249,1.093184
946762721,-180.033661,-113.709503,100.804886,-0.128745,-0.366156,0.837292
946782720,-178.120056,-151.053375,140.048813,0.174947,-1.256922,0.545997
946802719,-92.264709,-152.601501,145.933105,0.412300,-1.178146,0.361185
946822717,-27.846912,-141.320236,133.352783,0.441522,-0.650640,0.377273
946842716,-24.722485,-123.035454,125.489105,0.291914,-0.334919,0.479738
946862714,-61.805164,-95.418243,106.413368,0.278529,-0.347593,0.552588
946882712,-145.414337,-69.718536,66.797485,0.141373,-0.410546,0.695567
946922711,-181.682236,-107.975861,46.071217,0.478335,-1.570925,-0.002728
946942710,-45.975903,-122.350685,39.239437,0.608523,-1.713577,-0.039908
946962708,57.458897,-125.087006,20.160984,0.599662,-1.510035,0.137666
946982706,83.750755,-104.365967,-7.137076,0.629154,-0.911333,0.301438
947002705,48.863400,-78.439255,-43.936821,0.687231,-0.715726,0.474700
947022704,20.510910,-61.568779,-92.603134,0.526137,-0.987006,0.444682
947042701,46.447041,-36.178303,-142.255173,0.387279,-1.022853,0.109800
947062699,92.672714,-28.700502,-194.722870,0.246407,-1.364416,-0.380218
947082698,186.677307,-1.240803,-284.272552,0.515981,-1.487415,-0.387563
947102696,279.298859,42.465370,-376.777344,0.888962,-0.738940,-0.092651
947122695,293.208771,101.770714,-445.237732,1.624941,0.296741,-0.210706
947142693,280.435150,31.418289,-305.838226,0.848792,1.761528,0.691938
947162691,-14.469137,-93.027390,-314.824463,1.591536,0.290423,0.676867
947182690,-215.469589,-37.013184,-160.228088,0.778140,-3.724817,1.391600
947202689,-87.616638,-73.782928,242.894470,0.341313,-4.433329,0.720074
947222689,242.149963,24.216051,455.868286,2.621625,-2.286239,0.430372
947242688,394.581665,33.279121,515.720398,2.458976,-0.043546,0.324496
947262686,227.668106,4.143053,556.914246,1.681678,1.094068,0.513916
947282684,-56.142475,-53.415443,558.030762,0.855880,1.346422,0.268575
947302683,-257.339783,-96.920433,496.604553,1.148762,0.677256,0.194146
947322681,-205.304657,-136.831726,359.812927,0.709744,0.561207,0.505750
947342678,-119.290665,-76.569176,156.548569,0.079295,1.500056,0.814361
947362677,-239.533340,-39.662418,-85.921463,-0.560126,2.427126,0.451800
947382675,-361.894226,-24.130960,-232.609283,0.667738,1.007580,0.635568
947402674,-296.917542,69.658905,-77.590454,0.732735,-3.041649,-0.854345
947422673,17.041245,160.605881,-199.149185,1.324484,-2.276918,-1.202108
947442671,289.900818,145.487564,-176.617096,-0.858843,-2.388175,-0.624181
947462669,383.090485,54.672245,-264.274292,-1.053851,-0.959373,-0.524042
947482668,312.371033,2.601556,-392.827881,-0.323927,-0.173183,0.311606
947502666,155.584229,-27.279934,-472.035278,1.340645,0.410954,0.882470
947522666,-50.492733,14.784270,-514.866821,2.677886,1.157994,0.784116
947542665,-100.645882,1.558228,-407.617096,2.641176,0.754741,1.378290
947562663,-112.723343,173.586166,-331.702454,2.625824,-1.327493,0.808098
947582662,-274.581177,-11.161613,19.641407,0.538521,-5.317534,-0.350563
947602661,-132.637268,-110.877647,355.936035,0.678081,-4.557545,0.346003
947622659,359.125183,29.433960,516.766113,3.078406,-1.922236,-0.175297
947642657,432.475525,50.954330,546.685303,2.489240,0.630534,0.096710
947662655,172.505814,5.365080,581.197327,1.440381,1.528166,0.208545
947682653,-145.574402,-87.846687,552.242371,1.058085,1.285023,-0.063302
947702652,-245.458923,-154.101410,456.282227,1.143766,0.471494,0.291940
947722650,-120.586037,-163.823608,296.868988,0.431338,1.240968,0.617835
947762647,-226.452637,89.898834,-267.227539,-0.721128,2.821178,0.814738
947782646,-444.565247,-3.536538,-225.386795,0.978255,-1.070559,-0.480713
947802644,-109.864326,96.028229,-210.564880,1.397698,-2.704780,-1.828023
947822644,331.344055,158.935669,-344.189575,-0.785688,-1.678299,-0.243670
947842643,412.729614,6.567961,-402.286743,-1.117300,-0.684002,0.113527
947862641,183.524384,-3.731130,-493.699768,0.823991,0.469004,0.819457
947882640,-52.343796,60.857861,-510.348022,3.308162,0.942664,0.773246
947902638,-129.689911,20.155413,-330.724243,2.704060,0.171841,1.426555
947922637,-251.742111,99.967751,-320.580994,3.256063,-2.194778,0.373510
947942634,-287.589111,-11.696194,65.337257,0.785096,-5.543838,-0.578574
947962633,-52.478729,-121.971199,376.518341,1.005989,-4.471035,-0.167855
947982631,340.673706,-39.868446,535.182617,2.916462,-1.785594,-0.281189
948002630,400.996246,12.566551,569.314758,2.450608,0.455148,-0.102208
948022628,194.808044,-9.174037,575.416260,2.040729,1.326671,0.046563
948042626,-84.568130,-95.596954,529.565613,1.297762,1.868175,-0.122208
948062625,-204.736298,-155.995789,377.512451,0.804791,1.612719,0.468294
948082623,-215.092529,-95.765770,190.844635,0.106548,1.759718,0.361495
948102622,-224.931000,111.598854,-172.120773,-1.232759,3.224445,0.393828
948122622,-370.379639,0.682020,-391.927063,0.640143,1.389542,0.052749
948142621,-205.357986,107.225525,-177.547882,1.695315,-4.325158,-1.696052
948162619,220.249054,236.370605,-426.349152,0.500181,-1.102273,-1.524817
948182618,484.596710,107.693832,-446.275635,-1.238108,-0.991672,0.433468
948202616,263.486877,-9.086003,-506.389679,0.308890,0.209185,0.220977
948222626,16.375784,3.229131,-509.633118,3.373539,1.149040,0.566408
948242612,-96.594002,29.994585,-318.381134,3.272056,0.249347,1.509437
948262610,-269.214966,91.672882,-360.101715,3.471108,-1.814647,0.555825
948282609,-314.780792,-61.252304,131.678741,0.996759,-5.597245,-0.681069
948302607,49.847080,-133.869217,375.413300,1.339535,-3.875743,0.017456
948322606,320.306641,-75.277718,557.360229,2.982633,-1.689280,-0.199087
948342605,419.117767,32.487732,577.941650,2.564250,0.367661,-0.069710
948362603,228.783203,75.094437,572.439697,2.001673,1.443882,0.302238
948382601,-5.248930,48.274765,545.398743,1.777128,2.393771,-0.201623
948402601,-270.141296,-4.390885,412.597687,0.068733,2.718206,0.411243
948422600,-423.683990,11.948144,154.361206,-0.421747,2.553267,0.222210
948442598,-423.793976,89.800255,-175.627594,-1.577167,2.797520,-0.467722
948462597,-342.632843,2.232807,-428.340027,0.447409,0.380345,-0.489833
948482595,-110.728149,103.819672,-240.628845,1.611126,-5.264604,-1.688486
948502594,368.623596,227.547546,-472.582916,0.938303,-1.800445,-1.524274
948522591,518.312561,104.879448,-434.356720,-0.649994,-1.564021,0.231179
948542589,373.930206,25.813097,-466.274323,1.351230,0.902447,-0.317998
948562588,10.369640,-102.332634,-360.704559,3.459839,1.668703,2.526654
948582587,-370.114594,66.784363,-171.885193,3.042808,-4.168433,1.062734
948602585,-221.584305,52.240826,204.474899,0.955916,-4.182706,-0.237644
948622584,105.222855,19.941242,315.811462,1.506988,-2.626992,-0.461054
948642583,325.207489,0.608425,425.821747,1.864980,-1.228409,-0.567145
948662581,385.888824,11.018660,469.170715,1.760723,0.354268,-0.366477
948682579,278.183075,84.926544,454.805359,1.793315,2.470855,-0.165246
948702579,-138.657104,88.640121,271.595581,-0.659223,3.976504,0.975847
948722577,-579.793884,-81.244217,-27.062088,-0.975853,2.819800,-0.122685
948742576,-500.796906,-111.061615,-201.692535,-0.996189,0.362994,-1.363452
948762574,-111.121902,-83.341187,-342.969971,-0.339511,-1.423187,-1.353113
948782573,265.738464,-52.096626,-364.773743,1.479519,-3.229323,-0.729283
948802571,423.562500,18.187462,-355.333801,1.324039,-0.189765,0.463452
948822568,111.563583,-75.229416,-287.773682,0.578229,0.953580,1.500230
948842567,-130.581497,7.823648,-291.064117,2.033059,0.903438,0.958313
948862565,-204.912766,64.763062,-250.257874,2.295935,-0.701351,0.317728
948882564,-169.640442,130.815659,-190.615265,1.578588,-1.293652,0.160343
948902563,-206.920258,100.925140,-131.779388,0.778636,-1.009418,-0.455203
948922561,-198.920166,32.853577,-52.899834,0.216607,-1.326527,-0.972093
948942560,-84.389397,-31.796047,-6.462417,0.477804,-2.115699,-0.795519
948962559,142.465454,-53.134514,-19.256901,1.087007,-1.763553,-0.263277
948982557,263.684998,-36.022179,-16.103722,1.344937,-0.197556,0.273961
949002557,141.615601,8.608781,-18.932558,1.104779,0.746926,0.411005
949022555,-75.024574,31.823870,-51.872845,1.088654,0.274649,0.131861
949042554,-189.923920,19.622637,-46.223930,1.134192,-0.631045,-0.174847
949062552,-121.609703,4.793344,-18.001652,0.927555,-1.238101,-0.212844
949082551,32.080322,0.919482,9.013447,1.070511,-1.495761,-0.073084
949102550,121.885468,-3.688180,70.528297,1.159012,-0.864585,0.052472
949122547,81.260468,9.323706,89.242859,1.135916,-0.580761,0.069953
949142545,11.716461,22.289021,105.080399,1.019560,-0.994303,0.062273
949162544,16.143913,23.243767,163.380737,1.107197,-1.217894,0.010584
949182542,71.553513,27.106974,189.533020,1.299222,-1.264812,-0.112185
949202540,118.806381,13.919179,186.063644,1.261927,-1.150808,-0.262265
949222539,124.504578,-6.763369,195.212570,1.096171,-1.111585,-0.155441
949242538,106.653587,-6.075542,215.748413,0.822114,-0.836468,-0.184320
949262536,94.616318,-20.917706,230.453796,0.591353,-0.654055,-0.204770
949282535,102.703011,-56.234798,255.198792,0.686088,-0.978021,-0.119845
949302534,127.798553,-70.363678,263.781067,0.660146,-0.689881,0.004538
949322533,111.074600,-74.299728,232.277283,0.514653,-0.247116,0.313340
949342532,80.333694,-55.652271,180.627274,0.510795,-0.157386,0.396936
949362530,49.184532,-31.910954,104.417801,0.319664,0.083751,0.485899
949382529,40.637272,2.446344,37.312962,0.380385,0.044935,0.556887
949402528,-0.740296,30.191319,-14.010509,0.269006,0.169936,0.436632
949422524,-46.561649,16.991098,-45.035423,0.225331,-0.041594,0.277350
949442523,-66.092216,20.236120,-50.926407,0.273346,-0.605185,0.287040
949462521,-57.823120,33.599789,-36.829193,0.349653,-0.889382,0.271469
949482520,-62.599648,27.857250,-17.121864,0.256698,-0.944865,0.112577
949502518,-61.123241,12.711155,-5.470963,0.306086,-1.246392,0.154741
949522517,-41.768215,22.465113,1.600580,0.361320,-1.288389,0.255734
949542515,-42.611542,29.567305,3.434074,0.358048,-1.189137,0.173449
949562514,-47.396542,20.630896,5.457069,0.274672,-1.237868,0.074935
949582514,-32.958107,17.385187,17.906736,0.209560,-1.306498,0.067763
949602512,-23.911520,12.487481,32.561932,0.178971,-1.223515,0.084971
949622511,-15.837157,6.082572,39.043919,0.203608,-1.194594,0.046099
949642510,1.432817,1.691295,34.911694,0.239305,-1.117769,0.042450
949662508,3.569483,-1.851344,23.815361,0.192547,-0.858688,0.112705
949682506,-7.447440,-1.030396,11.786618,0.219015,-0.956685,0.164647
949702504,0.222467,12.148781,4.062108,0.258753,-0.986028,0.174072
949722502,-0.766096,17.850269,3.045265,0.230140,-0.954899,0.166191
949742500,-10.241738,10.972631,2.261001,0.144302,-1.064257,0.121763
949762499,-5.827382,2.816514,-2.669358,0.105286,-1.181768,0.015358
949782497,21.411783,-3.435342,-5.721586,0.174964,-1.066163,0.059435
949802496,19.585421,-7.791491,-2.425782,0.266398,-0.983701,0.214613
949822495,9.508230,-5.493217,5.216766,0.368574,-1.096828,0.274299
949842493,19.198742,2.800992,10.652020,0.419575,-1.088152,0.244669
949862492,29.453712,7.344448,5.196652,0.380753,-0.905254,0.256610
949882492,15.582054,11.366693,20.478451,0.467867,-1.312412,0.450099
949902490,13.656969,41.135605,58.576962,0.392762,-1.338154,0.388532
949922489,-1.686692,41.214211,95.419868,0.192648,-1.159881,0.302048
949942487,-23.604759,29.466087,121.730164,0.161173,-0.784168,0.312286
949962486,-71.720856,26.483292,120.223221,0.008039,-0.207177,0.200264
949982484,-164.051682,-6.768528,87.776604,0.001932,0.410325,0.055896
950002481,-270.893585,-61.790325,38.350853,0.004795,0.770337,-0.059066
950022479,-333.030975,-97.702499,4.653666,0.093711,0.023175,-0.454612
950062477,-56.196430,-15.774980,134.265854,0.550954,-2.418209,0.191447
950082475,-28.593208,2.585652,142.620987,0.650108,-1.381070,0.254683
950102473,-123.912132,-45.636024,24.998926,0.150269,-0.487805,-0.008261
950122472,-117.524910,-65.581253,-13.096099,0.286509,-1.008823,-0.462994
950142471,2.680300,-39.672329,-45.269478,0.150081,-1.416040,-0.077464
950162469,102.705757,-23.977314,8.803699,0.134591,-1.970789,0.335358
950182469,114.359863,-5.469673,77.987701,0.478199,-1.332149,0.509158
950202468,-35.143402,7.213578,13.365231,0.558163,-0.062672,0.644249
950222466,-163.617050,20.073845,21.880690,0.468519,-0.226715,0.076128
950242470,-135.722366,50.272934,60.646564,0.270801,-1.149445,-0.225014
950262463,-37.847935,69.987335,32.326942,0.137349,-1.588614,-0.276529
950282462,53.532173,85.848351,-11.866152,0.097915,-1.201516,-0.359131
950302459,94.514931,100.311272,-42.941822,0.143227,-0.772259,-0.279618
950322458,101.706947,93.244453,-70.832199,0.160874,-0.849930,-0.141695
950342456,110.159103,71.429504,-111.283981,0.320754,-1.001774,-0.078462
950362455,134.709259,56.876205,-136.635925,0.543645,-0.857838,0.076000
950382453,123.072685,43.784233,-145.217072,0.623094,-0.888051,0.286789
950402452,69.250946,30.370831,-156.575409,0.681309,-0.893747,0.356149
950422450,23.902229,5.173227,-168.504166,0.860015,-0.959694,0.154362
950442448,14.387136,-16.566977,-171.257492,0.840555,-1.056468,0.090342
950462447,30.611284,-11.953523,-184.225784,0.858312,-0.890417,0.177727
950482447,43.908012,-1.587193,-201.424423,1.074818,-0.580003,0.076897
950502445,47.335487,3.445027,-212.436356,0.789051,-0.340663,0.103363
950522444,26.483576,-9.454091,-224.441544,0.259489,-0.151179,0.039113
950542442,-10.099242,-33.334396,-260.779785,0.426076,-0.304808,0.159087
950562441,-52.331207,-20.506790,-326.250092,1.239021,-0.547189,0.351696
950582442,-48.086723,42.731480,-402.465912,1.829211,-0.252202,0.355386
950602437,-5.773213,130.339005,-403.839050,2.088532,0.033228,0.369939
950622435,152.081070,139.157745,-313.157288,1.597579,0.002453,1.602184
950642434,-65.514076,259.457245,-228.865189,2.403263,0.407215,0.658069
950662432,-403.407745,80.000374,-15.778664,0.943999,-3.352713,-0.870425
950682431,-309.039276,-101.862076,304.447937,0.448914,-3.464671,-0.419521
950702430,41.643700,-29.007998,447.495880,1.751832,-3.172810,-0.232742
950722428,392.186920,-14.964506,536.962219,2.238752,-1.575305,-0.279932
950762425,266.800415,18.039818,537.332092,2.223348,1.009148,-0.069407
950782425,48.007206,-8.800880,492.173309,1.485356,1.683316,0.393973
950802423,-164.742340,-53.120434,370.426758,0.338842,1.726646,0.649759
950822422,-304.559937,-106.949356,233.639908,0.166160,1.851544,0.514111
950842420,-323.850128,-62.696751,84.869202,-0.033826,1.714210,0.264092
950862419,-374.120026,-29.999264,-144.982483,-0.173896,1.953580,-0.069559
950882417,-356.659363,-28.341742,-174.555191,1.228242,-0.245585,0.283193
950902414,-111.837784,138.479889,-36.981899,0.655927,-3.178450,-1.018027
950922413,137.354813,251.204453,-263.921082,0.478643,-0.858343,-0.627288
950942412,212.712860,125.809708,-194.778503,-0.529380,-1.782997,0.036267
950962410,175.897720,65.243736,-187.754761,-0.292358,-1.566091,0.038239
950982408,122.444733,1.495503,-336.024170,0.396717,-0.530163,-0.259076
951002407,58.641262,-27.385609,-380.301117,1.494960,-0.519023,0.590091
951022406,41.815117,-24.734049,-433.089691,1.875724,0.158509,0.766951
951042404,-9.671808,61.830849,-470.764832,2.340103,0.558838,0.722695
951062404,57.938492,61.805290,-355.981628,1.809497,1.018914,1.575383
951082403,-183.974976,242.511383,-238.772339,1.999762,-1.133757,0.262738
951102401,-352.015472,-37.219887,40.722641,0.427553,-3.760147,-0.726428
951122400,-269.761780,-203.835846,338.312225,1.178611,-4.489448,-0.353923
951162397,552.502625,13.949616,543.682922,3.213996,-0.163985,-0.125145
951182394,317.837158,52.857750,561.920227,1.849916,2.176671,0.089413
951202392,-110.386116,-12.551073,511.327026,0.763102,1.340337,0.271292
951222391,-258.843842,-74.995590,473.584839,1.335247,0.179662,-0.283520
951242389,-132.279617,-104.966370,345.177307,0.985647,0.732920,0.284872
951262388,-43.541908,-41.838535,131.795609,0.119703,1.056611,0.397606
951282386,-106.505371,85.464500,-123.018394,-0.981726,2.661865,0.590716
951302385,-283.485931,19.953623,-303.339539,0.330393,1.979238,0.888703
951322383,-330.407837,60.209099,-119.342972,1.057738,-2.564133,-0.844180
951342382,-19.913172,142.583237,-254.867813,1.271915,-1.815050,-1.459850
951362382,274.836334,113.515373,-198.806198,-0.772474,-2.556683,0.007943
951382380,299.183044,21.230186,-320.863586,-0.844820,-0.696677,-0.501984
951402379,193.886993,-2.896308,-433.024597,0.305798,-0.047427,0.617849
951422377,60.631199,-0.337215,-510.290283,2.128021,0.322109,0.935181
951442376,-48.184002,30.515085,-513.375610,2.582121,1.224339,0.761700
951462374,-37.959579,-2.097026,-388.538940,2.349558,1.479119,1.190000
951482372,-295.379150,200.988846,-308.171509,2.855453,-1.844174,-0.043740
951502370,-381.946014,-107.099724,51.070469,1.093106,-4.655752,-0.343380
951522369,-187.234253,-158.640564,318.298859,1.242387,-5.086239,0.008167
951542368,396.496521,32.367241,509.400726,2.611244,-2.054950,-0.377543
951562366,455.442139,58.877335,547.585571,2.717273,0.376334,-0.297803
951582364,254.522278,6.050623,547.276062,1.710423,1.615637,-0.165072
951602363,-44.950577,-63.378883,547.362976,0.818414,0.948870,0.186464
951622361,-183.833603,-105.143593,504.163757,1.255610,-0.005488,-0.037472
951642360,-110.389915,-100.595779,391.147491,1.455068,0.686948,0.321500
951662359,-33.037846,-73.879852,215.911133,0.419857,1.321296,0.674681
951682358,-79.687996,50.978764,23.606617,0.058512,1.765437,0.594712
951702357,-266.024506,124.661835,-220.856018,-0.368985,2.931509,0.635614
951722355,-461.509338,33.107426,-265.174408,0.558352,0.120501,-0.276932
951742354,-246.289398,103.909302,-177.558685,0.894410,-3.421024,-1.924978
951762352,214.371078,205.084534,-343.841614,-0.243068,-2.466148,-1.101417
951782349,464.404266,69.452644,-369.347931,-1.102945,-1.596047,-0.213101
951802348,352.455872,21.515911,-460.556030,0.317383,0.139190,0.246492
951842345,-50.651154,-16.222950,-392.224243,3.835253,2.238111,1.047806
951862343,-323.772339,-5.823912,-375.756714,3.466635,-0.269484,0.734996
951882342,-523.208313,107.965744,-161.447815,1.618457,-5.006152,-0.826098
951902340,-248.915482,-192.133408,213.785614,0.141388,-5.988346,-0.291713
951922339,257.282654,-54.471661,466.992523,2.953643,-2.884880,-0.610183
951942338,445.995392,30.936346,510.359009,2.147805,0.390659,-0.375453
951962337,268.100006,-54.628929,531.013855,1.511101,0.736411,-0.058522
951982336,40.634224,-90.967041,574.067078,1.112026,1.328609,0.108423
952002334,-165.683914,-90.685898,528.219177,1.074592,0.580460,-0.098558
952022333,-132.652908,-77.438133,455.996979,1.827442,0.431761,-0.055126
952042332,-4.644512,-36.189907,267.027710,0.518545,1.423474,0.420614
952062329,-49.671223,56.224861,53.014736,-0.249179,1.715883,0.379567
952082327,-216.070526,176.176651,-228.202713,-0.608510,2.380357,0.421565
952102325,-396.167542,112.176102,-446.049591,0.397306,0.973170,-0.194053
952122324,-211.118561,114.628944,-218.500366,1.408810,-4.956902,-1.430357
952142323,229.638153,134.751099,-339.716919,0.231911,-3.433047,-1.637563
952182320,394.278320,-3.927418,-471.004852,-0.353677,0.295215,-0.643996
952202318,238.444611,-7.951042,-471.232300,2.185216,1.813658,0.552808
952222317,-37.135185,-101.865707,-346.514465,3.784477,1.461486,1.619844
952242317,-319.076447,44.861771,-424.453674,3.338948,-0.453055,0.893059
952262315,-584.855774,-94.518280,116.496666,-0.676339,-5.646646,-0.837445
952282314,-97.520027,-192.452454,392.645020,0.800740,-4.866758,-0.929787
952302312,436.776917,-79.944550,479.115784,2.838425,-1.840913,-1.029010
952322311,513.080627,-98.051254,483.135315,2.158896,0.324687,-0.103050
952342310,236.565353,-65.023094,549.230591,1.292142,1.399954,0.494804
952362307,-84.978592,-61.235123,518.726990,0.962508,0.733420,0.393544
952382305,-203.555099,-55.210335,446.226929,1.619906,0.162246,0.236174
952402304,-69.033417,-60.242031,333.507080,1.239362,0.428382,0.603519
952422302,10.126422,-1.273902,163.929718,0.104762,0.933116,0.836190
952442300,-98.420181,78.346733,-27.871780,-0.692707,1.786577,0.654142
952462299,-306.608459,124.193954,-253.908005,-0.415462,1.658060,0.444093
952482297,-403.894928,206.175262,-298.116547,0.919174,-1.427585,0.229738
952502296,-115.071953,255.466721,5.955561,0.596960,-5.706827,-0.526518
952522295,129.002655,241.531616,-219.436172,-0.596652,-2.533482,-2.087076
952542294,306.222412,138.558807,-328.973755,-0.654249,-1.476837,-2.036390
952562293,388.810974,82.477600,-385.073517,0.109103,-1.274335,-0.984375
952582291,478.014648,-8.048531,-423.196503,0.220959,0.998789,-0.742336
952602290,267.753479,-33.877041,-242.455444,2.425309,0.129512,1.657549
952622289,-54.962166,-29.351822,-46.466438,0.382155,-2.708476,1.173692
952642287,-62.718498,-63.084736,145.673538,-0.406445,-1.176819,0.879972
952662284,-53.143112,-58.970909,279.123871,0.523739,-2.198723,0.001263
952682283,82.529480,-130.766800,355.772827,1.188134,-1.477036,0.291676
952702281,95.997940,-177.411575,356.743500,0.588381,-0.158912,0.316284
952722280,-5.477748,-191.484253,361.602448,0.528546,-0.073056,0.287636
952742278,-69.644882,-196.906647,363.561615,0.391774,-0.580148,0.230108
952762277,-23.740698,-182.222092,303.015015,1.313079,-0.494830,0.429445
952782275,27.344105,-117.225288,205.489105,1.022871,-0.063927,1.105213
952802274,-46.440498,-35.785995,76.025101,0.196077,0.274355,1.044168
952822272,-87.053284,32.769627,-89.932861,-0.033733,0.738279,0.800847
952842272,-109.430412,138.284348,-192.725189,0.858792,-0.071899,1.086444
952862271,-113.100121,205.978699,-90.865036,0.295932,-1.527778,-0.199063
952882269,23.348385,157.746826,-341.682983,-0.283617,1.201741,-0.431914
952902268,60.914227,67.384155,-390.536652,-0.662746,-0.813895,-0.152365
952922266,103.812431,49.577534,-425.487274,0.013432,-1.690438,-0.111293
952942265,110.268188,138.479874,-497.459930,1.624549,-0.433288,-0.036763
952962262,95.235672,103.688095,-369.648224,2.615490,0.592942,1.176101
952982260,-200.903259,28.505398,-391.178284,2.338330,-0.817384,0.994212
953002259,-519.073608,52.493168,-103.863060,1.631999,-4.156396,-0.885083
953022257,-331.583130,-144.218536,248.697769,-0.262224,-6.031470,-1.692462
953042256,243.911072,-148.864609,352.526367,2.205404,-4.268770,-1.211710
953062255,654.095093,-75.464592,467.167328,2.807354,-0.876871,-0.619339
953082253,489.475311,-32.420311,505.363708,2.315646,1.549472,-0.207584
953102251,88.138824,-58.671127,484.707916,1.022006,2.169069,0.339064
953122250,-233.833130,-159.062592,428.042847,0.604664,0.874838,0.089763
953142250,-212.840546,-157.375397,307.702606,1.092632,0.647830,0.093877
953162249,-94.943596,-55.503822,126.712036,0.657391,1.130647,-0.048272
953182247,-51.933784,119.911018,-103.969528,0.107687,1.996277,0.231172
953202246,-140.394104,134.952011,-347.959839,-0.224301,2.618239,0.436646
953222244,-315.756409,48.861675,-306.043732,0.901756,-0.935865,-0.024368
953242257,-142.165924,83.231537,-269.390961,0.767741,-2.139408,-1.298580
953262240,91.505264,110.501114,-327.136230,0.372289,-2.423522,-0.870116
953282238,337.124695,74.268600,-384.503815,0.042762,-0.892316,-0.203987
953302237,259.412842,46.738701,-492.078979,0.698720,-0.049679,1.017173
953322235,71.732307,41.053856,-553.472473,3.111001,1.034782,0.819924
953342234,19.943905,51.651443,-413.988098,1.914307,2.675716,1.033783
953362232,-324.832306,135.823990,-438.450134,2.997128,1.690887,-0.159750
953382230,-788.407715,56.294815,-292.063446,2.802665,-3.446815,-1.535486
953402229,-406.202026,-69.028542,34.837303,1.789857,-5.705966,-0.966956
953422230,187.734497,63.305588,129.692596,1.209706,-3.211670,-0.359195
953442228,381.675354,100.115082,202.870132,1.089857,-0.743288,-0.181505
953462227,360.673492,121.615952,227.353668,1.359498,0.516998,-0.375935
953482225,355.430481,79.263931,173.165955,0.860844,0.684087,-0.574531
953502223,199.306274,10.643025,130.790375,1.006107,0.533286,-0.015333
953522222,58.598198,-20.237715,119.695335,1.104175,0.229053,0.240171
953542219,-72.186371,-31.154623,90.507256,0.954392,0.051335,0.202809
953562218,-163.686813,-44.828896,72.475220,0.893126,-0.272063,0.166205
953582216,-158.396713,-57.850990,79.189903,0.894873,-0.796739,0.165071
953602215,-62.039680,-87.119415,79.231995,0.934312,-1.210726,0.039382
953622213,89.266869,-88.255936,73.910408,0.991617,-1.306612,0.074909
953642212,207.938309,-88.032852,80.427094,1.026864,-1.043882,0.013487
953662210,276.651093,-75.036591,83.299225,1.027877,-0.592771,0.042597
953682209,266.713409,-59.349079,77.969170,0.855586,-0.214256,0.262358
953702207,175.891281,-56.084381,69.310829,0.745041,0.030738,0.435354
953722207,56.384933,-51.717094,59.068672,0.608998,0.087779,0.535361
953742206,-39.424221,-53.856873,42.888672,0.533967,-0.089540,0.458702
953762204,-82.326744,-58.895916,22.270105,0.674271,-0.256464,0.265012
953782203,-91.206192,-63.995453,7.522679,0.776608,-0.368731,0.086520
953802201,-63.926182,-68.761475,-3.857743,0.667644,-0.598092,-0.170473
953822200,23.485458,-80.490013,-24.919653,0.575955,-0.910816,-0.268571
953842197,158.258133,-79.237053,-60.687889,0.631899,-0.761224,-0.080485
953862196,235.670761,-56.921822,-75.102638,0.707303,-0.367641,0.339479
953882194,217.056549,-41.372387,-71.174438,0.603877,-0.020243,0.748318
953902192,98.702721,-53.923733,-75.592476,0.633821,0.430286,0.811478
953922191,-38.726944,-49.113194,-70.343323,0.809418,0.207620,0.789576
953942189,-73.882530,-16.176504,-53.066353,0.923512,-0.589940,0.708387
953962188,-35.357479,3.439044,-43.725685,0.873771,-0.779025,0.533102
953982187,35.229111,7.178146,-36.572121,0.818419,-0.770081,0.536147
954002185,72.701271,4.727445,-21.267540,0.824356,-0.706702,0.533409
954022185,62.333244,1.806718,-12.923661,0.799240,-0.491541,0.539610
954042184,26.689381,-7.798850,-12.747698,0.768797,-0.452144,0.554114
954062182,14.171682,-16.594387,-8.083447,0.802494,-0.692097,0.492555
954082190,41.261612,-19.763691,-2.652909,0.739021,-0.755678,0.440352
954102179,74.982910,-19.070005,2.889413,0.686000,-0.687621,0.448533
954122178,95.839127,-23.078449,12.630657,0.695419,-0.522037,0.414614
954142175,92.293167,-23.622738,19.640709,0.664022,-0.395251,0.461424
954162173,87.628761,-31.919506,28.058895,0.649968,-0.413332,0.466669
954182172,77.550087,-42.253853,27.984594,0.620781,-0.332286,0.439498
954202170,82.170387,-47.138840,23.182854,0.707521,-0.343049,0.501925
954222169,105.939407,-44.101971,26.503012,0.794537,-0.428792,0.534311
954242167,106.991531,-43.817165,22.826433,0.786668,-0.252295,0.551314
954262166,98.857269,-45.840961,20.524569,0.811302,-0.199703,0.584869
954282164,92.124817,-43.966751,24.293301,0.828598,-0.306952,0.599188
954302163,73.539734,-44.547539,22.632980,0.738511,-0.254801,0.558986
954322163,61.516289,-47.642963,17.116423,0.707904,-0.300436,0.539038
954342161,70.378670,-44.471741,15.762079,0.800762,-0.503295,0.559053
954362160,92.015923,-39.388100,23.383921,0.859173,-0.597938,0.549693
954382158,106.716446,-37.701042,26.105680,0.811222,-0.501973,0.539891
954402157,99.249565,-40.601906,24.161911,0.795423,-0.429125,0.525021
954422154,94.099571,-42.698326,26.049175,0.894347,-0.511677,0.543978
954442152,104.714600,-45.694408,32.526901,0.945692,-0.564272,0.533901
954462151,109.315414,-50.205471,31.029263,0.845452,-0.482951,0.528632
954482150,109.356163,-52.555023,27.574430,0.775475,-0.435177,0.523636
954502148,109.259132,-51.687805,23.832069,0.857588,-0.421635,0.530731
954522147,112.901733,-44.225761,23.789204,0.884519,-0.364709,0.514712
954542145,113.849953,-37.217800,24.490240,0.848392,-0.337407,0.526791
954562144,106.308746,-36.829235,26.407562,0.799252,-0.372407,0.530209
954582142,101.993118,-36.516830,27.026207,0.880843,-0.435254,0.547320
954602142,102.983505,-35.782669,32.961037,0.938265,-0.469255,0.517863
954622141,96.584518,-34.023560,33.521843,0.900049,-0.444557,0.522754
954642140,95.358948,-37.849201,28.354437,0.837827,-0.453243,0.509673
954662138,104.419426,-37.477512,21.988716,0.864517,-0.507731,0.540425
954682136,123.432869,-36.236645,19.950811,0.891570,-0.504021,0.534893
954702135,135.481110,-29.993486,15.429464,0.864711,-0.415096,0.578956
954742130,123.494652,-26.336500,5.976069,0.842443,-0.261873,0.631655
954762129,114.522644,-28.156254,4.406643,0.851039,-0.257141,0.638419
954782127,110.015968,-27.970720,5.497895,0.854111,-0.288568,0.676605
954802126,111.744293,-24.415546,11.826928,0.875372,-0.353203,0.689032
954822125,107.592316,-17.726561,21.124756,0.875254,-0.361092,0.683862
954842123,97.174698,-14.817301,28.773689,0.847119,-0.336399,0.633486
954862122,91.921196,-12.046059,37.729546,0.853062,-0.323222,0.559367
954902120,84.384407,-1.407988,44.859127,0.816525,-0.507405,0.511203
954922118,106.213066,-6.713616,43.597965,0.785151,-0.520262,0.487369
954942117,123.566650,-11.692493,44.293602,0.782206,-0.449938,0.416843
954962115,143.363861,-11.494027,48.077934,0.744821,-0.479541,0.478127
954982114,170.710495,-18.193275,50.498768,0.751943,-0.467338,0.540951
955002123,181.661224,-27.652515,56.153130,0.820701,-0.286589,0.625613
955022110,152.115875,-36.911537,60.714878,0.864232,-0.155058,0.644919
955042108,115.747055,-33.555016,62.005695,0.828640,-0.179433,0.642108
955062107,106.414711,-27.879353,63.489265,0.756141,-0.232953,0.606261
955082105,102.139938,-20.253761,62.683899,0.674458,-0.091678,0.650883
955102104,87.891487,-33.254574,62.222763,0.635242,-0.212203,0.562218
955122102,118.746391,-35.454029,52.334244,0.679220,-0.421163,0.591685
955142101,167.728668,-42.511559,33.592514,0.757526,-0.416236,0.632716
955162099,204.572510,-44.089386,20.018536,0.835621,-0.202774,0.666709
955182098,228.342728,-34.178787,7.850482,0.873469,0.012953,0.767671
955202098,224.070572,-15.040703,-2.969818,0.877050,0.120901,0.877515
955222096,201.984940,7.997900,-8.946447,0.841444,0.173662,0.865309
955242095,182.048965,30.557781,-13.281670,0.759490,0.155886,0.804007
955262093,172.515579,47.774208,-17.533798,0.688885,0.113540,0.764085
955282092,174.151260,57.042450,-20.600222,0.634142,0.076986,0.758531
955302114,185.513031,61.465260,-23.476324,0.623101,0.039093,0.781350
955322087,199.982025,64.556503,-23.890800,0.651532,0.026589,0.813663
955342086,205.734863,70.673225,-16.869825,0.681593,0.091726,0.848813
955362085,192.834610,70.631226,-4.287002,0.706779,0.180458,0.892947
955382083,163.051544,66.947891,7.029165,0.692112,0.197058,0.925930
955402082,134.584259,59.253212,17.377190,0.694648,0.199823,0.957747
