Timestamp (us),Gyroscope X (deg/s),Gyroscope Y (deg/s),Gyroscope Z (deg/s),Accelerometer X (g),Accelerometer Y (g),Accelerometer Z (g)
5534163294,0.893903,-0.052058,0.217405,0.974147,0.164061,0.161752
5534183340,-1.463117,-0.688362,0.479864,0.969969,0.158747,0.162038
5534203385,-1.478329,-0.771939,0.518151,0.970923,0.148697,0.161036
5534223430,0.345901,-0.917948,0.473829,0.975560,0.146769,0.156169
5534243475,0.604650,-0.933339,0.548043,0.975743,0.153334,0.156663
5534263520,0.255623,-0.522606,0.535094,0.976998,0.157483,0.153178
5534283564,-0.307317,-0.651344,0.509059,0.979315,0.155215,0.159495
5534303609,-0.602643,-0.772534,0.877116,0.980297,0.146700,0.156386
5534323654,0.833586,-0.477493,0.553475,0.979412,0.147972,0.154002
5534343697,0.907444,-0.280238,-0.110069,0.979134,0.160749,0.155351
5534363742,-0.793813,-1.061263,0.726489,0.977881,0.155651,0.153746
5534383787,-1.080812,-1.167176,1.277307,0.981252,0.143028,0.154967
5534403832,1.056255,0.472456,0.672763,0.980742,0.144929,0.152034
5534423876,1.686694,0.859393,0.332358,0.973966,0.157397,0.160167
5534443921,-0.724024,-0.263261,0.702344,0.971420,0.157894,0.160599
5534463966,-1.416685,-1.053060,0.868386,0.978422,0.149369,0.156078
5534484011,-0.191821,-0.058545,0.606651,0.978710,0.143140,0.152489
5534504056,0.682319,0.176250,0.447361,0.974695,0.150818,0.159498
5534524100,-0.110307,-0.947955,0.477356,0.975680,0.155623,0.157918
5534544145,-1.151660,-1.334581,0.721873,0.977267,0.150542,0.152053
5534564190,-0.815641,-0.810359,0.863548,0.983058,0.147254,0.150575
5534584236,-0.070430,-0.195463,0.605850,0.981376,0.145117,0.154040
5534604281,0.051279,-0.301947,0.673582,0.977296,0.147015,0.155907
5534624325,-0.002222,-0.871863,0.872606,0.977379,0.146091,0.154367
5534644370,0.013347,-0.879433,0.971532,0.978301,0.146616,0.153277
5534664415,0.424282,-0.454195,0.868941,0.979540,0.143668,0.151672
5534684460,0.567966,-0.363221,0.623968,0.978487,0.146604,0.152004
5534704504,0.598799,-0.211217,0.661680,0.979768,0.147422,0.154283
5534724549,-0.236655,-0.187598,0.873757,0.979933,0.145480,0.150931
5534744593,0.044728,0.116131,0.749420,0.976234,0.141612,0.150390
5534764637,0.773113,0.191317,0.324758,0.974973,0.149861,0.153863
5534784682,-0.225642,-0.735235,0.036178,0.980066,0.155811,0.155217
5534804727,-1.850222,-0.855132,0.726775,0.986082,0.141919,0.150277
5534824772,-0.470769,0.017965,1.187708,0.982085,0.129848,0.149528
5534844817,2.233686,0.836075,0.236767,0.974573,0.141685,0.157114
5534864861,1.471223,-0.121006,0.121625,0.970830,0.154613,0.159438
5534884906,-1.251231,-1.372577,0.547451,0.971379,0.147935,0.157495
5534904951,-0.886449,-1.433703,0.537094,0.976751,0.139600,0.150683
5534924996,0.573774,-0.758590,0.342421,0.980427,0.141829,0.151329
5534945041,0.292569,-0.454373,0.222396,0.977311,0.147637,0.153717
5534965085,-0.566951,-1.137594,0.442945,0.980017,0.145684,0.154117
5534985132,-0.521482,-1.441613,0.549540,0.981578,0.139251,0.150266
5535005176,0.588763,-1.100585,0.449285,0.982226,0.139219,0.147085
5535025221,1.204802,-0.462772,0.200173,0.978998,0.143101,0.147757
5535045265,0.708219,-0.546217,-0.390167,0.978689,0.153785,0.149488
5535065310,-0.894421,-0.711829,0.094611,0.981604,0.147268,0.149472
5535085355,-1.140869,-0.619119,0.636329,0.983622,0.135197,0.148585
5535105400,1.139901,0.352021,0.038084,0.980488,0.139637,0.150892
5535125445,1.295154,0.153344,-0.016269,0.975628,0.151224,0.154585
5535145490,-0.888982,-0.627143,0.054525,0.975456,0.151297,0.151852
5535165533,-1.949180,-0.874913,0.260547,0.987105,0.142611,0.147183
5535185578,-1.342240,1.047996,-0.187980,0.984844,0.143356,0.144794
5535205622,-0.221081,2.341674,-0.379722,0.974902,0.138371,0.153320
5535225667,-0.049228,-0.017967,-0.119217,0.979459,0.139055,0.156443
5535245712,-0.080231,-0.662819,-0.019194,0.981051,0.139403,0.144889
5535265757,0.572875,-0.684530,-0.039285,0.997177,0.144796,0.142505
5535285801,-0.777070,1.490607,-0.107090,0.984220,0.157886,0.148220
5535305846,-2.959229,1.779171,-0.539978,0.983615,0.148635,0.153572
5535325891,-1.260237,-4.021751,-0.814160,0.990395,0.150522,0.151148
5535345936,-1.084098,0.903335,-0.843022,0.938419,0.130259,0.153667
5535365981,0.645964,-2.980775,2.126139,0.986492,0.134697,0.160901
5535386025,-2.393672,-8.033147,0.942912,1.017272,0.158301,0.160567
5535406071,-5.102939,-0.167003,-5.519304,0.951720,0.175275,0.128173
5535426116,-7.781346,-2.566256,-4.955601,0.954221,0.173214,0.163261
5535446161,-15.001671,-6.592145,3.559874,0.973821,0.124489,0.172819
5535466206,-7.094790,-6.767053,1.648170,0.968232,0.090171,0.143381
5535486257,4.744010,-2.964198,-3.824713,0.970119,0.112997,0.139383
5535506295,5.570859,-2.342009,-4.608706,0.979773,0.148823,0.158914
5535526340,0.224764,-3.392920,-2.464074,0.977664,0.151025,0.144040
5535546387,1.406321,-1.964049,-0.333743,0.965960,0.145830,0.132708
5535566428,4.320145,0.594549,-1.044149,0.978292,0.152831,0.155411
5535586473,3.069673,-0.263493,-1.582268,0.981486,0.149122,0.166026
5535606518,2.193424,-2.740256,-0.902798,0.980156,0.131043,0.159428
5535626562,5.242624,-3.396350,-0.460840,0.979626,0.130540,0.151872
5535646607,6.808156,-3.944909,-0.365669,0.972620,0.150235,0.150383
5535666652,5.229470,-5.152377,-1.076161,0.972535,0.169084,0.147040
5535686697,3.017386,-6.366277,-0.410498,0.974838,0.168613,0.137228
5535706741,0.701329,-6.546325,0.407351,0.974872,0.149766,0.128098
5535726786,0.447347,-7.146797,-0.115796,0.981509,0.153729,0.122651
5535746831,-0.434653,-5.975790,-0.696750,0.981480,0.176778,0.120275
5535766876,-2.740731,-4.468575,-0.063412,0.985325,0.191609,0.124187
5535786921,-6.596556,-4.532881,1.642237,0.990668,0.184471,0.131568
5535806967,-10.003387,-5.897862,2.088655,0.996615,0.157671,0.119087
5535847056,-5.961406,-1.714593,-0.620313,0.982366,0.156621,0.095775
5535867101,-5.334655,-1.076420,-0.054349,0.996355,0.176506,0.113558
5535887146,-9.086146,-2.470900,1.735559,1.001930,0.170945,0.112552
5535907190,-12.924268,-2.482633,2.077347,1.017870,0.141428,0.098163
5535927235,-13.086345,0.679327,1.923235,1.025924,0.103033,0.087795
5535947280,-7.967114,7.363278,1.390095,0.997098,0.077448,0.095535
5535967323,1.470684,10.226997,-1.252339,0.972746,0.082854,0.124355
5535987368,6.095222,7.288212,-3.296248,0.965489,0.116888,0.150971
5536007413,3.939707,2.182144,-3.876740,0.975459,0.144060,0.146995
5536027458,1.053593,-0.711155,-3.714747,0.986479,0.153282,0.134071
5536047502,1.402641,1.819848,-3.110352,0.988141,0.146259,0.124491
5536067547,2.886170,4.219985,-4.000100,0.981930,0.145349,0.124544
5536087592,4.127729,5.602214,-4.056635,0.973501,0.148666,0.124455
5536107637,4.417179,6.172857,-2.192912,0.975981,0.138930,0.132110
5536127682,4.765960,4.622237,-1.698931,0.994865,0.123410,0.143028
5536147726,6.746986,6.634785,-1.533183,0.991539,0.123637,0.129710
5536167771,7.233172,9.402174,1.027839,0.962299,0.131089,0.128979
5536187816,9.385977,8.830530,1.621337,0.961903,0.157165,0.140961
5536207862,17.422970,7.461663,-1.486308,0.989540,0.196483,0.138745
5536227907,21.183929,7.236857,-4.006114,1.007413,0.218226,0.119121
5536247952,14.868052,10.725618,0.838539,0.954737,0.220298,0.069828
5536267997,15.477763,10.955038,5.107511,0.943740,0.219289,0.084050
5536288041,11.233649,8.450806,5.843302,1.004805,0.217951,0.163625
5536308086,1.292000,8.414124,6.589972,0.989648,0.212596,0.148263
5536328131,-1.348800,6.947676,2.612000,0.964328,0.221092,0.123608
5536348175,-6.750446,6.684138,-2.214427,1.009480,0.277765,0.136854
5536368219,-17.162195,11.656691,-1.537455,1.017672,0.316518,0.142147
5536388263,-28.079762,14.341887,-0.823968,0.978782,0.306362,0.144860
5536408308,-38.075542,12.609655,-1.499902,0.969435,0.250041,0.165924
5536428353,-42.265427,14.063704,-4.386960,0.949062,0.199229,0.182128
5536448398,-39.257774,12.106888,-6.244179,0.925005,0.175101,0.187067
5536468442,-34.035397,6.227324,-5.615870,0.942903,0.200861,0.205832
5536488487,-37.172287,5.834344,-6.619917,0.947939,0.244008,0.219624
5536508532,-48.969448,8.192915,-7.133542,0.923427,0.242678,0.211900
5536548622,-54.052250,-0.299829,-6.149491,0.953484,0.168300,0.200533
5536568666,-49.252487,1.868742,-8.550014,0.960713,0.192894,0.187454
5536588711,-50.391884,8.571313,-13.484270,0.948094,0.217861,0.197353
5536608757,-59.958248,7.757729,-15.634697,0.950875,0.209682,0.231674
5536628802,-70.106270,0.121143,-13.530823,0.966977,0.211386,0.248439
5536648847,-73.959442,-5.827219,-14.295577,0.953420,0.245401,0.221929
5536668891,-84.999565,-7.788647,-19.572357,0.937566,0.291692,0.198852
5536688936,-102.255867,-11.583335,-23.215137,0.952155,0.307769,0.183166
5536708981,-114.604576,-10.075872,-24.409374,0.946828,0.293019,0.187255
5536729026,-119.634644,-7.457103,-24.883711,0.948054,0.253416,0.197333
5536749070,-123.922485,-11.102733,-27.094788,0.938982,0.222022,0.186600
5536769114,-128.787704,-13.814027,-31.633514,0.944729,0.234307,0.182899
5536789158,-135.988754,-10.206901,-35.672737,0.911103,0.243078,0.191412
5536809203,-134.051620,-6.071277,-30.092056,0.875040,0.196165,0.172417
5536829248,-119.732559,-24.291515,-22.566319,0.975824,0.168145,0.225188
5536849293,-117.458588,-42.848083,-25.453545,1.046388,0.196701,0.147898
5536869338,-115.485687,-45.134453,-35.332199,1.074371,0.232501,0.051300
5536889382,-131.507355,-26.454052,-36.986847,1.085009,0.185136,-0.008776
5536909427,-143.899567,-4.087297,-31.656357,1.081707,0.059803,0.037392
5536929472,-145.968369,19.707525,-25.324570,1.070743,-0.076793,0.148695
5536949517,-123.661949,26.087555,-26.415825,0.973374,-0.168916,0.230229
5536969561,-77.946114,7.876486,-39.540237,0.822626,-0.121526,0.268432
5536989606,-45.296825,-22.323698,-50.229549,0.875436,0.047909,0.270879
5537009652,-56.763569,-31.859318,-48.121391,0.973099,0.208336,0.230299
5537029697,-81.926498,-26.310112,-44.200745,0.967333,0.218157,0.139860
5537049742,-100.079613,-17.005419,-42.066742,0.997769,0.180637,0.145400
5537069787,-97.277184,-7.376593,-39.484257,1.008579,0.176859,0.224810
5537089831,-79.838097,-9.320210,-35.007061,0.952826,0.216370,0.277883
5537109876,-73.927727,-27.139841,-31.668240,0.920749,0.223846,0.224417
5537129921,-88.707809,-43.566566,-29.863365,0.998599,0.160164,0.165058
5537149966,-90.300247,-34.175369,-23.300682,1.073294,0.074221,0.109683
5537170009,-57.011646,-10.623314,-15.670385,0.993021,0.121673,0.113531
5537190054,-56.138195,-12.243669,-17.115408,0.935895,0.283147,0.198819
5537210099,-70.712830,-12.549359,-15.007379,0.919726,0.354453,0.242542
5537230143,-87.298691,-22.557787,-9.324630,0.893468,0.283625,0.214711
5537250188,-93.116272,-25.432980,-8.332639,0.910288,0.176441,0.178026
5537270233,-81.404854,-21.726780,-9.279185,0.930387,0.146751,0.173502
5537290278,-78.866524,-25.916172,-7.534861,0.957318,0.217109,0.188231
5537310322,-86.535240,-24.942375,-3.363104,0.959162,0.269494,0.187084
5537330367,-99.152550,-18.964931,-3.363436,0.921781,0.228611,0.179774
5537350412,-102.367111,-22.066902,-11.479815,0.969655,0.157717,0.170148
5537370457,-96.061432,-27.539316,-16.055874,1.018834,0.115911,0.138986
5537390502,-93.165810,-22.327188,-14.833602,0.971924,0.127608,0.096393
5537410548,-97.629463,-19.308405,-20.485481,0.999147,0.144471,0.151990
5537430592,-102.604408,-21.366474,-26.197205,1.068476,0.168927,0.185162
5537450637,-100.381767,-18.419651,-26.917919,1.008239,0.184152,0.136343
5537470682,-100.720543,-14.307875,-28.008623,0.945913,0.216607,0.133252
5537490727,-115.010712,-12.205434,-28.213396,0.956245,0.259298,0.170577
5537510772,-125.575493,-16.413422,-25.393446,0.953837,0.224573,0.141803
5537530816,-122.765060,-16.894896,-25.841167,0.945242,0.177086,0.138217
5537550861,-122.345520,-14.053947,-28.833439,0.963505,0.164929,0.158845
5537570914,-125.681458,-13.595826,-30.606215,0.964345,0.150530,0.173901
5537590949,-128.766266,-14.756490,-31.541368,0.962399,0.131115,0.182878
5537610994,-121.034561,-16.885138,-34.592625,0.927368,0.166910,0.181234
5537631039,-112.986801,-19.080141,-32.488663,0.924110,0.260105,0.190274
5537651083,-119.015129,-35.383327,-26.499992,0.963175,0.300554,0.153990
5537671128,-127.414246,-51.930183,-26.046656,1.035633,0.260888,0.063984
5537691173,-130.589523,-50.553497,-29.992744,1.149192,0.203931,0.012569
5537711218,-136.186218,-22.937822,-35.506824,1.158059,0.086302,-0.035013
5537731263,-133.083694,9.526326,-42.920578,1.055559,0.007697,0.001851
5537751308,-130.819794,27.420841,-49.940830,0.925116,0.023834,0.134145
5537771352,-124.856224,15.892281,-51.613590,0.889068,0.096743,0.244537
5537791397,-109.979713,-17.325583,-46.241543,0.906961,0.171798,0.284836
5537811442,-99.846985,-40.142906,-43.760769,0.923058,0.184674,0.183059
5537831488,-97.183983,-39.218781,-45.663784,0.961265,0.190562,0.118739
5537851533,-102.056892,-22.438900,-43.600582,0.977358,0.193585,0.116282
5537871577,-98.174713,-7.992288,-41.289951,0.969297,0.171482,0.144175
5537891622,-88.183876,-7.105933,-45.496506,0.911224,0.142485,0.161561
5537911667,-81.508034,-13.171671,-50.410049,0.929082,0.159696,0.183218
5537931712,-76.176071,-21.602442,-43.746475,0.988888,0.227257,0.194478
5537951756,-69.343170,-27.246176,-39.572987,0.983431,0.239862,0.161467
5537971801,-67.025642,-30.052383,-38.574875,1.007690,0.210350,0.139855
5537991844,-66.693100,-30.757818,-34.767605,1.016379,0.264020,0.141479
5538011889,-72.224625,-31.588547,-33.505486,0.995628,0.345837,0.154399
5538031934,-82.227112,-32.878120,-30.166943,0.979052,0.357956,0.119399
5538051979,-86.374115,-32.140945,-21.466223,0.954320,0.280094,0.067784
5538072024,-85.335144,-26.050810,-15.095815,0.988130,0.260462,0.095506
5538092068,-83.662743,-17.879694,-11.086284,0.960583,0.326023,0.165779
5538112113,-91.419044,-19.004532,-8.938337,0.924715,0.340207,0.186886
5538132158,-97.423615,-26.073875,-5.129797,0.895105,0.295286,0.154264
5538152203,-98.047516,-34.812305,-1.071437,0.945001,0.254814,0.132566
5538172247,-100.884109,-35.644039,3.118306,1.031373,0.197889,0.117370
5538192292,-97.834991,-21.130634,0.262437,0.992862,0.196029,0.095708
5538212337,-87.403183,-7.463946,-12.050213,0.919412,0.241077,0.121476
5538232383,-99.663666,-17.094030,-18.674061,0.965317,0.217294,0.167439
5538252428,-111.999245,-29.782759,-15.611588,1.055244,0.111808,0.163777
5538272473,-98.827980,-26.577545,-12.302607,1.099982,0.077452,0.157650
5538292518,-85.939445,-15.899287,-22.917150,0.986263,0.173825,0.150288
5538312563,-99.830994,-14.191553,-38.025993,0.910037,0.310020,0.167727
5538332607,-118.706749,-22.802652,-39.381550,0.908596,0.363947,0.146240
5538352652,-127.294754,-28.597845,-29.802595,0.956103,0.371523,0.145067
5538372697,-138.516785,-22.132099,-23.018566,0.947660,0.268346,0.130926
5538392740,-142.278717,-17.775322,-26.719191,0.958925,0.194485,0.126884
5538412785,-144.110229,-11.028390,-35.731586,0.960540,0.239120,0.162672
5538432829,-155.633911,-6.127096,-43.502331,0.876627,0.315907,0.181273
5538452874,-156.896927,-7.179688,-37.267498,0.829996,0.342636,0.175340
5538472919,-156.058746,-44.604233,-32.819935,0.936921,0.353833,0.192781
5538492964,-171.618011,-77.195305,-44.188698,1.035238,0.308437,0.057580
5538533053,-166.448425,-35.144749,-26.509838,1.157818,0.056749,-0.062631
5538553098,-162.798706,4.019075,-25.211172,1.084103,-0.044938,0.018609
5538573143,-154.526642,26.088116,-33.713676,0.997143,-0.099494,0.147525
5538593188,-135.000259,26.089842,-43.043434,0.942426,-0.068929,0.263683
5538613232,-99.375359,6.578005,-44.120907,0.885322,0.037770,0.326117
5538633278,-76.232574,-19.632826,-41.561451,0.868459,0.173075,0.330886
5538653323,-90.328674,-35.962284,-41.864563,0.907401,0.283770,0.275812
5538673368,-108.462646,-36.493923,-41.968807,0.947368,0.280899,0.164052
5538693413,-118.705574,-19.533121,-36.649685,0.971465,0.228453,0.147544
5538713458,-121.103935,0.982884,-37.412521,0.942001,0.188844,0.206289
5538733502,-110.963921,-1.726482,-42.645290,0.952381,0.188097,0.262818
5538753547,-101.242935,-12.983627,-42.023533,0.938964,0.222985,0.281369
5538773592,-91.980530,-23.980494,-38.168350,0.952623,0.269895,0.266333
5538793635,-96.406494,-35.810333,-36.797649,0.966955,0.241813,0.220328
5538813680,-112.674660,-38.600128,-34.994255,0.983216,0.139256,0.179321
5538833725,-95.285927,-24.246492,-27.599035,1.051506,0.020649,0.157128
5538853770,-51.250130,-8.844476,-20.873827,0.967387,0.051155,0.204697
5538873814,-61.545700,-20.307224,-25.728329,0.939197,0.213706,0.309580
5538893859,-79.121788,-21.393730,-24.807856,0.943445,0.271316,0.292384
5538913904,-77.820618,-22.433992,-20.032558,0.899920,0.263319,0.243878
5538933949,-72.693436,-21.813158,-15.577662,0.895372,0.275686,0.267688
5538953993,-73.376976,-20.267174,-10.149655,0.902480,0.252409,0.278220
5538974038,-70.948318,-23.108219,-1.922594,0.925009,0.201960,0.219804
5538994083,-63.908466,-17.657314,-2.621660,0.892147,0.207742,0.232535
5539014128,-66.719154,-7.880027,-18.653486,0.911474,0.288976,0.335706
5539034174,-80.110458,-18.412285,-22.327148,0.964282,0.312542,0.287735
5539054219,-86.012238,-39.159546,-10.933877,1.009517,0.242147,0.165918
5539074263,-96.657028,-32.956333,-12.145618,1.017897,0.182999,0.160732
5539094308,-112.102615,-12.464957,-25.089092,0.971955,0.179436,0.202943
5539114353,-118.304077,-8.093465,-34.530457,0.902908,0.228921,0.296170
5539134398,-125.561272,-21.641300,-39.101547,0.869919,0.283129,0.336088
5539154443,-128.427612,-42.798206,-36.979774,0.894028,0.293689,0.283371
5539174488,-126.150055,-52.100906,-31.388992,0.906645,0.271667,0.202160
5539194531,-128.260757,-50.236969,-31.526936,0.913473,0.230349,0.163402
5539214575,-132.997116,-48.454689,-32.337940,0.924127,0.199055,0.169565
5539234620,-138.618729,-45.689949,-30.499535,0.938998,0.201899,0.177571
5539254665,-136.377563,-41.776768,-28.821537,0.937699,0.274874,0.168037
5539274710,-133.714233,-49.660805,-28.415501,1.005858,0.369741,0.140438
5539294755,-149.376678,-66.004128,-28.759912,1.083874,0.332820,0.063196
5539314799,-166.313766,-57.673222,-26.268639,1.125349,0.158671,-0.029567
5539334845,-158.875687,-18.633995,-24.343727,1.135905,-0.002019,-0.027891
5539354889,-142.393494,21.457308,-31.730148,1.043180,-0.051958,0.072084
5539374934,-133.501709,36.105095,-45.631760,0.902977,0.005344,0.191130
5539394978,-128.349197,16.844790,-52.936150,0.856574,0.094013,0.303592
5539415023,-118.132988,-25.738663,-43.024723,0.887906,0.118279,0.332664
5539435069,-103.311111,-57.587017,-34.690033,0.946954,0.097428,0.244863
5539455114,-94.193771,-59.753727,-35.222607,1.001528,0.112031,0.146449
5539475159,-92.452179,-48.104023,-36.663979,0.995225,0.152000,0.101188
5539495204,-94.091858,-34.982735,-34.309757,0.988769,0.197958,0.101854
5539515248,-96.386375,-25.007915,-32.701752,0.966105,0.219476,0.130645
5539535293,-100.267578,-26.038485,-33.204300,0.956254,0.210840,0.151402
5539555338,-101.883652,-30.910389,-35.983219,0.988826,0.193846,0.150688
5539575383,-95.164009,-29.767979,-34.854984,1.016525,0.203093,0.137977
5539595426,-91.343246,-28.546436,-32.348541,1.007967,0.243749,0.144862
5539615471,-94.634010,-30.799469,-28.953894,0.991741,0.198748,0.116254
5539635515,-92.686813,-28.871784,-31.637049,0.989399,0.099610,0.093475
5539655560,-84.375778,-23.293514,-33.991531,0.998999,0.148324,0.129925
5539675605,-87.511086,-23.509727,-30.676186,0.982481,0.226546,0.171221
5539695650,-94.082520,-28.837105,-24.830862,0.989517,0.258112,0.163819
5539715695,-89.675308,-33.367531,-17.310637,1.000255,0.216189,0.125186
5539735739,-86.168404,-30.564468,-14.132871,0.981529,0.129735,0.095171
5539755784,-82.451111,-17.677036,-14.440197,0.966304,0.152160,0.138850
5539775829,-79.550034,-7.941930,-11.957606,0.940205,0.239575,0.195842
5539795874,-78.527496,-17.823837,-12.222744,0.860765,0.334386,0.207407
5539815919,-81.814018,-42.438187,-8.974590,0.890307,0.327213,0.171993
5539835965,-89.269691,-68.698669,10.275034,1.039752,0.177666,0.086734
5539856010,-88.353279,-62.886101,24.516346,1.168092,0.012620,0.033041
5539876054,-77.085762,-19.809568,19.902052,1.140346,-0.127579,-0.009432
5539896099,-46.683670,17.681446,3.581760,1.002116,-0.166119,0.034943
5539916144,-15.587872,23.531818,-9.072392,0.944577,-0.056188,0.189848
5539956233,-24.768324,-15.463562,-1.400169,0.917319,0.181344,0.252330
5539976278,-27.886011,-30.957207,1.883777,0.952718,0.113154,0.137707
5539996322,-24.068777,-15.409163,2.586403,0.992707,0.067332,0.112065
5540016367,-16.620081,3.449518,2.999034,0.974754,0.081899,0.147503
5540036411,-15.398136,0.293707,1.964179,0.984785,0.118749,0.195799
5540056456,-16.319952,-5.801961,0.400023,1.007585,0.104188,0.183613
5540076501,-12.755411,-1.951556,0.247160,1.009948,0.068023,0.167358
5540096546,-9.972254,2.804013,0.107050,0.994450,0.064527,0.181204
5540116590,-5.899275,1.691684,2.080486,0.973179,0.070186,0.188467
5540136635,-1.582667,-3.336127,2.029288,0.966681,0.082547,0.194964
5540156680,1.973982,-7.770518,1.777662,0.982690,0.107781,0.175116
5540176725,3.556493,-8.318882,2.337420,0.995931,0.122894,0.149505
5540196770,1.397391,-6.332754,3.403421,1.005001,0.123021,0.135458
5540216814,1.787330,-0.913805,3.380071,1.006407,0.112314,0.132734
5540236860,9.485403,8.693732,1.841635,0.979484,0.109327,0.130468
5540256905,17.690491,13.497950,1.979877,0.972806,0.147045,0.163339
5540276950,15.140271,9.845517,4.859744,0.987525,0.173958,0.183710
5540296995,12.050951,7.059924,7.506758,0.983163,0.168249,0.154500
5540317040,14.135925,11.893135,9.657416,0.954019,0.141827,0.171894
5540337084,12.119789,14.851645,9.868155,0.954483,0.150399,0.235740
5540377174,4.794129,1.878288,14.979898,0.976531,0.174097,0.230243
5540397217,9.111964,-1.387298,12.412987,0.955803,0.157762,0.197997
5540417262,4.225163,-6.782694,5.492434,0.899700,0.134962,0.169005
5540437307,-1.578545,-20.552898,-0.613251,1.008005,0.138101,0.146827
5540457351,-9.213326,-31.427040,-9.785427,1.131058,0.113029,0.061714
5540477396,-15.418705,-1.436395,-8.585367,1.031923,0.050609,-0.025534
5540497441,-12.098827,35.710514,2.880540,0.965851,0.055077,0.076463
5540517486,-3.394640,29.502050,5.592734,1.017939,0.079532,0.199278
5540537530,2.191252,12.461197,-0.772406,1.044124,0.017512,0.199526
5540557575,10.641891,11.248817,6.827955,1.086253,-0.088066,0.122316
5540577620,34.171394,26.906620,18.989622,1.052509,-0.127528,0.067222
5540597665,57.940926,42.913780,14.175557,1.023697,-0.075865,0.129315
5540617710,64.712090,48.590790,8.701666,1.004096,0.025656,0.183780
5540637756,67.830635,45.367165,12.611844,0.961306,0.079988,0.182928
5540657800,66.241760,39.685356,17.352741,0.961025,0.052814,0.206549
5540677845,66.424026,39.534092,19.362717,0.986888,0.003110,0.219803
5540697890,81.055290,44.158195,20.068941,0.961214,-0.014949,0.215941
5540717935,97.811188,44.402927,21.783865,0.923279,0.012995,0.232003
5540737980,101.992790,36.891457,25.400452,0.928361,0.042073,0.254379
5540758024,98.908478,29.698105,29.476217,0.971291,0.025747,0.266663
5540778069,100.676910,29.341766,34.841515,0.988468,-0.014315,0.246361
5540798112,118.528801,32.952068,35.257362,0.956769,-0.003933,0.229656
5540818157,134.430939,34.273624,29.885181,0.924602,0.064127,0.245521
5540838202,132.228928,29.645338,26.851503,0.937817,0.125501,0.262773
5540858247,122.756149,21.598553,30.771360,0.965390,0.122231,0.233503
5540878292,122.925781,18.505871,32.875633,0.945090,0.087003,0.211613
5540918381,136.477600,16.675734,28.735764,0.955797,0.034626,0.164507
5540938426,153.575775,13.370522,30.192400,0.987182,0.062276,0.107423
5540958470,169.254364,17.749437,28.536774,1.007435,0.149276,0.090283
5540978515,173.256531,18.116899,25.184162,1.060529,0.272059,0.109323
5540998560,165.452301,25.839830,28.474474,1.078584,0.363922,0.116890
5541018605,149.468018,41.118450,34.265831,1.038828,0.403240,0.126199
5541038651,133.926712,48.748676,36.274731,0.950284,0.391854,0.145676
5541058696,123.187531,43.702297,33.634491,0.875713,0.391654,0.177636
5541078741,114.106659,30.964348,34.912228,0.888938,0.403392,0.226891
5541098785,98.391205,18.911459,42.540524,0.927753,0.365756,0.233858
5541118830,85.549240,14.842651,46.253906,0.965183,0.279537,0.201430
5541138875,87.672394,17.759087,45.374001,1.004347,0.214337,0.204804
5541158920,99.381058,28.093140,44.520248,1.002650,0.186992,0.214486
5541178964,108.816910,31.809523,44.947197,0.962258,0.194598,0.224416
5541199008,105.385094,29.600809,45.226997,0.938142,0.238849,0.267212
5541219053,94.809753,22.406054,48.705025,0.930384,0.235225,0.254439
5541239097,93.261246,16.837572,52.013268,0.923756,0.189941,0.244385
5541259142,98.214211,15.730955,51.481148,0.949854,0.141431,0.246615
5541279187,104.083069,14.485384,47.963383,0.975354,0.135998,0.229001
5541299231,107.203079,16.092232,43.961189,0.986097,0.178077,0.220629
5541319276,105.331924,19.299643,40.201450,0.971269,0.201529,0.230706
5541339321,95.823509,23.556040,38.860947,0.985838,0.206918,0.287216
5541359366,89.683464,27.417116,43.780083,0.968922,0.212061,0.270116
5541379411,97.562714,31.374645,36.630909,0.870863,0.202717,0.224865
5541399456,89.092148,27.706095,26.140368,0.865873,0.147595,0.256876
5541419500,75.266495,18.500828,31.542171,0.958065,0.088212,0.291635
5541439545,78.728188,21.736223,32.624840,1.036413,0.038385,0.195565
5541459591,89.842522,41.349976,28.978575,0.989497,0.017510,0.124289
5541479636,107.328133,55.166866,26.149807,0.965594,0.153801,0.224959
5541499681,117.586189,48.928806,33.626789,0.894048,0.269037,0.366061
5541519726,92.745186,32.764847,42.639282,0.866022,0.173268,0.352444
5541539770,80.077248,13.075235,43.638741,0.897139,0.091228,0.317659
5541559815,93.105942,21.551838,38.937000,0.927044,0.054694,0.294780
5541579860,109.480904,28.101315,31.438372,0.906479,0.090205,0.271394
5541599919,109.531250,24.140022,28.592489,0.870266,0.186198,0.308849
5541619948,101.776810,21.723566,31.846291,0.828882,0.259799,0.353006
5541639993,89.073364,1.572539,37.714554,0.898096,0.258293,0.363721
5541660037,61.022076,-20.712416,35.192875,1.041510,0.126791,0.277723
5541680082,65.403488,-7.561072,31.474831,1.074949,0.009740,0.159574
5541700127,116.760651,22.105635,31.342512,1.065598,-0.022579,0.146571
5541720172,146.558136,15.739855,28.986946,1.056752,0.144684,0.237263
5541740216,128.626816,14.720496,26.436134,1.071314,0.366179,0.261762
5541760261,104.569183,13.664614,32.281979,1.041532,0.403389,0.164730
5541780306,88.036423,17.566891,41.242271,1.017160,0.391396,0.207897
5541800351,81.011986,20.659134,41.895054,0.966266,0.328830,0.224885
5541820395,79.345436,15.711609,39.870804,0.966859,0.315880,0.238015
5541840440,75.600311,17.598869,37.772232,0.970839,0.272703,0.226201
5541860486,77.596992,36.111698,36.139576,0.893614,0.223970,0.273200
5541880531,81.185539,44.902508,35.928532,0.788800,0.198628,0.358408
5541900576,77.091583,30.182646,34.038788,0.754708,0.269055,0.444980
5541920621,66.709030,13.583514,32.755177,0.804662,0.327745,0.419550
5541940668,58.593559,12.290692,32.506268,0.869703,0.352487,0.370475
5541960710,54.072517,16.259811,27.303413,0.888084,0.351941,0.320721
5541980755,38.073814,14.717727,15.428719,0.850297,0.298329,0.354847
5542000800,25.465530,3.318494,12.153643,0.928530,0.220990,0.399121
5542020843,20.903055,-2.884290,18.898588,1.097896,0.115727,0.238986
5542040888,36.708649,24.048740,23.802870,1.025995,0.077673,0.123330
5542060933,64.744125,63.019356,14.188190,0.897176,0.231507,0.389155
5542080978,60.999065,40.438572,25.810444,0.797090,0.269791,0.533051
5542101022,27.877298,-1.596778,38.880016,0.874148,0.187715,0.525278
5542121067,16.875156,-12.709303,33.984894,0.962990,0.089401,0.352479
5542141112,39.362156,6.984789,28.019196,0.950922,0.034171,0.204626
5542161157,58.605484,8.319987,25.569666,0.929490,0.089610,0.312173
5542181201,59.840271,3.444700,20.750046,0.876139,0.198259,0.349762
5542201246,51.587532,-8.708902,21.601875,0.880517,0.236988,0.293846
5542221291,36.800297,-19.920818,25.016956,0.950139,0.205211,0.242266
5542241336,35.341454,-14.794991,28.779116,1.000161,0.156555,0.173567
5542261382,45.984383,-0.795637,29.804169,1.009964,0.128643,0.204095
5542281427,52.413261,7.382630,25.084747,1.005135,0.142750,0.266127
5542301471,50.153664,4.479756,22.072735,1.003502,0.145419,0.303786
5542321516,44.540184,2.638622,24.258257,1.000816,0.133244,0.291393
5542341562,48.812336,7.659636,25.683466,0.958667,0.136885,0.291602
5542361606,51.441353,8.227112,25.007599,0.918449,0.138411,0.305680
5542381650,49.496140,1.722331,24.419199,0.933780,0.122731,0.287258
5542401695,51.555141,-0.642913,25.197952,0.955881,0.108274,0.237737
5542421739,54.449066,8.771294,23.963173,0.955585,0.094626,0.240943
5542441783,48.394291,17.402895,23.041531,0.944222,0.067185,0.280145
5542461828,45.724567,15.694378,21.562811,0.910373,0.031643,0.274910
5542481873,52.956089,13.080010,19.163399,0.892577,0.047605,0.239323
5542501918,69.508286,11.401640,20.218916,0.938303,0.112943,0.254413
5542521963,67.075645,14.419693,16.844572,0.990835,0.218817,0.316562
5542542007,56.473007,17.435757,10.264623,1.023874,0.346722,0.359176
5542562052,51.221706,15.675774,7.701092,1.050445,0.488071,0.432040
5542582097,32.187496,17.818516,3.510193,1.001466,0.556323,0.489752
5542602141,-7.042511,11.854074,0.464565,0.858846,0.450001,0.493775
5542622186,-45.596382,-12.088576,9.879045,0.817033,0.262061,0.589344
5542642231,-60.460518,-38.704712,18.444010,0.746006,0.037896,0.482605
5542662277,-23.857973,-39.659973,9.662257,0.755841,-0.026994,0.367859
5542682322,9.625323,-32.539894,2.443299,0.792006,0.029476,0.397429
5542702366,6.469340,-18.256844,-0.623798,0.765886,0.067348,0.411492
5542722411,1.404042,-27.402849,1.274931,0.757419,0.084623,0.400181
5542742456,-2.930432,-42.996971,-1.465389,0.834007,0.116293,0.362240
5542762501,-8.310327,-44.019661,-4.211470,0.954544,0.122637,0.292053
5542782545,-4.602813,-31.117279,-5.097725,1.026805,0.097020,0.240442
5542802590,5.009426,-14.984012,-10.214752,1.062503,0.079563,0.257781
5542822634,17.260639,-5.610286,-15.871284,1.041571,0.120454,0.258929
5542842678,18.247135,-4.897047,-16.702299,0.998405,0.178067,0.219536
5542862723,-0.455996,-5.563049,-12.474861,0.984760,0.211535,0.217885
5542882768,-15.938482,-10.578838,-6.934806,1.030099,0.215004,0.249234
5542902813,-20.425030,-5.898953,-3.430888,1.049878,0.137391,0.273235
5542922858,-3.392532,2.986902,-3.097545,1.085696,0.050213,0.256190
5542942903,16.183064,15.342875,-5.430530,1.062311,0.072640,0.258201
5542962947,20.243824,35.844418,-9.031174,0.904358,0.104729,0.258512
5542982992,15.596409,36.707775,-8.005979,0.776407,0.060569,0.340975
5543003036,17.514778,11.088199,0.916941,0.866055,0.106884,0.388044
5543023081,30.446579,-14.180084,0.910245,1.063054,0.186775,0.221302
5543043126,10.751086,12.074647,1.173561,1.051586,0.131341,0.084380
5543063172,5.055974,63.690559,6.211738,1.053375,0.158260,0.129056
5543083217,36.940918,82.389671,2.955602,0.900080,0.314234,0.362910
5543103262,26.098595,77.861404,2.928739,0.709409,0.327354,0.533028
5543123306,-7.445440,24.671827,6.298769,0.738914,0.269809,0.541093
5543143351,-16.671967,-8.563484,11.093802,0.920127,0.209744,0.439941
5543163396,-2.967505,11.959632,6.375492,0.927725,0.098781,0.278398
5543183441,15.288070,31.092739,-4.432944,0.836493,0.125970,0.369098
5543203486,13.736231,15.338439,-3.103422,0.800527,0.202290,0.497397
5543223529,-0.751655,-18.005444,3.674719,0.854915,0.193546,0.410100
5543243573,-5.184773,-24.362108,6.533489,0.951690,0.175681,0.309166
5543263618,0.478114,-10.290990,5.471151,0.975956,0.142382,0.268193
5543283663,1.502748,-3.930773,3.964096,0.982680,0.123396,0.303906
5543303708,-2.456259,0.003398,6.603806,0.994541,0.122667,0.353436
5543323753,-0.441869,6.357126,9.454453,0.976885,0.132017,0.386734
5543343798,2.043893,9.615834,9.797992,0.936644,0.147137,0.439759
5543363843,0.456444,6.113322,9.882039,0.884139,0.121331,0.468631
5543383887,-3.929488,1.589075,14.269992,0.838190,0.044366,0.471480
5543403932,3.354653,-4.580866,15.408429,0.862575,0.023906,0.478838
5543423977,23.040157,-20.151600,9.406131,0.820224,0.108078,0.445240
5543444021,26.774408,-10.991113,3.365621,0.676284,0.201106,0.354561
5543464067,7.575071,-41.789875,15.502669,0.927857,0.208931,0.356698
5543484112,-36.320202,-70.064377,15.904043,1.113310,0.114239,0.229096
5543504157,-51.613861,-48.288914,2.310637,1.260195,-0.024161,0.166852
5543524202,-29.588875,-6.298986,2.086833,1.270734,-0.152951,0.230084
5543544247,34.906307,27.755379,-2.028075,0.991858,-0.053966,0.291781
5543564291,73.870987,24.679468,-6.414941,0.849815,0.143368,0.469656
5543584336,52.338425,14.130697,-11.732665,0.759067,0.283601,0.485862
5543604381,13.000519,4.684908,-15.490294,0.703485,0.273308,0.435284
5543624432,-6.608357,-12.807437,-9.457325,0.683268,0.222882,0.404780
5543644469,-9.353581,-29.093513,-9.801794,0.751662,0.158306,0.391063
5543664514,-11.398854,-40.381756,-16.395739,0.881351,0.118740,0.332430
5543684558,-4.286766,-35.036850,-16.043934,0.990090,0.117943,0.271411
5543704603,7.441521,-20.778482,-11.637306,1.054378,0.125893,0.268447
5543724648,6.229411,-10.675982,-11.348068,1.040256,0.152120,0.298081
5543744693,2.814543,-6.075750,-13.870747,1.005647,0.203857,0.320708
5543764737,2.267191,-4.866123,-12.443071,0.958854,0.217333,0.334822
5543784782,-5.922899,-8.118370,-9.390830,0.906503,0.213915,0.358686
5543804827,-15.704255,-17.495253,-6.000630,0.885606,0.183025,0.342947
5543824872,-15.256084,-27.216677,-5.438739,0.895590,0.147364,0.311266
5543844916,-8.719467,-30.088272,-6.522230,0.949909,0.146318,0.279442
5543864961,10.364524,-13.877048,-6.036321,1.010296,0.127677,0.209933
5543885008,31.067640,4.826134,-4.818590,0.978258,0.163603,0.270129
5543905053,17.269569,9.025242,-6.575633,1.013073,0.197756,0.337019
5543925097,15.636995,11.588671,-5.278047,0.946411,0.262940,0.324977
5543945142,6.217218,8.102147,-1.599073,0.896236,0.289818,0.344783
5543965193,1.161953,7.813818,6.667719,0.907811,0.203129,0.357510
5543985231,-0.938641,3.136150,12.310551,0.887671,0.100700,0.384520
5544005276,-19.759373,-9.290407,11.262910,0.860620,0.050917,0.328013
5544025321,-18.493116,-25.971428,2.401274,0.973899,0.051242,0.192453
5544045364,19.108738,-21.351650,3.792251,1.164217,0.091248,0.055853
5544065409,60.164429,19.201832,6.501685,1.158482,0.179054,0.045891
5544085454,52.399467,67.684898,4.565098,0.946327,0.252157,0.133508
5544105499,18.635311,81.037865,4.095229,0.858404,0.272615,0.270721
5544125543,-7.317945,81.915283,12.338308,0.849097,0.235091,0.419365
5544145588,-1.281689,78.158798,20.028149,0.795790,0.127219,0.532124
5544165633,30.194952,30.040842,17.440159,0.762091,0.075222,0.521017
5544185678,46.648682,-18.675646,7.204877,0.861328,0.194783,0.405311
5544205723,32.438599,-16.635387,4.104596,0.927659,0.287217,0.340209
5544225767,10.372562,-6.795086,6.641385,0.888094,0.288011,0.317789
5544245812,-0.638538,-8.213571,8.715525,0.874287,0.228498,0.379544
5544265857,5.181970,-17.134466,8.153669,0.859137,0.170288,0.354603
5544285903,18.797684,-29.923037,8.068985,0.894085,0.189903,0.315821
5544305947,13.683026,-29.333254,8.313337,0.969331,0.242142,0.332964
5544325992,-1.631403,-19.652523,7.027454,1.028660,0.234976,0.359860
5544346037,-12.423327,-16.397034,8.516505,1.065162,0.163642,0.341596
5544366082,-8.300931,-18.650612,8.045167,1.017930,0.139386,0.268615
5544386127,1.935399,-1.700208,12.681620,0.826586,0.138603,0.218151
5544406171,6.373990,-26.090475,21.987823,0.967515,0.179705,0.280752
5544426216,-2.892191,-48.934940,11.407233,1.059399,0.237621,0.222949
5544446259,-13.682753,-29.048561,-2.683629,1.045582,0.198069,0.121296
5544466304,-21.683455,1.447749,3.976799,0.994785,0.123033,0.166247
5544486349,-21.684381,31.229733,9.418586,0.940625,0.071413,0.340173
5544506394,-18.034740,39.408997,1.596972,0.855799,0.019822,0.442313
5544526438,-5.864185,19.087343,-3.025252,0.758473,0.005537,0.458745
5544546483,13.326301,-12.375384,-7.622200,0.767080,0.048448,0.409927
5544566528,18.361055,-26.078423,-12.576884,0.875514,0.150676,0.361713
5544586573,9.074417,-20.908381,-10.027004,0.939273,0.191230,0.328067
5544606617,-2.983596,-17.560186,-7.644614,0.971719,0.156564,0.316572
5544626662,-3.074064,-20.075302,-6.239775,1.016430,0.136044,0.294944
5544646707,8.717670,-19.393091,-4.616713,1.029170,0.139333,0.259411
5544666752,11.367112,-14.904802,-7.795244,0.971276,0.153924,0.215986
5544686798,5.005028,-8.281263,-12.582727,0.928976,0.164793,0.181810
5544706843,2.729154,-4.614167,-9.049091,0.944578,0.169790,0.199090
5544726887,1.134213,-6.592349,0.305038,0.974702,0.160717,0.229521
5544746932,-1.340715,-8.048807,1.940469,0.981380,0.142355,0.225533
5544766977,-2.831995,-4.582485,-0.016895,1.004839,0.119682,0.227530
5544787022,-2.372957,0.745295,0.180243,0.994934,0.109358,0.229182
5544807067,10.532192,6.654199,-1.798390,0.969134,0.126372,0.221478
5544827111,29.172853,17.446499,-1.334433,0.985824,0.162824,0.266275
5544847155,21.032803,18.298222,0.913624,0.986836,0.212259,0.284084
5544867200,14.680555,25.176386,4.566897,0.937127,0.200606,0.271708
5544887244,9.801287,22.194370,6.443137,0.882824,0.190759,0.335124
5544907289,8.886592,7.244843,6.997564,0.931799,0.180208,0.364065
5544927334,9.412313,-3.775905,8.580940,0.968820,0.185294,0.324872
5544947379,-0.520562,1.674962,9.002385,0.915582,0.185057,0.270404
5544967423,-8.128279,11.904373,8.792021,0.901265,0.164951,0.296778
5544987468,-8.498387,8.180544,9.217385,0.975585,0.100189,0.395000
5545007513,-11.375250,-1.988462,5.318017,0.966056,0.077961,0.340213
5545027558,-12.723109,-2.994230,-2.746092,0.963374,0.134322,0.262250
5545047603,-8.446219,11.122509,-6.426157,1.051817,0.205282,0.198215
5545067648,-1.954062,13.825692,0.096100,1.128534,0.213221,0.156738
5545087694,-17.308626,41.821327,9.428351,1.065981,0.115734,0.186766
5545107738,-19.954336,73.029831,4.474856,0.954454,0.087716,0.278684
5545127783,-2.651979,70.657196,1.213320,0.798211,0.109519,0.409924
5545147828,3.356407,38.139023,7.384053,0.709453,0.113349,0.477891
5545167872,2.830525,1.839942,10.462104,0.744788,0.123135,0.417160
5545187917,-0.066715,0.010103,9.190936,0.800797,0.125221,0.355642
5545207962,-5.938522,12.859083,6.382185,0.819526,0.118966,0.398985
5545228007,-12.987702,14.034356,3.456366,0.841468,0.102531,0.503436
5545248050,-7.070008,-0.930767,-0.627790,0.816940,0.074584,0.496204
5545268095,4.592375,-15.497557,-3.697426,0.819513,0.084030,0.446434
5545288140,6.654336,-20.704498,-0.782887,0.836037,0.136739,0.444937
5545308184,5.046391,-26.721107,3.105224,0.890314,0.166875,0.451002
5545328229,1.603394,-37.740234,0.681330,0.965212,0.228709,0.420448
5545368319,-15.572277,-44.567375,-2.296410,0.958244,0.233993,0.230161
5545388363,-25.165932,-75.676193,14.863923,1.168838,0.178318,0.166516
5545408408,-41.984741,-80.717018,12.902611,1.289365,0.092028,0.057489
5545428453,-40.574917,-44.779213,2.550269,1.336500,0.015750,-0.029486
5545448498,-24.715893,20.488825,1.125186,1.119895,-0.010696,0.037161
5545468543,-4.691856,63.817741,-0.113013,0.915168,0.036761,0.223827
5545488589,-2.584684,67.518593,2.419462,0.811524,0.072447,0.441920
5545508634,-6.264377,38.009258,4.593460,0.704478,0.034174,0.512013
5545528678,1.573891,-11.136215,4.137965,0.686854,-0.011182,0.406647
5545548723,12.988238,-27.739901,0.797899,0.828134,0.021866,0.353053
5545568768,15.530626,-12.519027,-1.696694,0.911547,0.061816,0.327020
5545588812,14.195011,-6.924677,-3.725828,0.935208,0.110795,0.328701
5545608857,9.168163,-7.346951,-5.888575,0.973553,0.150622,0.343219
5545628902,3.689312,-9.744996,-8.007896,0.997988,0.138758,0.316729
5545648945,1.536956,-13.292887,-8.506084,1.043760,0.112459,0.279770
5545668990,8.319975,-11.572700,-6.982730,1.050173,0.084944,0.232700
5545689035,12.116247,-1.239170,-7.288246,0.999277,0.072115,0.244179
5545709080,12.002445,1.314239,-8.447768,0.955646,0.090224,0.287595
5545729124,9.411657,-7.453524,-5.783685,0.908460,0.134900,0.278687
5545749169,0.875146,-8.669434,-4.833363,0.884982,0.178832,0.291628
5545769214,-11.196199,-10.520559,-3.459186,0.923811,0.160050,0.321201
5545789259,-13.655163,-12.927723,-3.163798,0.954998,0.074975,0.307928
5545809303,-2.809927,-8.293630,-4.416931,0.959583,0.038719,0.308807
5545829348,7.114563,-1.424716,-6.952608,0.946097,0.094115,0.326551
5545849393,6.816409,-0.694244,-5.739704,0.957540,0.175552,0.303383
5545869438,5.205485,3.474231,-1.525994,0.964103,0.168854,0.273533
5545889485,8.441191,8.603133,1.194553,0.942208,0.126833,0.291929
5545909529,12.416698,4.486725,-1.018487,0.923527,0.109973,0.329442
5545929574,17.622616,-1.135506,-2.835768,0.949803,0.119628,0.307248
5545949619,15.341079,-4.023059,-5.626696,0.952036,0.150828,0.289708
5545969663,1.449037,4.130013,-4.011850,0.957823,0.148304,0.292958
5545989708,-5.633700,15.411286,3.352971,0.903880,0.115669,0.257417
5546009753,5.123445,11.586279,2.984615,0.934518,0.104944,0.262373
5546029798,9.868733,7.513226,-2.738784,1.000320,0.157503,0.241479
5546049841,8.000884,12.187645,-6.332336,1.056887,0.244229,0.211314
5546069886,-1.058791,29.289677,-5.799091,1.012695,0.284865,0.217120
5546089930,-21.023874,35.990055,-1.081373,0.985525,0.232775,0.244209
5546109975,-25.543455,30.211565,2.752654,0.928384,0.153914,0.289146
5546130020,-17.684645,33.373291,0.594379,0.887814,0.113409,0.339714
5546150065,-10.661652,23.341143,-1.103153,0.845424,0.130896,0.362931
5546170109,-7.242872,10.378813,-1.528498,0.847849,0.159574,0.387567
5546190154,-9.976890,7.395097,0.681736,0.839368,0.123950,0.373141
5546210199,-10.294945,10.056089,1.732983,0.825094,0.060769,0.393497
5546230244,-8.835052,7.014327,1.237095,0.823101,0.039888,0.438904
5546250288,-1.220643,-3.185702,-0.800017,0.820359,0.071690,0.468848
5546270333,2.129395,-12.606852,-3.003247,0.836779,0.156620,0.472455
5546290379,0.639670,-25.892260,-4.510542,0.888161,0.252986,0.453371
5546310424,-10.911565,-31.087952,-2.710566,0.800167,0.259500,0.352981
5546330469,-7.671947,-43.943752,13.633231,0.943933,0.249478,0.299032
5546350514,-15.879740,-78.899132,15.252870,1.123930,0.216277,0.241533
5546370558,-29.791513,-87.054657,5.539641,1.238477,0.104916,0.095159
5546390603,-42.758953,-64.113167,3.293794,1.352980,-0.034077,0.010013
5546410648,-35.432770,-12.517255,5.756209,1.252476,-0.147026,-0.045599
5546430693,6.308347,56.648914,1.058825,0.988471,-0.105124,0.070029
5546450736,33.187149,83.326027,-0.955161,0.842856,0.043565,0.320933
5546470781,23.754976,68.050125,1.127593,0.739835,0.169533,0.518893
5546490826,-0.785116,17.428213,1.866413,0.671215,0.146595,0.470327
5546510870,-10.095157,-30.947029,7.956274,0.783434,0.068328,0.344240
5546530915,-5.799689,-27.065832,10.060412,0.923673,0.038117,0.277412
5546550960,8.346983,-5.283309,1.078893,0.973352,0.046330,0.255492
5546571005,6.096669,3.660934,-7.162924,0.989789,0.126018,0.315590
5546591049,-7.164017,2.160001,-6.823666,0.990573,0.153311,0.334308
5546611094,-14.337556,0.838572,-1.289862,0.989477,0.119945,0.357336
5546631139,-10.387708,-0.928244,-1.387040,0.984747,0.075610,0.356302
5546651183,-5.368839,-1.944929,-4.616626,0.932698,0.069175,0.329481
5546671228,-7.410666,-3.691455,-4.904051,0.896266,0.097840,0.334987
5546691275,-6.324868,-13.738507,-0.461410,0.929975,0.105593,0.317143
5546711319,-3.641551,-21.424425,1.102270,0.983464,0.073054,0.290489
5546731364,1.445151,-11.853054,-1.368398,1.023710,0.035601,0.250304
5546751409,9.104165,4.351272,-4.345012,0.973775,0.069759,0.256212
5546771454,5.571271,5.295989,-6.162446,0.966544,0.109196,0.298807
5546791499,5.470798,8.550076,-4.161139,0.929814,0.098247,0.334683
5546811543,7.660592,1.168628,-2.571108,0.900970,0.082287,0.362099
5546831588,10.923250,-7.194822,-2.275866,0.927944,0.105333,0.352364
5546851634,7.414445,-6.691620,-5.540544,0.906394,0.117154,0.303856
5546871676,1.356961,-4.550827,-6.059878,0.891226,0.099534,0.294240
5546891721,-1.297709,-5.124417,-2.138414,0.897614,0.101892,0.330776
5546911766,-6.276165,-6.023345,0.643193,0.931166,0.106715,0.348553
5546931810,-8.935168,-8.095358,2.151107,0.972900,0.126250,0.325207
5546951855,-9.138585,-12.388428,4.693618,1.059165,0.114172,0.258655
5546971900,-11.338800,-0.358883,12.104099,1.070978,0.038933,0.191625
5546991945,-1.099292,33.840851,7.323241,0.931239,0.046924,0.287956
5547011990,14.601753,31.421646,-1.144507,0.918766,0.105414,0.457453
5547032035,11.080273,-6.294982,4.578546,0.840573,0.098125,0.422254
5547052079,1.519028,-32.396317,1.918707,0.873030,0.064963,0.329353
5547072124,1.527126,-34.154346,-3.092532,0.950273,0.054622,0.270004
5547092169,9.523924,-30.353380,-3.264094,1.028801,0.061783,0.200506
5547112215,13.243098,-23.563772,-8.136646,0.975111,0.086363,0.197999
5547132260,10.637661,-7.799008,-11.087474,0.930374,0.128415,0.209434
5547152304,20.554106,-16.831360,1.849466,0.993270,0.135907,0.240877
5547172349,21.210039,-25.813759,6.698166,1.019263,0.123904,0.210940
5547192394,19.669243,-21.590651,-2.626426,1.031446,0.172431,0.151995
5547212439,16.966858,-14.902452,-8.714285,1.043132,0.265001,0.130923
5547232483,0.785952,-1.905957,-7.535949,1.030663,0.302215,0.120236
5547252547,-22.306614,17.451925,-3.613759,0.954869,0.218768,0.135485
5547272571,-34.556175,32.892006,-3.420162,0.906180,0.113015,0.210750
5547292616,-26.974371,37.863953,-3.323010,0.899974,0.049108,0.298271
5547312661,-4.299133,27.726881,-5.460419,0.873507,0.014986,0.327948
5547332706,18.324053,8.004886,-8.685402,0.867741,0.043929,0.322023
5547352751,24.646433,-2.323159,-10.544884,0.909004,0.150228,0.319079
5547372795,10.827012,0.146254,-5.108457,0.933894,0.214839,0.291506
5547392840,-2.393211,1.429530,0.522575,0.938926,0.200822,0.280004
5547412885,-6.410578,4.617535,0.177066,0.937179,0.173217,0.303982
5547432930,-3.945567,1.877250,-4.044543,0.932650,0.160201,0.322538
5547452974,-2.757401,-5.755673,-5.813880,0.939709,0.168734,0.319515
5547473019,-2.875296,-10.854993,-4.383534,0.962680,0.173341,0.310814
5547493064,-2.673331,-12.398167,-4.513135,0.975821,0.184260,0.297436
5547513110,-6.850972,-10.220770,-4.536491,0.978086,0.187246,0.286502
5547533155,-7.812279,-12.035612,-2.554266,0.990642,0.168854,0.240404
5547553200,-2.935923,-8.922957,-1.269013,0.969123,0.151735,0.224000
5547573244,-2.425237,-3.420630,-1.567626,0.965683,0.149120,0.233374
5547593290,-4.783636,-1.935161,1.305913,0.942830,0.123633,0.254449
5547613334,-4.384778,-3.029353,2.751366,0.942028,0.114797,0.266261
5547633379,2.587982,-5.673025,2.289016,0.941191,0.137267,0.257875
5547653423,2.298855,-4.982187,-0.093947,0.935819,0.184078,0.265189
5547673467,-2.363113,-5.479873,-0.240572,0.935096,0.190831,0.264672
5547693512,-2.949648,-7.189287,0.283586,0.946468,0.156725,0.261759
5547713556,-0.328362,-7.921257,0.195615,0.973903,0.155358,0.255689
5547733601,0.800089,-5.900499,0.078397,0.960922,0.162665,0.243334
5547753646,0.021022,-3.961592,0.204429,0.955199,0.162992,0.238919
5547773691,-0.170743,-4.165902,1.851645,0.955826,0.143864,0.242541
5547793736,2.154540,-4.007568,3.463982,0.950751,0.127086,0.244099
5547813780,3.511966,-4.874543,4.962817,0.956240,0.134182,0.240894
5547833825,3.306037,-6.257471,5.453274,0.954833,0.139902,0.222173
5547853870,4.041387,-6.691503,5.105223,0.965129,0.144342,0.214564
5547873915,0.785975,-4.165074,5.516327,0.970920,0.142090,0.217720
5547893960,1.437707,-1.762786,7.802166,0.967904,0.124237,0.226130
5547914006,3.674611,-1.597338,8.165774,0.962675,0.110314,0.231397
5547934050,6.313788,-4.518434,7.835950,0.957410,0.118329,0.232111
5547954095,5.469659,-7.535455,7.228194,0.968107,0.138266,0.225197
5547974140,1.258615,-8.261222,7.809684,0.987029,0.139821,0.214761
5547994185,0.024630,-4.862756,7.564528,0.995285,0.114518,0.199826
5548014230,3.731607,-0.093228,6.442181,0.976235,0.101958,0.200974
5548034275,4.150781,1.813894,5.797226,0.952972,0.105380,0.222535
5548054319,2.686715,-0.154410,3.608625,0.937156,0.105362,0.237533
5548074362,2.545866,-2.974010,3.909484,0.934870,0.077629,0.230280
5548094407,7.079793,-4.475522,3.335243,0.937736,0.050293,0.238174
5548114452,12.533197,-5.013702,0.185674,0.969018,0.094269,0.257068
5548134497,8.522070,-9.128555,2.978141,0.992533,0.090514,0.240518
5548154542,7.325419,-10.312430,4.748262,0.980989,0.047459,0.238422
5548174586,17.269272,-7.044993,5.026992,0.945675,0.062912,0.234668
5548194631,17.506865,-13.915417,6.821966,0.979024,0.156912,0.229128
5548214676,7.626709,-19.713955,6.514667,1.034291,0.178677,0.201857
5548234721,9.658671,-12.296994,7.482454,1.028382,0.100250,0.161400
5548254765,16.570324,0.969573,11.294632,0.972910,0.029820,0.178237
5548274810,25.705177,2.004119,13.821455,0.922064,0.037737,0.209393
5548294855,28.434502,-7.407674,14.319852,0.939383,0.103702,0.189401
5548314901,26.244423,-10.019916,15.443766,1.007582,0.142011,0.182117
5548334946,23.328272,-2.508240,14.712430,1.053629,0.106923,0.190755
5548354991,25.455460,8.896816,10.830481,1.034328,0.038487,0.192726
5548375035,37.352386,12.518724,8.724610,0.985278,0.037607,0.221419
5548395080,45.140476,10.285813,10.541109,0.974222,0.111992,0.247764
5548415125,38.099716,6.766761,14.064744,0.972497,0.154127,0.233838
5548435170,36.763760,3.227008,16.318113,0.997614,0.091784,0.225067
5548455215,43.202423,6.631519,10.468004,1.009757,0.050434,0.205377
5548475258,53.149975,14.527216,9.500548,0.972548,0.100791,0.208513
5548495303,50.506393,15.282964,11.706553,0.948377,0.171708,0.244897
5548515347,40.885696,10.967931,14.930752,0.921865,0.152572,0.241675
5548535392,44.802795,7.674356,16.945536,0.926051,0.076961,0.220570
5548555437,52.675179,5.812005,14.769051,0.957340,0.073048,0.223380
5548575482,57.147926,5.512053,15.519726,1.009875,0.091318,0.236359
5548595526,59.613869,10.145660,13.995636,1.009641,0.104557,0.226051
5548615571,59.319843,19.358063,14.225348,0.958106,0.104125,0.236058
5548635616,58.511574,16.965675,16.740225,0.933954,0.095502,0.254070
5548655661,61.703171,11.916964,18.746992,0.950200,0.086204,0.262642
5548675706,65.035873,10.469683,18.151436,0.991540,0.082925,0.260422
5548695750,68.508995,13.855704,16.178942,1.001868,0.081850,0.246758
5548715796,73.389053,18.981640,15.473888,0.975154,0.090714,0.232196
5548735841,77.074814,19.587996,18.759012,0.961156,0.117896,0.255450
5548755886,74.778969,16.260714,18.406466,0.970699,0.100999,0.245826
5548775931,77.617569,17.063190,16.753628,0.969869,0.065267,0.232276
5548795975,85.024300,21.380852,15.115771,0.964445,0.046129,0.247053
5548816020,94.178177,20.962616,15.350714,0.961332,0.074346,0.234597
5548836065,95.353180,20.765417,18.533957,0.971929,0.130640,0.249870
5548856110,90.626228,21.886793,18.515810,0.991692,0.132346,0.262018
5548876158,93.075233,24.415270,17.542356,0.978642,0.094371,0.240749
5548896198,102.196793,27.029762,17.820391,0.953629,0.116889,0.239379
5548916243,103.056595,27.439445,17.805792,0.942098,0.183436,0.265149
5548936287,94.088928,26.231773,19.330784,0.936600,0.197672,0.280833
5548956332,91.431229,23.871145,21.318914,0.941573,0.177226,0.287593
5548976377,95.972496,24.612217,21.595745,0.924071,0.169615,0.283067
5548996422,96.477867,25.220131,22.246469,0.917657,0.182554,0.294021
5549036511,95.271332,24.875488,30.994228,0.911918,0.165000,0.300406
5549056556,100.522285,22.157787,31.619331,0.918720,0.173898,0.321959
5549076601,97.511185,15.211205,26.864698,0.952341,0.180866,0.271345
5549096646,97.723648,19.261271,24.817535,0.992635,0.189407,0.250082
5549116692,99.711411,27.285460,23.872894,0.999892,0.182076,0.284975
5549136736,101.810394,29.524544,20.967348,0.961646,0.176231,0.305046
5549156781,102.522896,29.356491,20.482094,0.931124,0.205310,0.316874
5549176826,99.550987,27.293108,23.668423,0.926620,0.209116,0.316992
5549196871,98.866287,25.942816,28.184984,0.921187,0.175705,0.299748
5549216916,106.814407,25.139330,31.408285,0.914457,0.146953,0.281090
5549236960,111.561218,23.144596,33.065041,0.932533,0.136034,0.308716
5549257005,115.044876,21.903130,34.075592,0.929336,0.164237,0.294075
5549277063,118.545227,23.282600,32.226677,0.928476,0.204231,0.313495
5549297093,118.972084,23.715506,32.306797,0.930412,0.222000,0.328840
5549317143,116.921249,22.487358,35.393852,0.945250,0.224922,0.347498
5549337183,111.678429,19.125870,37.814137,0.941628,0.202693,0.354756
5549357228,110.685669,16.368649,39.972717,0.922998,0.175352,0.330173
5549377272,114.555038,11.599750,40.145638,0.924429,0.172261,0.296613
5549417362,117.928345,17.995863,38.468170,0.900256,0.240356,0.321185
5549437407,108.854050,12.699065,39.906425,0.892921,0.252792,0.361362
5549477496,96.311554,-0.614599,38.849583,0.917604,0.279502,0.286665
5549517586,82.869957,5.881712,41.750031,0.892475,0.207448,0.355724
5549537632,88.932930,-3.502133,43.190365,0.898315,0.218667,0.318436
5549557676,88.578667,-9.058172,42.665054,0.947751,0.236302,0.300352
5549577721,74.434921,-6.394195,40.714035,0.956283,0.176631,0.273776
5549597766,72.797150,-1.778732,41.659279,0.893160,0.140807,0.244567
5549617811,85.773132,-7.216792,41.755394,0.897042,0.170784,0.275394
5549637855,75.583832,-23.584641,31.229088,0.969371,0.208328,0.284171
5549657900,54.425156,-24.475178,21.640736,1.031492,0.180637,0.202367
5549677945,45.300171,-10.115082,26.298573,1.029336,0.055869,0.178252
5549697989,47.222931,4.134096,25.264744,0.997585,-0.075919,0.256041
5549718033,75.800095,3.919649,8.978855,0.900348,-0.081205,0.256467
5549738078,121.757698,-12.731306,0.688731,0.896178,0.102070,0.239537
5549758123,126.799149,-17.536364,7.191119,1.005170,0.329159,0.287532
5549778167,79.503922,-12.929601,19.372978,1.055694,0.362236,0.226446
5549798212,37.279579,-4.808876,29.828995,1.021171,0.204439,0.144555
5549818257,32.789646,14.769255,35.284370,1.026636,0.043658,0.198454
5549838302,60.268166,25.506939,32.686626,0.984224,-0.077376,0.266335
5549858346,94.735741,14.702615,23.008743,0.946227,-0.077660,0.261871
5549878391,118.872543,7.070384,16.164890,0.977607,0.065640,0.236791
5549898436,116.718460,17.173790,16.651806,0.977307,0.209930,0.232593
5549918481,95.654793,22.247576,19.162561,0.941646,0.248919,0.242572
5549938527,72.889923,19.479923,23.910698,0.938879,0.170228,0.272518
5549958572,70.558853,17.825697,25.484268,0.970169,0.044222,0.272512
5549978616,90.853882,21.470400,22.590248,0.988992,-0.005557,0.235732
5549998661,107.428108,29.365824,16.863876,0.968614,0.058598,0.252898
5550018706,105.365921,33.265697,14.514329,0.951560,0.143089,0.290042
5550038751,99.346802,25.726208,20.715570,0.985966,0.160560,0.268753
5550058796,99.920944,27.877611,22.712746,0.989887,0.181593,0.248123
5550078840,98.960693,37.452972,17.522997,0.971476,0.239144,0.276284
5550098884,92.643372,39.092289,16.891853,0.936783,0.273159,0.331469
5550118929,81.938728,34.891670,18.920565,0.922080,0.243057,0.348909
5550138973,75.644508,30.602844,19.209044,0.953921,0.181221,0.348377
5550159018,80.315979,34.588711,18.186699,0.964780,0.129032,0.339965
5550179063,86.761047,42.302639,11.951555,0.910503,0.177450,0.342082
5550199107,83.262672,40.831310,12.368302,0.894505,0.279084,0.382096
5550219152,71.078186,34.739220,14.013996,0.879943,0.369844,0.409009
5550239197,50.659935,36.542057,11.890972,0.849375,0.399220,0.436585
5550259242,27.334820,35.065208,12.650195,0.813682,0.329073,0.482790
5550279287,14.912298,26.244984,14.985940,0.818437,0.210290,0.518675
5550299331,24.550343,15.318751,7.654519,0.834849,0.143336,0.446967
5550319376,39.729187,19.398375,-1.302940,0.866530,0.206790,0.399787
5550339422,41.330528,30.724646,4.494452,0.847977,0.255939,0.463159
5550359467,35.219959,25.674995,3.464278,0.810231,0.240068,0.509720
5550379512,26.935047,16.894293,0.244998,0.818494,0.240649,0.493752
5550399556,25.991135,17.833252,7.465874,0.790621,0.254694,0.437167
5550419601,20.427286,12.921633,10.179580,0.800223,0.259208,0.475803
5550439646,12.992035,3.440865,6.809699,0.837436,0.244488,0.458989
5550459691,16.496815,3.598307,8.702489,0.864842,0.171182,0.426654
5550479735,27.473930,6.418224,12.996181,0.888757,0.121118,0.448910
5550499786,37.024254,8.112311,12.509969,0.886486,0.152312,0.471306
5550519824,36.649738,6.828161,12.605473,0.867106,0.238126,0.472641
5550539869,23.738495,2.585433,18.170794,0.840787,0.252281,0.471968
5550559914,17.424442,-5.159694,22.888926,0.852085,0.188398,0.473489
5550579958,18.306463,-10.252709,23.359310,0.885279,0.167167,0.430660
5550600003,18.370829,-6.840371,22.654707,0.893468,0.246238,0.388915
5550620047,7.872969,-1.967725,20.734596,0.869126,0.307992,0.381035
5550640092,-5.441470,-6.234731,22.257717,0.884230,0.248220,0.379180
5550660137,-10.339847,-10.298054,19.640331,0.922460,0.178002,0.367384
5550680181,-7.662583,-4.647440,15.226323,0.935733,0.179641,0.356906
5550720272,-7.620206,3.951569,4.277995,0.964921,0.066349,0.358237
5550740316,4.601156,8.241620,1.201482,0.949060,0.057205,0.346907
5550760362,5.360590,15.377275,-0.441402,0.889283,0.142773,0.381545
5550780407,-2.876072,13.014945,3.928320,0.872285,0.090633,0.447767
5550800452,-2.217789,-0.812276,1.742276,0.903000,0.000823,0.446821
5550820496,14.788376,-7.006039,2.387191,0.937446,0.024462,0.383692
5550840541,18.868690,1.426907,1.715615,0.931220,0.168730,0.351592
5550860586,2.683552,5.568207,2.033870,0.933978,0.272614,0.350937
5550880631,-12.025222,5.497624,2.748556,0.933214,0.244170,0.349345
5550900675,-17.294754,10.489758,6.128671,0.950221,0.159931,0.384215
5550920719,-16.687555,11.469391,5.391733,0.927360,0.140305,0.433921
5550940764,-18.495781,7.667972,-0.441661,0.877889,0.127883,0.429109
5550960808,-20.945097,0.555428,-1.345589,0.894099,0.061873,0.424128
5550980853,-14.660373,2.084682,-2.804606,0.899285,0.033180,0.413204
5551000898,-8.031397,6.319154,-5.000175,0.877352,0.069684,0.423213
5551020942,-15.574547,0.860006,-6.689388,0.880982,0.112850,0.449286
5551040987,-20.110762,-5.094323,-5.140556,0.879133,0.102295,0.410666
5551061032,-12.602517,-4.575062,-2.265570,0.875114,0.080666,0.374306
5551081077,-8.239717,-8.090633,-2.889924,0.916518,0.096593,0.380577
5551101121,-9.000120,-10.750561,-3.643408,0.981646,0.093771,0.352397
5551121166,-2.903631,-5.130835,-2.590811,1.019746,0.086087,0.289554
5551141211,8.021684,4.451552,-3.155971,1.063583,0.106044,0.265855
5551161257,8.797378,18.952602,-4.059351,1.034775,0.125246,0.239448
5551181302,5.555795,25.675335,-2.029623,1.016117,0.213302,0.224564
5551201347,-3.394248,22.611956,-2.971339,1.135942,0.289556,0.288632
5551221391,-30.288984,33.746353,-5.289697,1.079749,0.210379,0.179348
5551241436,-50.030426,63.371964,3.244254,0.930306,0.054776,0.074749
5551261481,-24.113531,110.655472,18.245052,0.983857,-0.036135,0.194977
5551281526,17.580727,157.855759,13.766870,0.888377,-0.009171,0.471561
5551301571,28.139000,153.029007,-0.395747,0.677142,0.105928,0.544179
5551361704,-41.645874,42.516766,4.906184,0.784141,0.220768,0.459706
5551381749,-42.217430,50.043758,8.925911,0.806445,0.064487,0.427472
5551401794,-17.088331,53.947010,15.540307,0.822817,-0.026085,0.405123
5551421839,10.442455,51.390182,11.080633,0.887520,-0.003657,0.450751
5551441883,20.817142,61.654781,5.353845,0.966504,0.072867,0.518069
5551461928,16.530449,66.151466,7.523202,0.961768,0.133284,0.529644
5551481973,8.442314,64.600792,8.584679,0.960467,0.184249,0.564995
5551502017,1.206775,76.198570,9.619568,0.885483,0.169213,0.574404
5551522062,-2.042078,81.971474,12.191149,0.752200,0.083799,0.601813
5551542106,-4.064211,63.768105,8.993705,0.702389,0.049969,0.636143
5551562151,-0.498487,48.599514,4.295454,0.757649,0.100455,0.596708
5551582197,-2.825588,63.621674,6.904552,0.745356,0.114418,0.598506
5551602242,-6.824329,78.515312,7.835325,0.674791,0.064576,0.694909
5551622287,-2.397696,64.008209,5.285827,0.650026,0.049995,0.707231
5551662376,-2.154611,65.969429,6.287724,0.690435,0.167031,0.762370
5551682421,-9.092245,77.580521,3.694007,0.589514,0.118098,0.921092
5551702466,-13.675799,55.574120,6.492542,0.554459,0.093506,1.027561
5551722511,-11.589984,35.752502,12.688966,0.544459,0.139918,1.083188
5551742554,-13.728514,40.825367,15.679319,0.439298,0.106603,1.099356
5551762599,-15.833655,50.251003,13.378205,0.127322,0.103498,1.308235
5551782644,-8.203636,50.986950,8.207131,-0.244944,0.111717,1.608536
5551802688,-20.325027,-14.836290,-0.840602,-0.388272,0.122737,1.587459
5551822733,-35.571472,-96.923347,-12.157343,-0.157658,0.040876,0.597524
5551842778,-17.545401,-168.354950,-11.892812,0.664131,-0.059253,0.231071
5551862822,-86.692818,-255.332626,17.730053,1.187709,-0.274931,0.961208
5551882868,-90.978004,-68.738419,36.822697,0.783133,-0.392988,0.830308
5551902912,63.414825,15.699838,-16.694782,0.682051,-0.344324,0.820064
5551922957,120.964081,-32.815865,-42.314331,0.471489,0.028997,1.062266
5551943002,63.136585,-1.601806,-39.515945,0.138330,0.132774,0.906567
5551963046,24.761089,-26.583965,-42.641563,-0.026977,0.016585,0.835941
5551983092,24.716433,-116.672501,-37.154678,0.318284,0.022378,0.350963
5552003137,41.468452,-198.949570,-20.886940,0.807131,0.157954,0.118702
5552023182,21.417133,-188.550873,-6.656804,1.299816,0.281351,0.225164
5552043227,-41.283653,-88.686638,5.179817,1.759326,0.201137,0.534000
5552063272,-79.909546,37.671341,7.512482,1.309448,-0.142029,0.257135
5552083317,-35.530537,94.007996,8.886403,0.755929,-0.116685,0.057228
5552103361,67.691338,47.414242,1.015930,0.803995,0.077372,0.226230
5552123406,90.806877,33.258606,4.615521,0.977348,0.297485,0.550618
5552143465,22.396317,95.242371,8.639177,0.854752,0.352255,0.370459
5552163494,4.414047,85.660492,-3.174615,0.929996,0.251251,0.275972
5552183539,-50.692333,64.154785,18.698492,1.067642,0.128265,0.433861
5552203584,-63.145737,123.665321,22.105000,1.074736,0.018964,0.662426
5552223628,1.527457,149.424332,-5.132579,0.782186,-0.009835,0.725442
5552243673,24.660828,109.763374,-12.563158,0.625698,0.138773,0.729901
5552263718,10.870405,84.375763,-8.121467,0.565717,0.276502,0.690815
5552283763,-21.377234,114.488266,-5.708619,0.335689,0.172118,0.618345
5552303807,-32.784748,119.113945,-0.826003,0.177498,0.035939,0.797034
5552323852,-15.725974,76.403008,9.162592,0.183910,-0.035204,0.868318
5552343897,15.555452,35.623096,13.677032,0.296153,0.002612,0.909068
5552363942,22.372774,46.775940,15.694012,0.374671,0.087270,1.015556
5552383987,23.782358,67.416817,12.601136,0.314852,0.131189,1.077213
5552404033,21.173203,58.630798,8.462239,0.226685,0.228700,1.291448
5552424077,-6.512861,57.152275,14.008717,0.073112,0.302070,1.811953
5552444122,-29.685053,54.684422,25.440937,-0.231886,0.142624,2.049031
5552464167,-33.875023,2.547626,26.246094,-0.455739,-0.063295,1.704492
5552484212,-9.266261,-65.487221,20.552761,-0.034468,-0.124148,0.473690
5552504256,34.303825,-151.862473,17.656818,0.743231,-0.232826,0.457597
5552524301,-58.201519,-222.756348,21.053791,0.455902,0.040557,1.566262
5552544346,-33.186665,-20.007071,-13.726297,0.124744,-0.205959,0.909355
5552564389,48.377678,-54.997749,-36.396408,0.482863,-0.123369,0.931592
5552584434,72.218300,-99.898140,-31.295357,0.191845,0.234295,0.785850
5552604479,49.515202,-28.940111,-45.640282,0.004587,0.272546,0.658070
5552624523,35.032166,-71.856934,-46.966614,0.102433,0.228182,0.588591
5552644568,3.768671,-177.965256,-28.312208,0.451547,0.188089,0.345561
5552664613,-37.425842,-272.541412,-7.672752,1.000705,0.267718,0.241574
5552684658,-75.056488,-272.439667,11.036713,1.720755,0.306010,0.296045
5552704703,-76.147614,-83.717270,19.376291,1.943060,-0.080972,0.167756
5552724748,-37.973770,133.202698,33.277100,1.014484,-0.148753,-0.021193
5552744792,8.482553,157.287689,0.695604,0.630574,0.020045,0.247288
5552764837,52.975517,74.452644,-21.073666,0.608466,0.193133,0.547510
5552784882,43.621109,63.819504,-4.803011,0.561404,0.272813,0.400473
5552804927,21.270121,45.417931,2.318404,0.862437,0.319907,0.501249
5552824973,-24.390095,35.206474,7.744310,1.085236,0.285608,0.393359
5552845018,-55.393806,68.912796,9.664269,1.105366,0.138224,0.226291
5552865063,-63.119881,167.009354,16.113934,1.134166,0.008591,0.587106
5552885107,-32.076393,221.738007,16.197470,0.604962,-0.033887,0.913992
5552905155,5.706529,151.285812,1.309172,0.289359,0.000641,0.887275
5552925197,17.351105,39.448036,4.235816,0.415896,0.111120,0.744893
5552945241,-18.376238,69.593803,23.207014,0.441814,0.087209,0.656967
5552965286,-39.414879,130.298813,29.580784,0.271393,-0.112487,0.701254
5552985330,-14.611182,121.689072,30.617680,0.092029,-0.187101,0.877732
5553005374,59.429108,92.497993,27.814964,-0.038188,-0.066942,1.060792
5553025420,81.167770,86.721619,19.227915,-0.201874,0.128927,1.669253
5553045464,11.335350,78.017395,17.166103,-0.410590,0.312293,2.195821
5553065509,-35.413868,3.540468,16.985487,-0.538571,0.303296,1.735823
5553085554,-30.447968,-48.808754,2.499289,-0.068534,0.159598,0.533646
5553105598,-58.309849,-127.620712,-1.052200,0.971940,0.075174,1.585223
5553125643,-279.815033,-121.870163,56.444698,0.302146,-0.670752,1.671887
5553145688,-59.648842,85.765877,74.047943,-0.656961,-0.949717,1.000920
5553165732,161.107285,24.699177,2.088616,-0.715176,-0.810040,1.157941
5553185777,228.120895,-189.633911,-74.062691,-0.040288,0.108319,1.412674
5553205822,120.431801,-220.942398,-63.958809,0.094918,0.607297,1.005123
5553225868,2.042400,-80.302055,-61.218548,-0.064566,0.318357,0.371762
5553245913,-28.191673,-89.154884,-30.489943,0.122341,0.109082,0.474275
5553265958,-32.287479,-209.759781,1.865640,0.449083,-0.031938,0.221991
5553286002,-2.003319,-291.903839,1.909185,0.926107,0.051865,0.091950
5553306047,36.000801,-241.632446,-8.760137,1.513280,0.146317,0.136247
5553326092,22.890812,-66.376297,-1.656497,1.731562,0.004954,0.164683
5553346137,-11.594488,92.683281,16.162445,1.063127,0.001383,0.114398
5553366182,32.526302,131.613754,-17.931221,0.803645,0.217879,0.503755
5553386225,47.390556,67.008575,-4.735890,0.895870,0.294687,0.649740
5553406270,17.356457,7.104889,33.086365,0.788995,0.223437,0.322879
5553426314,-13.787302,31.076969,22.873037,0.753865,0.225696,0.260238
5553446359,-17.761492,68.671364,1.430082,1.051249,0.227407,0.330862
5553466404,-51.832779,85.785370,14.321503,1.149501,0.037613,0.397424
5553486449,-66.600723,165.367126,25.200331,1.041307,-0.056342,0.605810
5553506494,-13.545877,198.167831,0.231623,0.606475,-0.052433,0.673616
5553526539,24.981934,129.161499,-9.414748,0.443455,0.180406,0.701277
5553546583,15.099015,94.869286,-6.777280,0.371717,0.279252,0.631744
5553566628,-43.409527,123.744690,-0.025181,0.229478,0.168526,0.582637
5553586673,-59.410980,127.205673,8.916219,0.075880,0.010323,0.963843
5553606717,-33.586533,97.656288,12.517214,-0.093241,-0.184612,1.389576
5553626762,-13.821011,58.884251,14.680195,-0.252456,-0.150664,1.930850
5553646808,-21.199671,38.526886,11.419201,-0.547771,0.255034,1.661952
5553666853,19.349226,33.940327,-19.421490,-0.203214,0.440578,0.945962
5553686898,-101.760239,-82.036324,-26.999569,0.633407,-0.271013,1.786452
5553706943,-331.149902,-66.249954,55.505829,-0.196269,-1.180319,1.918455
5553726987,11.420140,38.562866,86.209290,-0.643746,-1.188150,0.710550
5553747032,237.559174,-43.735424,-15.429272,-0.687123,-0.596408,1.344936
5553767077,251.124390,-165.876114,-68.144028,-0.106230,0.440686,1.736754
5553787121,102.724564,-133.639816,-61.970535,-0.143845,0.439308,0.505386
5553807165,26.246233,-80.036392,-66.226746,-0.179310,0.347199,0.440699
5553827209,-25.881207,-156.230331,-24.509592,0.146184,0.286603,0.563665
5553847254,-75.640244,-267.448181,5.094197,0.605953,0.104472,0.398000
5553867299,-122.006630,-292.439972,15.834208,1.202458,-0.118856,0.440072
5553887344,-52.708244,-164.065002,11.974213,1.421313,-0.438834,-0.046509
5553907389,79.132858,-39.980042,2.793513,1.262947,-0.341240,-0.165828
5553927434,154.191010,19.043119,-30.505028,1.207642,0.145284,0.367279
5553947479,128.736603,77.395401,-58.522255,1.162897,0.656936,0.704419
5553967523,68.976410,84.079391,-48.387531,0.765112,0.595286,0.271017
5553987568,34.569164,68.944031,-18.443769,0.584019,0.430899,0.134394
5554007612,-51.109646,59.996365,32.875652,0.667983,0.348796,0.387605
5554027657,-160.204147,38.597565,70.437286,0.874836,0.282414,0.673905
5554047703,-170.039200,39.817753,60.653465,0.933030,-0.177477,0.323781
5554067748,-109.723137,88.989632,47.940006,1.246353,-0.578596,0.143923
5554087793,33.993156,173.584915,35.635422,0.922679,-0.499285,0.642013
5554107838,161.863220,205.988449,-2.072947,0.415434,-0.028676,0.864038
5554127883,160.313400,140.755432,-30.369926,0.455246,0.351291,0.881222
5554147927,66.203079,117.366844,-27.988323,0.257627,0.407503,0.569399
5554167972,-31.117699,140.361893,-22.426270,-0.099504,0.437403,1.048897
5554188017,-128.491013,150.235306,-6.414344,-0.649769,0.446197,2.226837
5554208060,-106.921387,52.235355,8.734287,-0.756499,0.098512,1.509402
5554228105,-37.923752,-27.880568,-4.121571,0.051142,0.032441,0.394542
5554248149,-50.472198,-185.278610,-17.536156,0.741379,-0.479703,1.694277
5554268194,-213.139084,-106.681374,55.065876,0.143308,-0.863907,1.912315
5554288239,49.487137,103.531502,86.991127,-0.408321,-0.777690,0.885781
5554308284,212.701691,24.227510,-1.155764,-0.589587,-0.412996,1.756567
5554328329,199.352371,-67.105759,-50.859283,-0.388244,0.365552,1.379876
5554348373,81.348854,-68.020836,-30.702234,-0.367719,0.426216,0.963907
5554368418,17.216461,-106.703995,-8.979849,-0.251955,0.243389,0.746025
5554388463,-12.549972,-190.257889,2.686250,0.034162,0.101840,0.738267
5554408507,-31.341249,-242.098282,-7.664384,0.506399,0.149682,0.605210
5554428552,-3.511249,-212.051498,-19.044117,0.839961,0.192469,0.293918
5554448597,33.925106,-110.909370,-15.533821,1.019346,0.150550,0.189598
5554468643,29.001324,-31.240599,4.898970,1.105700,0.097770,0.368110
5554488688,1.615326,-14.794090,16.757004,1.210313,0.062841,0.644481
5554508733,6.975808,-21.193960,9.987382,1.105287,0.056145,0.510298
5554528778,20.402973,-0.796616,12.363951,1.030666,0.147560,0.340748
5554548830,21.594994,36.982059,21.773399,0.846118,0.187075,0.254403
5554568867,11.995101,82.010124,6.834480,0.485151,0.134816,0.260118
5554588912,-7.520988,94.470665,-7.045333,0.455332,0.221481,0.619904
5554608957,-10.856249,52.248077,1.819290,0.589286,0.240289,0.598785
5554629000,-43.664524,4.252310,12.225693,0.992350,0.027538,0.556051
5554649045,-130.803162,31.790249,32.096340,1.285041,-0.299500,0.516459
5554669090,-29.896151,141.637680,-5.745154,0.771209,-0.037667,0.586475
5554689134,103.996262,199.680725,-43.516319,0.307457,0.405506,0.936234
5554709179,67.292717,163.295349,-31.384531,0.155607,0.613061,1.345934
5554729224,-73.017349,74.401505,-5.008147,-0.227828,0.452437,1.848391
5554749268,-159.729706,-4.548408,-5.815182,-0.452260,0.089657,1.244755
5554769313,-99.003029,-45.400772,-21.288294,-0.015368,0.074306,1.024376
5554789358,-125.738388,-126.420876,-31.413303,0.373054,-0.671258,1.585462
5554809410,-277.922241,-68.737434,34.926826,0.515043,-1.598272,1.535154
5554829448,-33.001198,-19.578733,110.495819,0.032889,-1.079968,0.545620
5554849492,354.346344,-20.144304,53.284229,-0.402629,-0.352314,0.858913
5554869539,378.117340,-3.334463,-59.215221,-0.326388,0.573171,2.138108
5554889583,156.571655,-7.424327,-97.348801,-0.315162,0.687293,0.855887
5554909628,91.733208,-83.119156,-85.565987,-0.323582,0.473526,0.515353
5554929673,2.983951,-185.074768,-19.355589,-0.013456,0.274909,0.469639
5554949718,-88.939529,-289.680664,29.161489,0.487679,0.170367,0.339871
5554969762,-166.663788,-353.528015,45.480995,1.152744,0.232594,0.338116
5554989807,-159.052979,-247.782410,36.851120,1.590820,-0.141134,0.032391
5555009852,-26.116020,0.866031,20.169741,1.393860,-0.474402,-0.367895
5555029896,74.506607,83.127487,8.685336,1.195709,-0.442714,-0.142174
5555049940,143.601303,78.381485,-0.829525,1.352967,-0.134902,0.699779
5555069985,154.524551,90.866074,12.627871,0.954327,0.360576,0.591354
5555090030,88.074318,78.134399,2.247609,0.840020,0.478123,0.435866
5555110074,-6.747987,38.717636,7.026734,0.856523,0.503518,0.376598
5555130119,-81.750198,54.476147,3.252079,0.732596,0.251697,0.356831
5555150164,-111.788208,100.391541,-4.621182,0.652376,-0.010422,0.502805
5555170209,-42.462914,108.366051,-3.613735,0.669443,-0.120891,0.516315
5555190254,21.446569,49.130306,-7.018871,1.005536,-0.267306,0.619217
5555210299,13.936513,78.330330,-8.642068,0.853781,-0.048772,0.708715
5555230343,30.272284,154.947083,-24.061110,0.406024,0.147905,0.718115
5555250388,54.578274,127.211823,-28.754131,0.269742,0.432635,1.078765
5555270432,40.209167,93.951996,-20.773289,0.044832,0.638166,1.297848
5555290478,-41.388725,97.787895,-13.927142,-0.331327,0.605818,1.778450
5555310523,-87.868904,27.329189,-19.248354,-0.412029,0.315043,1.155148
5555330568,-13.090370,-76.186676,-32.134033,0.373690,0.134805,0.342246
5555350613,-110.855927,-207.770065,-17.394745,1.136312,-0.320923,1.688568
5555370660,-249.548569,-13.278822,64.246315,0.242741,-0.679727,1.569011
5555390702,84.595398,130.040009,63.979122,-0.320331,-0.629752,0.963228
5555410747,246.410980,-24.239634,-32.169167,-0.409130,-0.135752,1.627952
5555430792,135.046188,-115.128876,-60.277943,-0.008745,0.551648,1.362903
5555450835,34.290363,-87.551552,-46.572788,0.001790,0.522569,0.708519
5555470880,-0.518972,-94.235016,-34.407421,-0.100176,0.410692,0.884777
5555490924,-26.260241,-152.901886,-9.859848,0.085712,0.183870,0.603584
5555510969,-39.301716,-216.230469,-0.199968,0.598005,0.124677,0.464602
5555531014,-42.586517,-232.166504,-0.654905,1.089569,0.125848,0.322238
5555551059,-16.337898,-147.051498,-12.470729,1.193773,0.042529,-0.026015
5555571104,22.247326,-20.613012,-20.847225,1.104992,0.073867,-0.111685
5555591149,34.133995,54.210030,-27.819862,1.225524,0.241485,0.419421
5555611194,-17.733612,56.277382,-9.254502,1.162319,0.169342,0.848830
5555631239,-22.350548,-1.520375,27.845222,1.121575,0.040810,0.365874
5555651284,20.369854,-6.453205,42.278984,1.039523,0.082416,0.189124
5555671328,39.627884,70.941353,21.237354,0.840755,0.215285,0.148519
5555691374,9.687849,107.734993,11.520720,0.733665,0.184346,0.349474
5555711419,-46.471363,115.282745,22.518360,0.663500,0.098420,0.586841
5555731464,-22.069340,86.306633,13.696658,0.723100,0.001133,0.357100
5555751508,-17.221914,52.141136,5.296431,1.153587,-0.080402,0.587436
5555771553,-53.539642,107.651566,8.828745,0.964820,0.010365,0.707763
5555791598,7.139462,193.429337,-17.916912,0.349179,0.217733,0.763283
5555811643,54.091949,170.996323,-19.733641,0.081699,0.429893,0.928647
5555831687,16.620096,103.047318,-4.572130,-0.102019,0.522130,1.298916
5555851730,-119.072929,44.486942,11.836390,-0.308718,0.442155,1.647040
5555871775,-133.729355,-1.774540,-7.441775,-0.208326,0.223262,0.751062
5555891820,-42.514851,-88.647224,-44.573494,0.585513,0.052306,1.079841
5555911865,-223.461884,-128.077682,-15.989637,0.824801,-0.908614,1.656819
5555931910,-240.977692,-2.983303,89.905472,0.536624,-1.534889,1.482438
5555951954,164.785248,10.398565,68.292168,-0.114575,-0.684186,0.709436
5555971999,348.687622,-10.883839,-35.502853,-0.252847,0.063988,2.011471
5555992044,150.038956,-0.747744,-69.140182,-0.270151,0.610941,1.343024
5556012089,53.857887,-14.772346,-54.021393,-0.412875,0.416309,0.762359
5556032133,-3.884479,-122.073853,-18.425440,-0.248657,0.216546,0.622086
5556052178,-37.422184,-245.892395,-5.511524,0.125525,0.066375,0.287282
5556072223,-47.913147,-340.139771,-6.035248,0.676344,0.107553,0.289873
5556092268,-74.334129,-331.885071,11.597801,1.416934,0.155528,0.376826
5556112314,-25.550621,-145.633392,13.256988,1.427430,-0.105746,-0.189058
5556132359,55.411999,3.464612,5.874973,1.130454,-0.133798,-0.333117
5556152403,75.474159,74.087509,-12.385742,1.140924,0.065899,0.157589
5556172448,54.772545,83.969048,-16.921616,1.368893,0.334787,0.832586
5556192493,24.771412,22.438944,4.400698,1.051526,0.233736,0.612321
5556212538,-27.189598,-13.195078,18.507622,0.859954,0.094084,0.357879
5556232583,-24.747036,16.772026,34.618965,0.880136,0.111389,0.309447
5556252627,20.786034,53.167080,27.180910,0.739241,0.134820,0.295205
5556272671,15.310203,60.217220,9.366559,0.722618,0.196477,0.352479
5556292715,-31.776400,65.175949,10.294264,0.810504,0.133068,0.489301
5556312760,-49.085808,84.188377,17.699711,0.860562,-0.062035,0.553825
5556332805,-14.738069,71.364830,13.448880,1.081136,-0.224092,0.599565
5556352850,9.190565,60.725903,13.267857,1.196509,-0.187592,0.879340
5556372895,20.549402,162.891815,12.299491,0.490144,0.019644,1.143236
5556392939,51.255608,173.952133,6.636996,-0.054279,0.118908,1.360680
5556412984,60.341236,76.848434,13.317532,-0.244337,0.139727,1.487493
5556433029,12.051888,12.105405,21.291096,-0.363638,0.217566,1.490076
5556453073,-24.279411,-15.344323,11.120450,-0.467576,0.197222,0.986099
5556473118,23.695427,-35.794949,-8.654702,0.088029,0.180693,0.096782
5556493163,89.700645,-149.879303,-12.420202,0.817314,0.054418,0.319018
5556513209,-185.166351,-204.047150,22.459042,0.528561,0.152528,2.169312
5556533254,-216.842438,-26.708412,44.490173,0.335495,-0.314588,1.411535
5556553299,36.708313,-57.456253,0.910768,0.651818,-0.686879,0.852260
5556573343,135.287735,-118.923828,-30.999100,0.590837,-0.133220,1.265958
5556593388,97.645264,-59.797497,-17.723869,0.410854,0.305295,0.933537
5556613433,43.605362,-62.481522,-22.258890,0.172790,0.305339,0.875350
5556633477,4.406414,-140.540436,-12.559751,0.281969,0.174566,0.668735
5556653522,-5.795753,-207.317932,-10.308127,0.505227,0.102525,0.449267
5556673566,-3.749109,-201.070007,-22.877060,0.723955,0.088444,0.279999
5556693610,13.145230,-166.839554,-31.030548,0.794227,0.083255,0.087450
5556713655,21.337221,-135.393173,-27.138720,0.821391,0.123093,0.093055
5556733700,3.341218,-112.104362,-10.430109,0.883713,0.084785,0.156283
5556753745,-16.837618,-106.193703,12.383448,0.947417,-0.051673,0.177176
5556773790,0.607032,-105.155136,22.876238,0.922454,-0.107591,0.096244
5556793834,52.579372,-110.253014,9.302926,0.911778,-0.054373,-0.004150
5556813879,74.441879,-124.559875,-4.594578,1.069000,0.029735,0.001039
5556833924,55.137775,-123.995255,-3.045337,1.184497,0.119928,-0.057859
5556853969,38.963802,-99.020020,-1.794579,1.206454,0.229429,-0.136445
5556874014,32.167332,-73.644867,-5.857485,1.265365,0.319054,-0.089230
5556894058,1.833464,-43.092632,-2.217944,1.202013,0.300012,-0.030174
5556914105,-25.300600,-19.898258,6.683499,1.095919,0.155128,0.036800
5556934149,-30.147486,-19.535585,9.470523,1.054595,0.026981,0.131696
5556954194,-9.186980,-33.406399,0.066699,1.028797,-0.009416,0.113144
5556974238,15.170580,-45.237068,-12.671438,1.076881,0.080071,0.069055
5556994283,12.831022,-35.033268,-9.029222,1.138875,0.174603,0.057803
5557014328,-2.713441,-16.256002,2.766293,1.033408,0.133927,0.051541
5557034373,-16.137587,-16.502499,3.501770,0.946892,0.049862,0.110145
5557054417,-15.802718,-28.195492,-2.774837,0.967166,0.006979,0.134592
5557074462,3.196954,-30.464779,-9.576756,0.979150,0.032261,0.063000
5557094506,16.410925,-21.325983,-11.865541,0.953757,0.100972,0.044312
5557114550,6.874327,-9.393355,-14.302507,0.938278,0.169627,0.088517
5557134595,-1.472105,-12.190931,-14.586310,0.963277,0.214534,0.109725
5557154640,-8.885543,-19.282133,-11.384027,1.007507,0.219701,0.096530
5557174685,-17.902170,-16.164503,-8.819042,1.028052,0.153292,0.045697
5557194729,-17.935869,-8.258248,-5.489445,1.042164,0.079996,0.037392
5557214775,-7.417607,-0.740238,-0.160589,1.079610,0.046156,0.061981
5557234819,6.375254,9.394558,-0.649220,1.012262,0.064088,0.082372
5557254864,10.477417,14.792649,-6.102384,0.929471,0.125229,0.108030
5557274909,6.878888,8.775220,-7.844167,0.941640,0.180526,0.139892
5557294953,0.891401,-1.721989,-3.895386,1.045721,0.184558,0.131606
5557314998,1.637385,-3.980344,-4.569381,1.085525,0.153272,0.086086
5557335045,7.328286,11.644674,-14.981051,0.983777,0.177618,0.090149
5557355089,12.012587,15.872519,-18.738689,0.920087,0.215291,0.137354
5557375134,2.145706,3.045517,-14.194211,0.917707,0.250177,0.153254
5557395179,-1.217391,-13.532131,-4.965086,0.972075,0.262910,0.110755
5557415223,-1.448211,-18.562830,-3.274918,1.032182,0.256415,0.068548
5557435268,-5.100566,-10.330259,-8.008514,1.039452,0.227885,0.034058
5557455313,-3.314873,2.367905,-10.350172,1.011618,0.196491,0.047497
5557475358,1.218924,12.033887,-6.333521,0.989445,0.175348,0.103047
5557495401,8.005599,9.725206,-5.911038,0.963566,0.169754,0.132949
5557515446,6.988449,5.276330,-13.326872,0.967847,0.187709,0.128553
5557535491,9.309851,7.881104,-13.903270,0.955366,0.194338,0.099272
5557555536,11.984287,14.432572,-9.518975,0.923770,0.179095,0.106997
5557575580,14.278304,11.118965,-4.474882,0.952153,0.223004,0.148267
5557595625,13.082343,5.632305,-4.452907,0.994943,0.259140,0.153289
5557615670,8.704261,5.497635,-8.083612,0.984122,0.251902,0.113665
5557635714,9.470976,10.810374,-6.944152,0.930684,0.202567,0.101938
5557655759,17.645304,10.272440,-4.339913,0.936722,0.194675,0.144838
5557675804,19.986992,9.394731,-7.899545,0.945123,0.260793,0.177767
5557695849,12.996868,12.356422,-10.149475,0.952760,0.324062,0.180760
5557715894,-0.382563,9.830064,-8.558937,0.998083,0.318265,0.204173
5557735938,-5.120469,4.149900,-6.201279,1.061139,0.249088,0.186085
5557755985,1.204449,3.209685,-5.906061,1.033082,0.211337,0.127286
5557776029,6.038314,5.051004,-9.175021,0.971859,0.223197,0.115178
5557796074,1.010168,0.487093,-9.695909,0.971288,0.218576,0.130417
5557816119,-0.789032,-3.424552,-7.126287,0.947610,0.182565,0.106688
5557836164,5.457107,-0.443013,-7.436018,0.978725,0.196082,0.098882
5557856208,6.093616,9.990587,-10.993270,0.990360,0.238760,0.099525
5557876253,-5.519361,24.234123,-16.745695,0.954865,0.266906,0.123252
5557896298,-13.359902,25.492693,-21.882450,0.973967,0.258553,0.154780
5557916341,-16.120770,29.105402,-21.895168,0.919089,0.180046,0.177879
5557936386,-10.201859,32.044292,-16.282934,0.930985,0.144788,0.205570
5557956431,-4.702551,17.924797,-16.845032,0.991639,0.151969,0.252387
5557996520,2.532513,18.808210,-16.002378,1.092556,0.246218,0.182151
5558016565,-6.229135,44.611073,-19.235466,0.960464,0.334428,0.268133
5558036610,-26.896709,44.048317,-25.795807,0.865129,0.370610,0.370929
5558056654,-44.661472,13.366018,-22.309015,0.839539,0.355040,0.408654
5558076699,-59.496819,-10.858428,-19.300272,0.850537,0.306291,0.372173
5558096744,-70.744904,-10.221119,-26.528200,0.848976,0.296638,0.332819
