Timestamp (us),Gyroscope X (deg/s),Gyroscope Y (deg/s),Gyroscope Z (deg/s),Accelerometer X (g),Accelerometer Y (g),Accelerometer Z (g)
3721766690,3.314026,0.510569,0.631987,0.965827,-0.025741,0.237813
3721786650,2.181633,0.711676,0.514103,0.961646,-0.021672,0.239582
3721806611,0.893071,0.739825,1.116956,0.961445,-0.012752,0.240252
3721826572,-0.325603,0.485235,1.158846,0.969881,-0.020143,0.238069
3721846533,-0.721405,0.273237,0.998477,0.969317,-0.028839,0.239749
3721866494,0.703342,-1.023937,1.103786,0.976050,-0.031562,0.238552
3721886456,-0.250896,-0.702901,0.401927,0.977644,-0.026876,0.249340
3721906416,-2.478579,-0.429904,0.257548,0.976196,-0.024406,0.255648
3721926377,-4.185926,-0.720271,0.639400,0.963248,-0.031119,0.247416
3721946338,-2.908430,-0.586857,0.939409,0.948634,-0.037068,0.246699
3721966299,-0.016530,-0.649647,0.782092,0.950455,-0.030110,0.245161
3721986260,1.371258,-0.236369,0.505253,0.958037,-0.026911,0.245521
3722006220,0.836902,-0.729106,0.443508,0.965725,-0.021251,0.246389
3722026181,0.275383,-0.613718,0.206208,0.980858,-0.025180,0.243270
3722046142,0.559556,-0.219630,-0.021124,0.977038,-0.034413,0.243261
3722066102,0.982118,-1.308876,-0.215424,0.976783,-0.035720,0.246920
3722086063,0.978708,-1.916842,-0.009613,0.978682,-0.031043,0.244875
3722106022,-0.424585,-0.931491,-0.091617,0.974220,-0.034834,0.237297
3722125983,-0.385787,-0.771958,-0.114495,0.958130,-0.033134,0.236518
3722145944,-0.161157,-1.936714,-0.354874,0.958904,-0.027419,0.242449
3722165905,0.747440,-2.101000,-1.186461,0.966324,-0.029838,0.243900
3722185865,1.718724,-1.717749,-1.927586,0.972673,-0.026766,0.247153
3722205826,1.695631,-1.664227,-1.821490,0.976412,-0.026339,0.241660
3722225787,2.138272,-1.033879,-1.547751,0.980490,-0.020122,0.240813
3722245748,2.888791,0.180558,-1.524318,0.972902,-0.025606,0.239580
3722265709,3.267896,-0.360982,-1.711991,0.960822,-0.022473,0.233935
3722285670,2.585552,-0.512270,-2.389477,0.961737,-0.026886,0.231201
3722305630,2.039878,-1.711858,-2.268057,0.960332,-0.021876,0.230911
3722325591,0.872679,-3.577593,-1.601258,0.981636,-0.016847,0.223115
3722345552,-0.836854,-3.062784,-1.691160,0.988436,-0.024143,0.226273
3722365513,-2.102037,-2.032673,-1.985278,0.971615,-0.025102,0.229622
3722385474,-1.984885,-2.701449,-1.574063,0.950554,-0.028537,0.234665
3722405434,-0.136105,-3.240575,-2.007334,0.949994,-0.027867,0.230364
3722425395,1.167196,-3.725678,-2.913031,0.963682,-0.016200,0.229786
3722445357,1.085600,-3.048291,-2.770114,0.970394,-0.008353,0.230327
3722465318,2.433304,-1.955917,-1.993173,0.980585,-0.014134,0.227604
3722485279,5.469055,-0.769386,-0.876860,0.979750,-0.029624,0.230756
3722505240,7.658933,-2.078506,-1.710092,0.970090,-0.019779,0.225774
3722525200,6.456595,-3.331690,-2.805068,0.981674,-0.008438,0.220064
3722545161,4.174393,-3.324615,-2.911282,0.982107,-0.024026,0.223605
3722565122,3.636574,-2.264976,-2.497226,0.974870,-0.030317,0.217201
3722605043,4.216347,-1.117074,-1.798799,0.950280,-0.011981,0.216632
3722625004,3.014015,-0.297984,-1.045056,0.954916,-0.003579,0.216397
3722644965,-0.751905,-0.072858,-0.966764,0.974246,0.006841,0.215306
3722664925,-3.784559,0.883451,0.820475,1.000183,0.000445,0.212790
3722684885,-3.926354,1.343172,2.291665,1.005909,-0.010236,0.207516
3722704846,-1.303248,2.878881,2.434648,0.986739,-0.022907,0.197719
3722724807,3.667981,1.707198,2.505953,0.963100,-0.020780,0.202077
3722744768,3.472843,0.365738,0.716212,0.978481,-0.003153,0.212451
3722764728,-0.105547,0.847115,-0.055274,0.985859,-0.000527,0.235673
3722784689,-2.371661,1.094167,-1.808696,1.002139,-0.033156,0.235049
3722804650,-0.275886,1.611688,-2.068173,0.999657,-0.050237,0.221442
3722824611,7.016757,3.121673,0.253261,1.002875,-0.006433,0.216777
3722844572,11.350683,6.510546,5.658589,0.981455,0.026296,0.214391
3722864533,13.020976,10.285702,9.840233,0.967577,0.014845,0.204672
3722884493,11.999938,12.122319,10.122511,0.959999,0.006292,0.217421
3722904454,5.546540,11.660025,8.242471,0.979730,0.022713,0.222978
3722924415,-4.456904,12.243727,6.554049,0.999768,0.023967,0.223507
3722944376,-11.758391,11.534277,5.218012,0.989871,-0.007608,0.220473
3722964336,-9.956552,9.498379,5.401566,0.987523,-0.045211,0.214672
3722984297,-3.903102,8.680538,5.407614,0.966260,-0.054675,0.217533
3723004258,0.952001,6.409641,3.264070,0.927259,-0.044657,0.240967
3723024220,1.899951,1.973959,0.002795,0.925564,-0.027475,0.264786
3723044181,-0.725620,-1.174949,-4.380265,0.926794,-0.008489,0.283530
3723064141,-3.689924,-3.516826,-8.849134,0.914978,-0.003975,0.279232
3723084102,-3.667041,-4.689343,-13.249166,0.908180,-0.020886,0.267911
3723104063,-1.515804,-6.610950,-16.168697,0.925258,-0.027546,0.272158
3723124024,-0.415449,-9.233978,-17.861168,0.956590,-0.014142,0.284806
3723143985,-0.599000,-9.183025,-19.281069,0.987104,-0.006298,0.283325
3723163945,1.778451,-6.754185,-17.865213,0.980272,-0.025643,0.267216
3723183906,4.660097,-6.652393,-15.624557,0.963835,-0.011547,0.255939
3723203867,6.095882,-5.631671,-12.532447,0.979639,0.005232,0.245937
3723223828,5.731248,-3.661774,-9.235202,0.972262,0.007235,0.247135
3723243787,3.099300,-4.584032,-6.889804,0.960797,0.017886,0.252487
3723263748,0.141408,-5.082536,-6.109535,0.961065,0.026686,0.257720
3723283708,-2.725296,-3.878080,-5.452940,0.971876,0.029826,0.250127
3723303669,-4.105283,-2.325853,-3.463806,0.966363,0.011139,0.242592
3723323630,-4.001987,-1.989527,-2.454575,0.970130,-0.005162,0.237009
3723343591,-3.061817,-1.663443,-1.427385,0.974131,-0.004008,0.237974
3723363552,-3.541951,-2.176254,-0.046933,0.973744,0.009775,0.241566
3723383513,-5.857950,-1.839975,0.878409,0.969840,0.027676,0.250853
3723403473,-8.575348,-1.366110,1.513820,0.967842,0.022285,0.247536
3723423434,-7.413815,-0.450173,1.243071,0.979925,-0.001735,0.235858
3723463356,-0.335594,2.276712,3.281170,0.991002,0.003539,0.218946
3723483317,1.048473,1.529382,4.455630,0.979267,0.012551,0.217763
3723503277,0.325480,1.679891,6.289653,0.980909,0.025740,0.219490
3723523238,-4.227920,3.300036,6.765496,0.969337,0.033142,0.207682
3723543199,-6.506804,4.486520,6.983875,0.966240,0.049488,0.216828
3723583122,-11.901200,5.783531,8.049396,0.986040,0.002896,0.221233
3723603083,-11.587509,5.774144,7.663387,0.978883,-0.018186,0.229096
3723623044,-11.740692,2.776708,6.878062,0.961858,-0.022525,0.237324
3723643004,-10.113191,0.158669,4.724370,0.958472,-0.018604,0.229548
3723662965,-5.250843,1.900420,1.231527,0.963877,0.010867,0.222244
3723682926,-3.301365,1.832538,0.828243,0.955116,0.020346,0.217739
3723702887,-2.760512,-2.559525,3.454941,0.964776,0.000157,0.211508
3723722848,-2.925674,0.732128,2.561515,0.999368,0.003269,0.268641
3723742808,-5.766740,5.021667,2.014457,0.984797,0.004750,0.291297
3723762769,-11.266444,2.619185,1.180216,0.969616,-0.013410,0.263178
3723782730,-12.034636,2.229566,-0.908828,0.965748,-0.027126,0.236287
3723802690,-6.332265,1.123812,-0.926278,0.960954,-0.050372,0.215908
3723822651,4.429441,1.312580,0.361256,0.968734,-0.052240,0.217994
3723842611,12.395720,-0.420173,2.241987,0.964490,-0.023336,0.220994
3723862572,12.966422,-1.176258,1.561956,0.977486,0.028264,0.240512
3723882533,4.777189,0.230625,-0.106521,0.974803,0.051402,0.266856
3723902494,-5.187758,1.773955,-1.037309,0.980385,0.029634,0.280337
3723922454,-10.047554,4.634445,-0.678173,0.978163,-0.004793,0.274212
3723942415,-8.737411,7.814238,1.856267,0.977540,-0.045524,0.267037
3723962376,-6.900817,12.195459,5.149593,0.938365,-0.063923,0.274087
3723982337,-10.086456,8.801504,6.570947,0.928141,-0.026964,0.301614
3724002297,-17.253237,9.310759,10.159062,1.005029,-0.080693,0.324575
3724022258,-18.499840,18.422718,16.341873,0.987023,-0.147015,0.395176
3724042219,-25.310417,24.059681,21.479332,0.862974,-0.163955,0.392177
3724062180,-34.002319,18.674206,22.202419,0.805072,-0.220909,0.353893
3724082141,-25.410364,19.857485,22.965216,0.883019,-0.345451,0.377578
3724102101,-5.137642,28.474373,25.159548,0.847986,-0.412080,0.415089
3724122062,3.703921,28.579046,26.956942,0.751905,-0.425242,0.435397
3724142023,16.066988,21.071354,30.636759,0.821996,-0.431423,0.422852
3724161985,31.621008,20.522484,28.230011,0.892099,-0.446149,0.410264
3724181946,58.734173,16.802383,17.760706,0.983072,-0.427198,0.415538
3724201907,114.547211,25.692179,45.595264,0.857294,-0.794999,0.505855
3724221867,138.484344,10.683368,47.434772,0.965654,-0.478097,0.061184
3724241828,152.929474,25.763916,40.158958,1.031755,0.182138,0.190360
3724261789,92.663795,23.190462,14.918592,1.060309,0.650978,0.077936
3724281750,23.208559,0.375489,2.868505,1.100859,0.678150,-0.012099
3724301710,39.307217,-2.013135,-17.179075,1.047516,0.589778,-0.057251
3724321671,72.369751,-5.105103,-38.581177,0.968920,0.420692,0.023301
3724341632,102.635780,-8.110979,-70.724068,1.059634,0.423711,0.051596
3724361593,111.790138,-23.890024,-93.309448,0.981167,0.515207,-0.019365
3724381552,80.921120,-47.274033,-122.732346,1.070171,0.747430,0.272047
3724401513,-10.837915,-57.931084,-148.618729,1.314054,0.384401,0.391012
3724421473,-102.753204,-59.151432,-145.141129,1.345590,0.054008,0.035851
3724441434,-105.471191,-57.743549,-160.247559,1.298100,0.590660,-0.136720
3724461395,-69.660942,-67.250313,-179.209976,1.065276,0.867263,-0.289945
3724481356,-115.382362,-109.910606,-170.819931,1.296865,0.798592,-0.246782
3724501317,-158.948929,-102.033569,-172.766785,1.408786,0.931019,-0.336594
3724521277,-181.332291,-111.783516,-166.974731,1.188011,0.705111,-0.488197
3724541238,-187.339890,-118.940140,-169.131714,1.123747,0.759594,-0.656000
3724561199,-195.212341,-132.928665,-175.580246,1.090056,0.689437,-0.902702
3724581160,-210.829559,-154.757996,-179.272476,1.102214,0.562668,-1.047103
3724601121,-223.798386,-182.677444,-166.789047,1.051908,0.321254,-1.125026
3724621081,-235.801422,-209.442566,-149.811172,1.206331,0.268205,-1.131250
3724641042,-250.908279,-217.619461,-133.091461,1.266137,0.095549,-1.078789
3724661003,-267.990204,-223.326401,-116.548950,1.455741,-0.199197,-1.046990
3724680964,-248.566772,-226.600052,-98.887596,1.583698,-0.560868,-0.911050
3724700924,-226.957581,-238.334946,-72.501343,1.584927,-0.590561,-0.602934
3724720887,-200.132446,-241.192078,-59.058662,1.511502,-0.500639,-0.354787
3724740848,-189.807526,-243.248108,-44.070328,1.488285,-0.494349,-0.220636
3724760808,-166.897247,-236.322174,-27.740858,1.387350,-0.574002,-0.001177
3724780769,-134.619308,-215.659698,0.651022,1.240412,-0.529189,0.124884
3724800730,-132.978470,-175.842651,28.442486,0.980031,-0.439834,0.170550
3724820691,-157.862000,-140.694305,63.583313,0.866726,-0.361910,-0.057727
3724840652,-209.493149,-134.779602,86.392174,0.972645,-0.228307,-0.245560
3724860613,-238.555801,-134.003540,104.600632,0.873677,-0.362587,-0.267213
3724880573,-300.894257,-119.107925,114.010925,0.906628,0.253137,-0.010065
3724900534,-360.812347,-77.524414,101.994759,1.158750,0.321117,-0.236941
3724920495,-437.056335,-91.478470,79.799896,1.207057,0.304550,-0.652483
3724940454,-494.537354,-91.388229,48.645020,1.309572,0.498821,-0.815328
3724960415,-555.229370,-122.514130,9.671132,1.400828,0.404653,-0.955626
3724980376,-640.870728,-101.897430,-31.731766,1.705144,0.174209,-0.902378
3725000336,-654.591309,-111.036667,-71.311859,1.727351,-0.812508,-0.966580
3725020297,-516.922607,-100.549492,-83.258514,1.755280,-1.389051,-0.626342
3725040258,-371.972382,-102.503960,-91.223595,1.502481,-1.160452,-0.302530
3725060219,-317.367981,-109.911354,-91.563339,1.425178,-0.764463,-0.262353
3725080180,-309.306763,-101.671471,-88.255211,1.278232,-0.626200,-0.198288
3725100140,-313.338379,-94.996147,-84.225754,1.182969,-0.557618,-0.088606
3725120101,-328.354095,-97.981491,-91.230408,1.197725,-0.426082,-0.190021
3725140062,-308.240906,-93.161690,-94.153786,1.213101,-0.442569,-0.318412
3725160023,-265.494049,-87.354713,-92.139030,1.100099,-0.443827,-0.254353
3725179984,-242.861633,-96.720810,-81.136658,1.099252,-0.431145,-0.201943
3725199944,-222.036453,-111.525055,-65.783417,1.196053,-0.407501,-0.232244
3725219905,-205.372452,-111.111206,-60.446735,1.308033,-0.395912,-0.131123
3725239866,-186.550217,-102.065102,-70.180801,1.355001,-0.342892,-0.040159
3725259827,-158.911926,-90.963501,-87.485817,1.187462,-0.222455,0.102042
3725279789,-146.029663,-88.237465,-106.800308,1.018037,0.009794,0.124908
3725299750,-148.894073,-84.533363,-126.130363,1.035779,0.217180,0.121563
3725319711,-149.504379,-85.243469,-124.742462,1.267431,-0.087850,0.001774
3725339671,-129.727036,-102.281006,-113.540749,1.231096,-0.358442,-0.252894
3725359632,-77.555580,-140.477905,-105.046371,0.924800,-0.162732,-0.283299
3725379593,-61.542862,-191.408173,-91.097031,0.965501,0.474441,-0.456628
3725399554,-117.687668,-230.893188,-123.524094,1.178718,1.876959,-0.510658
3725419515,-262.842773,-193.950119,-67.760742,1.666376,0.082542,-0.054803
3725459436,-230.586624,-154.543274,-138.119995,1.352044,1.353009,-0.362578
3725479397,-234.476212,-163.576965,-147.560593,1.474055,-0.199842,-0.524130
3725499365,-148.068085,-184.441574,-156.108276,1.430448,-0.351860,-0.364266
3725519317,-91.757545,-204.394730,-141.297928,1.361855,-0.137747,-0.210857
3725539278,-163.325577,-217.889099,-105.494942,1.121005,-0.553564,0.145130
3725559239,-145.727798,-198.102112,-100.760910,0.843057,-0.080916,0.213154
3725579199,-137.816803,-186.621277,-93.321899,0.996212,-0.038709,0.336110
3725599161,-131.501465,-169.116791,-84.341331,1.163906,0.019970,0.377381
3725619121,-79.654564,-149.399109,-89.868752,1.102669,0.322551,0.363106
3725639082,-49.169544,-144.463837,-79.476555,1.036798,0.420251,0.408470
3725659043,-35.400593,-133.585464,-67.342194,1.095177,0.309629,0.493763
3725679004,-0.684695,-118.453094,-69.617981,1.007556,0.431598,0.486334
3725698964,19.740671,-102.817551,-71.281471,1.016464,0.680693,0.413483
3725718925,20.414360,-93.519096,-78.912918,0.992455,0.706070,0.316557
3725738886,36.138641,-91.859512,-83.318413,0.852616,0.526821,0.143273
3725758847,63.389938,-90.169655,-80.862991,0.495418,0.867274,0.035166
3725778808,55.644867,-82.182106,-65.585098,0.605781,1.045711,-0.061074
3725818729,22.826042,-62.362961,-34.310596,0.504031,1.547644,-0.172150
3725838690,-44.769104,-50.272480,-17.635242,0.660729,1.516041,-0.177227
3725858652,-80.322540,-39.849789,10.912073,0.576238,1.018439,-0.237738
3725878613,-77.290482,-30.805166,58.274094,0.550850,1.095007,-0.185276
3725898574,-97.447754,-21.581886,108.465958,0.440292,1.116650,-0.020287
3725918535,-123.362869,-21.525116,178.384949,0.562838,0.411577,0.100963
3725938496,-139.359558,-19.526064,269.242645,0.953202,0.342794,0.305032
3725958457,-140.521530,41.867722,383.701630,1.494015,0.282639,0.409821
3725998378,-42.954353,213.071213,467.183411,1.648882,1.103137,0.384287
3726018339,-81.675964,244.349365,413.070709,1.858395,1.301763,0.327872
3726058260,-18.113686,88.689270,79.488289,-1.124136,2.200147,-0.180008
3726078220,88.171791,6.399562,-119.752846,0.029382,2.073418,-0.309305
3726098180,-34.206242,-49.720554,-254.671570,1.157047,1.524707,-0.178101
3726118141,-58.833221,-57.511600,-299.146973,0.955087,0.448409,-0.180020
3726138102,47.540230,-106.334236,-322.454590,0.978780,0.306541,-0.254664
3726158063,137.265991,-153.754822,-272.885040,1.721873,-0.715804,0.130397
3726178023,175.201614,-180.160431,-157.133484,1.245075,-1.750138,-0.404771
3726197984,159.915649,-194.172699,-77.906837,0.433881,-1.248159,0.397422
3726237906,-105.166107,-151.647980,-23.739679,1.071057,0.298922,1.567389
3726257867,-88.823425,-53.661617,0.598202,1.399657,0.625402,1.480375
3726277828,-23.490744,6.760863,-61.023643,1.074355,1.755177,0.954699
3726297788,13.741009,56.486401,-135.381500,0.646325,2.254053,0.770303
3726317749,77.811356,45.241867,-164.265961,0.540675,0.821981,-0.737470
3726337710,170.597610,-5.317971,-127.887177,0.376098,-0.707944,-0.466009
3726357671,114.317955,-24.452507,-74.121811,0.266690,0.854230,-0.235899
3726377631,-74.503731,-33.189907,-71.211258,0.307099,1.672216,-0.072625
3726397592,-240.852631,-48.657761,-51.641098,0.435317,1.026400,-0.029008
3726417554,-135.067825,-73.472000,55.665184,0.322340,-0.856881,-0.083553
3726437515,1.776305,-46.072140,211.431686,1.347318,1.501538,0.019821
3726457476,-83.836731,43.665962,320.734802,1.198112,1.335219,0.376772
3726477437,-136.508881,98.472252,416.940216,1.408781,0.523232,0.609297
3726497398,-141.284637,137.656326,486.400024,2.224537,0.237558,0.953027
3726517358,-123.923264,208.901520,563.907104,3.102969,0.514200,1.434667
3726537319,-208.501160,375.149139,582.754883,3.402528,0.228490,2.287710
3726557280,-41.319180,236.852615,485.238800,2.099102,-1.282300,-1.426135
3726597201,507.040894,278.896271,-79.963631,-1.539814,8.995313,0.635540
3726617162,-664.126770,-75.288177,-132.650940,-1.837704,2.302253,-0.528691
3726637123,-925.898193,-220.976624,-163.079102,1.945443,-0.953547,-2.228579
3726657082,-239.932602,-37.166126,-136.444122,3.226386,-2.565945,-1.867790
3726677043,267.149139,6.165838,-144.426178,-0.204102,-0.927213,0.858448
3726697004,209.970505,-78.196297,-163.682678,0.167512,1.349774,0.231966
3726716965,-8.456269,-97.347412,-223.899628,0.337871,2.473860,0.091468
3726736925,-193.538544,-131.924698,-248.138550,0.860622,0.421504,-0.122394
3726756886,-126.977158,-132.601257,-263.210266,1.495474,-0.936280,-0.144969
3726776847,69.693459,-130.449570,-276.216919,1.393067,-0.453889,0.198025
3726796808,100.583344,-164.842285,-247.830780,1.496843,0.093555,0.604109
3726816769,59.762650,-162.145065,-215.760269,1.682377,0.211718,0.635444
3726836729,28.284317,-151.930344,-178.311966,1.401803,-0.023330,0.575050
3726856690,16.429462,-151.319473,-124.323036,1.078096,-0.441163,0.721747
3726876651,-17.519297,-119.677658,-69.967773,0.978131,-0.705787,0.948989
3726896612,-3.879639,-64.252518,-33.113411,0.564597,-0.472814,0.860732
3726916573,21.225555,-25.365547,4.296873,0.528841,-0.092903,0.912497
3726936534,13.668511,21.901674,50.109604,0.726254,-0.129796,0.860355
3726956495,65.818466,67.845047,28.188810,0.795720,0.633087,0.545077
3726976455,43.092342,88.102951,29.108004,0.505720,0.537904,0.450893
3726996418,101.630280,74.861687,-3.093135,0.752700,0.618280,-0.132150
3727016378,169.044189,59.108269,-14.989870,0.800956,-0.381719,-0.782368
3727036339,121.336052,23.716656,113.644547,1.138811,-0.226787,-0.826699
3727056300,36.049610,60.498234,214.224121,0.781611,2.046652,-0.227047
3727076261,-138.790497,69.565720,258.926392,0.811580,1.560026,-0.444542
3727096221,-193.217285,8.447808,381.270233,1.846321,0.097701,0.401281
3727116182,-85.007874,127.146927,470.284515,2.942930,0.042351,1.397208
3727136143,-130.288666,378.212799,468.765442,3.169177,-0.085046,2.868083
3727156104,-172.147629,330.730957,381.624756,2.024319,-1.397688,0.442063
3727176065,720.757996,34.858521,109.377869,2.766894,2.645420,-6.289567
3727196025,812.550232,303.364807,-69.465889,0.167707,7.201881,-0.142629
3727215988,-369.608398,-18.320587,-104.069038,-1.156573,3.331308,-0.060717
3727235945,-890.394104,-237.992950,-101.477303,2.212684,1.510003,-2.602963
3727255906,-174.740295,-23.947252,-119.195045,2.305369,-2.996820,-1.182549
3727275867,234.358490,-64.680405,-206.957825,0.268539,-0.904746,-0.411578
3727295828,246.177750,-95.447235,-168.136429,0.239499,1.824543,0.008600
3727315788,-104.089325,-151.949051,-178.544479,0.709388,1.807388,0.169117
3727335749,-358.353271,-122.550179,-152.311707,0.915744,-0.126686,0.230353
3727355710,-273.616028,-69.640800,-164.170319,1.087345,-0.895293,0.094199
3727375671,-112.982002,-60.458591,-145.818085,1.059288,-1.279024,0.158887
3727395632,11.179720,-83.971550,-114.423019,0.739799,-0.602054,0.538239
3727415593,62.161690,-100.091423,-89.018425,0.883263,-0.081454,0.690336
3727435553,21.509277,-85.374512,-69.799004,1.320711,0.028980,1.043313
3727455514,-33.900887,-61.409618,-24.785034,1.554539,-0.083833,1.053183
3727475475,-21.472927,7.142874,55.935276,1.184127,-0.275454,0.659693
3727495436,16.194496,8.115493,141.416397,0.674427,-0.120976,0.369347
3727515397,-6.422967,-27.186810,180.798645,0.750818,0.276553,0.630228
3727535358,-26.588921,17.697609,182.881042,1.125400,0.387654,0.772599
3727555318,46.544090,115.275330,192.615433,0.944121,0.232296,0.792946
3727575281,113.460648,126.165527,196.759201,0.962310,0.009939,0.244723
3727595241,64.337341,153.175751,185.635345,1.126293,0.997872,-0.353616
3727615202,-31.891186,93.332069,149.903503,0.331521,1.535209,-0.548372
3727635163,-89.692482,51.987411,75.223488,0.300176,1.770321,0.085909
3727655123,-162.116302,24.132986,37.192574,0.122048,0.917861,-0.002287
3727675084,-169.888138,-50.806843,-5.669589,0.348880,0.314958,0.005921
3727695045,-106.459381,-58.374371,-22.380644,0.898471,-0.032193,0.221294
3727715006,-104.857498,-49.720566,-8.848776,0.839275,0.040985,0.540549
3727734967,-149.616226,-60.793468,-38.275265,1.096916,0.885898,0.454670
3727754927,-146.273331,-37.999908,-88.638840,0.727704,1.023358,0.243853
3727774888,-86.911186,-59.601006,-75.379364,0.759025,-0.110662,0.015133
3727794848,-61.976372,-77.569443,-76.378166,1.103252,0.045682,-0.120986
3727814809,-132.751282,-87.030014,-64.090569,0.921856,0.836151,0.297742
3727834769,-178.087387,-110.578445,-54.741207,1.160553,-0.174773,0.273148
3727854730,-149.401596,-89.269264,-35.644012,1.093533,-0.438500,0.354825
3727874691,-109.800835,-65.450272,-21.781551,0.955348,0.114647,0.556588
3727894652,-178.423187,-44.970890,-2.632805,0.892102,0.363542,0.692770
3727914612,-216.362045,-18.421873,-17.323988,0.860180,0.600313,0.413117
3727934573,-188.387482,-25.719437,-27.990011,0.905729,0.490873,0.165598
3727954534,-130.421860,-35.438354,-41.649784,1.126767,0.487629,0.031656
3727974495,-124.484093,-48.035313,-45.140415,0.983200,0.480414,-0.035058
3727994456,-143.574249,-58.299637,-47.829277,0.986700,0.654097,0.108589
3728014416,-181.597992,-53.016968,-52.842812,0.980938,0.636735,0.247728
3728034377,-202.526398,-56.146568,-61.551636,1.372504,0.179036,0.157230
3728054338,-150.379349,-55.624508,-63.239494,1.262686,-0.025485,-0.044684
3728074299,-130.075195,-65.414040,-66.003792,1.047312,0.365372,0.118892
3728094259,-175.071960,-84.766785,-72.278580,1.033613,0.636757,0.218097
3728114220,-205.011566,-91.749580,-93.989319,1.090499,0.725253,0.367579
3728134182,-205.485489,-79.077217,-97.235329,1.149059,0.346779,0.374397
3728154143,-154.420288,-68.910919,-100.041634,1.122451,0.206278,0.351532
3728174104,-96.229736,-80.355179,-97.805862,1.089595,0.224222,0.262215
3728194065,-58.949089,-95.277573,-118.667839,1.007358,0.615143,0.300472
3728214026,-60.361229,-98.527580,-137.292068,0.908681,0.641409,0.236400
3728233986,-54.347645,-99.588280,-137.103653,0.934801,0.379197,0.101941
3728253947,-35.639088,-101.330978,-123.165771,1.022269,0.275062,0.035771
3728273908,-60.093044,-108.660538,-93.295403,1.003844,0.120132,-0.010747
3728293869,-97.361320,-122.646469,-50.843838,0.893442,-0.112252,-0.073164
3728313830,-119.089958,-133.416321,0.731216,0.963369,-0.082900,-0.061526
3728333791,-163.644196,-141.063812,59.762455,1.001009,-0.166533,-0.022677
3728353752,-181.884171,-154.931183,104.416939,1.218217,-0.009876,0.320405
3728373710,-171.493347,-142.649490,79.319572,1.550488,0.650423,0.810786
3728393671,-147.087479,-128.008286,99.938057,1.494187,0.451459,0.859272
3728413632,-83.060410,-98.503296,143.661163,1.552510,0.311905,0.544366
3728433593,-14.250407,-40.851021,188.147339,1.830303,0.750614,0.437645
3728453554,-24.359104,36.189247,211.002289,2.132051,1.059821,0.711209
3728473515,-133.390457,105.694313,224.889709,1.869708,0.914126,0.514094
3728493475,-206.790939,124.972343,262.937256,1.999683,0.707253,0.451843
3728513436,-295.798462,179.727631,272.708313,2.364999,0.964042,0.461348
3728533397,-371.094757,261.721008,204.958160,0.889563,-0.012581,0.313055
3728553358,-188.865387,81.679268,47.521919,-0.939703,-0.253146,-0.469999
3728573319,319.258270,52.025681,-72.268654,-0.330769,0.543504,-0.181940
3728593280,491.604462,65.735092,-132.123718,0.312565,1.888100,-0.492487
3728613240,177.597702,3.466216,-176.783340,0.229885,2.416652,-0.236214
3728633201,-183.997070,-36.377102,-229.595047,0.420544,1.866483,-0.333800
3728653162,-312.279633,-51.135460,-254.116058,1.068328,0.764196,-0.492179
3728673122,-206.399704,-67.950104,-252.420486,1.487100,-0.336078,-0.388709
3728693083,30.550789,-44.173210,-267.307159,1.415150,-0.457673,-0.101466
3728713046,161.335907,-66.359505,-268.913696,1.070894,0.415583,0.169041
3728733006,127.032181,-101.498772,-246.358109,1.123431,0.985970,0.329582
3728752967,36.365288,-104.955696,-214.921265,1.284552,0.664377,0.388799
3728772928,0.349714,-102.087639,-173.515289,1.219834,-0.107294,0.311011
3728792889,6.340629,-111.109100,-138.707336,0.739166,-0.436580,0.652168
3728812849,-23.144493,-124.089310,-101.840134,0.417960,-0.036720,0.996143
3728832810,-50.080276,-70.070709,-53.672909,0.648159,0.521231,0.997509
3728852771,-85.411011,-34.928783,3.177061,0.645230,-0.257131,0.760513
3728872732,-30.550634,-14.464218,48.363331,0.490942,-0.623767,0.568088
3728892693,62.721714,3.747926,29.405190,0.309342,0.405766,0.270337
3728912653,60.594261,18.501541,-11.553580,0.445133,1.788277,0.440956
3728932613,-41.504787,19.099606,-42.575863,0.723525,2.125512,0.258050
3728952574,-79.477814,8.910518,-34.117683,0.756385,0.370026,-0.098603
3728972534,12.687107,-59.499130,30.859840,0.811428,-0.607937,-0.548449
3728992495,67.913017,-69.634171,70.378227,0.454862,1.369041,-0.081249
3729012456,-58.359505,-64.201683,105.372604,0.550342,1.763263,0.190781
3729032417,-160.895737,-39.160164,157.067276,0.655168,0.816587,0.213128
3729052378,-139.615982,-5.271657,251.400574,1.196079,0.855218,0.241630
3729092299,-110.827003,143.987228,442.244965,1.842856,0.371786,1.252892
3729112260,-169.468445,299.303162,485.351929,2.658352,0.884161,1.959357
3729132221,-313.788330,366.196198,452.990540,2.879638,0.507235,1.378325
3729152182,77.693634,123.892082,260.858368,0.788093,-0.650414,-3.162658
3729172143,985.214233,152.444122,-15.323775,1.653650,4.808339,-3.361226
3729192103,120.660637,85.766090,-150.402542,-1.929689,7.168900,0.861556
3729212064,-769.241760,-177.262054,-234.589554,-0.622074,2.120379,-0.972750
3729232024,-732.734070,-245.908707,-235.618561,3.465761,-1.266893,-2.919323
3729251985,-20.952665,12.258039,-290.914307,1.182068,-2.300119,-0.575946
3729271948,345.666260,-128.808487,-269.782257,-0.142471,0.014447,0.255712
3729291908,210.127899,-123.906670,-282.471619,0.837087,2.338869,0.687998
3729311869,-125.675545,-154.586288,-294.631195,1.315411,1.405213,0.453722
3729331830,-229.074295,-139.245239,-272.720886,1.814965,-0.881098,-0.017717
3729351791,-39.814041,-112.290970,-247.067917,1.345881,-1.530435,-0.047282
3729371752,147.215485,-191.254135,-200.438675,0.796664,-0.512084,0.738873
3729391713,75.518692,-164.046890,-123.410522,1.248945,0.374364,1.220011
3729411673,-54.755230,-88.709999,-64.642380,0.925191,-0.276115,1.059633
3729431634,-64.912712,-64.304062,-4.566339,0.568239,-1.245185,0.702618
3729451595,83.023598,-61.135544,39.761826,0.611400,-0.768603,0.526866
3729471556,127.719017,-48.805084,59.153030,1.371648,0.973530,1.153894
3729491515,37.126583,21.250584,-20.492085,0.935276,2.417885,0.840123
3729511476,-34.669052,42.112797,-27.659298,0.374572,0.729655,0.416753
3729531437,45.328335,45.827072,-5.057259,0.453742,0.046230,0.066154
3729571359,142.309708,17.158949,25.253891,0.823954,-0.712828,-0.053401
3729591319,98.421829,40.209816,84.006187,1.205133,0.221401,-0.583588
3729611280,15.388000,53.166428,154.893494,0.716700,1.651006,-0.350791
3729631241,-81.767685,63.719906,203.470428,0.887950,0.810039,-0.375308
3729651201,-98.848320,49.010246,303.555450,1.394290,0.249344,0.026078
3729671162,-82.642456,92.144012,392.484833,2.140221,-0.137379,1.032293
3729691123,-91.133430,213.887543,482.634369,2.952808,-0.323737,1.763263
3729711084,-229.534409,462.296448,505.606140,3.054381,-0.098760,2.563422
3729731045,-79.780281,232.921448,466.113708,2.210866,-1.934444,-2.331761
3729751006,1219.077026,128.494812,3.653893,3.707180,6.248556,-6.457371
3729770966,522.201111,353.357147,-89.314255,-1.123094,6.921349,1.742760
3729790927,-1065.043457,-116.245132,-79.915955,-1.321489,2.784804,-1.964721
3729810888,-1020.979980,-268.899384,-10.607580,3.957789,-0.796387,-2.825578
3729830849,129.282928,70.791412,-5.355977,1.842866,-5.023345,-0.525139
3729850811,336.086456,-11.592711,-130.063110,-0.404540,1.001847,0.619923
3729870772,267.490875,-15.654781,-178.795242,0.365663,4.159677,-0.993138
3729890732,-171.273697,-157.100754,-222.337189,0.112349,1.483238,-0.278811
3729910693,-273.599487,-169.185181,-260.004791,1.336728,-0.152115,-0.459408
3729930654,-75.864807,-143.498810,-295.173828,1.413279,-0.703191,-0.208210
3729950615,4.178654,-95.148682,-286.268890,1.239964,-0.563605,0.525383
3729970576,15.054543,-93.789635,-258.890320,1.023784,-0.414788,0.285771
3729990536,35.131454,-126.737228,-232.439484,0.970619,-0.380700,0.079986
3730010497,-7.382984,-159.571259,-165.949005,1.378095,-0.980709,0.408264
3730030458,-45.063660,-143.744186,-108.243103,1.744678,-0.980307,1.399177
3730050419,-123.783104,-63.293144,-33.913326,1.384361,-0.420655,1.540301
3730070378,-79.954224,-13.415612,48.866379,0.955656,-1.051491,0.820469
3730090339,206.321396,-24.142517,164.489273,0.937719,-2.882682,0.802419
3730110300,274.449158,-52.154549,225.479156,2.302935,-0.727691,-0.277909
3730130261,305.703003,138.986374,206.581284,2.036909,2.561100,0.871003
3730150221,-65.391510,178.064850,156.549744,0.473667,2.110743,0.395402
3730170182,-214.077698,93.029953,220.460205,1.167316,0.051907,-0.502099
3730190143,-92.230835,154.738312,289.887390,1.616791,-0.397581,-0.636563
3730210104,-62.570789,160.426804,306.666016,1.052067,0.196960,0.503924
3730230065,53.950867,71.056755,202.557068,1.119476,0.802402,-0.397982
3730250026,221.724518,57.381363,98.094460,1.202722,1.303294,-0.648433
3730269986,246.488525,74.006462,43.530464,0.963441,1.814664,-0.360147
3730289946,39.837498,24.439886,15.303768,0.957396,1.759754,-0.028622
3730309908,-138.840149,14.741732,10.417013,1.251558,0.797461,-0.070024
3730349829,-59.735271,6.101498,40.859245,0.713700,-0.708137,-0.003321
3730369790,0.804070,5.182360,42.995979,0.609969,-0.117469,0.277501
3730389751,-28.337305,14.719662,46.217175,0.818959,0.351856,0.687249
3730409713,-65.946030,25.262810,48.331192,0.859805,0.100455,0.544050
3730429674,-29.589155,27.711872,57.016121,0.869766,-0.417811,0.274619
3730449635,36.076942,21.775875,53.386581,0.911565,-0.349928,0.116099
3730469595,31.624643,13.018106,44.118279,0.925274,0.103094,0.273205
3730489556,-1.589927,-1.458104,34.771072,1.180442,0.110488,0.244618
3730509517,-13.392096,0.135819,29.629604,1.123762,0.039336,0.479956
3730529478,-9.278919,-6.566727,16.022633,1.244088,0.045396,0.301670
3730549438,27.582808,-4.074712,9.128107,1.074641,-0.138748,0.120821
3730569399,30.248207,-12.473237,4.481979,0.879403,0.014158,0.238307
3730589360,5.378667,-8.715811,6.860737,0.830797,-0.013123,0.265363
3730609321,-22.264050,-14.553427,9.791108,0.981752,0.117049,0.241777
3730629282,-25.518784,-7.836028,1.998757,0.924579,0.113185,0.216751
3730649241,-12.430355,-6.306286,-6.847477,0.812841,-0.002269,0.217777
3730669202,7.234587,-11.378649,-2.046708,1.098125,0.056845,0.197909
3730689163,14.782809,-0.810315,-2.644711,1.096898,0.043077,0.094575
3730709123,9.711627,-3.411656,4.165298,1.016595,0.246348,0.119641
3730729084,-6.432444,-4.739152,-0.872311,1.135385,0.349137,0.065499
3730749045,-23.113232,-0.223798,-13.160724,1.077940,0.379063,0.206649
3730769006,-55.299454,5.688837,-9.564703,0.975358,-0.012215,0.230846
3730788966,-61.458870,2.897155,10.470339,1.103460,-0.220978,0.317933
3730808927,-33.384903,-0.762647,16.306179,1.302918,-0.115019,0.239357
3730828888,-0.333630,6.803885,-3.131052,1.128944,0.162261,0.205307
3730848849,-4.460906,11.845149,-6.286652,0.882598,0.173170,0.217457
3730868810,-22.196043,8.544763,-7.903746,0.872353,-0.026232,0.212613
3730888770,-34.535904,8.096580,2.946949,0.941545,-0.160076,0.259056
3730908731,-48.348812,8.052989,8.464406,1.005967,-0.057608,0.368562
3730928692,-53.954620,4.156545,9.544580,1.132671,0.018471,0.283677
3730948653,-30.286169,16.126600,-5.771241,1.013189,-0.003913,0.265916
3730968615,-18.273619,20.409744,-4.819626,0.771874,-0.073828,0.280757
3730988576,-11.756629,14.602138,-0.782201,0.816486,-0.152059,0.265008
3731008537,-13.253487,11.548336,6.047886,1.022512,-0.201274,0.333792
3731028497,-27.657896,11.551498,-3.865954,0.998949,-0.081517,0.388312
3731048458,-57.280113,10.095552,-3.453179,0.962107,-0.043719,0.379732
3731068419,-56.534492,10.793257,0.525094,0.951744,-0.174156,0.360370
3731088380,-26.172739,9.261382,-9.557272,0.982226,-0.108719,0.300212
3731108340,-18.233318,8.614922,-15.844458,0.977702,-0.079473,0.320230
3731128301,-30.262260,10.200432,-17.981256,1.016836,-0.117984,0.387507
3731148262,-40.925999,8.896068,-21.725769,1.025657,-0.036144,0.395707
3731168223,-45.920643,8.914287,-24.368237,0.965264,-0.033439,0.332725
3731188183,-44.294750,9.154820,-26.958801,0.906124,-0.039595,0.298776
3731208143,-49.196819,4.812595,-27.089943,0.872892,-0.018748,0.320864
3731228104,-60.393112,5.065816,-36.143539,0.830636,0.032397,0.294938
3731248064,-81.753647,-4.642242,-49.397610,0.878176,0.031497,0.266958
3731268026,-81.253838,-5.300512,-54.472294,0.936313,-0.100301,0.240315
3731287986,-67.566246,-6.053222,-51.564724,0.911183,-0.172844,0.259619
3731307947,-63.950699,-11.974902,-52.113129,0.970206,-0.028679,0.301139
3731327907,-84.912086,-11.532629,-62.079659,1.029440,0.113910,0.290965
3731347868,-101.110550,-13.402088,-60.673225,1.023876,-0.050760,0.221440
3731367829,-90.757736,-10.914589,-62.782944,1.020765,-0.172341,0.247232
3731387790,-79.974876,-10.250220,-70.724770,0.941939,-0.039867,0.237060
3731407751,-84.517456,-17.941545,-79.266380,0.900112,0.105843,0.238186
3731427711,-92.392899,-20.171431,-81.239548,0.922272,-0.015275,0.201511
3731447672,-85.321442,-22.016100,-83.467468,0.969689,-0.170674,0.181979
3731467633,-74.259995,-24.960037,-88.974388,0.966765,-0.121867,0.204346
3731487594,-71.664574,-29.498392,-91.516647,0.949228,0.065562,0.241113
3731507555,-86.854568,-35.619858,-96.468056,0.955874,0.160473,0.146888
3731527515,-92.969406,-39.887478,-99.229248,0.972990,0.087002,0.095225
3731547478,-81.128418,-36.965679,-98.579735,1.009834,-0.030875,0.091731
3731567439,-69.880516,-39.790909,-86.448418,0.998599,-0.136922,0.111019
3731587399,-67.717445,-42.084404,-73.922905,0.997964,-0.119412,0.164265
3731607360,-74.795959,-44.158516,-65.291267,1.004679,-0.004087,0.235530
3731627321,-89.487267,-43.526508,-61.773739,1.021561,0.065037,0.250188
3731647282,-93.752853,-41.496136,-57.297943,0.992947,-0.020122,0.187406
3731667250,-77.246490,-44.952156,-59.226654,1.021333,-0.039515,0.161837
3731687203,-55.206055,-41.645439,-58.961437,1.103490,0.002083,0.211471
3731707164,-24.373802,-30.439041,-45.701077,1.143577,0.007972,0.170039
3731727125,4.671371,-32.069107,-27.426016,1.063812,0.054148,0.113365
3731747086,2.144927,-36.332458,-26.168150,1.093588,0.327598,0.042410
3731767045,-17.852798,-28.710203,-34.146206,1.067348,0.416071,0.081640
3731787006,-43.479504,-19.626526,-42.866039,1.033381,0.337105,0.102982
3731806967,-74.606117,-17.116934,-39.398037,1.017197,0.182012,0.053138
3731826928,-99.994850,-27.007214,-28.766087,1.006097,0.081639,0.012872
3731846888,-102.352432,-32.892857,-20.925220,1.023557,0.075991,0.005727
3731866849,-86.904510,-23.415417,-14.475283,1.027068,0.107585,-0.006929
3731886810,-72.240982,-12.499479,-4.926017,0.942906,0.120312,-0.004310
3731906771,-62.476673,-14.148437,-0.132725,0.920891,0.177068,0.025955
3731926732,-67.424606,-9.125375,1.459961,0.940660,0.245144,0.058076
3731946693,-84.955017,-3.892336,4.278185,0.953208,0.164873,0.041682
3731966653,-102.842072,-4.108507,12.036490,0.966153,0.067053,0.019026
3731986614,-115.577042,-4.127323,16.464598,0.962545,0.051079,0.024412
3732006575,-117.129166,-6.957406,17.252998,0.969983,0.043616,0.060185
3732026536,-112.983879,-10.741179,14.236586,1.038887,0.019077,0.103101
3732066457,-112.268753,-19.217896,1.683553,1.039340,0.009008,0.223112
3732086418,-115.657463,-27.994421,-3.892746,0.976340,-0.008473,0.288627
3732106380,-116.272713,-32.875633,-11.826009,0.946992,-0.045775,0.340241
3732126341,-102.459251,-39.176964,-14.776348,0.923060,-0.030602,0.391276
3732146302,-78.437393,-37.008900,-17.872578,0.902828,-0.008519,0.426331
3732166262,-47.929924,-26.606684,-19.221704,0.917604,0.036327,0.395362
3732186223,-18.041113,-18.103596,-16.744978,0.930046,0.088832,0.383074
3732206184,-0.491933,-6.030337,-13.244259,0.926796,0.179363,0.311869
