Timestamp (us),Gyroscope X (deg/s),Gyroscope Y (deg/s),Gyroscope Z (deg/s),Accelerometer X (g),Accelerometer Y (g),Accelerometer Z (g)
6036681064,0.224138,-0.719270,-0.122917,0.959918,-0.109327,0.261475
6036701025,-0.070744,-0.269656,-0.132152,0.961644,-0.109066,0.261867
6036720986,-0.374571,0.233910,0.200025,0.958224,-0.110269,0.264192
6036740970,-0.222381,0.279131,0.238407,0.957337,-0.112938,0.261305
6036760906,0.303167,0.231505,0.080838,0.961893,-0.116013,0.259436
6036780868,0.466119,0.694316,-0.200124,0.956801,-0.117078,0.263822
6036800829,0.634101,0.617333,-0.396778,0.949368,-0.112631,0.264250
6036820790,0.494225,0.062913,-0.252213,0.959866,-0.110930,0.263686
6036840751,0.996600,0.465015,0.067601,0.970427,-0.116903,0.260517
6036860712,1.228621,1.293041,-0.016353,0.961929,-0.114326,0.269152
6036880673,1.024892,1.551965,-0.161612,0.962196,-0.110922,0.265914
6036900634,0.583224,1.576387,-0.064446,0.950831,-0.111002,0.264796
6036920595,0.289413,0.870866,0.330287,0.945128,-0.113000,0.267092
6036940556,0.255544,-0.133164,0.187477,0.946354,-0.109659,0.266423
6036960517,0.933011,-0.219253,0.053235,0.954171,-0.103198,0.259995
6036980478,-0.004485,-0.466966,0.179527,0.955934,-0.100874,0.264815
6037000439,-1.085415,-0.478546,0.267045,0.954550,-0.105620,0.268692
6037020400,-1.413381,-0.568575,0.357169,0.958542,-0.112889,0.265515
6037040361,-1.032876,-0.409825,0.487209,0.962645,-0.118618,0.262042
6037060322,-0.149342,-0.138773,0.535260,0.963346,-0.119232,0.257876
6037080283,0.324418,0.133095,0.339095,0.957903,-0.111403,0.261017
6037100245,0.006564,0.224768,0.041921,0.954151,-0.110627,0.267947
6037120206,-0.188952,0.369118,-0.338412,0.956618,-0.114508,0.265324
6037140167,0.229176,0.322232,-0.299013,0.951396,-0.115985,0.266345
6037160128,0.562450,0.017097,-0.236740,0.955037,-0.110419,0.264136
6037180089,0.303906,-0.096429,-0.374034,0.951863,-0.105907,0.265825
6037200050,-0.402437,-0.026178,-0.596566,0.949611,-0.107006,0.263707
6037220011,-0.636418,0.133719,-0.870798,0.955259,-0.111923,0.260886
6037239973,0.085929,0.078305,-0.807612,0.959475,-0.117409,0.261691
6037259933,0.555627,0.032006,-0.396163,0.964821,-0.114967,0.264663
6037299855,0.584798,0.230561,0.059002,0.951699,-0.110332,0.267715
6037319817,0.470605,0.063341,-0.077735,0.954529,-0.110550,0.267225
6037339776,0.304479,0.154731,-0.275746,0.956958,-0.109622,0.264067
6037359737,0.305200,0.238213,-0.359351,0.958813,-0.107380,0.263244
6037379698,0.260712,0.329261,-0.534191,0.953873,-0.109783,0.263284
6037399659,0.418917,0.017094,-0.464897,0.950426,-0.110870,0.267337
6037419620,0.706135,-0.386758,-0.402629,0.956129,-0.109605,0.264598
6037439581,0.821881,-0.220234,-0.607409,0.956327,-0.108155,0.264486
6037459542,0.632006,-0.295969,-0.752123,0.958061,-0.102403,0.267429
6037479503,-0.128610,-0.202239,-0.732008,0.955587,-0.105112,0.266882
6037499464,-0.433967,-0.269388,-0.573539,0.957737,-0.111061,0.265653
6037519425,0.214217,-0.013056,-0.655264,0.954690,-0.116308,0.265227
6037539387,0.647168,-0.326467,-0.767206,0.949724,-0.110611,0.265863
6037559347,0.943579,-0.426306,-0.781256,0.957394,-0.102449,0.263775
6037579308,1.111528,0.014794,-0.508141,0.965456,-0.108728,0.262842
6037599269,0.798083,-0.059734,-0.251026,0.959800,-0.109222,0.268574
6037619231,0.327966,0.070557,-0.495635,0.960573,-0.103942,0.263403
6037639191,0.191222,0.276601,-0.359785,0.948668,-0.106050,0.266224
6037679114,0.735161,-0.546216,-0.235328,0.949902,-0.102991,0.264921
6037699076,0.831963,-0.827477,-0.022084,0.957511,-0.096047,0.260303
6037719037,0.129801,-0.877614,0.400678,0.960591,-0.097348,0.260563
6037738998,-0.577025,-0.730959,0.352586,0.957459,-0.103527,0.264705
6037758959,-0.386946,-0.723884,0.391151,0.960816,-0.108500,0.262662
6037778920,0.122937,-0.847448,0.264000,0.963904,-0.112741,0.260785
6037798881,0.582685,-0.347512,0.006733,0.956974,-0.106612,0.264746
6037818842,-0.083687,-0.042066,-0.428522,0.957130,-0.105124,0.267183
6037838803,-0.226157,0.346008,-0.543414,0.954986,-0.108071,0.263003
6037858764,0.244898,0.276246,-0.450680,0.953500,-0.110230,0.263558
6037878725,0.630790,-0.204001,-0.403151,0.956316,-0.104559,0.261695
6037898686,0.439007,-0.332212,-0.175911,0.954790,-0.096120,0.259617
6037918656,-0.397846,-0.436259,-0.299951,0.955914,-0.099470,0.261332
6037938607,-0.343785,-0.299650,-0.353103,0.957939,-0.107953,0.260779
6037958568,0.082564,-0.179224,-0.298748,0.963078,-0.111994,0.261577
6037978529,0.758059,-0.180625,0.075367,0.963964,-0.110973,0.263671
6038018451,0.437340,0.064705,0.544484,0.959314,-0.099635,0.264857
6038038412,-0.063974,0.126866,0.406125,0.953422,-0.100514,0.262760
6038058373,-0.231130,0.058725,0.291834,0.954208,-0.104434,0.262565
6038078334,-0.360299,-0.108555,0.101922,0.956572,-0.107388,0.261109
6038098295,-0.102173,-0.284352,0.072680,0.959247,-0.111032,0.262493
6038118256,0.552286,-0.202677,0.127846,0.955633,-0.111489,0.265985
6038138217,1.076493,-0.333508,0.190489,0.957708,-0.105891,0.264839
6038158178,0.910876,0.001451,0.098369,0.959886,-0.099939,0.263142
6038178139,0.461599,0.025897,0.195510,0.956476,-0.098768,0.266248
6038198100,-0.239251,-0.177201,0.193497,0.955869,-0.102088,0.262557
6038218061,-0.755021,0.029423,0.016927,0.957108,-0.107751,0.261580
6038238022,-0.420289,-0.223035,-0.194093,0.950950,-0.110203,0.263602
6038257983,0.277586,-0.673811,-0.122808,0.956358,-0.107083,0.263195
6038277946,0.986154,-0.112709,0.174682,0.968247,-0.111478,0.263211
6038297907,1.427140,0.145065,0.479331,0.963038,-0.109575,0.265361
6038317868,0.492687,0.254068,0.255987,0.962235,-0.101047,0.263659
6038337829,-0.380660,0.675136,0.260061,0.953241,-0.101247,0.262222
6038357790,-0.063066,0.324544,0.383065,0.944719,-0.107263,0.267537
6038377751,0.275549,-0.520525,0.461341,0.949840,-0.105674,0.261686
6038397711,0.671515,-0.514305,0.401925,0.958856,-0.102000,0.258240
6038417673,0.152503,-0.534791,0.734174,0.958454,-0.099580,0.261835
6038437634,-0.364443,-0.472396,0.686836,0.956185,-0.107925,0.267667
6038457595,-0.050938,-0.154097,0.634271,0.958552,-0.113082,0.264790
6038477556,0.650003,0.148003,0.704440,0.966825,-0.121140,0.266622
6038497517,1.642425,0.973819,0.729254,0.969591,-0.119825,0.265285
6038517476,2.118412,1.800852,0.539856,0.960426,-0.115358,0.265863
6038537437,1.707864,1.687735,0.364112,0.950932,-0.106143,0.261441
6038557399,2.514429,1.548015,0.237966,0.951586,-0.105878,0.255165
6038577360,3.974730,3.307772,0.278109,0.952106,-0.113501,0.268868
6038597321,4.464772,6.379401,0.677376,0.969693,-0.118334,0.292763
6038637243,2.986110,5.596288,2.199132,0.963990,-0.122464,0.261128
6038657204,4.641554,4.335391,1.804248,0.956417,-0.106104,0.249338
6038677165,5.318731,3.830404,1.359465,0.945589,-0.090602,0.257446
6038697126,3.721548,3.949477,1.308473,0.944631,-0.093426,0.275049
6038717087,2.846082,3.399687,2.581423,0.937178,-0.111622,0.274937
6038737048,4.442234,1.676919,3.097762,0.954227,-0.102194,0.279011
6038757009,5.005466,1.065551,2.516153,0.950441,-0.092004,0.276954
6038776970,3.119976,2.111270,1.438252,0.951606,-0.099342,0.279463
6038816892,4.166063,4.556129,1.149657,0.951468,-0.151240,0.286047
6038836853,10.339908,7.346368,3.002527,0.959076,-0.175260,0.302425
6038856814,13.963926,11.050884,9.186748,0.960636,-0.183626,0.340655
6038876776,10.094112,12.241033,16.230331,0.927816,-0.159000,0.329268
6038896737,7.531744,12.113788,20.714987,0.940451,-0.170591,0.291444
6038916698,7.892573,16.463993,28.906242,0.959010,-0.241142,0.247773
6038936659,7.287994,21.649830,42.648506,0.935086,-0.318930,0.257350
6038956620,9.109968,22.053852,57.293892,0.884436,-0.390913,0.278181
6038976582,6.249447,17.689642,68.325966,0.874325,-0.434141,0.292454
6038996549,14.041607,16.553831,75.555771,0.864013,-0.433580,0.304913
6039016504,34.249908,14.037363,85.295227,0.897914,-0.445855,0.378494
6039036464,38.099224,7.775558,89.916481,0.911068,-0.448994,0.434335
6039056426,23.611673,2.842661,87.166565,0.889300,-0.413391,0.367059
6039076387,24.300661,-1.160381,94.369583,0.902897,-0.445095,0.353167
6039096346,16.840521,-3.485839,94.682335,0.907207,-0.466076,0.257792
6039116307,37.629169,-6.435109,101.912262,0.880589,-0.551420,0.189950
6039136268,63.899784,1.404087,101.311897,0.890774,-0.483066,0.147129
6039156229,65.518280,5.212655,91.839966,0.819752,-0.283676,0.230526
6039176190,53.929001,-1.879311,78.978577,0.858624,-0.208586,0.289564
6039196151,34.597134,-16.617485,63.552982,0.983225,-0.195747,0.273608
6039236073,29.135189,-21.973358,20.055613,0.948036,0.067603,0.460972
6039256034,23.596256,-16.685316,-13.743474,0.888619,0.270046,0.543712
6039275995,-5.151166,-8.373328,-47.988068,0.948279,0.268901,0.657014
6039295956,-44.581490,6.378344,-69.846130,0.915687,0.105583,0.592525
6039315917,-36.292946,-5.392943,-82.528587,0.821152,-0.069304,0.146178
6039335878,-13.834351,18.919807,-73.459305,1.063823,-0.344950,0.490251
6039355839,-94.185928,57.161083,-44.327488,0.925223,-0.392292,0.698200
6039375800,-161.867859,31.176754,-37.583191,0.903445,-0.625484,0.437905
6039395761,-73.756050,23.633787,-40.756687,1.040208,-0.599348,0.208142
6039415722,6.710726,21.773355,-47.667580,0.804048,-0.358591,0.262062
6039435683,36.531937,5.516428,-55.794426,0.862565,-0.133178,0.308343
6039455646,62.561939,-1.961820,-57.336536,0.930865,-0.040421,0.365537
6039475607,42.320202,-5.133382,-63.143875,0.978144,-0.003823,0.346863
6039495568,-40.275635,9.547878,-75.179573,0.992895,0.128475,0.278947
6039515529,-100.038811,27.352608,-82.294876,0.933383,0.161212,0.256284
6039535490,-107.580238,24.529413,-76.274406,0.893955,-0.024924,0.348579
6039555451,-98.674835,16.974096,-75.285004,0.982856,-0.207893,0.294381
6039575412,-78.229301,20.785744,-83.579079,0.990888,-0.241306,0.296532
6039595373,-53.340767,18.963423,-91.743805,0.955840,-0.147425,0.326314
6039615334,-35.326843,18.874689,-95.888672,0.986624,-0.027223,0.300414
6039635295,-35.691433,19.170172,-100.777901,1.026913,0.066284,0.295797
6039655256,-58.045982,18.930681,-107.856438,1.054012,0.165551,0.271629
6039675217,-74.216057,15.947196,-112.003700,1.037429,0.175103,0.266616
6039695177,-92.205521,12.170794,-120.018799,1.024542,0.120130,0.271469
6039715138,-103.368401,12.431871,-121.369049,1.010734,0.076552,0.277848
6039735099,-99.223473,7.545225,-116.938599,1.028081,0.057303,0.248067
6039755060,-92.120552,1.283700,-118.324982,1.038330,0.089240,0.257475
6039775021,-94.044411,-1.212993,-122.494194,0.995678,0.138437,0.303240
6039794982,-106.755547,-3.574640,-122.046951,0.963778,0.148016,0.326538
6039814943,-105.163063,-7.666028,-119.500717,1.031405,0.121128,0.226411
6039834904,-89.842804,-4.200909,-115.448051,1.060764,0.082070,0.267930
6039854865,-83.614075,-2.877734,-116.932152,0.983805,0.033037,0.279251
6039874826,-50.559170,7.510236,-106.251213,0.956329,0.008452,0.269406
6039894787,-32.972267,7.697508,-94.915504,1.023119,0.141012,0.324736
6039914748,-40.671677,7.146088,-93.945915,0.959762,0.240984,0.297167
6039934709,-58.271706,11.660316,-93.191162,0.827866,0.232718,0.272574
6039954670,-68.996635,14.457662,-88.191406,0.861116,0.197649,0.197812
6039974631,-66.194580,5.116646,-88.600800,0.990832,0.220844,0.110298
6039994592,-67.060677,-8.996037,-96.483147,0.931449,0.282039,0.150368
6040014553,-77.462234,-18.431084,-96.556549,0.904553,0.290393,0.298806
6040034515,-90.101089,-24.371227,-86.776321,0.989551,0.269006,0.344880
6040054476,-96.915710,-26.570393,-79.395882,0.961826,0.164489,0.376316
6040074438,-91.285553,-25.149950,-71.327026,0.915367,0.064853,0.436195
6040094399,-71.627983,-27.843697,-56.101997,0.919062,-0.010990,0.418018
6040114360,-40.974224,-26.781563,-42.781528,0.931892,0.019027,0.440892
6040134320,-13.794650,-9.988132,-32.812630,0.876970,0.032054,0.677798
6040154282,-3.757124,-0.121612,-19.254690,0.736241,0.106249,0.666534
6040174243,-8.651103,14.522529,-20.916885,0.671862,0.204826,0.530242
6040194204,-1.693806,18.966200,-27.548857,0.700527,0.205574,0.433684
6040214165,6.588113,14.365333,-25.693155,0.797216,0.298512,0.405159
6040234126,12.398778,6.952719,-26.717804,0.838899,0.414320,0.465858
6040254087,4.155073,4.020201,-26.983522,0.842998,0.433019,0.498045
6040274046,-12.449484,5.326041,-20.452738,0.815809,0.438478,0.460485
6040294008,-26.440092,6.564152,-13.199810,0.817022,0.368593,0.425228
6040313969,-36.710121,7.791321,-9.243552,0.871803,0.282907,0.429002
6040333930,-31.111410,1.458180,0.476092,0.903657,0.215459,0.414300
6040353890,-21.087973,-7.790128,-6.618598,0.865555,0.221298,0.463407
6040373852,-17.104921,2.797400,-14.643267,0.861184,0.229436,0.675277
6040393813,-3.638323,10.316886,-9.289824,0.911196,0.224744,0.775346
6040413774,6.478359,19.249788,-2.249538,1.031797,0.289490,0.744262
6040433735,1.053123,37.637451,7.480215,0.940156,0.279141,0.723809
6040453696,-3.796275,50.851288,13.128912,0.838180,0.266704,0.677523
6040473657,-2.792901,64.358986,15.388863,0.777977,0.295039,0.639256
6040493618,4.987586,77.095261,19.190245,0.743474,0.316204,0.601306
6040513579,5.828377,76.864853,23.162630,0.768778,0.450290,0.507692
6040533540,-16.790449,71.890686,24.772577,0.774599,0.526942,0.419943
6040553501,-58.598988,81.633583,34.440552,0.695194,0.429991,0.403775
6040573462,-80.419624,77.711075,57.203251,0.583817,0.230023,0.319592
6040593423,-62.171028,51.057442,68.027229,0.532575,0.096667,0.183424
6040613386,-41.501827,18.141577,69.715729,0.566438,0.077651,0.119065
6040633346,-44.747105,0.371620,84.758598,0.685349,0.087557,0.240557
6040653308,-60.292152,-16.908751,104.359276,0.638527,0.051644,0.412302
6040673269,-91.504578,-48.207981,116.529449,0.570593,-0.017378,0.499151
6040693230,-115.660873,-78.106232,129.396301,0.634780,-0.089682,0.405169
6040713191,-103.754242,-121.616722,139.328949,0.711601,-0.133353,0.344916
6040733152,-59.922756,-158.983337,135.302353,1.169426,-0.155607,0.346939
6040753113,-2.479526,-140.537140,107.786026,1.326809,-0.288193,0.430037
6040773074,32.744633,-123.463669,50.789360,0.969460,-0.030901,0.764757
6040793035,63.148430,-141.346207,6.860032,0.873788,0.475894,0.723285
6040812996,85.411903,-136.201691,-20.153101,1.208895,0.752013,0.622008
6040852917,45.017342,-70.470993,-162.337158,1.322927,1.539847,0.907874
6040872878,-140.722778,9.940640,-144.970398,1.157140,0.609766,0.909961
6040892839,-262.908142,8.171742,-103.280655,1.217354,-0.045054,0.407018
6040912800,-219.836731,8.914958,-100.194748,1.124634,-0.201864,0.042091
6040932761,-86.744041,-8.199567,-136.135742,0.675726,-0.174371,-0.049277
6040952722,12.968549,-29.010235,-157.177277,0.990698,0.392331,0.088545
6040972682,-31.868118,-38.626129,-158.168686,1.270854,1.046639,0.424266
6040992644,-219.868835,-15.277617,-149.823807,1.207567,1.184263,0.435330
6041012604,-389.366180,8.119122,-125.996170,1.137471,0.047008,0.006560
6041032565,-323.890259,18.789822,-104.795845,1.034046,-0.673322,-0.031436
6041052526,-130.932495,4.847311,-102.179276,0.742378,-0.807044,-0.058089
6041072488,35.318996,-15.741885,-119.191368,0.643851,-0.100634,0.172032
6041092449,42.780251,-20.330437,-127.591682,0.668691,0.488639,0.485741
6041112410,-19.527563,-17.618937,-122.420753,0.766801,0.708970,0.448599
6041132371,-78.039841,-11.462620,-118.881737,0.807131,0.457769,0.418304
6041152332,-108.963203,-11.449948,-108.806534,0.815523,0.201986,0.400246
6041172293,-92.526588,-16.820068,-87.106789,0.785937,0.057068,0.296901
6041192255,-59.398746,-26.593378,-65.337708,0.774273,0.114429,0.263876
6041212216,-42.648254,-36.677074,-49.936676,0.837984,0.261703,0.309984
6041232177,-48.733780,-40.231552,-38.453518,0.839711,0.363451,0.350602
6041252138,-68.478844,-40.513954,-28.773539,0.881137,0.425955,0.402425
6041272099,-84.128380,-33.885738,-25.025280,0.884067,0.271545,0.462650
6041292060,-76.055023,-27.493353,-17.684370,0.800733,0.084431,0.456902
6041312021,-46.278236,-31.315351,-6.628737,0.797229,0.137956,0.347506
6041331991,-36.208698,-31.488468,-12.401102,0.738117,0.192467,0.247547
6041351944,-16.042288,-28.449905,-8.551884,0.771421,0.156836,0.240181
6041371905,9.348598,-36.652508,14.304926,0.868496,0.144221,0.304181
6041391865,18.094484,-35.802380,31.089975,0.958051,0.298276,0.366133
6041431786,-1.661548,-24.309774,11.927736,0.894823,0.493940,0.411488
6041451747,-11.736863,-10.431438,14.499635,1.039447,0.561536,0.443175
6041471708,-26.512890,31.448006,13.302932,1.106669,0.534351,0.639908
6041491669,-54.840027,39.657875,11.982746,0.873374,0.539280,0.668877
6041511631,-82.320358,33.749207,2.588555,0.827643,0.684970,0.516492
6041531591,-107.626480,40.767567,3.496241,0.895828,0.787402,0.389580
6041551552,-141.516418,40.413464,8.021907,0.842685,0.648453,0.211399
6041571513,-153.458160,21.540951,16.920616,0.833794,0.439625,-0.027204
6041591474,-152.122726,-7.521029,28.549904,0.912588,0.236669,-0.038006
6041611435,-166.467804,-31.754040,4.024918,0.868524,0.220656,-0.020431
6041631396,-187.323563,-31.253256,-25.742117,0.833520,0.312172,-0.021843
6041651358,-210.717957,-29.496264,5.142744,0.842479,0.122948,0.061464
6041671318,-223.070053,-48.019035,50.984825,0.952537,-0.180013,0.096765
6041691279,-212.862854,-72.048767,75.545502,1.113517,-0.482488,0.120517
6041711240,-170.829224,-101.604637,68.928467,1.234119,-0.612329,0.166380
6041731202,-101.750145,-122.736526,47.490196,1.222445,-0.532814,0.206297
6041751162,-58.378052,-115.935692,11.687507,1.069099,-0.351855,0.301234
6041771123,-41.824825,-87.734123,-32.402004,0.955616,-0.028539,0.493374
6041791086,-59.644173,-83.306046,-67.097992,0.825765,0.300734,0.627382
6041811047,-89.799507,-74.456963,-112.504478,1.032068,0.511406,0.540842
6041831008,-100.740807,-25.102936,-157.088333,1.083745,0.465339,0.528976
6041850969,-86.481010,-7.378503,-199.826447,0.908673,0.463543,0.306791
6041870930,-121.876823,-23.018652,-254.207092,1.119258,1.012102,0.130380
6041890891,-226.709045,18.282532,-198.446014,1.660339,0.249014,0.017849
6041910852,-258.453979,-0.049717,-198.113708,1.302002,-0.043719,-0.375311
6041930813,-191.694031,-8.119125,-183.195526,0.840555,-0.221996,-0.124879
6041950774,-137.696960,-20.798201,-170.172028,0.932965,-0.313530,-0.021790
6041970735,-59.313377,-28.534397,-152.627930,1.046401,-0.096059,0.079719
6041990696,-37.954712,-34.577560,-136.322159,1.268186,0.375135,0.253092
6042010656,-108.542992,-14.340344,-123.455978,1.247810,0.541910,0.361173
6042030617,-178.320770,1.797054,-113.449814,1.080833,0.279412,0.337824
6042050578,-183.932037,7.573666,-97.524040,0.974372,-0.001131,0.192400
6042070539,-138.808884,6.204486,-79.029282,0.929696,-0.119118,0.129770
6042090500,-81.386398,1.472834,-64.215240,0.919672,-0.082142,0.139908
6042110461,-44.766006,-2.909122,-56.004955,0.859646,0.019182,0.213548
6042130422,-25.891972,-10.605915,-45.290730,0.827212,0.106085,0.290208
6042150383,-17.249109,-18.703890,-27.240387,0.860843,0.225986,0.339127
6042170344,-17.507174,-17.967760,-13.361310,0.909273,0.300774,0.452799
6042190305,-14.498145,-12.805851,-9.511249,0.820821,0.299635,0.442818
6042210266,-4.780079,-12.498076,-11.194800,0.722619,0.308056,0.476757
6042230227,12.134435,-4.763186,-14.224174,0.757484,0.417176,0.472968
6042250188,22.628038,18.139368,-10.641523,0.861265,0.616612,0.515406
6042270150,-5.036088,41.550133,-0.286955,0.819982,0.714618,0.599188
6042290110,-60.863094,48.822357,2.735599,0.731472,0.805589,0.534972
6042310071,-102.734756,43.440880,-5.614061,0.753870,1.026899,0.380413
6042330032,-146.157745,36.934723,-23.522234,0.897335,1.167900,0.227842
6042349993,-195.309357,34.849194,-34.359848,0.875150,0.853392,0.001107
6042369956,-229.283020,23.047005,-20.004242,0.833482,0.504479,-0.043206
6042389917,-243.217453,10.150120,-7.637507,0.808607,0.260215,-0.036839
6042409878,-231.250443,-14.471032,-20.819864,0.610737,0.091205,-0.066748
6042429839,-218.758286,-40.815773,-20.534298,0.630770,-0.096132,-0.002027
6042449800,-203.574615,-60.642467,14.426442,0.851757,-0.291416,0.065508
6042469761,-181.819046,-93.684731,53.132286,0.893533,-0.385206,0.140113
6042489722,-163.106354,-141.891388,68.111053,1.055868,-0.435132,0.098104
6042509683,-103.467079,-168.905685,52.448700,1.347208,-0.472648,0.076106
6042529644,-46.572952,-145.273880,4.780517,1.150120,-0.305687,0.208626
6042549605,-50.827503,-124.603691,-58.377975,0.910477,0.147411,0.546122
6042569566,-92.911224,-116.078186,-109.652061,0.922213,0.505662,0.648468
6042589527,-112.892029,-96.986343,-139.504684,1.090159,0.402976,0.551879
6042609487,-82.805595,-75.451515,-172.117477,1.214150,0.342069,0.602229
6042629447,-48.757057,-66.075073,-220.113052,1.117034,0.537764,0.675556
6042649409,-102.474411,-59.867672,-255.218735,1.355854,0.818356,0.333038
6042669370,-200.212738,-20.450783,-225.022888,1.509934,0.386291,-0.000544
6042689330,-227.845871,-10.100540,-189.702316,1.170591,-0.003730,0.029034
6042709292,-205.736908,-33.942905,-155.221161,0.896466,-0.259586,0.023553
6042729253,-157.223831,-40.761852,-137.428055,0.912218,-0.162888,0.083088
6042749214,-94.546562,-33.826950,-136.586182,1.101752,0.095668,0.225933
6042769175,-65.821693,-24.130909,-121.402824,1.101933,0.183593,0.302354
6042789136,-76.856529,-16.377165,-99.069710,0.986391,0.238119,0.331487
6042809097,-108.814575,-13.658338,-79.932632,0.957456,0.210263,0.270856
6042829058,-128.204453,-14.421623,-66.805176,0.887414,0.133881,0.207079
6042849019,-106.636673,-19.288719,-55.266621,0.826829,0.048811,0.177494
6042868980,-58.930492,-22.140675,-43.887554,0.799468,0.064233,0.199505
6042888941,-21.664616,-25.800350,-34.750305,0.807877,0.139981,0.294488
6042908902,-4.719418,-30.508696,-27.226875,0.853118,0.259917,0.378952
6042928863,-6.661971,-28.127026,-14.585306,0.885301,0.350820,0.476582
6042968787,-32.098305,3.358189,13.364401,0.789083,0.424698,0.624588
6042988748,-43.863472,22.715799,22.639156,0.818808,0.413999,0.660003
6043008709,-51.628578,29.472218,19.499329,0.841725,0.532915,0.559126
6043028670,-64.502930,28.388391,-6.558098,0.808749,0.756046,0.427744
6043048631,-76.566612,25.882212,-31.449539,0.730965,0.836827,0.277201
6043068592,-90.099258,19.017063,-36.751053,0.819082,0.891144,0.249607
6043088553,-137.704819,22.320786,-31.395807,0.926111,0.871538,0.258994
6043108514,-197.362762,27.056267,-21.506113,0.939886,0.708998,0.243242
6043128475,-228.652710,19.502005,-19.556673,0.905707,0.456501,0.158603
6043148436,-231.234726,7.232646,-24.935354,0.892478,0.101324,0.147423
6043168397,-214.940521,-10.356576,-36.337997,0.830649,-0.145021,0.227909
6043188356,-181.916992,-31.916563,-40.606098,0.823064,-0.247836,0.303032
6043208317,-132.712509,-52.152042,-41.255672,0.790686,-0.326979,0.381865
6043228278,-81.256500,-64.057861,-40.984356,0.756627,-0.233519,0.483156
6043248239,-41.659328,-72.024078,-32.994141,0.709451,-0.098210,0.558843
6043268201,-13.801912,-84.283142,-19.033087,0.737755,0.016332,0.542005
6043288162,8.042650,-99.781288,-14.270250,0.749346,0.072172,0.489762
6043308123,25.924946,-110.408585,-28.994623,0.766242,0.162062,0.395170
6043328084,22.466217,-116.752098,-53.776005,0.901950,0.373087,0.326270
6043348045,13.584597,-99.474892,-94.738098,0.946713,0.688991,0.477815
6043368006,18.816654,-112.598473,-179.300369,1.020012,1.650393,0.774752
6043387967,-95.190079,-68.622452,-176.714661,1.363057,0.869081,0.830084
6043407928,-181.947250,-39.684742,-162.837219,1.425699,0.295070,0.210396
6043427889,-231.427658,-4.186547,-121.403099,0.928524,-0.340773,0.207231
6043447850,-180.748840,-51.590893,-69.063477,0.654836,-0.353470,0.114818
6043467811,-97.389587,-65.393654,-50.112606,0.760441,-0.288141,0.306004
6043487772,-36.524929,-44.692829,-66.684647,0.800658,-0.023350,0.346660
6043507733,21.655907,-34.703060,-66.568024,0.811448,0.223290,0.268876
6043527694,12.468325,-30.161911,-46.720917,0.775956,0.423716,0.330142
6043547656,-45.838699,-38.913403,-36.404366,0.776350,0.558878,0.398326
6043567617,-92.947868,-41.659626,-28.495987,0.873715,0.399586,0.390428
6043587578,-94.467445,-35.166359,-16.504265,0.912273,0.260615,0.337955
6043607539,-61.586334,-33.929237,-10.917900,0.882634,0.159327,0.371306
6043627501,-29.488752,-39.306087,-12.951596,0.825821,0.192899,0.301964
6043647462,-13.907179,-44.143074,-18.554577,0.816087,0.368531,0.339340
6043667423,-18.774361,-40.760353,-19.448498,0.831033,0.475099,0.370833
6043687384,-22.776903,-41.117397,-18.057150,0.820672,0.414496,0.346685
6043707345,-26.876211,-37.605656,-10.342335,0.944520,0.340074,0.436320
6043727306,-18.557943,-14.627958,-6.880827,0.906067,0.346936,0.517913
6043747267,-32.094875,2.850479,-4.545840,0.800045,0.384455,0.534568
6043767244,-42.595081,12.286242,0.475086,0.833450,0.412256,0.507407
6043787188,-37.901447,21.626598,12.407192,1.023016,0.567667,0.552594
6043807149,-45.223576,42.450008,16.450155,1.029487,0.652474,0.637832
6043827110,-73.620483,44.548840,1.606952,0.900143,0.794433,0.544167
6043847071,-114.531654,43.197243,-31.927223,0.911666,1.119783,0.379054
6043867031,-187.960419,42.454330,-48.979317,0.719818,0.904653,0.120807
6043886992,-229.320526,2.764328,-46.582531,0.603413,0.579755,-0.168314
6043906954,-220.301102,-34.329800,-38.528404,0.868190,0.412937,-0.236853
6043946875,-259.219269,-9.829781,-48.863441,1.062232,0.152667,0.104802
6043966837,-298.691864,-22.259541,-63.979568,0.862260,-0.059500,0.193121
6043986798,-282.697968,-36.711582,-70.136024,0.851690,-0.260810,0.250316
6044006759,-219.471207,-52.285599,-71.376152,0.816213,-0.440880,0.300240
6044026720,-126.335472,-88.301308,-70.331497,0.896569,-0.428229,0.414332
6044046681,-17.770754,-117.742279,-57.929878,1.134181,-0.414616,0.518999
6044066642,45.130417,-108.059196,-55.345821,1.039819,-0.342637,0.451072
6044086603,71.476433,-92.795929,-62.529449,0.979572,0.032299,0.456027
6044106564,87.775742,-101.530273,-83.849487,0.899228,0.683703,0.542686
6044126526,16.567846,-103.642632,-150.352386,0.829416,1.281202,0.524698
6044146488,-147.468262,-14.715427,-171.139313,1.225401,1.002066,0.782035
6044166449,-240.074997,23.021042,-121.411621,1.298389,0.090728,0.587312
6044186410,-283.091736,14.556678,-91.608490,1.106004,-0.517410,0.251079
6044206371,-207.331451,-15.682550,-89.537018,0.721900,-0.479372,0.074947
6044226332,-53.761665,-35.518726,-96.422325,0.728876,-0.466673,0.084246
6044246293,58.666710,-25.603907,-70.223663,0.702722,-0.245190,0.317992
6044266254,91.256882,-27.107855,-36.621651,0.610002,0.115851,0.487584
6044286215,56.233612,-27.264664,-30.339281,0.706937,0.458057,0.528832
6044306176,-1.422910,-23.030855,-35.977753,0.898613,0.597162,0.498470
6044326137,-56.267738,-11.874000,-24.609400,0.935328,0.513788,0.380125
6044346107,-67.119347,-15.130939,-8.899959,0.834244,0.262571,0.267193
6044366057,-32.796700,-27.263096,-16.001112,0.722680,0.213874,0.245911
6044386019,6.355125,-30.413595,-22.872047,0.773823,0.285730,0.310053
6044405980,19.152802,-30.992619,-18.214525,0.816281,0.356659,0.261043
6044425941,9.323384,-33.932278,-9.469258,0.865416,0.414023,0.290053
6044445901,0.107429,-31.068880,-3.265497,0.881418,0.359122,0.326487
6044465863,-10.248564,-34.881454,1.699810,0.815905,0.348712,0.295496
6044485824,-31.135368,-28.249050,14.295192,1.006199,0.453196,0.383237
6044525746,-55.086937,3.777059,7.428780,0.957932,0.454689,0.482405
6044545707,-67.188972,6.767546,4.219533,0.943721,0.431987,0.486341
6044565668,-69.435272,12.989761,5.121130,1.070794,0.529862,0.549810
6044585629,-93.202026,29.857395,-17.432096,1.144795,0.753131,0.621998
6044605590,-147.136185,45.755566,-48.075218,0.989560,0.835115,0.523832
6044625551,-201.095963,40.707870,-53.368843,0.848249,0.664361,0.339819
6044645512,-213.056854,20.834024,-39.490047,0.906206,0.386773,0.177147
6044665473,-192.552994,10.027215,-48.581741,0.969062,0.220070,0.197513
6044685434,-171.628967,15.032213,-79.006729,0.812491,0.221331,0.303530
6044705396,-150.308014,9.915165,-78.647812,0.618871,0.123536,0.304222
6044725357,-110.064705,-5.988182,-45.864182,0.578022,-0.058908,0.287338
6044745318,-69.386711,-26.880196,-16.077065,0.615198,-0.173713,0.276606
6044765280,-45.691097,-49.969208,9.854923,0.704158,-0.201414,0.316391
6044785241,-43.511990,-63.535397,28.840748,0.787575,-0.183989,0.342495
6044805202,-46.107872,-68.000465,46.833336,0.890946,-0.173574,0.369535
6044825163,-41.963654,-68.971649,58.255363,0.941535,-0.121697,0.428439
6044845124,-32.218369,-76.333717,62.123642,1.018445,0.021617,0.461742
6044865085,-35.552151,-82.099243,63.881981,1.137998,0.170387,0.469420
6044885046,-44.779301,-78.466370,48.173927,1.117127,0.192900,0.390264
6044905007,-52.674404,-60.381886,16.867613,0.987389,0.267051,0.402424
6044924968,-52.372463,-50.082085,-15.166506,0.868603,0.371299,0.435418
6044944927,-50.434502,-41.089485,-51.724144,0.796410,0.386902,0.475453
6044964888,-51.182636,-34.036911,-96.674057,0.854096,0.474108,0.499852
6044984850,-31.950916,-30.359976,-166.021149,1.027565,0.992233,0.522411
6045004811,-93.488693,-17.920715,-219.315857,1.426252,0.971776,0.636692
6045024772,-208.293625,31.470142,-210.396133,1.565524,0.167292,0.355107
6045044733,-209.233170,48.852909,-179.043015,1.357516,-0.403648,0.015337
6045064694,-145.778030,5.449508,-140.001740,0.879560,-0.448727,-0.154872
6045084655,-29.876987,-34.160152,-135.271515,0.896159,-0.149185,0.119904
6045104616,25.793581,-3.869039,-137.235077,0.993104,-0.078244,0.440238
6045124577,33.945324,2.194442,-115.655685,0.922725,0.151570,0.403858
6045144538,1.830690,0.998031,-92.361877,0.870062,0.428514,0.401725
6045164499,-50.475502,0.818194,-87.161148,0.828143,0.495385,0.369810
6045184460,-78.660812,4.607441,-81.803177,0.822281,0.354926,0.408064
6045204421,-78.414139,8.438243,-67.388199,0.768585,0.130143,0.389726
6045224382,-48.725830,5.567597,-56.106606,0.677442,0.082725,0.346032
6045244343,-11.607024,-0.386240,-53.478127,0.610713,0.231674,0.345920
6045264304,10.658382,-10.947312,-54.845928,0.695358,0.525580,0.376351
6045284266,7.830920,-17.385889,-57.934540,0.766595,0.799837,0.402487
6045304227,-20.426882,-27.171902,-75.506889,0.737780,0.989891,0.374441
6045324189,-59.853149,-26.581800,-94.194176,0.748700,0.998364,0.395993
6045344149,-106.489571,-13.258747,-100.553566,0.766047,0.861513,0.486154
6045364111,-149.071228,-0.148932,-96.888809,0.853757,0.632317,0.477493
6045384072,-150.894150,7.919340,-73.698479,0.998010,0.297407,0.372253
6045404032,-112.710648,-10.404489,-60.271030,0.821992,0.106703,0.297751
6045423994,-90.691528,-29.773306,-43.829319,0.690430,0.032614,0.303746
6045443955,-71.008965,-42.063457,-9.252031,0.648288,-0.037795,0.345013
6045463916,-53.312614,-45.534019,24.903269,0.699363,-0.098675,0.426444
6045483877,-39.357841,-51.958000,44.274036,0.826398,-0.097065,0.471182
6045503838,-26.031366,-61.855492,44.795822,0.912924,-0.074150,0.526848
6045523797,16.373669,-59.686813,18.377363,1.010730,0.244072,0.644360
6045543759,53.674820,-37.412876,-47.279724,0.990606,0.938742,1.010063
6045563719,-21.789795,11.962509,-115.543304,0.606178,1.255718,1.210906
6045583681,-88.877876,29.342546,-118.599068,0.410410,0.785642,0.690590
6045603642,-77.288704,44.377323,-55.196476,0.653866,0.365266,0.710409
6045623602,-42.920326,10.350424,1.660852,0.703782,-0.086806,0.364681
6045643564,0.384055,-21.832867,-12.317374,0.507437,-0.091813,0.187598
6045663525,4.218067,-24.737242,-24.724228,0.487280,0.252839,0.425447
6045683486,-18.400852,-7.741622,-23.526588,0.555080,0.508776,0.663721
6045703447,-25.536144,-8.708429,-16.475391,0.611854,0.433894,0.717803
6045723408,-29.325953,-18.409912,-9.992059,0.809439,0.420722,0.734027
6045743369,-37.672600,-14.479278,-4.917843,0.868600,0.305439,0.780801
6045763330,-30.198776,-7.872348,2.268974,0.849413,0.066096,0.798302
6045783291,7.637751,-12.954290,8.473134,0.796514,0.014802,0.796351
6045803252,63.544571,-15.591225,18.793690,0.737302,0.104045,0.721773
6045823213,83.124725,-5.996860,21.895000,0.776077,0.294520,0.627301
6045843174,69.048813,9.794777,24.116886,0.827879,0.396806,0.516117
6045863137,55.684498,21.958422,27.242096,0.822483,0.383694,0.417431
6045883098,57.061474,25.668659,28.941132,0.788844,0.447978,0.444537
6045903059,67.915070,12.872107,28.533167,0.772034,0.486006,0.447157
6045923020,71.350334,6.227046,23.484726,0.824364,0.534449,0.377934
6045942981,62.312347,16.159575,16.973835,0.778647,0.642522,0.438340
6045962942,42.376770,20.773363,14.381375,0.714935,0.656640,0.438671
6045982903,26.529648,18.989384,17.246006,0.720862,0.598982,0.378803
6046002864,20.380951,16.776196,18.739286,0.700333,0.556867,0.412172
6046022825,15.876089,12.177217,16.370966,0.702448,0.510065,0.439385
6046042786,17.655476,2.125536,12.657879,0.749943,0.470851,0.414582
6046062747,24.919212,-4.722740,7.182205,0.760387,0.470881,0.405394
6046082708,27.165272,-0.287155,4.154823,0.696381,0.515473,0.500379
6046102668,17.411432,4.727092,5.078952,0.660774,0.492589,0.520317
6046122629,9.340181,5.394548,10.257618,0.692642,0.445613,0.494443
6046142590,9.301153,6.372826,16.357914,0.708708,0.451748,0.533794
6046162551,12.731135,6.178902,19.898613,0.712341,0.467848,0.543341
6046182512,13.260891,7.484660,23.366774,0.709719,0.467894,0.569517
6046202473,8.946638,7.264779,28.164532,0.708028,0.437004,0.588114
6046222434,9.293540,6.746128,31.725885,0.750021,0.437059,0.565662
6046242395,11.511188,5.315351,34.710403,0.794914,0.426350,0.505285
6046262356,19.715170,2.917348,38.938042,0.743529,0.455672,0.484831
6046282317,15.803192,3.421255,41.261898,0.714072,0.520054,0.446902
6046302278,-0.177493,2.227064,42.235443,0.760239,0.516528,0.412475
6046322239,-8.426497,-4.155192,43.394081,0.773587,0.449326,0.426387
6046342200,-9.322880,-9.414954,43.383797,0.746430,0.373618,0.488960
6046362161,-24.845577,-11.394303,51.691402,0.766235,0.312049,0.457458
6046382122,-38.857281,-9.999468,68.726776,0.800014,0.235841,0.448034
6046402083,-38.845707,-8.197354,76.146568,0.721148,0.113149,0.412446
6046422044,-17.991295,-11.554470,73.586983,0.674766,0.074264,0.474337
6046442005,8.395594,-13.200163,72.401611,0.719419,0.141831,0.482973
6046461968,27.393942,-11.618066,72.462036,0.878337,0.190218,0.547745
6046481929,37.537926,-3.832566,72.483917,1.004521,0.215738,0.542266
6046501890,41.067497,8.817999,72.309715,0.983078,0.254971,0.512090
6046521851,30.559534,17.122910,74.683586,0.919429,0.276993,0.474866
6046541812,22.661360,20.975273,83.129112,0.861585,0.208567,0.410454
6046561773,20.882774,20.623701,90.743523,0.842155,0.175645,0.426755
6046581742,20.439140,17.593060,91.885002,0.871536,0.212988,0.384156
6046601695,24.118114,12.243151,84.604149,0.856931,0.264859,0.371473
6046621656,24.053373,6.144238,73.327583,0.791778,0.320345,0.377565
6046641617,15.236451,1.183064,61.785141,0.837747,0.353586,0.408187
6046661579,10.812223,5.728483,49.878708,0.974609,0.369638,0.434202
6046681538,17.273893,15.686770,31.693361,1.054712,0.445419,0.538695
6046701499,18.616617,28.431244,10.557421,0.920795,0.456942,0.591689
6046721460,7.253870,31.544140,-6.173896,0.850513,0.437583,0.492280
6046741421,-2.423246,25.414284,-10.325353,0.742182,0.399831,0.376173
6046761382,-6.422651,7.571001,-25.232687,0.684546,0.499837,0.354992
6046781343,0.941079,3.258164,-55.407761,0.776315,0.659675,0.391211
6046801304,-6.725110,5.239111,-84.526260,0.820511,0.740354,0.450892
6046821265,-28.683798,6.312956,-107.178940,0.908710,0.761616,0.438137
6046841226,-38.361343,5.571434,-128.141403,0.949856,0.733960,0.434610
6046861187,-45.094124,8.212477,-152.780045,1.063890,0.708857,0.495847
6046881148,-60.383858,14.090310,-173.566055,1.083987,0.658212,0.583918
6046901109,-70.794067,17.036976,-180.731308,1.059824,0.582828,0.658288
6046921070,-72.523857,20.595650,-183.679459,0.979113,0.432901,0.723462
6046941031,-65.973991,20.347662,-186.905701,0.908738,0.338284,0.724086
6046960992,-52.601257,19.780943,-186.541916,0.842838,0.317921,0.683508
6046980953,-42.882225,24.898190,-179.132950,0.819586,0.264702,0.682860
6047000914,-39.626537,31.391127,-159.756119,0.704653,0.205363,0.677444
6047020875,-31.698957,30.846409,-138.296616,0.608047,0.141586,0.673621
6047040838,-14.908808,29.492006,-112.116356,0.554192,0.093114,0.665050
6047060799,4.371914,22.047157,-85.220520,0.483561,0.047729,0.588370
6047080760,16.048409,7.826087,-55.410202,0.419607,0.017039,0.501828
6047100721,15.030817,-6.008874,-16.421261,0.337562,-0.083589,0.368931
6047120682,19.781990,-39.808495,19.535278,0.197511,-0.196536,0.272597
6047140643,18.607197,-88.733185,46.675941,0.193123,-0.152246,0.227353
6047160604,89.132812,-62.169609,67.633934,0.747034,0.601569,1.016492
6047180566,82.494736,-48.463062,77.184525,0.621452,1.079186,0.835624
6047200527,45.657280,-29.355021,36.225975,0.733088,1.481418,0.553344
6047220487,1.263386,-23.395290,28.776937,0.946136,0.897360,0.497703
6047240449,-44.149433,-25.825928,48.765205,0.544294,0.304704,0.344871
6047260414,-58.711227,-50.096512,61.754017,0.351733,0.226911,0.489770
6047280369,-78.565575,-43.750778,69.602264,0.622769,0.326355,0.582170
6047300330,-81.594879,-30.603569,86.550117,0.783199,0.135194,0.646432
6047320292,-68.208839,-30.094433,99.988907,0.742679,-0.158645,0.514911
6047340253,-28.422861,-38.322227,118.081635,0.660601,-0.192340,0.464967
6047360214,2.524725,-48.936661,141.666229,0.718181,-0.073524,0.475186
6047380175,8.344516,-50.566631,172.197327,0.881419,-0.019514,0.486128
6047400135,2.478092,-49.566048,206.465424,1.039386,-0.008142,0.461794
6047420096,-9.446090,-49.301579,231.933624,1.152717,-0.054924,0.438504
6047440057,-20.914593,-50.006565,245.034042,1.229949,-0.086930,0.480238
6047460018,-19.916985,-44.914948,256.079895,1.327034,-0.116280,0.468841
6047479979,-22.095226,-33.570492,266.658142,1.514557,-0.038944,0.494598
6047499941,-56.310234,-40.572132,236.387650,1.252875,0.376583,0.478348
6047519901,-39.691418,-50.579506,108.712563,0.834860,0.929664,0.564340
6047539862,-41.080715,-22.938944,-19.313576,1.206239,1.264960,0.843671
6047559824,-46.969151,27.409445,-68.124710,1.062907,0.795169,0.859391
6047579785,-21.722485,51.433479,-103.436249,1.219650,0.443460,0.776692
6047599746,-4.025148,73.895813,-148.241974,1.184044,0.220689,0.597747
6047619708,-6.948885,86.670845,-209.927109,1.287478,0.301627,0.611249
6047639669,-25.652420,107.623978,-246.236923,1.242010,0.230547,0.573151
6047659630,-26.541580,112.470985,-253.844101,1.148815,-0.022361,0.455838
6047679591,8.625620,104.972534,-258.467651,1.162719,-0.228011,0.370130
6047699553,53.559448,99.148399,-265.861908,1.170111,-0.245080,0.370545
6047719513,74.134285,86.986649,-271.703094,1.017451,-0.229801,0.424682
6047739474,69.790382,57.505680,-258.118683,0.737765,-0.158632,0.487411
6047759436,48.592869,34.275764,-222.347168,0.592409,-0.175490,0.462438
6047779397,26.086817,33.792469,-154.624619,0.602019,-0.367519,0.428789
6047799358,28.015331,29.136299,-65.989731,0.421291,-0.615732,0.135137
6047819319,86.184029,-31.117163,11.059438,-0.109401,-0.763202,-0.299079
6047839280,133.541412,-51.999626,101.287918,0.218542,-0.458581,0.432262
6047859239,175.417236,43.999985,101.085495,1.052096,1.391605,1.370752
6047879200,114.628586,99.397903,51.979149,1.317299,1.485080,1.585622
6047899162,-21.290714,48.910019,18.348640,1.070486,0.832850,0.295331
6047919122,89.091103,36.746357,63.197952,0.681148,0.493109,0.091052
6047939084,104.030144,0.936144,87.480698,0.334904,0.341575,0.181615
6047959045,40.497833,20.914427,81.214890,0.431933,0.630680,0.253057
6047979006,25.305689,26.745075,82.393059,0.648359,0.642607,0.376668
6047998967,-5.220014,18.474920,96.329773,0.717649,0.576824,0.340679
6048018928,-14.767965,-5.929178,122.677536,0.712983,0.553636,0.318117
6048038889,-14.093019,-27.579271,135.583755,0.769445,0.382446,0.331700
6048058850,-19.924774,-29.776207,134.330688,0.831351,0.300882,0.336448
6048078811,-16.406242,-32.196404,146.511765,0.914959,0.280320,0.357168
6048098772,-23.508015,-44.980461,169.063141,1.030055,0.259220,0.357075
6048118733,-26.615343,-66.812904,183.604050,1.073855,0.204901,0.403297
6048138694,-28.434683,-78.950920,187.972488,1.127683,0.121944,0.443889
6048158655,-36.484055,-76.144844,205.291077,1.168027,0.082996,0.482056
6048178616,-49.658421,-70.293388,231.240158,1.164594,0.026051,0.557779
6048198578,-64.803856,-55.095818,253.912827,1.166726,-0.082215,0.615139
6048238500,-56.452065,10.045552,265.940582,1.283234,-0.019024,0.468356
6048258462,-76.594101,-20.373468,200.559479,0.696633,0.614708,0.529719
6048278423,-48.688313,-48.022392,61.541172,0.491071,1.142518,0.672928
6048298384,-12.999022,5.560568,-48.270096,0.875301,1.079076,0.958298
6048318345,-50.244850,53.756897,-78.845619,1.076182,0.535862,0.896027
6048338306,-61.220272,69.663177,-94.016174,1.078421,0.010020,0.681216
6048358267,-46.396824,73.219849,-124.474350,1.196486,-0.168063,0.502900
6048378228,-23.021273,86.701050,-152.649872,1.209680,-0.022108,0.454036
6048398189,-22.618818,91.736992,-181.381973,1.208598,0.077697,0.465403
6048418150,-39.049099,98.810013,-199.608322,1.199624,0.028930,0.468496
6048458071,-10.902133,104.453003,-226.549606,1.004787,-0.154194,0.401720
6048478032,25.421028,90.136650,-238.794098,0.958079,-0.150495,0.397798
6048497993,48.073479,71.565865,-240.406708,0.974952,-0.033639,0.363229
6048517954,62.392170,54.240715,-237.161102,0.978246,0.017361,0.390774
6048537915,51.849304,43.037949,-227.836639,0.903847,0.063536,0.443655
6048557876,31.357098,32.311653,-205.446442,0.781084,0.117840,0.496062
6048577837,4.053011,19.624517,-174.393539,0.717801,0.070918,0.518526
6048597798,-12.401881,9.454647,-137.464691,0.684407,-0.069263,0.531410
6048617759,-14.345593,-0.338718,-102.029114,0.577773,-0.237540,0.535398
6048637720,22.826172,-30.211113,-62.222141,0.345751,-0.276114,0.387442
6048657681,85.528252,-83.524124,-17.043892,0.197021,-0.191426,0.261122
6048677642,129.332870,-73.692963,28.630230,0.482027,0.010511,0.484959
6048697603,172.925262,28.971354,55.100311,1.105173,0.683937,1.184074
6048717564,95.478554,34.421021,55.352314,0.908629,0.782339,1.147532
6048737525,8.828685,24.316643,17.498304,0.819307,0.674605,0.448122
6048757486,55.131538,48.258785,20.104864,0.754274,0.557653,0.410872
6048777447,18.266308,46.073864,54.768574,0.506083,0.323699,0.429640
6048797410,25.494514,28.994310,78.026398,0.511078,0.452371,0.174927
6048817371,51.452888,8.959525,91.021370,0.558063,0.459998,0.244962
6048837332,13.263700,-7.431609,89.614273,0.759036,0.583387,0.309004
6048857293,-30.865248,-9.052767,105.765335,0.782818,0.622619,0.422898
6048877254,-55.312130,-16.558151,123.902756,0.738830,0.433419,0.470266
6048897215,-36.528358,-22.514681,137.611908,0.796385,0.308912,0.531641
6048917176,-15.674147,-31.341129,156.940750,0.896653,0.245886,0.507193
6048937137,-12.554089,-30.894224,187.330826,0.948112,0.250485,0.460254
6048957098,-28.115961,-36.822021,217.418213,0.964869,0.239735,0.426954
6048977059,-52.963161,-46.128010,243.320969,1.034979,0.161022,0.427343
6048997020,-77.068733,-48.202740,269.890808,1.181599,0.055496,0.488402
6049016982,-83.974617,-30.946941,292.959564,1.415072,-0.197070,0.545174
6049036941,-66.628716,-4.619399,278.641113,1.315982,-0.162748,0.559459
6049056902,-46.703217,-10.463604,225.551895,0.785229,0.246168,0.646746
6049076863,-47.111862,-28.590353,98.629562,0.475893,0.961722,0.886693
6049096824,-30.631924,7.659938,-15.727395,0.802145,1.048993,0.981489
6049116785,-44.118534,43.458324,-54.857807,0.977048,0.675333,1.020686
6049136746,-52.100430,66.269691,-72.912766,1.210775,0.282040,0.809133
6049156707,-44.798714,79.072502,-100.920288,1.246683,0.087965,0.666452
6049176668,-33.282967,87.097389,-134.560852,1.204280,0.176276,0.577264
6049196629,-32.040813,99.041298,-164.400970,1.126246,0.210852,0.530464
6049216590,-42.922180,105.825668,-184.976440,1.046240,0.056250,0.468969
6049236551,-36.346390,108.368073,-199.757843,0.948818,-0.132037,0.379114
6049256512,-2.260595,98.591293,-219.575592,0.913986,-0.195513,0.346368
6049276474,34.187546,77.776932,-233.320236,0.919910,-0.218662,0.327733
6049296435,62.528984,53.356575,-237.918274,0.917591,-0.127848,0.326385
6049316396,66.957703,34.924561,-241.063660,0.915723,-0.064928,0.369758
6049336357,52.189297,18.230677,-231.077072,0.880566,0.009130,0.455046
6049356318,22.813923,6.330563,-208.987701,0.788742,0.047723,0.461927
6049376280,1.455947,-4.597741,-178.790543,0.772068,-0.021608,0.489256
6049396241,-7.812884,-12.277835,-140.323807,0.722120,-0.133705,0.527512
6049416202,-4.554232,-17.447948,-96.931824,0.556049,-0.243730,0.556774
6049436164,12.181478,-28.304729,-53.919399,0.472457,-0.358076,0.541633
6049456125,53.984837,-45.277245,-17.121807,0.426916,-0.320090,0.465050
6049476086,85.878662,-65.988968,5.205982,0.354322,-0.076720,0.421668
6049496047,88.609238,-52.313290,29.344070,0.749411,0.308030,0.742968
6049516015,105.504471,25.643103,51.474838,1.251773,0.788442,1.472625
6049535969,35.314312,-22.256777,66.447754,0.324796,0.277480,1.007955
6049555930,23.972511,-21.835920,61.089466,0.686567,0.394642,0.137020
6049575891,66.224106,31.227306,92.076645,0.742756,0.435060,0.317782
6049595852,78.231125,10.879107,127.376785,0.724929,0.472265,0.375399
6049615814,45.125675,1.975651,147.491287,0.856071,0.553441,0.343965
6049635772,10.891438,-2.840228,160.143158,0.865354,0.443555,0.283012
6049655733,-0.939180,-26.549652,180.418381,0.847091,0.372806,0.181027
6049675694,-2.424009,-58.684307,198.736816,0.877782,0.309560,0.260210
6049695655,-17.105356,-58.089790,210.056351,0.965807,0.164000,0.339426
6049715616,-15.259226,-50.218437,224.394684,0.992390,0.032699,0.386685
6049735578,-0.581209,-46.793938,237.438721,1.101541,-0.022455,0.390956
6049755539,9.636642,-38.646263,254.976654,1.283371,0.006285,0.452464
6049775500,4.483454,-16.338406,266.947906,1.576148,0.018775,0.388604
6049795460,-10.047504,1.868363,244.271439,1.419676,0.199390,0.457811
6049815422,-63.876911,-24.332071,184.791107,1.023738,0.824760,0.685535
6049835383,-69.054916,-39.514469,73.528320,1.117216,1.427310,0.724550
6049855344,-41.017605,1.961890,0.753769,1.122978,1.190372,0.961837
6049875305,-59.175072,47.796658,-27.986814,1.066918,0.637036,0.989178
6049895266,-77.405846,63.948040,-53.768948,0.960966,0.206703,0.882459
6049915227,-75.501648,77.203583,-80.777992,1.066850,0.032964,0.607050
6049935188,-47.232471,97.285088,-116.650444,1.149260,-0.058121,0.447417
6049955149,-26.703436,110.095131,-150.275970,1.197188,-0.138986,0.384329
6049975111,-20.949312,112.860245,-176.573563,1.117377,-0.162660,0.362400
6049995072,-17.037701,104.420418,-195.923798,1.047567,-0.128984,0.340716
6050015034,-1.724785,100.878830,-208.208298,1.041291,-0.093115,0.327538
6050034994,21.067982,90.866959,-207.928253,1.033350,-0.061065,0.362837
6050054956,23.824690,72.430931,-208.172409,1.014788,-0.026082,0.392338
6050074917,17.531437,58.591278,-213.720383,0.935752,-0.027167,0.380252
6050094878,20.012699,42.564312,-211.479706,0.817448,-0.025134,0.398265
6050114839,24.630320,22.873449,-193.744110,0.757508,0.018513,0.412751
6050134800,27.143877,4.633543,-168.830460,0.767252,0.027141,0.450306
6050154761,19.655294,-9.532192,-149.458252,0.720549,-0.007610,0.446467
6050174722,11.599825,-18.848946,-124.919220,0.660635,-0.033409,0.442512
6050194683,12.691421,-30.304108,-94.153786,0.604531,-0.036724,0.468310
6050214650,16.368780,-38.200573,-63.263699,0.557103,-0.036886,0.467170
6050234603,30.185736,-39.525177,-30.801687,0.513676,-0.061828,0.496195
6050254565,50.924294,-36.282616,-0.365175,0.495762,-0.079099,0.539585
6050274526,81.706078,-37.615982,24.472431,0.445540,-0.001759,0.552605
6050294487,111.380707,-49.162392,32.685650,0.439748,0.307601,0.581215
6050314448,107.086258,-38.850288,40.867794,0.796215,0.722864,0.723736
6050334409,48.831993,18.923668,83.954834,1.168928,0.583557,0.903868
6050354370,3.776287,27.809212,115.827568,0.902642,0.125049,0.839382
6050374331,-0.637191,-18.766478,111.048134,0.662119,-0.019585,0.524997
6050394292,62.045265,-20.895906,116.024612,0.687161,0.271793,0.327542
6050414253,86.063667,-11.185526,127.101707,0.936447,0.433549,0.295589
6050434214,87.180603,9.002779,138.793274,1.085457,0.445112,0.284200
6050454175,85.134766,13.734982,147.810837,1.008842,0.442773,0.262709
6050474136,76.599312,8.347925,159.288651,0.887388,0.479139,0.270357
6050494097,45.797447,8.595643,172.968842,1.010573,0.558300,0.338068
6050514058,-7.594903,23.765827,178.082336,1.080340,0.564472,0.411823
6050534019,-50.308342,21.748999,173.785187,0.985975,0.579579,0.470583
6050553980,-68.786522,11.271366,156.830582,0.861804,0.606072,0.422705
6050573941,-52.508308,-0.790471,122.135307,0.770583,0.574968,0.381839
6050593904,-24.152086,-1.918562,71.609322,0.854428,0.617319,0.478025
6050613865,-4.201984,15.034828,25.119238,0.994533,0.666398,0.595530
6050633826,-2.705792,34.272758,-3.865758,1.012415,0.735860,0.708730
6050653787,-31.682692,44.175755,-26.403027,1.043194,0.636963,0.724573
6050673748,-62.187012,52.745247,-48.897816,1.045795,0.447399,0.686657
6050693709,-75.118340,59.774605,-71.909019,1.049584,0.287605,0.665122
6050713670,-67.468414,62.954685,-93.078125,0.981647,0.175256,0.629746
6050733631,-45.496536,62.752876,-109.292091,0.877879,0.127941,0.584089
6050753592,-16.839512,60.495197,-119.955811,0.784865,0.140820,0.522436
6050773553,12.239077,55.552181,-130.348480,0.709915,0.180038,0.484449
6050793514,31.497309,50.101749,-140.165680,0.723763,0.248611,0.484126
6050813475,33.929794,43.970482,-148.451294,0.783764,0.295607,0.489283
6050833435,27.007406,35.747570,-152.856171,0.821454,0.312499,0.477587
6050853396,17.246319,24.198666,-151.763092,0.776447,0.317637,0.492522
6050873357,4.076886,11.740253,-143.242325,0.718208,0.306236,0.510854
6050893318,-11.182632,-0.580492,-130.114304,0.666986,0.268742,0.552509
6050913279,-20.142044,-12.594567,-113.330582,0.621015,0.190000,0.562061
6050933240,-20.972450,-26.248417,-93.557678,0.588806,0.128920,0.564475
6050953201,-19.654184,-38.337616,-71.359009,0.602595,0.085520,0.565256
6050973162,-15.895336,-42.203899,-48.079266,0.648796,0.042957,0.577910
6050993123,-9.670585,-39.723511,-22.599926,0.647364,-0.044183,0.604171
6051013084,5.126393,-35.410187,5.212180,0.597261,-0.153359,0.593294
6051033046,34.375496,-39.751659,33.092571,0.515046,-0.175968,0.530507
6051053007,60.515167,-51.133350,60.783470,0.439875,-0.107721,0.450972
6051072968,78.400024,-58.724586,88.297226,0.518709,0.057616,0.468651
6051092929,97.289383,-43.758472,114.209579,0.821507,0.338895,0.598267
6051112890,85.930580,-20.834648,142.696732,1.124394,0.349380,0.696898
6051132851,35.564320,-18.844978,148.242157,0.958434,0.323109,0.591658
6051152812,6.708937,-28.471514,133.376999,0.906768,0.455553,0.492835
6051172773,1.449129,-20.547310,132.528122,0.970131,0.463684,0.465817
6051192735,-11.751967,-6.065400,135.301300,0.978628,0.326054,0.452837
6051212696,-5.424381,-7.716357,141.198883,1.049616,0.209085,0.373827
6051232657,27.046070,-10.868942,152.839218,1.092628,0.201450,0.329665
6051252618,57.175938,0.864771,158.734741,1.155471,0.160831,0.393860
6051272580,61.712688,13.673431,148.067459,1.079831,0.305468,0.608834
6051292540,16.084690,7.755197,120.307663,0.995390,0.773974,0.642411
6051312501,-43.877705,-1.392803,86.092262,0.958646,0.812804,0.486660
6051332463,-59.574268,1.111209,39.688110,0.957258,0.808036,0.414409
6051352423,-38.687313,10.748083,-1.847240,0.939184,0.694747,0.468294
6051372384,-15.279219,8.301808,-31.342163,0.859424,0.603669,0.493001
6051392346,-14.430923,8.909550,-56.666134,0.959732,0.543527,0.429533
6051412307,-16.937090,18.830770,-77.264137,0.999980,0.480826,0.465719
6051432266,-24.727562,26.630522,-102.301048,0.972688,0.433100,0.551963
6051452227,-55.796108,36.605019,-126.628853,0.953379,0.405892,0.586111
6051472188,-90.310814,45.306866,-138.891373,0.911974,0.343325,0.598488
6051492150,-98.758804,51.286652,-139.808609,0.936903,0.245343,0.567040
6051512111,-83.697334,56.787670,-137.262543,0.999229,0.092308,0.539455
6051532072,-55.304085,59.053482,-137.764069,0.977520,0.005364,0.514893
6051552033,-25.413946,55.097752,-140.019684,0.834181,-0.004034,0.547841
6051571994,0.859539,41.715076,-135.139130,0.699517,0.050437,0.565878
6051591955,17.861313,27.584137,-120.049980,0.642301,0.065675,0.554107
6051611916,25.662886,15.489253,-97.943703,0.641243,0.082942,0.534409
6051631877,26.108824,10.100158,-77.040527,0.672393,0.059734,0.504764
6051651838,22.581533,7.212278,-55.289032,0.613097,0.044152,0.491274
6051671799,20.798553,-3.524169,-30.924458,0.553882,0.085102,0.477224
6051691760,18.742197,-20.332916,-8.760232,0.578418,0.115294,0.420812
6051711721,16.696907,-31.664564,14.192735,0.617577,0.098365,0.378644
6051731682,22.533661,-42.007736,38.232784,0.625253,0.088308,0.442328
6051751643,25.664141,-48.283493,68.686050,0.598158,0.040714,0.456908
6051771604,33.335526,-65.988342,99.330780,0.593311,0.023654,0.399456
6051791567,35.364494,-76.223938,129.194336,0.861066,0.068225,0.379597
6051811528,41.488060,-72.589233,146.179077,0.957459,0.099819,0.476371
6051831489,56.706314,-65.004013,122.850235,0.965434,0.268804,0.600325
6051851449,12.590286,-67.799881,88.343765,1.076237,0.498137,0.566092
6051871411,-6.369583,-55.699951,73.676178,1.123400,0.455504,0.450094
6051891372,21.562042,-27.756313,85.520676,0.982993,0.292498,0.598165
6051911333,21.644194,-12.849546,97.497528,0.860860,0.353195,0.665503
6051931294,3.119283,-1.335708,102.078995,0.931544,0.399868,0.581439
6051951255,-10.496683,6.815625,110.096947,1.034934,0.366673,0.479340
6051971216,-16.097555,9.171894,115.675911,1.026226,0.272117,0.353606
6051991177,-3.907594,4.014736,104.332199,0.886392,0.170089,0.283051
6052031098,18.831553,-12.381871,12.129417,1.089498,1.050211,0.521596
6052051058,-13.026945,7.544631,-48.720928,0.981578,1.046156,0.634238
6052071019,-41.995739,7.113088,-82.262543,0.841646,0.822404,0.507122
6052090981,-38.414314,8.013607,-97.628204,1.023124,0.672195,0.446254
6052110942,-58.334438,28.182108,-121.463852,1.089423,0.518899,0.496968
6052130903,-90.594055,46.895775,-147.121613,1.015227,0.423424,0.529590
6052150864,-104.714676,53.092712,-158.683090,1.024495,0.330955,0.528360
6052170825,-101.706619,57.190151,-162.253876,1.062476,0.232675,0.560444
6052190786,-90.678810,65.052719,-164.088593,1.028619,0.100778,0.611157
6052210747,-69.272758,63.838055,-155.546265,0.919020,0.077159,0.584310
6052230708,-44.252571,54.607208,-149.112625,0.871277,0.086934,0.547578
6052250669,-29.972775,53.468014,-144.593567,0.845282,0.101492,0.536299
6052270630,-26.263784,49.500519,-133.843948,0.732742,0.066197,0.504581
6052290591,-22.059391,36.468197,-114.662498,0.654546,0.014301,0.468391
6052310552,-20.564478,22.106495,-91.511154,0.640604,-0.021897,0.432304
6052330513,-17.840282,4.597521,-62.074619,0.534819,-0.086169,0.350736
6052350474,-23.573029,-44.392982,-18.259802,0.260301,-0.354893,0.017818
6052370435,13.877996,-108.896439,37.901909,0.090823,-0.690560,-0.262084
6052390398,66.564995,-144.645325,110.798058,0.515168,-0.505499,-0.304594
6052410359,112.650093,-145.901505,190.496857,1.152559,-0.003826,0.078152
6052430320,190.006226,-115.097191,145.610153,1.511765,1.079645,0.707703
6052450281,166.591461,-83.635483,-23.037104,1.431922,2.399214,1.382704
6052470242,-97.163391,-103.464966,-5.133237,0.938521,0.734917,0.404973
6052490203,-80.604004,-56.773300,31.075960,0.741552,0.302792,0.048745
6052510164,-64.766891,-44.120697,70.179672,0.348362,0.435041,0.889703
6052530125,-60.638283,-56.374870,56.581055,0.992227,-0.218179,0.300094
6052550086,22.202705,-51.490204,15.561115,1.240918,-0.075758,0.194778
6052570047,72.772430,-48.193974,6.813336,0.958779,0.489045,0.401723
6052590008,51.162426,-27.047174,9.055447,0.787734,0.762746,0.610284
6052609969,2.013216,-20.942009,-1.680558,0.816132,0.730201,0.505706
6052629928,-16.209278,-18.024652,-9.357315,0.866921,0.694244,0.301700
6052649890,-32.878845,-23.689514,-16.492445,0.812765,0.715242,0.213489
6052669851,-51.249107,-30.738899,-19.001587,0.721300,0.681812,0.175024
6052689812,-75.647514,-42.016037,-23.224358,0.717099,0.658877,0.244803
6052709773,-87.466400,-45.911068,-31.264423,0.797808,0.553138,0.331701
6052729734,-90.937317,-41.553375,-40.480774,0.897951,0.521888,0.354265
6052749695,-93.174728,-34.334526,-50.661179,0.861145,0.480242,0.364653
6052769656,-99.115730,-36.398674,-57.880070,0.805439,0.570932,0.260886
6052789617,-111.825104,-42.204746,-60.896038,0.865397,0.644380,0.185110
6052809578,-129.524124,-43.019859,-63.214951,0.870818,0.588905,0.249497
6052829539,-135.567810,-39.981743,-63.383667,0.814934,0.502961,0.325188
6052849500,-132.363846,-38.316132,-62.017059,0.834430,0.461575,0.225236
6052869461,-126.692459,-38.445496,-64.381203,0.864359,0.479332,0.155194
6052889422,-120.612724,-37.332348,-68.423103,0.844575,0.518430,0.216568
6052909383,-129.722336,-42.941162,-69.742615,0.940036,0.604488,0.214086
6052929344,-145.149979,-43.849068,-72.994972,0.902302,0.530230,0.212789
6052949305,-141.932205,-44.583611,-70.122032,0.886024,0.414137,0.163034
6052969268,-122.481125,-50.120522,-62.217209,0.989527,0.372561,0.153137
6052989229,-111.946381,-20.664860,-63.486267,0.561600,0.401890,0.115214
6053009190,-110.161209,-26.384970,-61.263298,0.955730,0.475652,0.304086
6053029151,-102.870941,-32.047318,-63.150860,1.087407,0.363857,0.192957
6053049112,-97.628227,-35.931026,-64.964363,0.971346,0.424206,0.190933
6053069073,-102.021980,-36.704453,-63.254944,0.905461,0.482682,0.264348
6053089034,-102.489250,-28.582600,-60.331516,0.913305,0.402698,0.295397
6053128956,-84.477493,-24.635033,-50.373718,0.937377,0.310222,0.241987
6053148917,-78.342827,-25.197233,-47.923988,0.979355,0.413359,0.250629
6053168878,-74.085487,-21.500584,-52.157928,0.906525,0.360087,0.323198
6053188839,-64.619362,-17.938454,-50.750690,0.837056,0.264190,0.274230
6053208799,-53.170998,-24.037291,-43.789795,0.826736,0.323952,0.282077
6053228760,-48.719524,-25.542343,-40.160267,0.791886,0.364811,0.341325
6053248721,-46.059036,-19.541925,-35.887608,0.761602,0.365101,0.289952
6053268682,-41.227100,-24.135473,-28.336081,0.813330,0.426558,0.302279
6053288643,-42.501820,-26.678482,-28.055683,0.783914,0.463332,0.371983
6053308604,-44.147312,-20.980354,-25.883888,0.730800,0.313995,0.366352
6053328565,-40.655827,-29.666225,-13.359609,0.709116,0.274442,0.263065
6053348526,-24.506315,-40.454880,-5.298467,0.740947,0.418834,0.269752
6053368487,-30.666855,-35.299717,-7.990413,0.788311,0.536065,0.351021
6053388448,-36.709953,-27.539959,-12.423838,0.832263,0.536277,0.353098
6053408409,-39.437721,-24.168888,-11.936989,0.867783,0.529740,0.360140
6053428370,-44.454144,-24.844362,-15.428507,0.922876,0.545985,0.391208
6053448331,-56.749271,-21.245022,-22.479544,0.916038,0.576420,0.354068
6053468292,-67.653183,-15.692438,-24.170778,0.888155,0.448558,0.349186
6053488253,-78.233582,-9.966595,-14.879324,0.956559,0.305106,0.415714
6053508214,-77.735855,-5.633711,-15.043531,0.947103,0.348899,0.532020
6053528175,-80.605858,-1.109378,-27.400160,0.861260,0.428181,0.546995
6053548136,-71.898460,-0.247039,-27.213295,0.788370,0.401455,0.457857
6053568099,-65.462700,-1.460569,-22.955324,0.912708,0.550271,0.528090
6053588060,-82.182159,11.528811,-19.189747,1.113377,0.759896,0.614846
6053608021,-116.565285,7.067454,3.076880,1.053989,0.463841,0.461342
6053627982,-137.166687,-2.758191,-18.242046,0.831571,0.436383,0.458896
6053647944,-149.050827,-9.262480,-64.400032,0.651039,0.754743,0.382347
6053687865,-154.820206,-33.463074,-55.564045,0.645631,0.424904,-0.023311
6053707826,-133.017670,-45.126266,-49.843220,0.793886,0.238817,0.031174
6053727788,-157.705032,-41.406471,-50.742424,0.910919,0.141523,0.336238
6053747749,-226.075089,-18.492115,-38.032310,0.854974,0.008255,0.520156
6053767710,-262.636383,-17.661644,-12.274478,0.638342,-0.244643,0.509034
6053787671,-249.532959,-41.508934,13.062025,0.526271,-0.486596,0.437546
6053807631,-190.562302,-78.564743,40.004238,0.527517,-0.628752,0.370872
6053827591,-115.630234,-113.021828,64.771614,0.709151,-0.618935,0.362660
6053847552,-39.747532,-121.590042,84.365417,0.976866,-0.578258,0.424819
6053867513,22.158442,-106.921867,91.052208,1.019438,-0.426832,0.572188
6053887474,50.355209,-98.075172,87.777641,0.951758,-0.126894,0.658734
6053907436,37.093372,-95.763519,77.985565,0.888948,0.142378,0.665556
6053927396,8.864196,-91.113968,68.686951,0.912528,0.266030,0.565798
6053947358,-18.030640,-83.609543,63.001053,0.985183,0.225714,0.446041
6053967319,-40.664909,-75.488701,52.964401,1.035201,0.145783,0.411024
6053987280,-57.046555,-67.301460,36.747761,1.104986,0.123894,0.380791
6054007240,-72.882256,-61.852745,13.494048,1.066563,0.133452,0.342048
6054027201,-81.791023,-50.129246,-24.795956,1.066738,0.303155,0.497172
6054047163,-108.182037,-18.927896,-59.795555,1.246153,0.460765,0.748028
6054067124,-147.846191,19.111338,-66.328217,1.157386,0.239004,0.737466
6054087085,-141.778671,18.337145,-71.042801,1.065427,-0.026497,0.555455
6054107046,-95.813141,17.154240,-71.936478,1.053793,-0.245503,0.420961
6054127007,-43.472160,19.654016,-69.338631,0.989385,-0.328199,0.327159
6054146968,-4.069780,9.566550,-68.920120,0.935843,-0.287312,0.213228
6054186892,7.661175,-1.666105,-61.760895,0.892851,-0.174340,0.069443
6054206852,2.759014,-19.522984,-62.243713,0.877921,0.008668,0.029382
6054226813,-17.133217,-7.028000,-82.348991,0.996852,0.437271,0.306926
6054246775,-66.926888,16.686644,-84.552574,0.943788,0.287611,0.652800
6054266735,-104.566811,4.029652,-81.265587,0.998853,0.072911,0.343801
6054286696,-72.623436,3.444668,-86.927101,1.127901,0.114813,0.235843
6054306658,-49.282974,13.958394,-93.347038,0.959142,0.070742,0.353853
6054326619,-46.106113,18.582886,-91.742088,0.897324,0.118745,0.428789
6054346580,-42.517353,22.605406,-82.545471,0.928747,0.124875,0.453761
6054366541,-32.806572,34.847271,-71.974800,0.922969,0.116929,0.484473
6054386514,-31.633898,42.510883,-63.656796,0.811887,0.115208,0.493300
6054406461,-32.457802,41.810986,-53.792244,0.790769,0.095842,0.465547
6054426423,-22.555971,38.506378,-43.918701,0.819659,0.065446,0.365405
6054466345,-20.764269,27.363058,-34.606686,0.821240,0.332663,0.283382
6054486306,-28.660652,20.668674,-29.287422,0.819497,0.355983,0.291710
6054506267,-33.618031,10.448456,-29.205046,0.772703,0.342553,0.359732
6054526228,-38.053940,-4.212682,-35.648792,0.717029,0.324798,0.324489
6054546189,-42.365692,-12.881925,-42.283234,0.747189,0.319119,0.336700
6054566150,-52.863144,-9.307002,-39.758045,0.831155,0.237868,0.422164
6054586111,-57.896885,-5.823409,-32.395390,0.845702,0.162165,0.495883
6054606072,-54.738617,-6.230769,-29.530724,0.929361,0.136013,0.488649
6054626033,-45.889679,-8.739216,-30.013811,0.972077,0.136445,0.504906
6054645994,-36.243942,-11.251784,-35.040318,0.941849,0.187470,0.516628
6054665955,-22.636236,-19.853157,-39.976326,0.993546,0.239733,0.509344
6054685916,-6.866897,-19.726517,-38.937782,1.074430,0.198606,0.458139
6054705877,0.056014,2.927664,-43.479637,1.037268,0.208039,0.523778
6054725838,-6.698695,23.364721,-49.087952,0.948277,0.353423,0.649710
6054745799,-23.918459,24.381706,-54.754951,0.866125,0.451331,0.623106
6054765762,-42.328140,24.403219,-65.683853,0.914219,0.357980,0.570333
6054785723,-38.360283,33.561855,-73.319374,0.899895,0.265096,0.536442
6054805684,-22.105423,37.641712,-83.464333,0.774886,0.303300,0.518043
6054825645,-10.736474,37.210411,-90.757500,0.696345,0.359752,0.524784
6054845606,-1.705007,38.179768,-89.788010,0.669109,0.358405,0.562644
6054865567,7.401529,43.168606,-86.676483,0.667671,0.322433,0.606916
6054885528,13.923749,47.584618,-81.341347,0.635353,0.267738,0.592103
6054905489,25.237598,44.011147,-74.331543,0.588325,0.239381,0.540346
6054925450,37.865055,42.202229,-65.141869,0.544450,0.183447,0.513412
6054945411,47.500847,37.924831,-47.845318,0.481701,0.159487,0.527588
6054965372,54.526169,29.200792,-26.042631,0.412833,0.124217,0.460063
6055005293,92.844025,28.061195,-10.067610,0.663522,0.670173,0.656692
6055025254,70.104904,53.271999,-11.895639,0.846715,0.896782,0.866966
6055045215,35.730526,53.753849,-12.192101,0.411370,0.663685,0.581419
6055065176,59.402409,28.097906,-18.420279,0.411672,0.803243,0.477513
6055085137,52.264816,14.992175,-8.337953,0.570587,0.752089,0.361428
6055105098,52.284561,19.080467,-2.340773,0.574327,0.624702,0.355479
6055125059,61.844910,12.221192,-5.865951,0.535357,0.697573,0.406659
6055145020,51.166817,8.261811,-13.841435,0.571619,0.844937,0.433231
6055164981,23.393406,16.766102,-7.836449,0.568286,0.832958,0.457133
6055184943,8.551752,20.382586,4.624038,0.555228,0.764184,0.475413
6055224865,3.147484,17.869593,9.467157,0.544988,0.693723,0.411270
6055244825,0.782639,14.720623,12.993124,0.465926,0.735128,0.451668
6055264787,-9.770042,9.386958,21.360113,0.425055,0.756824,0.451838
6055284748,-27.114344,4.191240,30.804913,0.439585,0.715353,0.442038
6055304708,-38.534492,0.821745,42.604095,0.500318,0.571449,0.465907
6055324669,-40.629745,-2.579283,53.538601,0.545081,0.545461,0.492105
6055344632,-47.374271,-6.325976,59.183613,0.572543,0.542449,0.498304
6055364593,-60.447254,-14.957316,64.981979,0.536884,0.436878,0.507939
6055384554,-54.265800,-31.776770,76.054955,0.558832,0.391614,0.455356
6055404515,-51.788212,-43.810760,86.008087,0.616342,0.303507,0.419790
6055424476,-37.742943,-47.625671,94.522400,0.663562,0.286830,0.413098
6055444437,-30.632675,-42.465019,96.708748,0.808665,0.333816,0.546392
6055464398,-40.473003,-42.999874,94.961823,0.866310,0.429435,0.648874
6055484369,-33.388550,-51.048615,101.046021,0.921297,0.260888,0.643173
6055504320,-27.673777,-50.808887,104.517723,0.949800,0.152056,0.549772
6055524281,-20.834934,-48.109299,103.959503,0.916073,0.126465,0.510143
6055544243,-10.682322,-47.910801,105.336075,0.871818,0.072349,0.501567
6055564204,12.623243,-52.936279,112.751984,0.923952,0.008529,0.506938
6055584167,34.415943,-58.348618,129.551559,1.094876,-0.000959,0.420350
6055604124,39.224541,-64.112610,141.180267,1.171605,-0.013731,0.415592
6055624085,22.763458,-61.791748,142.177322,1.166432,-0.005593,0.402706
6055644046,2.099541,-52.920311,152.941040,1.135927,-0.044123,0.419260
6055664007,-20.063133,-48.760162,174.483826,1.152743,-0.133523,0.409468
6055683968,-38.056732,-48.701740,197.526459,1.137681,-0.193339,0.454610
6055703932,-35.083298,-43.113350,212.911652,1.141636,-0.225286,0.423516
6055723891,-13.650690,-18.782587,206.692444,1.151983,-0.286369,0.287840
6055743852,19.522070,-0.597584,188.438858,1.026135,-0.108813,0.293825
6055763813,19.980822,-14.609825,142.036911,0.464109,0.298894,0.431735
6055783774,17.593332,-34.302109,53.915028,0.492278,0.703119,0.650098
6055803735,8.163236,-15.565065,-25.696346,0.899598,0.914352,0.812920
6055823696,-35.119938,16.643599,-78.155785,1.299387,0.754820,0.728981
6055843657,-56.962444,45.075676,-95.210030,1.256957,0.297112,0.647734
6055863618,-67.715752,50.019882,-115.471146,1.240486,0.074524,0.544627
6055883579,-53.098347,63.773773,-131.684723,1.334477,-0.002205,0.386610
6055903540,-20.235561,84.345230,-154.929138,1.176055,-0.056130,0.403619
6055923501,-0.793723,95.643051,-178.408936,1.050711,-0.053013,0.434780
6055943462,21.609882,99.997551,-193.459503,1.001514,-0.011825,0.431746
6055963425,51.579334,97.462303,-200.164398,0.988542,0.052224,0.426270
6055983385,74.286720,88.736488,-203.377716,0.886990,0.150750,0.421975
6056003346,87.602379,65.360458,-204.163971,0.881752,0.248071,0.397246
6056023307,73.513657,50.868523,-206.116592,0.916218,0.356779,0.389905
6056043268,46.196011,42.417606,-205.055817,0.890815,0.372321,0.365508
6056063229,20.406004,32.840084,-194.585022,0.855391,0.401010,0.425127
6056083190,-12.867506,29.483034,-181.066971,0.838230,0.389381,0.475633
6056103151,-35.679939,29.673883,-164.081650,0.711940,0.245091,0.508554
6056123113,-38.261505,19.825304,-145.686310,0.553610,0.132807,0.525611
6056143074,-19.215393,4.075442,-123.142776,0.413374,0.123634,0.520093
6056163035,-2.124434,-9.852559,-94.043571,0.364158,0.155457,0.485704
6056183003,6.912503,-17.952835,-53.929516,0.387010,0.180299,0.428985
6056202956,12.936251,-17.855927,-11.507718,0.384006,0.122349,0.380159
6056242878,54.552998,-21.453640,46.458912,0.321107,0.272264,0.467612
6056262839,55.999016,-16.737431,75.660690,0.557586,0.446055,0.609520
6056282800,74.104500,30.133276,74.959839,1.236277,0.972152,1.106723
6056302761,22.824343,46.045616,63.048546,0.993965,0.720039,1.112418
6056322722,-34.898434,10.092682,41.091969,0.770522,0.361520,0.380963
6056342683,25.733070,18.939140,55.099426,0.791638,0.381963,0.289407
6056362644,68.226166,13.103287,90.736664,0.552278,0.257372,0.489397
6056382605,69.092735,1.517960,90.605057,0.578582,0.337176,0.507514
6056402566,66.779747,12.586813,73.724785,0.802839,0.487828,0.463082
6056442488,54.811928,14.866984,80.504715,0.752061,0.552739,0.371573
6056462449,36.711655,14.576241,84.892723,0.726586,0.525698,0.431468
6056482410,30.487564,11.877915,90.811104,0.813679,0.483574,0.378662
6056502371,32.642300,11.617285,96.958458,0.813250,0.440861,0.435084
6056522332,19.579483,13.897266,101.913300,0.772057,0.459923,0.447585
6056542295,-1.323777,17.239008,111.842072,0.800055,0.508614,0.434097
6056562256,-14.048128,13.989325,124.418480,0.826694,0.465713,0.434650
6056582217,-20.384769,3.992793,135.166672,0.789787,0.378381,0.447424
6056602178,-26.573032,-5.731631,145.322983,0.816230,0.319168,0.445055
6056622139,-36.695343,-11.828765,160.424347,0.894349,0.271353,0.419406
6056642100,-47.193264,-16.392113,177.502991,0.941340,0.193339,0.370369
6056682027,-57.800770,-29.119291,196.316299,0.909074,-0.021865,0.344708
6056701983,-66.195808,-25.018816,198.802109,1.032901,-0.027568,0.402985
6056721944,-63.778782,-10.704774,192.117615,1.307794,-0.187624,0.381417
6056741905,-65.741333,-0.408387,166.101990,1.128671,0.050898,0.503260
6056761866,-72.669891,-28.974499,101.460022,0.659969,0.584250,0.783426
6056781825,-53.845425,-24.459745,1.995529,0.689481,1.224231,1.031008
6056801787,-110.422752,4.805490,-67.875610,0.827457,0.973881,1.016239
6056821747,-132.296066,31.994320,-94.308609,1.084106,0.437782,0.808447
6056841709,-107.787201,62.644585,-122.096191,1.255829,0.082520,0.704682
6056861670,-67.279053,85.488991,-156.293015,1.360260,-0.031553,0.598736
6056881631,-37.583042,100.222641,-194.459946,1.351932,0.026088,0.518779
6056901592,-32.646912,111.738335,-227.140839,1.215276,0.131032,0.493428
6056921553,-32.500111,119.570602,-242.353653,1.112566,0.067538,0.473552
6056941514,-13.814416,118.506096,-242.836761,1.087247,-0.055897,0.437501
6056961475,24.399803,100.463104,-240.915176,0.994728,-0.105445,0.415034
6056981436,50.416473,74.132072,-246.337708,0.950043,-0.039957,0.417149
6057001397,53.407776,59.338455,-246.389206,0.859956,0.031673,0.409315
6057041319,26.348324,23.513783,-212.857101,0.662711,0.087640,0.472986
6057061280,1.164358,13.942237,-183.418411,0.610597,0.075559,0.511293
6057081241,-18.036783,6.077480,-142.897125,0.569284,0.013712,0.529488
6057101202,-18.262388,-0.077307,-95.523148,0.489069,-0.049136,0.526223
6057121163,-2.675502,-5.492422,-56.036552,0.407116,-0.116356,0.564705
6057141126,22.440500,-13.328058,-17.607733,0.369472,-0.152511,0.595659
6057161087,53.541145,-27.189812,21.259703,0.382371,-0.100620,0.566543
6057181048,77.775246,-47.690269,53.230770,0.404955,0.025351,0.456803
6057201009,75.558922,-53.243950,78.800476,0.540120,0.191786,0.564737
6057220970,75.978279,-22.188545,77.935791,0.818377,0.737135,0.926157
6057240931,38.651001,16.979748,50.500328,0.839770,1.067095,1.214455
6057260892,-10.976906,24.868914,41.209652,0.737019,0.732944,1.073255
6057280853,-28.409418,-31.638903,60.961372,0.639742,0.283676,0.398052
6057300814,20.469034,-22.958452,75.848564,0.611495,0.133812,0.031643
6057320775,81.872276,-15.138508,94.914658,0.582966,0.052927,0.255365
6057340736,98.123512,-18.602919,92.195824,0.818435,0.367815,0.416524
6057360697,49.674320,-10.112823,88.600197,0.914596,0.583231,0.520664
6057380657,-1.145410,-6.479994,104.964157,0.839123,0.479649,0.532542
6057400618,-31.617292,-9.865335,131.492157,0.814860,0.307834,0.477178
6057420579,-42.570206,-14.943459,152.782211,0.866868,0.105660,0.451120
6057440540,-21.682156,-20.978004,168.843567,0.938669,0.005656,0.420200
6057460501,10.544516,-28.383461,186.773483,0.942627,-0.120185,0.402027
6057480462,48.292316,-33.790527,208.824509,1.029926,-0.168154,0.235403
6057500423,82.888092,-43.490395,239.151611,1.151695,-0.102753,0.200231
6057520384,84.200867,-55.976685,260.531158,1.345589,-0.052216,0.244028
6057540345,37.163570,-47.253464,272.923157,1.423317,0.070760,0.347978
6057560306,-25.383184,-30.088903,283.316010,1.390207,0.073377,0.472629
6057580267,-64.796906,-2.381116,282.742096,1.307149,-0.089937,0.447282
6057600228,-65.748459,-32.080448,231.266449,1.190572,-0.206887,0.535481
6057620190,11.237741,-82.555603,141.578293,1.119091,0.807049,0.822619
6057640151,109.217758,-34.051830,36.587238,1.154877,2.204825,1.133575
6057660111,23.255220,25.267960,-53.431610,0.917886,1.595878,1.270605
6057680073,-60.825138,66.103340,-78.701706,0.821865,0.667246,1.147462
6057700034,-138.822403,69.026695,-125.213699,1.236722,0.282518,0.717082
6057719996,-182.052414,85.202950,-166.910004,1.613575,-0.063388,0.310138
6057739957,-174.074402,92.009819,-206.753387,1.655511,-0.239717,0.154437
6057759918,-99.328796,117.739395,-234.314499,1.473019,-0.278531,0.143348
6057779879,-35.579945,127.427780,-254.116394,1.062382,-0.273823,0.348915
6057799840,11.774969,119.342651,-258.827820,0.932351,-0.149132,0.379547
6057819801,48.613556,106.837067,-262.337891,1.035834,-0.016012,0.337376
6057839763,64.441444,95.508614,-266.002686,0.960651,0.035626,0.352999
6057859733,49.862740,82.284264,-266.167694,0.835052,0.118760,0.416811
6057879685,27.250763,68.256027,-259.110168,0.829206,0.108584,0.406762
6057899646,14.348568,52.465256,-232.050171,0.824324,0.044726,0.412636
6057919607,7.136404,25.057924,-201.660233,0.759604,-0.007045,0.425683
6057939568,-4.782841,3.630625,-169.913483,0.674635,-0.049572,0.434929
6057959528,-20.681295,-11.198173,-130.676254,0.561131,-0.136315,0.421338
6057979489,-13.832058,-23.458834,-86.738152,0.357731,-0.265699,0.368368
6057999450,16.526405,-35.840931,-35.626072,0.265507,-0.349601,0.396371
6058019411,67.733467,-53.784424,17.248068,0.259084,-0.285843,0.369347
6058039372,111.514450,-82.405128,47.148067,0.285912,0.038889,0.378179
6058059333,116.441605,-83.861824,56.638111,0.598445,0.611089,0.610662
6058079294,88.472046,-17.918682,46.732681,1.443802,1.484875,1.262855
6058099255,-53.280098,68.357338,77.676895,0.903645,0.850034,1.434816
6058119216,-118.198807,25.169159,80.509544,0.340684,0.137380,0.638008
6058139176,-65.910393,-5.742542,96.560059,0.565606,-0.090622,0.304203
6058159138,3.618024,-17.864109,116.479698,0.694012,-0.192251,0.170993
6058179099,81.014137,-24.670958,129.465469,0.706993,-0.065635,0.260492
6058199060,108.925774,-30.151634,125.885040,0.847266,0.315744,0.400604
6058219021,72.406242,-24.139664,130.392502,0.945078,0.449768,0.360409
6058238982,37.176426,-26.873850,147.978668,0.854426,0.465745,0.344461
6058258943,0.680094,-41.193882,169.334717,0.815281,0.331767,0.410774
6058278904,-32.369621,-47.482845,181.218597,0.900357,0.174388,0.469094
6058298865,-46.626122,-43.161896,189.460251,0.985091,0.007265,0.438782
6058318827,-33.570812,-39.242012,196.699875,1.077971,-0.096229,0.370606
6058338789,5.582159,-42.679192,206.025192,1.141479,-0.217426,0.382771
6058358750,47.792805,-43.842567,212.625000,1.252638,-0.247814,0.378751
6058378711,56.498779,-38.897648,208.419098,1.261696,-0.104334,0.456246
6058398672,60.906254,-18.804310,200.897690,1.408618,-0.052888,0.510367
6058418633,39.410507,12.684046,183.946289,1.490635,0.089050,0.558902
6058438593,-24.317421,-4.139556,142.671768,1.130741,0.591375,0.615375
6058458562,-41.356415,-47.343506,62.854591,0.859781,1.616490,0.829464
6058478516,-47.547802,-8.314278,-48.151028,1.124621,1.936851,1.056273
6058498477,-93.273155,76.178017,-85.745537,1.072065,1.006143,1.126830
6058518438,-115.621887,93.555412,-98.421013,1.020482,0.300723,0.970159
6058538399,-82.551231,96.030800,-138.349579,1.417381,-0.082071,0.547431
6058558358,-33.973648,117.181786,-199.960510,1.541028,-0.232858,0.350011
6058578320,-7.348479,133.558517,-254.070221,1.390101,-0.048733,0.252619
6058598281,12.045006,138.707718,-275.765076,1.197237,-0.044695,0.243005
6058618242,48.594650,131.894958,-277.577026,1.009735,-0.132005,0.281337
6058638203,90.247734,106.373177,-275.556976,0.923151,-0.092822,0.307428
6058658164,103.085320,70.190239,-269.684937,0.850179,0.003963,0.297583
6058678125,93.027603,31.298775,-262.958618,0.794446,0.061516,0.302448
6058698086,62.249752,6.278078,-240.360931,0.771878,0.112809,0.362843
6058718047,27.325520,-4.404829,-196.730194,0.693550,0.028222,0.447206
6058738008,-12.102198,-4.130020,-141.883209,0.516294,-0.088549,0.548130
6058757969,-41.262276,-6.599988,-81.799446,0.348768,-0.253960,0.611875
6058777930,-30.439806,-9.331180,-16.278162,0.286611,-0.461364,0.570058
6058797891,25.598591,-30.955421,51.773499,0.233711,-0.506007,0.369938
6058817852,83.569084,-71.026993,105.158424,0.245626,-0.259122,0.284886
6058837813,103.398270,-73.368553,148.168335,0.626448,0.194305,0.730009
6058857774,141.079468,-11.111263,141.680511,1.266888,1.030704,1.515193
6058877735,16.346901,-67.350594,166.078659,0.724304,0.275952,0.352377
6058897696,9.153518,-19.102537,144.626190,1.143377,0.541425,-0.038674
6058917659,44.189201,-10.657164,168.074371,0.843619,0.407256,0.228206
6058937620,36.269970,-46.750290,185.572968,0.816078,0.404660,0.398211
6058957581,-20.365351,-47.280449,183.686569,1.035901,0.330466,0.297554
6058977542,-35.436783,-43.282444,185.125916,1.088199,0.196687,0.243153
6058997503,-24.843836,-53.892456,193.775574,1.142709,0.178640,0.371844
6059017464,-25.857273,-45.302341,201.758621,1.383494,-0.011372,0.478357
6059037425,-33.514702,-20.703829,199.260376,1.353967,0.107540,0.726014
6059057388,-53.580906,-31.265394,168.366455,1.017829,0.573027,0.735445
6059077347,-19.864895,-24.447016,95.874977,0.829539,0.925184,0.602380
6059097308,-2.800954,-2.843470,8.947197,0.939945,1.003418,0.709574
6059117269,-5.452914,37.212440,-51.297874,1.033818,0.944969,0.776179
6059137230,-21.358339,58.808479,-84.920303,1.087990,0.686553,0.660020
6059157190,-29.365921,73.777405,-122.711273,1.199954,0.493746,0.620793
6059177151,-40.974743,89.210876,-169.637314,1.216835,0.326262,0.623482
6059197112,-44.045784,98.857948,-210.128632,1.218186,0.258969,0.597746
6059217073,-37.986000,106.985039,-231.925125,1.133829,0.181288,0.577984
6059237034,-9.635499,104.631935,-233.846710,0.981194,0.092190,0.512354
6059256995,32.617657,92.398193,-229.757477,0.880801,0.073141,0.443894
6059276956,61.096725,79.439812,-225.940369,0.804399,0.090214,0.426004
6059296917,64.808365,61.365562,-215.002686,0.715545,0.108336,0.439923
6059316878,50.337856,38.902843,-195.383133,0.683525,0.098032,0.464819
6059336839,28.530479,21.298857,-172.713791,0.618306,0.057198,0.448356
6059356800,11.107739,6.939101,-140.866791,0.430594,0.041134,0.435342
6059376761,-0.770975,-6.625299,-94.294388,0.251968,0.007515,0.490168
6059396722,6.297637,-11.580685,-25.177204,0.168270,-0.103839,0.455762
6059416683,43.687531,-28.859894,44.802349,0.074648,-0.141925,0.314798
6059436645,75.660919,-66.499680,101.368767,0.044672,-0.036755,0.287119
6059456605,89.298340,-59.153362,149.246490,0.707792,0.302130,0.701596
6059476567,128.218979,-19.717657,152.632751,1.197876,0.851067,1.315714
6059496528,33.255146,-54.954430,140.190582,0.742749,0.403027,0.414924
6059516490,20.867430,-9.481074,122.360413,1.016027,0.648701,0.127154
6059536451,28.867285,0.097492,152.024368,0.792790,0.508634,0.318314
6059556412,5.102226,-36.416496,188.353683,0.707519,0.390963,0.341899
6059576373,-17.460997,-47.702736,208.870880,0.871377,0.345201,0.287374
6059596334,-27.680162,-50.051197,208.491501,1.042347,0.282277,0.239089
6059616295,-39.105690,-47.212418,210.308929,1.009933,0.221243,0.275646
6059636256,-45.178482,-43.098888,219.162308,1.072240,0.163989,0.439088
6059656217,-37.814041,-26.241524,229.445114,1.411767,0.087425,0.547283
6059676178,-47.084049,-12.927282,225.106567,1.407738,0.176296,0.685534
6059696139,-68.040848,-27.467840,180.714096,1.098959,0.604608,0.720935
6059716100,-55.453293,-21.101530,80.679794,0.980543,1.028519,0.620940
6059736062,-41.002682,15.609604,-12.054736,1.034180,0.995695,0.870059
6059756021,-45.072636,54.784927,-62.467293,1.038720,0.775445,0.873477
6059775982,-36.279102,74.775627,-87.497986,1.076691,0.491311,0.758808
6059795943,-25.360085,85.242691,-121.591949,1.144881,0.301296,0.686679
6059815904,-33.622845,95.551628,-162.647827,1.152861,0.232011,0.579050
6059835865,-40.995930,106.217720,-194.905197,1.142683,0.243964,0.475312
6059855826,-47.981819,113.598419,-211.529770,1.083144,0.222986,0.440689
6059875787,-44.678318,113.305435,-212.049683,0.977588,0.085491,0.424523
6059895748,-17.380644,105.712730,-208.016800,0.901654,-0.002834,0.385238
6059915709,14.162232,92.082878,-204.218903,0.875473,0.027150,0.415592
6059935671,24.190784,76.111732,-200.063614,0.855795,0.034889,0.458541
6059955632,23.080563,55.597832,-188.462799,0.689667,0.022679,0.469445
6059975593,18.848577,26.787075,-170.454391,0.576391,0.034974,0.459243
6059995553,11.384033,3.834657,-137.476364,0.516165,0.043284,0.487598
6060015515,1.730705,-14.566145,-90.988029,0.473426,-0.026115,0.466915
6060035476,-2.692712,-25.399986,-39.962849,0.406472,-0.153738,0.456942
6060055437,7.524113,-34.265301,11.054650,0.334559,-0.335712,0.419083
6060075398,47.559429,-49.296654,53.527969,0.323386,-0.383186,0.390880
6060095359,86.523933,-75.093193,80.926094,0.266331,-0.189438,0.365442
6060115322,100.550537,-97.913445,96.617966,0.427678,0.203554,0.444284
6060135283,120.357292,-49.865105,124.388870,1.227017,0.846137,0.936510
6060155244,89.403610,-14.473795,145.977341,0.952708,0.766045,1.171009
6060175205,-19.986729,-35.978798,120.678818,0.758092,0.512897,0.473597
6060195166,-37.923874,-12.251527,122.390366,0.954885,0.451443,0.357556
6060215127,-23.579628,-20.145264,145.149490,0.812128,0.202031,0.363576
6060235088,-17.790073,-38.008072,166.157272,0.823686,0.081071,0.411119
6060255049,-31.968637,-41.730122,168.483887,0.951730,0.084908,0.391185
6060275010,-21.924953,-45.077122,168.893951,1.140908,0.067656,0.352320
6060294971,-13.600060,-48.864265,167.052536,1.315532,0.049398,0.377404
6060314932,-14.698027,-44.528923,158.056564,1.236336,0.196607,0.566773
6060334893,-31.574295,-48.121063,126.320374,1.003181,0.530975,0.727488
6060374814,-20.290220,-25.785021,27.692301,0.886623,0.701502,0.713086
6060394774,7.952061,-11.393617,-9.021751,0.883109,0.670712,0.693675
6060414736,18.433258,8.658422,-38.668911,1.027042,0.678688,0.700737
6060434697,-7.507270,33.432499,-54.691475,0.957719,0.498885,0.688934
6060454658,-40.272255,41.189278,-72.729942,0.918259,0.376318,0.584040
6060474619,-60.306839,50.253620,-89.703728,0.953227,0.307425,0.534815
6060494580,-71.625122,57.765404,-97.235519,0.941579,0.196760,0.505271
6060514541,-72.907906,58.721302,-100.413567,0.978384,0.079399,0.493480
6060534502,-59.488476,62.279907,-98.264671,0.971247,0.006598,0.476694
6060554463,-32.796200,62.071854,-95.049316,0.874346,-0.004883,0.487034
6060574424,-9.204761,53.912262,-91.384552,0.763533,0.009412,0.515910
6060594385,4.269529,39.221535,-84.161247,0.740801,0.065615,0.501551
6060614346,12.071433,26.985170,-75.617043,0.747521,0.105541,0.470423
6060634307,17.588949,19.908783,-68.780525,0.748815,0.128904,0.471430
6060654268,17.945948,13.043466,-59.737690,0.713008,0.189162,0.495193
6060674229,7.521941,2.958169,-50.452450,0.665625,0.224680,0.522153
6060694190,-7.018528,-5.701133,-38.230659,0.644794,0.188745,0.511615
6060714152,-13.450794,-12.818968,-25.635265,0.638942,0.129783,0.491073
6060734114,-11.059350,-13.973819,-13.786157,0.645192,0.083844,0.505600
6060754075,-4.759984,-13.132695,2.201524,0.642263,0.046818,0.551319
6060774036,5.946020,-18.979250,23.693317,0.648414,0.041932,0.507438
6060793997,27.858067,-32.840862,36.817463,0.698789,0.074785,0.421224
6060813958,37.738552,-39.082626,42.073364,0.796114,0.176275,0.424807
6060833919,19.022800,-31.722643,53.103828,0.832863,0.215453,0.525554
6060853880,-2.856533,-26.095474,67.207726,0.773605,0.178854,0.629059
6060873841,-15.412097,-28.284796,85.437210,0.782093,0.104401,0.640907
6060893802,-9.749818,-29.181316,106.100471,0.906532,0.029805,0.613176
6060913763,-6.406743,-25.849518,126.855988,0.850402,-0.197406,0.482918
6060933724,2.027728,-33.602676,145.861389,0.693594,-0.375627,0.311948
6060953684,20.880476,-61.016411,165.363174,0.947318,-0.266704,0.393858
6060973645,37.188141,-69.189896,154.401886,1.269912,0.033452,0.330022
6060993606,33.009514,-43.890274,105.436508,1.079829,0.105800,0.350211
6061013567,19.087921,-43.753868,83.191277,0.931118,0.144539,0.426346
6061033528,39.032272,-55.671974,84.018753,1.064233,0.318320,0.475661
6061053489,34.858612,-37.807098,59.062225,1.174247,0.538979,0.631237
6061073450,37.108955,-9.672503,34.491047,1.008776,0.543540,0.726656
6061093411,33.626259,-2.710678,11.814744,0.927547,0.577515,0.679989
6061113372,20.809431,3.877082,0.021725,1.003211,0.567237,0.571361
6061133333,8.744762,12.552163,-16.340754,0.995389,0.442679,0.452145
6061153294,2.316793,14.395452,-40.119606,0.959824,0.329266,0.391793
6061173255,-0.711251,15.201599,-56.182423,0.960146,0.274232,0.401806
6061193216,-12.095601,13.617505,-64.011993,0.942652,0.276728,0.485586
6061213177,-10.808208,11.052008,-63.282913,0.993175,0.144796,0.500421
6061233138,14.232519,-7.581885,-54.717724,0.825521,-0.238959,0.302658
6061253099,6.819833,-37.300854,-50.857559,0.650375,-0.507034,-0.232882
6061273060,12.755658,-46.951157,-11.199203,0.633144,-0.856567,-0.514044
6061293022,-65.131065,-58.858780,73.494308,0.423047,-0.722829,0.564914
6061312984,-153.729401,-84.632736,113.646065,0.775268,-0.051483,0.979262
6061332945,46.414284,-68.833252,66.986641,1.654890,-0.309884,0.447155
6061352906,109.726547,-28.255171,26.949291,1.278393,-0.063016,0.652023
6061372867,65.040253,-21.045309,28.012739,1.075769,0.391566,0.463745
6061392828,40.291492,6.860800,47.151169,1.033335,0.497183,0.495203
6061412789,-15.811218,14.015362,40.435776,0.998526,0.441362,0.476265
6061432750,-22.745491,15.070612,13.514414,1.135658,0.475661,0.419847
6061452711,19.751640,21.815830,-32.377419,1.087974,0.642444,0.434453
6061472673,33.192474,19.691557,-65.055367,0.893960,0.653945,0.399745
6061492633,11.172656,20.741144,-80.991562,0.874370,0.695514,0.369019
6061512594,-36.050755,32.161041,-85.467888,0.899296,0.585324,0.385487
6061532581,-94.988899,48.032452,-88.342667,0.934600,0.344833,0.400364
6061552515,-135.702682,57.817150,-90.123558,1.014211,0.083354,0.378879
6061572476,-139.272446,61.683266,-83.082985,1.091177,-0.223230,0.354261
6061592437,-95.285385,49.956520,-69.980148,0.942891,-0.504239,0.302873
6061612398,-20.300890,21.273787,-51.565975,0.736266,-0.658810,0.041633
6061632359,47.838318,-22.132177,-25.206306,0.519476,-0.891897,-0.461823
6061652320,86.031410,-67.017448,30.890591,0.420200,-0.993586,-0.032167
6061672281,-41.899742,-95.558266,92.318642,0.898070,-0.195459,0.699851
6061692243,-29.658012,-26.951643,60.289970,1.858215,0.931787,0.383193
6061712203,-61.305874,37.422550,39.650887,0.972028,-0.016276,0.946415
6061732165,-35.206158,-26.330566,27.689358,0.912519,-0.151616,0.693387
6061752125,18.470110,-21.095661,23.563313,0.997627,-0.271694,0.536009
6061772087,44.352039,-9.375336,19.882156,0.992311,-0.128495,0.372386
6061792048,65.594940,-4.624242,26.138216,1.023847,0.066358,0.304937
6061812009,57.448307,-2.764967,33.895248,0.898151,0.192573,0.393174
6061831970,24.595406,-2.248891,30.363089,0.777334,0.163131,0.407740
6061851931,5.062699,4.994796,20.186207,0.754251,0.071167,0.380868
6061871892,5.568334,12.082954,17.407150,0.815520,0.029268,0.374937
6061891853,17.711380,13.468374,22.203770,0.869326,0.036658,0.396292
6061911816,28.870550,7.729424,26.157770,0.889483,0.061154,0.413562
6061931776,36.835724,0.184979,19.751957,0.871766,0.057224,0.387076
6061951738,37.324608,-5.557667,12.537037,0.886022,0.094286,0.382997
6061971699,31.402447,-10.146976,8.949712,0.925904,0.125332,0.389685
6061991660,23.047915,-8.164861,5.663283,0.944876,0.133288,0.425052
6062011621,12.638279,-6.225824,4.153639,0.955952,0.139859,0.447185
6062031582,9.227846,-6.846559,3.945972,0.947975,0.106894,0.437471
6062051543,8.588264,-5.601627,1.809373,0.950971,0.053830,0.441127
6062071503,6.601438,1.798640,-4.757914,0.962524,0.002055,0.445738
6062091465,9.487231,8.449810,-9.274016,0.933483,0.007024,0.447947
6062111426,17.680433,9.709394,-12.777900,0.940399,0.056640,0.426863
6062131393,20.945196,10.282844,-17.382328,0.913180,0.128560,0.433655
6062151346,6.115866,12.704481,-20.387234,0.924906,0.137289,0.423437
6062171317,-9.923587,13.935659,-16.040220,0.902932,0.028367,0.375189
6062191269,-8.464417,7.448253,-6.409921,0.886147,-0.066781,0.340197
6062211230,5.417290,-2.277394,0.997038,0.930660,-0.069039,0.329122
6062231191,15.712370,-6.239059,2.463790,0.964793,-0.026925,0.342717
6062251152,12.040131,-4.853014,1.387065,0.938295,0.010250,0.379686
6062271113,6.027880,-4.516683,0.258640,0.897089,0.063966,0.412290
6062291074,1.368137,-4.141502,-2.087268,0.889366,0.089498,0.430944
6062311035,-8.820496,-0.130194,-5.162698,0.900849,0.051120,0.425409
6062330996,-16.157145,6.150597,-5.902143,0.971752,-0.005182,0.423534
6062350957,-15.145226,15.073942,-2.929497,1.088653,-0.025955,0.440952
6062370918,-13.362463,23.323347,-1.068940,1.118165,0.031412,0.456216
6062390879,-18.185228,25.738943,-17.587866,0.975158,0.091690,0.486299
6062410840,-16.015236,30.600628,-46.966576,0.947661,0.241221,0.547635
6062430801,-10.368793,45.728344,-78.679077,0.999910,0.418597,0.686196
6062450762,-16.874516,66.823349,-108.292854,1.023766,0.409978,0.697976
6062470723,-18.945173,79.726357,-131.633667,0.975930,0.284506,0.574945
6062490686,3.173466,84.868881,-148.568512,1.068183,0.217084,0.542592
6062510647,17.902716,91.868210,-165.295319,1.120727,0.113630,0.566832
6062530608,17.949602,94.158241,-183.566315,1.032375,0.049979,0.521451
6062550569,21.723581,81.982582,-192.741592,0.921313,0.093522,0.417896
6062570530,29.789276,69.180183,-189.159149,0.822588,0.147851,0.383232
6062590491,25.607239,62.813705,-173.772110,0.743977,0.160741,0.413451
6062610452,11.058146,58.207153,-154.369232,0.680874,0.105549,0.442338
6062650374,-7.850043,29.151367,-115.226944,0.466780,0.063148,0.462053
6062670335,-6.095087,16.626862,-85.717560,0.456746,0.011360,0.450515
6062690296,14.324195,10.893774,-41.645702,0.498073,-0.118002,0.423068
6062710257,59.225838,7.179910,1.669213,0.471217,-0.179122,0.426582
6062730217,108.807037,0.441740,27.252480,0.450297,-0.084884,0.472189
6062750178,149.244949,-8.922204,29.828716,0.531047,0.408516,0.634508
6062770139,147.536545,8.650413,-0.378688,1.040417,1.270922,0.922761
6062790100,65.632263,50.305939,-26.561138,0.883061,1.310870,1.031955
6062810061,-11.652082,77.857430,-28.861317,0.395053,0.914802,0.766141
6062830022,-7.419065,52.063683,-2.298967,0.331002,0.492653,0.346896
6062849983,29.502426,17.474133,9.729400,0.522192,0.381503,0.266079
6062869944,48.796013,21.485493,0.596385,0.660860,0.630529,0.373908
6062889905,40.242519,30.713282,-7.665004,0.528788,0.887789,0.573527
6062909866,5.982715,27.317484,0.172968,0.500722,0.908800,0.635410
6062929827,-32.778133,30.203835,16.190830,0.577823,0.736462,0.672156
6062949788,-42.900913,29.385832,24.415878,0.548163,0.533887,0.666552
6062969749,-27.561365,21.388039,27.362503,0.561374,0.468387,0.591466
6062989711,-4.638926,14.517881,32.047699,0.494186,0.479426,0.552809
6063009671,4.533242,7.104555,39.746803,0.510119,0.427723,0.540562
6063029632,4.398907,2.431011,45.020397,0.621067,0.421533,0.562641
6063049593,-4.015028,4.823215,45.118034,0.651754,0.447187,0.604399
6063069554,-12.035343,5.363736,44.013031,0.659443,0.523826,0.622954
6063089517,-26.551144,5.658888,50.461155,0.691519,0.510792,0.630858
6063129439,-42.552765,-1.133305,66.067787,0.631383,0.222863,0.597592
6063149400,-31.277538,-8.606299,66.381851,0.623991,0.235454,0.632855
6063169361,-19.005331,-13.729259,72.091766,0.664966,0.246832,0.694067
6063189322,-11.663320,-28.143272,71.075058,0.693034,0.295920,0.720277
6063209283,-13.418283,-40.742702,69.251442,0.724802,0.286697,0.634138
6063229244,-5.049557,-41.261631,74.068802,0.783497,0.248351,0.577108
6063249205,2.584596,-40.514202,75.906776,0.850845,0.230087,0.525735
6063269166,1.852143,-31.110361,73.044273,0.835703,0.225467,0.541013
6063289127,0.067336,-29.866810,68.414566,0.792095,0.192759,0.554773
6063309088,0.861610,-27.794996,71.290482,0.780815,0.165794,0.511662
6063329048,-1.055115,-27.245747,76.626266,0.774620,0.233221,0.505800
6063349009,-16.949598,-23.973406,82.708694,0.749047,0.217870,0.507131
6063368970,-37.500019,-24.214821,88.818909,0.742205,0.152035,0.482040
6063388931,-39.094841,-35.144760,96.760910,0.754602,0.087558,0.445350
6063428853,-34.114445,-53.543903,114.518555,0.892421,-0.080661,0.502175
6063448814,-20.663391,-67.052628,119.546684,0.951205,-0.221155,0.546532
6063468776,10.343451,-71.349762,130.751266,0.980031,-0.226255,0.491596
6063488736,34.069626,-73.699982,141.761948,0.990802,-0.211998,0.585354
6063508697,50.348751,-67.248947,153.463440,1.141817,-0.311693,0.631827
6063528658,33.440090,-45.223679,165.069916,1.188078,-0.310871,0.534133
6063548620,-3.237556,-34.982727,169.646439,1.053929,-0.224979,0.500671
6063568580,-38.052673,-31.364182,155.318604,0.946389,-0.237027,0.520660
6063588541,-55.781208,-24.681942,141.118546,0.968512,-0.157920,0.537891
6063608503,-36.693359,-13.261884,128.642029,1.016254,-0.110336,0.524874
6063628464,-6.408262,-23.772207,82.272682,0.853760,0.266065,0.682190
6063648424,30.700743,-26.351452,4.873326,0.578814,1.027030,0.813113
6063668386,-12.485628,-14.003122,-83.226341,0.963524,1.174267,0.990866
6063688348,-74.118912,48.117172,-126.327141,1.393236,0.782281,0.970473
6063708309,-110.653328,75.264214,-166.499817,1.290057,0.392021,0.752691
6063728270,-103.514221,81.958687,-214.375427,1.535759,0.221159,0.406130
6063748231,-43.487663,116.582878,-236.647919,1.570682,0.042304,0.265458
6063768192,16.635714,133.163284,-261.207886,1.338512,-0.100417,0.237403
6063788153,56.291298,134.092453,-288.164856,1.102230,-0.095679,0.276064
6063808114,91.135391,119.815155,-309.756836,1.011966,0.050047,0.331121
6063828075,109.530632,94.052414,-316.966187,1.058646,0.220319,0.346490
6063848036,95.799927,70.947456,-301.638794,0.944058,0.314927,0.400845
6063867998,53.279907,41.985489,-287.263031,0.876976,0.294725,0.420252
6063887959,15.904281,26.080397,-261.376648,0.789467,0.213851,0.478434
6063907919,-30.808052,18.300613,-229.818390,0.718660,0.097476,0.563729
6063927879,-61.966026,15.072042,-179.484894,0.621341,-0.086237,0.606659
6063947840,-62.359280,13.260503,-113.144440,0.367406,-0.336783,0.562032
6063967801,-2.447000,7.701416,-40.967770,0.131420,-0.541781,0.493221
6063987762,85.079933,-17.928751,21.334909,0.039717,-0.395798,0.378143
6064007724,130.944046,-55.418449,68.756226,0.162053,-0.119076,0.192274
6064027684,130.598450,-59.755299,112.355156,0.470801,0.252789,0.397918
6064047646,77.008041,-5.367687,139.168198,0.904780,0.804961,0.845130
6064067607,19.649321,79.831924,86.977692,0.937032,1.757294,1.463002
6064087568,-65.337341,56.638947,66.536072,0.624040,1.005391,1.125000
6064107529,-127.674591,23.144377,90.947067,0.861217,0.289365,0.166535
6064127490,-32.766678,10.742854,121.583755,0.572177,-0.038757,0.032201
6064147451,73.781044,-35.862270,157.212784,0.423483,-0.080412,0.373459
6064167411,78.160629,-37.589050,156.379822,0.829004,0.457938,0.439191
6064187373,39.774055,-18.972773,159.397507,1.035921,0.450783,0.407134
6064207334,15.800379,-17.924511,169.820465,0.908610,0.365023,0.370143
6064227295,3.271639,-35.341206,186.941986,0.881117,0.309354,0.447680
6064247256,-2.720745,-51.068939,207.201828,0.935982,0.193853,0.451580
6064267217,3.775312,-53.379532,225.638657,1.049845,0.014155,0.371378
6064287179,20.668045,-47.907818,235.393158,1.127995,-0.152442,0.266630
6064307140,30.436844,-49.788204,242.334625,1.222148,-0.156739,0.232094
6064327102,27.435472,-52.499516,250.684708,1.365612,-0.071740,0.272034
6064347063,13.317090,-57.860313,255.040314,1.360805,-0.006374,0.269145
6064367024,9.945119,-44.782959,251.935913,1.328468,-0.023867,0.243523
6064386985,3.404487,-33.164364,233.219406,1.301370,-0.003836,0.214105
6064406946,17.780685,-66.219826,189.753098,1.288216,0.380776,0.840352
6064426909,50.903912,-44.181900,87.258720,1.430258,2.144347,1.301979
6064446868,5.477000,13.231227,-16.640965,0.962766,1.965274,1.232140
6064466829,-72.033226,45.790524,-70.117172,0.866458,1.128749,1.079345
6064486790,-107.645874,78.796295,-103.624481,0.926382,0.615569,0.776508
6064506751,-142.358109,92.002159,-130.306671,1.196627,0.244193,0.298909
6064526711,-149.660797,91.732635,-151.034332,1.553409,-0.248493,-0.002279
6064546672,-83.238113,111.489006,-200.934464,1.614240,-0.407483,-0.096360
6064566633,-8.156604,118.729019,-240.237991,1.107723,-0.288589,0.166681
6064586594,4.139913,89.008049,-255.142029,1.013675,-0.061818,0.340907
6064606555,0.095079,82.571625,-251.563568,1.106060,0.012982,0.330904
6064626516,3.839587,80.480217,-256.959320,1.138377,0.023127,0.370032
6064646477,-0.576130,72.444191,-255.239120,1.109803,-0.005439,0.385547
6064666438,-8.232275,58.997784,-245.211121,0.979332,-0.005784,0.443716
6064686399,-17.389950,44.527943,-232.196350,0.941193,-0.002149,0.422832
6064706360,-9.184326,29.966360,-210.790863,0.863249,-0.057236,0.429772
6064726321,-2.441547,11.757582,-193.892853,0.789302,-0.088390,0.472454
6064746282,0.516964,-0.289681,-170.929871,0.617071,-0.052593,0.504769
6064766243,-4.086090,-15.554912,-137.877975,0.475314,-0.005514,0.534454
6064786204,-5.458886,-26.293253,-94.986290,0.437026,-0.024279,0.548173
6064806165,7.568591,-29.913654,-48.278133,0.405051,-0.095020,0.493016
6064826126,38.449059,-36.924030,-10.081942,0.304751,-0.096382,0.477995
6064846087,76.157509,-40.919220,6.836419,0.325913,-0.012376,0.506420
6064866048,112.176422,-39.504669,18.633438,0.470043,0.237223,0.532840
6064886009,118.203979,-33.496452,32.085224,0.618807,0.522113,0.557765
6064905972,86.360703,-13.549052,53.101871,0.770322,0.644607,0.643680
6064925933,36.518387,15.292694,77.848038,0.808172,0.605489,0.749372
6064945894,-6.371951,19.890236,94.904625,0.701746,0.434714,0.794109
6064965855,-39.556721,2.119526,96.119308,0.719370,0.173715,0.661933
6064985816,-1.037469,-11.588855,98.422485,0.763455,0.061526,0.555122
6065005777,63.088852,-16.574028,111.278214,0.872707,0.201636,0.460400
6065025738,72.626472,3.156721,128.128738,1.037839,0.308648,0.398388
6065045699,77.218536,10.596439,143.956726,1.067178,0.452039,0.297411
6065065660,85.680298,5.935244,161.401764,0.917535,0.614632,0.351193
6065085621,62.523163,0.935668,175.927139,0.880542,0.592550,0.443759
6065105582,23.926144,0.804381,196.716202,0.991250,0.501365,0.421877
6065125543,-6.272961,2.290384,229.514297,1.072142,0.309070,0.345830
6065145503,-28.647846,-1.796834,260.213928,1.015738,0.101239,0.341006
6065165464,-38.212769,-9.764890,279.903900,0.999270,0.082119,0.433080
6065185425,-40.618713,-8.893094,286.019318,1.356765,-0.048078,0.460619
6065205386,-32.501537,-0.325248,267.310242,1.684173,-0.003403,0.396868
6065225347,-18.361740,-15.759381,216.303329,1.092266,0.488533,0.249648
6065245308,32.039318,-54.984188,104.728889,0.758396,1.337937,0.419202
6065265269,51.844658,-22.250128,5.551814,0.766373,1.804803,0.872929
6065285230,-15.346678,25.736530,-44.399460,0.906030,1.238853,1.034193
6065305191,-88.553001,58.718307,-55.118523,1.119226,0.607911,0.992617
6065325152,-132.418396,71.087265,-92.690163,1.215830,0.113359,0.690421
6065345113,-125.985794,81.865364,-130.487885,1.338259,-0.029458,0.434022
6065365074,-98.980080,88.382195,-163.354004,1.257973,-0.031313,0.299903
6065385035,-74.267838,89.014275,-184.075867,1.079285,-0.090793,0.245786
6065404997,-38.569866,85.285370,-196.619049,0.956058,-0.182150,0.239286
6065424958,16.598751,79.847221,-203.805511,0.930492,-0.192407,0.303092
6065444919,46.179253,67.831749,-217.107880,0.934200,-0.058617,0.379282
6065464880,41.979126,46.180218,-231.440964,0.913384,0.079657,0.421438
6065484841,25.267832,30.389355,-236.785202,0.918231,0.166514,0.403166
6065504803,4.754786,21.477226,-234.927139,0.913980,0.240390,0.448138
6065524764,-20.474413,16.660578,-219.710648,0.898233,0.167392,0.505139
6065544725,-38.853088,9.377033,-198.866837,0.825404,0.098320,0.541541
6065564686,-42.098122,-5.635931,-178.075333,0.760319,0.057906,0.566416
6065584647,-42.963577,-18.073725,-151.193085,0.692787,0.004597,0.577980
6065604608,-36.997536,-24.464903,-116.927971,0.617655,-0.083023,0.556455
6065624569,-22.327667,-28.377842,-76.907814,0.527957,-0.159427,0.551873
6065644530,-1.267671,-30.074068,-36.255108,0.466006,-0.237631,0.580702
6065664492,28.623688,-29.396603,3.778140,0.470353,-0.267211,0.587459
6065684453,68.233521,-29.377401,34.494335,0.413361,-0.175110,0.566965
6065704414,86.844391,-30.689495,61.910034,0.478991,0.005542,0.565847
6065724375,65.762497,-18.298908,112.450813,0.655250,0.020904,0.566279
6065744335,62.005257,3.514401,156.621704,0.828735,0.161675,0.786523
6065764295,100.044960,-4.678084,140.503143,1.050502,0.435941,1.113010
6065784257,48.649414,-40.664135,130.976212,0.952252,0.200309,0.457054
6065804218,54.750046,-18.489637,136.139206,1.080922,0.452045,0.095961
6065824179,81.211670,-3.401893,170.235016,0.908612,0.345773,0.272021
6065844140,69.116135,-16.572765,192.929825,0.985016,0.333281,0.292385
6065864101,51.544136,-16.478134,211.981781,1.061533,0.352269,0.252591
6065884062,41.052006,-23.151062,227.576080,1.040956,0.238450,0.287042
6065904023,17.307970,-35.055920,241.168747,1.062876,0.152601,0.262625
6065923984,-7.899446,-39.372719,255.390335,1.098006,0.060331,0.256038
6065943945,-10.079861,-35.540150,263.080658,1.150860,-0.067386,0.324573
6065963906,-9.142050,-16.500675,262.956604,1.246143,-0.074806,0.400658
6065983867,-10.070179,7.332660,242.434158,1.456482,-0.158946,0.415182
6066003828,-46.637169,0.476036,212.466797,1.456976,0.089738,0.644418
6066023789,-41.226841,-43.328281,123.184837,1.179802,0.901706,0.680854
6066043750,10.021646,-17.943899,26.907969,1.073482,1.786360,1.035308
6066063711,-33.832603,44.526505,-36.868866,0.902219,1.172829,1.160233
6066083672,-97.645134,64.639709,-48.311771,0.817282,0.556769,1.098466
6066103635,-117.239578,72.121056,-76.460938,1.001513,0.193005,0.813492
6066123596,-97.503784,88.193558,-100.075935,1.306168,-0.069588,0.451939
6066143557,-62.303596,107.548103,-134.740433,1.409607,-0.309710,0.247781
6066163518,-28.464279,117.725998,-177.850342,1.217879,-0.274998,0.198165
6066183479,-8.342879,124.044754,-202.952179,1.087187,-0.173844,0.222523
6066203440,12.762129,122.411453,-213.884659,0.990232,-0.107066,0.307070
6066223401,37.578770,109.049423,-219.907333,0.898212,-0.084840,0.338347
6066243362,55.744545,85.250175,-226.771225,0.884904,-0.050998,0.330719
6066263323,62.059147,57.482307,-232.985291,0.908538,0.042604,0.314594
6066283284,49.052277,38.155197,-236.217300,0.952636,0.091902,0.378976
6066303245,24.859325,29.790257,-232.831558,0.911928,0.090726,0.443904
6066323206,10.613163,13.670716,-220.051224,0.813636,0.079042,0.482906
6066343166,5.685217,-5.735629,-204.563690,0.815777,0.107366,0.506795
6066383088,-23.373203,-29.193178,-162.146744,0.697221,0.018803,0.576644
6066403048,-26.884350,-35.467628,-130.258255,0.580519,-0.064287,0.593076
6066423010,-11.728212,-37.838596,-90.375389,0.569756,-0.210772,0.588721
6066442971,23.994417,-36.470802,-41.975555,0.557207,-0.281592,0.591746
6066462932,60.925976,-29.367054,1.721861,0.452133,-0.240802,0.646246
6066482893,95.387177,-27.118067,28.827917,0.325342,0.008288,0.688559
6066502855,107.873703,-26.145672,48.053757,0.600886,0.371231,0.745218
6066522816,67.421616,7.578017,98.726326,1.004669,0.500349,0.872259
6066542777,15.709329,44.942547,145.705719,0.903825,0.294287,0.901103
6066562738,4.762242,37.603344,146.993484,0.506697,0.093500,1.006474
6066582699,30.745840,-19.045357,131.787857,0.598261,0.101533,0.457370
6066602660,67.266365,-24.747982,137.358688,0.984855,0.311936,-0.042740
6066622621,115.236313,-2.976942,159.585037,0.934537,0.362133,0.053680
6066642582,131.093643,-13.928394,173.178131,0.894000,0.408681,0.205886
6066662543,100.454147,-19.174582,193.082825,1.000947,0.539861,0.238845
6066682504,49.190289,-23.092607,216.681717,0.983911,0.558237,0.271287
6066702466,-3.743287,-36.180058,231.158737,1.006416,0.435679,0.316780
6066722427,-53.763344,-36.577003,245.436676,1.077343,0.259139,0.322794
6066742388,-84.601791,-29.026043,260.304962,1.078110,0.090777,0.341137
6066762349,-75.925468,-20.066389,274.542786,1.160113,-0.151087,0.438211
6066782310,-55.564182,4.508342,278.223877,1.504240,-0.277829,0.406531
6066802271,-62.255009,-5.253964,234.971893,1.374186,-0.122893,0.553682
6066822232,-61.955990,-54.135452,139.055054,0.989333,0.690475,0.696847
6066842198,-1.905551,-32.637714,26.321306,0.894858,1.453807,0.955979
6066862154,-18.664562,29.026711,-39.717499,0.913080,1.058685,1.138717
6066882115,-64.163757,63.249409,-54.908089,0.945899,0.491477,1.082043
6066902076,-86.307106,72.801796,-74.553444,1.030478,0.116380,0.846786
6066922037,-68.789978,84.627068,-95.976089,1.222867,-0.116280,0.544424
6066941999,-33.533264,100.152840,-124.752899,1.283505,-0.187635,0.363488
6066961958,-17.330833,104.633812,-154.767700,1.143998,-0.157547,0.314359
6066981919,-13.046701,108.378586,-176.533173,0.999458,-0.114198,0.323201
6067001880,6.957660,109.840805,-185.288132,0.858401,-0.065255,0.393845
6067021841,26.771589,99.437172,-187.886185,0.851802,0.004743,0.408149
6067041803,36.741325,80.033516,-188.917114,0.864306,0.040536,0.415532
6067061764,30.923986,51.262951,-198.683670,0.902430,0.140280,0.413141
6067081725,18.571995,38.805599,-210.924835,0.934564,0.196422,0.439765
6067101685,-6.587815,37.421856,-212.888077,0.924008,0.141562,0.485090
6067121646,-16.129381,21.758642,-200.183960,0.810304,0.106676,0.517907
6067141607,-18.215046,-1.462047,-182.321014,0.791327,0.099125,0.510306
6067161568,-21.197136,-15.399266,-163.169556,0.776198,0.051786,0.500970
6067181530,-25.315044,-23.616222,-145.138428,0.739455,-0.043071,0.477900
6067201490,-19.751509,-29.599249,-124.042900,0.718936,-0.081174,0.474779
6067221451,-10.443316,-30.999798,-102.418175,0.643746,-0.063885,0.509814
6067241413,-1.952650,-34.691166,-75.419426,0.534443,0.008831,0.562713
6067261374,2.073113,-44.866005,-46.209625,0.499685,0.097241,0.610256
6067281335,10.571527,-44.362099,-20.507317,0.522461,0.082940,0.661720
6067301297,32.416767,-36.760761,4.727589,0.533875,0.067343,0.765814
6067321259,52.020905,-30.602230,31.232265,0.609763,0.073914,0.784035
6067341219,71.949188,-22.792662,54.866753,0.606185,0.156788,0.717321
6067361181,86.012100,-17.320694,67.799454,0.546175,0.276172,0.658262
6067381142,86.573853,-13.868163,91.217072,0.597001,0.245363,0.563992
6067401103,88.853096,-4.955919,128.331100,0.752495,0.267658,0.601174
6067421064,64.579689,0.250955,171.517914,0.867382,0.299822,0.768760
6067441025,26.818295,-38.697861,181.340347,0.682799,-0.034926,0.646922
6067460986,18.811239,-60.164310,166.030533,0.952106,0.095014,0.112377
6067480947,39.787254,-27.976402,178.528732,1.114685,0.219310,0.136635
6067500908,41.255280,-12.237327,194.364349,1.132858,0.282749,0.223530
6067520869,33.752872,-16.446001,207.285797,1.019642,0.227244,0.270171
6067540832,31.787323,-21.957115,212.918869,1.062496,0.187628,0.283079
6067560790,33.940773,-11.675468,223.748306,1.258322,0.193326,0.382557
6067580751,-18.400928,10.989563,228.740219,1.315312,0.219477,0.545537
6067600712,-90.675362,-2.193938,202.747437,1.174915,0.316779,0.510862
6067620673,-95.677170,-14.191266,147.520676,1.161571,0.441712,0.397931
6067640634,-52.728371,-14.722821,87.851265,1.044584,0.390841,0.591218
6067660595,-12.143984,-0.188982,39.520451,1.063236,0.411964,0.805938
6067680556,-8.574357,29.027887,6.922419,0.952117,0.437941,0.837805
6067700517,-22.979158,39.366409,-10.383778,0.955284,0.389329,0.779196
6067720478,-43.580093,49.274601,-20.871746,0.945949,0.152111,0.687750
6067740439,-61.148003,55.000244,-37.779263,0.891260,-0.025988,0.591318
6067760400,-66.556129,55.031979,-53.203690,0.881337,-0.113413,0.455065
6067780361,-57.450359,60.755112,-59.291622,0.885584,-0.189050,0.376611
6067800322,-46.677528,65.221443,-59.968513,0.820257,-0.199705,0.372583
6067820283,-35.437588,60.506149,-61.138634,0.768367,-0.169623,0.366494
6067840244,-21.610376,56.322563,-58.536640,0.768404,-0.159872,0.380632
6067860205,-12.727268,44.465057,-56.493546,0.750510,-0.148350,0.422458
6067880166,-11.065162,30.849615,-62.698616,0.814229,-0.094895,0.443058
6067900129,-14.060094,24.800159,-65.424065,0.899738,-0.066687,0.480771
6067920089,-20.899555,19.544363,-65.340149,0.900246,-0.061124,0.513472
6067940051,-26.574339,12.326621,-67.116440,0.865007,-0.064894,0.516621
6067960012,-28.936316,4.669503,-66.573959,0.845143,-0.078219,0.498900
6067979973,-28.169329,-0.442725,-62.450333,0.825900,-0.103253,0.513891
6067999934,-25.576590,-2.833127,-55.805046,0.821894,-0.134474,0.545563
6068019895,-20.551357,-3.214683,-48.509624,0.819331,-0.150622,0.564631
6068039859,-13.565701,-5.169895,-45.364361,0.808090,-0.150012,0.567328
6068059817,-7.325984,-6.051759,-42.875874,0.811532,-0.128391,0.575051
6068079778,-6.254558,-6.516755,-37.961288,0.796703,-0.082873,0.594067
6068099739,-9.081283,-6.274949,-31.907047,0.786883,-0.052918,0.615342
6068119700,-13.020078,-4.452008,-24.189182,0.781212,-0.069653,0.629354
6068139660,-10.103146,-3.299437,-13.723055,0.781644,-0.091358,0.618607
6068159621,-1.445590,-3.854711,-3.857739,0.781816,-0.106438,0.594453
6068179582,9.228432,-5.803063,4.748892,0.784185,-0.113911,0.557466
6068199543,17.953550,-8.918015,12.531170,0.787591,-0.093749,0.533795
6068219504,22.524799,-11.509523,20.632872,0.814781,-0.065633,0.530009
6068239465,24.619789,-12.148016,27.865871,0.832485,-0.060478,0.547004
6068259426,25.188992,-13.121844,32.331776,0.831861,-0.042967,0.550530
6068279387,23.668056,-14.459106,34.286819,0.820987,-0.018959,0.549756
6068299348,20.802565,-15.605977,34.248703,0.816630,-0.002120,0.541933
6068319309,18.559671,-14.083475,35.218048,0.817779,-0.013030,0.548871
6068339270,20.750311,-13.202999,37.842323,0.809802,-0.037403,0.554861
6068359231,25.321346,-14.672756,40.311001,0.817129,-0.043817,0.537890
6068379192,28.568150,-16.431051,40.908745,0.865263,-0.029450,0.510126
6068399153,28.145472,-17.855911,38.883102,0.892542,-0.017200,0.503049
6068419114,26.205048,-17.483097,35.901085,0.927444,-0.005671,0.508054
6068439076,24.939060,-15.060940,32.015095,0.911163,0.005914,0.524230
6068459037,21.064453,-14.165736,24.813780,0.856495,0.028516,0.533056
6068478998,15.341880,-11.512786,18.954649,0.817969,0.050849,0.534898
6068498960,10.570408,-9.629822,17.425774,0.808098,0.039345,0.530625
6068538882,7.955131,-12.011325,16.479603,0.807493,-0.008633,0.469205
6068558843,10.171919,-14.989979,9.918951,0.858271,0.024389,0.457119
6068578804,7.934406,-12.370232,0.663738,0.904285,0.035435,0.505408
6068598765,0.097022,-6.053777,-2.035485,0.902216,0.028402,0.576331
6068618726,-9.846076,-4.556651,0.547766,0.882990,-0.000588,0.588109
6068638690,-12.614067,-6.111230,2.127129,0.884419,-0.059119,0.546204
6068658649,-5.852211,-6.764068,2.112503,0.872821,-0.109066,0.503919
6068678610,3.598094,-8.299364,2.442014,0.843047,-0.104602,0.489732
6068698571,8.672043,-12.723709,3.785952,0.840923,-0.064252,0.481292
6068718532,10.443335,-17.633406,8.109927,0.888041,-0.045428,0.440506
6068738491,6.720624,-16.745365,12.657535,0.999648,-0.078611,0.413501
6068758452,-0.273762,-8.704879,25.213238,0.805151,-0.380381,0.140143
6068778414,46.446716,-24.452847,51.043373,0.568507,-0.637988,-0.120505
6068798375,63.876686,-68.196609,101.043961,0.611628,-0.732772,0.304001
6068818336,-13.420292,-96.769737,124.912415,0.891844,-0.578748,0.586177
6068838297,-72.291679,-64.007851,65.668831,1.238351,0.115445,0.575333
6068858258,-55.336800,-3.752457,-4.574830,1.386994,0.403591,0.505681
6068878219,-3.484991,27.902327,-3.866402,0.929076,-0.113019,0.634142
6068898180,45.969242,2.232831,-2.389590,0.959748,-0.134898,0.552014
6068918141,87.805847,-8.029731,-1.977958,1.014561,0.024758,0.499774
6068938102,106.783859,-3.664444,-13.343829,0.990214,0.095114,0.426418
6068958063,105.792313,-0.483195,-25.016785,0.971774,0.318105,0.438910
6068978024,87.348991,9.222353,-38.290226,0.946905,0.492979,0.395066
6068997985,65.072571,21.482262,-43.011700,0.817910,0.482748,0.381121
6069037907,32.381191,8.307941,-35.761086,0.809274,0.299657,0.348994
6069057868,23.484835,7.239082,-33.071880,0.831959,0.194075,0.349501
6069077829,19.426188,5.206519,-29.211655,0.852573,0.219425,0.394448
6069097791,22.261164,5.527328,-31.563074,0.912455,0.291351,0.426058
6069117752,23.717926,9.068910,-34.166721,0.913909,0.311800,0.470370
6069137713,21.737503,7.193503,-32.045425,0.921414,0.316879,0.487362
6069157674,18.619242,6.356311,-29.770065,0.946477,0.301478,0.477601
6069177636,14.614828,7.169998,-28.592979,0.946464,0.275816,0.469462
6069197596,12.285897,7.676294,-26.347378,0.936543,0.242258,0.461361
6069217558,9.718391,7.502255,-22.447054,0.916155,0.250332,0.470689
6069237519,6.816817,4.883370,-20.889309,0.870516,0.283321,0.462664
6069257480,9.551525,1.618379,-17.794092,0.846648,0.293922,0.474528
6069277441,24.379875,-10.614841,-11.640100,0.832552,0.312806,0.500277
6069297402,32.999222,-30.447708,-8.925682,0.905300,0.267013,0.410116
6069317385,-15.048098,-17.009478,-24.495869,0.980671,0.391339,0.312299
6069337322,-42.943489,5.064227,-36.392220,0.826003,0.489217,0.412762
6069357283,-33.243164,1.414004,-36.043541,0.777474,0.350965,0.509661
6069377244,-45.465076,-6.284131,-37.514412,0.965438,0.280599,0.530288
6069397206,-45.860054,2.682319,-38.014843,1.017606,0.232971,0.542679
6069417167,-29.742275,0.213965,-37.274849,0.953411,0.236245,0.478615
6069437128,-31.729752,-1.495727,-43.479404,0.997827,0.412290,0.414624
6069457089,-36.764305,4.930782,-55.026379,0.894446,0.455649,0.478220
6069477050,-49.049503,1.617222,-62.074638,0.833842,0.397541,0.464856
6069497011,-51.244160,-1.719759,-60.999207,0.899413,0.368396,0.426560
6069516972,-51.552734,-0.131361,-61.996807,0.945901,0.351868,0.398361
6069536933,-60.380142,0.128415,-71.589027,0.931749,0.383781,0.407414
6069556894,-64.866859,5.741371,-82.184296,0.822584,0.346443,0.456107
6069576855,-61.549477,5.308416,-84.206642,0.812075,0.313716,0.379958
6069596816,-47.592552,2.993386,-90.038857,0.899121,0.393503,0.365314
6069616777,-43.494667,5.297893,-102.270477,0.888997,0.500816,0.442503
6069636738,-55.233749,6.910105,-109.551971,0.888239,0.501961,0.439465
6069656699,-64.119446,3.494160,-112.968697,0.905678,0.471975,0.365424
6069676662,-66.190880,-1.686730,-117.202698,0.859966,0.466444,0.296653
6069696622,-68.162193,-8.190745,-121.214287,0.758765,0.468107,0.282749
6069716583,-74.263718,-18.469540,-125.583008,0.754180,0.504876,0.288801
6069736545,-80.349586,-25.361658,-128.696869,0.801575,0.481767,0.289867
6069756506,-85.368546,-31.001694,-127.710831,0.779893,0.438286,0.309760
6069776467,-86.667854,-39.529587,-127.376038,0.803279,0.442067,0.323877
6069816389,-79.229156,-49.349724,-120.460770,0.839508,0.468613,0.355978
6069836350,-88.228615,-54.284145,-115.291977,0.801065,0.426858,0.382547
6069856311,-91.370888,-57.400429,-108.110527,0.779640,0.443059,0.343916
6069876272,-89.578522,-61.156475,-97.359978,0.777771,0.425996,0.375487
6069896233,-86.877579,-62.973186,-88.901321,0.733049,0.371734,0.400233
6069916193,-70.178535,-61.461876,-78.579926,0.716435,0.330930,0.358071
6069936154,-55.661411,-64.257431,-69.177605,0.730087,0.361139,0.282609
6069956115,-42.097435,-70.176079,-63.788589,0.705975,0.398522,0.242216
6069976076,-30.095085,-67.653374,-57.157501,0.696818,0.346049,0.352364
6069996037,-22.435545,-59.534866,-39.278854,0.679984,0.237818,0.367578
6070015998,-9.461202,-64.527290,-20.550970,0.672098,0.300105,0.263696
6070035959,-5.463887,-70.551529,-14.798754,0.701120,0.470324,0.256705
6070055920,-1.415555,-67.340218,-18.683542,0.718991,0.526377,0.248465
6070075881,11.101336,-63.871456,-17.258499,0.681294,0.518919,0.227680
6070095842,6.246871,-68.059799,-12.669099,0.672653,0.606350,0.226727
6070115803,-15.521275,-68.186295,-8.065769,0.715309,0.663004,0.239785
6070135764,-38.036030,-59.627239,-0.518017,0.781081,0.652858,0.232780
6070155725,-53.174614,-51.687420,20.852587,0.808293,0.525966,0.190282
6070175686,-71.724655,-55.392933,35.740372,0.813034,0.475290,0.221705
6070195647,-97.462158,-61.562992,27.703247,0.912363,0.609030,0.237818
