Timestamp (us),Gyroscope X (deg/s),Gyroscope Y (deg/s),Gyroscope Z (deg/s),Accelerometer X (g),Accelerometer Y (g),Accelerometer Z (g)
10136157335,-0.839328,0.119843,-0.337687,0.798666,0.213994,0.561018
10136177380,-0.329686,-0.002151,-0.211969,0.797115,0.214210,0.562371
10136197425,0.187886,0.278636,-0.193347,0.799288,0.219554,0.562069
10136217478,-0.238643,0.309309,-0.411037,0.800881,0.222349,0.561148
10136237515,-0.459806,0.377811,-0.622718,0.801640,0.224246,0.560227
10136257559,-0.368724,0.423308,-0.684406,0.795134,0.221601,0.559291
10136277605,0.110459,0.035368,-0.443928,0.795202,0.220806,0.562849
10136297649,-0.298988,0.028253,-0.151286,0.799763,0.220822,0.561880
10136317693,-0.238117,0.278974,-0.258646,0.798054,0.221642,0.558401
10136337738,-0.018377,0.354688,-0.488952,0.797248,0.222846,0.559296
10136357783,0.126722,0.552214,-0.414068,0.797222,0.220929,0.558856
10136377828,-0.023272,0.613380,0.097450,0.798668,0.220935,0.562691
10136397873,0.197691,0.499261,0.278703,0.795085,0.218984,0.562863
10136417918,0.896714,0.544200,0.143790,0.793371,0.220948,0.566021
10136437962,0.590752,0.240283,-0.196400,0.793885,0.224383,0.563174
10136458007,0.415556,0.437971,-0.378083,0.796996,0.224871,0.561463
10136478052,0.332837,0.187381,-0.019152,0.795065,0.223339,0.559913
10136498099,-0.093929,0.104040,-0.244350,0.792959,0.217486,0.565591
10136518144,0.505935,-0.268921,-0.263833,0.794569,0.214517,0.561712
10136538189,0.864223,-0.215923,-0.038081,0.804515,0.226724,0.555857
10136558233,0.142708,0.263529,-0.071094,0.811053,0.225830,0.559281
10136578278,0.729640,0.787537,0.076276,0.801550,0.217956,0.560187
10136598323,1.179412,0.437735,0.560730,0.792208,0.222045,0.564091
10136618368,0.829750,-0.329460,0.945051,0.795460,0.224677,0.556628
10136638433,0.245338,0.195498,0.956653,0.795517,0.222778,0.558829
10136658456,0.145108,-0.093345,0.729146,0.791476,0.215494,0.564413
10136678501,0.296300,-0.070780,0.491798,0.794990,0.212048,0.561554
10136698546,0.531032,-0.048299,0.230955,0.799669,0.220735,0.562336
10136718591,0.311509,0.202773,0.361912,0.800446,0.223815,0.561223
10136738636,0.205756,0.370125,0.461603,0.798615,0.217669,0.564720
10136758681,0.699965,0.521682,0.396724,0.796307,0.215040,0.562085
10136778725,0.751538,0.240278,0.099481,0.792578,0.222875,0.566181
10136798770,0.439277,-0.192663,0.163231,0.792895,0.224934,0.561614
10136818815,-0.085104,-0.085799,0.167150,0.799260,0.223269,0.558852
10136838860,-0.299074,-0.146536,-0.090174,0.799756,0.219801,0.559430
10136858907,-0.138924,-0.017432,-0.022959,0.795987,0.218050,0.561602
10136878951,0.142439,-0.139253,0.051182,0.792437,0.218284,0.561392
10136898996,-0.206592,-0.336444,0.328303,0.796636,0.218674,0.561056
10136919041,0.173632,-0.123989,0.249004,0.799309,0.220447,0.559604
10136939086,-0.055601,0.149639,-0.183740,0.797317,0.221484,0.560127
10136959131,-0.026305,0.096288,-0.450555,0.794237,0.222617,0.559185
10136979176,-0.055863,-0.009972,-0.175969,0.794210,0.221646,0.563472
10136999221,-0.154961,-0.298682,-0.106372,0.797474,0.220880,0.565141
10137019264,0.118824,-0.200120,-0.131419,0.798699,0.221898,0.557220
10137039309,-0.284834,-0.230252,-0.303516,0.794911,0.218686,0.559040
10137059354,-0.621373,-0.465771,-0.719720,0.797757,0.214379,0.561919
10137079399,0.551405,-0.428557,-0.225939,0.803109,0.218100,0.558012
10137099444,0.210363,-0.078578,-0.109381,0.808317,0.224935,0.555900
10137119489,-0.238659,0.651264,-0.578963,0.799691,0.215432,0.560194
10137139534,0.315351,0.095850,-0.529025,0.787884,0.219190,0.563810
10137159578,0.383004,-0.959054,0.020628,0.795440,0.223782,0.558911
10137179623,-0.171235,-0.227276,0.016293,0.799099,0.224542,0.558112
10137199668,-0.816976,-0.044040,-0.283254,0.796564,0.219101,0.556864
10137219713,-0.617564,0.335214,-0.505031,0.795695,0.216309,0.559794
10137239760,-0.403808,-0.181954,-0.390877,0.799176,0.217344,0.558809
10137259804,0.068825,0.008041,-0.279431,0.798015,0.218814,0.558060
10137279849,0.060507,0.151947,-0.469193,0.795821,0.219428,0.562682
10137299894,0.165415,-0.152142,-0.658709,0.803076,0.222768,0.560614
10137319939,-0.069515,0.061097,-0.487971,0.805390,0.225286,0.560610
10137339984,-0.660718,0.152698,-0.261602,0.799851,0.225702,0.556196
10137360029,-0.439124,0.030450,-0.353890,0.794605,0.221850,0.554824
10137380073,-0.004926,-0.243168,-0.158184,0.798215,0.219994,0.557688
10137400117,0.239092,0.038359,-0.000193,0.801052,0.221242,0.559610
10137420162,0.185740,0.212871,0.045757,0.801172,0.222961,0.558140
10137440207,0.003085,0.295921,-0.021545,0.798717,0.223080,0.556847
10137460252,0.299365,0.302708,0.029544,0.797257,0.223202,0.558110
10137480297,0.336804,0.506837,0.006093,0.797085,0.224593,0.560919
10137500342,-0.165399,0.521112,-0.028094,0.797284,0.225399,0.559457
10137520387,-0.499270,0.656659,-0.154945,0.798704,0.223018,0.560853
10137540431,-0.413896,0.624776,0.004515,0.798867,0.220894,0.557412
10137560476,-0.481601,1.017751,-0.276782,0.795093,0.224970,0.558534
10137580521,-0.739520,0.613068,-0.311890,0.795754,0.219656,0.556307
10137600568,-0.876329,0.451950,-0.766407,0.798609,0.210643,0.563868
10137620613,0.311314,0.381795,-0.628817,0.804259,0.215807,0.558495
10137640658,-0.264569,0.874860,-0.136309,0.812407,0.230997,0.558065
10137660702,-0.481737,1.579308,-0.005702,0.807989,0.221392,0.557019
10137680747,0.605785,1.991431,-0.105576,0.788261,0.214376,0.567039
10137700792,1.052323,0.703242,0.546994,0.790502,0.218080,0.566934
10137720837,0.086654,1.371122,0.727122,0.797831,0.235985,0.549450
10137740881,-2.604186,2.957269,-0.283179,0.802372,0.260442,0.549645
10137760926,-3.717025,1.832519,-0.601177,0.790075,0.239328,0.566937
10137780971,-1.250873,1.078421,0.508136,0.785731,0.197859,0.572073
10137801015,-0.955115,1.245256,0.231452,0.795415,0.200200,0.575493
10137821061,-1.709028,1.382543,-0.159049,0.800564,0.207997,0.567637
10137841105,-0.376947,2.247874,-0.154844,0.800657,0.212395,0.558315
10137861150,-0.886872,1.625128,0.002020,0.798850,0.232942,0.559315
10137881195,-1.121925,0.804708,0.560734,0.788504,0.225888,0.570952
10137901240,0.175929,1.723710,1.532674,0.776337,0.205246,0.578226
10137921285,-0.385169,-0.244682,0.876046,0.799688,0.215629,0.562196
10137941329,-0.673234,1.982189,0.030518,0.813980,0.235887,0.544197
10137961376,-2.289458,0.920092,1.369498,0.802260,0.285735,0.554807
10137981421,-5.401178,2.900074,3.836957,0.772765,0.267176,0.574684
10138001466,-5.824576,-1.150477,4.400168,0.793008,0.223115,0.575013
10138041556,-5.207221,2.473920,3.066425,0.791677,0.201766,0.582555
10138061600,-4.874348,1.570049,5.060720,0.772222,0.240991,0.570799
10138081645,-6.819999,0.067195,5.953163,0.786861,0.262510,0.563900
10138101689,-8.848778,1.581296,5.533044,0.795530,0.226327,0.570544
10138121734,-5.478047,3.234399,3.456315,0.783003,0.179777,0.574843
10138141779,-3.695948,2.852369,2.445016,0.764374,0.180715,0.590086
10138161823,-4.014344,-1.009367,0.546534,0.757587,0.192998,0.572818
10138181868,-1.211576,-0.740335,-4.267118,0.770559,0.225671,0.566816
10138201913,-1.234781,1.939405,-11.636366,0.729277,0.214920,0.545390
10138221958,1.418932,0.101283,-20.636946,0.702770,0.147951,0.583715
10138242003,6.472641,-6.767979,-23.891739,0.749991,0.138843,0.682190
10138262048,0.393364,-8.527162,-26.266083,0.822112,0.241205,0.702812
10138282093,-11.262040,-1.224747,-35.836006,0.845811,0.386799,0.639054
10138302138,-18.925610,2.985051,-35.849792,0.846398,0.493408,0.532384
10138322184,-27.960707,2.182998,-28.275738,0.861377,0.482012,0.500540
10138342229,-41.746883,9.299739,-32.298264,0.846870,0.365833,0.528798
10138362274,-52.994431,13.446977,-43.056782,0.789158,0.223415,0.583268
10138382319,-60.200134,13.624582,-50.665710,0.675819,0.128053,0.600161
10138402363,-57.845970,5.691916,-57.547966,0.628170,0.157942,0.612950
10138422408,-61.417469,-2.790729,-64.978485,0.697869,0.255421,0.571594
10138442453,-71.412323,-4.838912,-75.230324,0.785003,0.331376,0.539738
10138462496,-81.943581,-0.997863,-89.407051,0.785187,0.374084,0.558506
10138482541,-92.086655,-0.796144,-99.728439,0.763683,0.429527,0.603777
10138502587,-106.506638,-1.988548,-108.476837,0.742131,0.473660,0.585684
10138522631,-117.334213,-2.705754,-118.426430,0.692650,0.505623,0.553922
10138542676,-125.618858,-10.113694,-128.213989,0.672345,0.529555,0.568598
10138562721,-137.484467,-17.221289,-136.168823,0.704450,0.526086,0.546373
10138582766,-147.909760,-22.041510,-142.331345,0.734354,0.518375,0.538006
10138602811,-156.656235,-23.968105,-150.246445,0.729866,0.513786,0.524537
10138622856,-158.880722,-26.415407,-154.234299,0.714649,0.495787,0.500356
10138642901,-163.289948,-28.479399,-155.143204,0.692926,0.443636,0.505271
10138662946,-166.599915,-30.597900,-156.845169,0.654053,0.310103,0.466394
10138682992,-166.200302,-36.598797,-164.818924,0.687182,0.125753,0.457870
10138703037,-155.545258,-35.262142,-180.481293,0.622823,0.315457,0.536408
10138723082,-164.948013,-34.558289,-188.302429,0.599053,0.588337,0.577684
10138743127,-176.672043,-58.003906,-205.141098,0.891131,0.711580,0.513157
10138763171,-186.144547,-59.852531,-210.094772,1.150496,0.462968,0.583475
10138783216,-173.834366,-53.023861,-213.022003,1.276788,-0.033362,0.690555
10138803261,-144.398300,-40.270493,-191.707596,1.147832,-0.210210,0.752892
10138823315,-118.218079,-30.446365,-149.529419,0.808350,-0.199002,0.792291
10138843350,-94.005646,-39.230068,-114.045502,0.649580,-0.105876,0.722171
10138863394,-78.783104,-44.455452,-93.130783,0.608949,0.029509,0.663944
10138883439,-70.009964,-35.231533,-83.706749,0.569373,0.191745,0.652028
10138903484,-70.529549,-34.614967,-82.690109,0.562783,0.219696,0.670960
10138923529,-67.715492,-35.318192,-86.070686,0.602672,0.188192,0.683347
10138943574,-59.457737,-34.689560,-92.054008,0.592677,0.225739,0.698442
10138963619,-56.188828,-35.196659,-97.868515,0.594794,0.261801,0.709904
10138983664,-56.368664,-35.898003,-102.825974,0.621530,0.277469,0.713066
10139003709,-53.818573,-34.516800,-102.656380,0.590100,0.288448,0.728860
10139023753,-48.212440,-41.062286,-94.777763,0.590351,0.315553,0.770883
10139043800,-46.826248,-48.408775,-84.626251,0.684125,0.354161,0.719536
10139063845,-44.520222,-43.490295,-78.378723,0.713721,0.396525,0.688812
10139083890,-46.503044,-41.124203,-77.123978,0.700763,0.407519,0.657125
10139103934,-58.746185,-42.178711,-79.314598,0.670597,0.413890,0.656124
10139123979,-65.661118,-46.932926,-84.071846,0.679272,0.359113,0.663467
10139144024,-67.703476,-48.970078,-88.350975,0.689494,0.413364,0.672836
10139164069,-83.060600,-49.743057,-95.827942,0.689703,0.524204,0.645702
10139184114,-99.427948,-53.482292,-109.617554,0.689281,0.557401,0.583879
10139204157,-106.564362,-59.204216,-120.162094,0.715773,0.501399,0.572243
10139224202,-111.940750,-57.081379,-125.486160,0.751213,0.438864,0.583397
10139244247,-128.967346,-54.809326,-125.624405,0.798358,0.401701,0.609723
10139264292,-143.464005,-50.154472,-129.364883,0.813427,0.437871,0.562465
10139284337,-163.670761,-42.362122,-130.725754,0.805282,0.474874,0.481525
10139304382,-177.089355,-42.436790,-136.595551,0.870959,0.481718,0.467290
10139324427,-195.988678,-38.117966,-152.308411,0.926328,0.350355,0.494818
10139344472,-193.309128,-32.688358,-158.017319,0.880140,0.084847,0.558309
10139364517,-182.042877,-36.216568,-156.599579,0.830621,-0.003561,0.685047
10139384562,-196.073212,-35.066780,-161.985870,0.751377,0.046243,0.776194
10139404606,-210.516190,-30.945652,-169.344955,0.642475,0.153215,0.706870
10139424653,-204.509277,-36.758232,-170.360657,0.638144,0.210889,0.580538
10139444698,-201.941711,-30.460186,-171.948074,0.638269,0.273467,0.648670
10139464742,-213.255005,-23.803986,-181.207642,0.558631,0.168970,0.632290
10139484788,-211.717957,-29.798615,-189.967178,0.559099,0.137969,0.632640
10139504833,-211.656052,-33.090328,-208.050369,0.702170,0.181898,0.637238
10139524877,-205.643692,-34.888668,-223.521835,0.839841,0.241288,0.575388
10139544922,-207.545197,-40.162666,-225.193527,0.927899,0.407644,0.515479
10139564966,-231.442810,-32.264259,-217.559464,0.941922,0.390197,0.527106
10139585010,-228.359711,-43.267281,-239.170563,1.004768,-0.103717,0.647724
10139605055,-202.844086,-55.533207,-271.001007,1.126683,-0.749992,0.799165
10139625100,-166.011230,-29.262688,-262.318604,0.954767,-0.622185,0.832361
10139645145,-148.314484,-24.669041,-205.351913,0.599761,-0.292197,0.848258
10139665190,-139.531647,-46.128067,-176.708466,0.582519,-0.115697,0.700275
10139685235,-130.793579,-43.261471,-157.481033,0.621341,-0.034981,0.634523
10139705280,-122.520210,-48.600273,-148.542206,0.603346,0.016040,0.618037
10139725325,-118.914894,-47.850891,-148.479126,0.639551,0.052236,0.630294
10139745369,-120.234657,-39.887371,-155.462524,0.642281,0.058914,0.689256
10139765414,-122.917252,-45.793877,-162.292847,0.750320,0.077088,0.703096
10139785461,-126.725037,-43.276958,-167.172211,0.837020,0.173909,0.643751
10139805505,-138.005020,-30.758877,-172.498947,0.793840,0.269018,0.633091
10139825550,-146.385345,-31.891743,-172.502182,0.763418,0.280508,0.621029
10139845595,-148.064957,-33.128868,-171.749161,0.742719,0.209619,0.621372
10139865640,-147.429581,-39.044563,-175.755646,0.736782,0.166391,0.632065
10139885685,-153.276947,-45.555603,-180.831772,0.785945,0.160039,0.649684
10139905730,-154.797073,-46.201962,-184.400101,0.815278,0.147021,0.624968
10139925774,-156.231445,-47.827515,-184.943710,0.840415,0.155767,0.613244
10139945819,-154.400208,-46.399696,-183.900162,0.843559,0.116265,0.565886
10139965863,-147.083878,-41.419846,-183.648605,0.780338,0.043700,0.574035
10140005953,-122.086563,-45.855652,-179.691727,0.772541,-0.028539,0.665983
10140025998,-121.711067,-42.676525,-174.456223,0.725450,-0.009492,0.655740
10140046043,-117.445274,-42.890205,-168.203629,0.635724,0.072943,0.636741
10140066088,-108.206375,-53.458889,-158.756836,0.712721,0.148819,0.610821
10140086133,-101.883377,-49.425045,-151.373657,0.791867,0.148554,0.599565
10140106177,-94.807793,-44.648056,-146.366272,0.764848,0.106847,0.625478
10140126222,-88.335396,-46.847683,-140.684845,0.714636,0.136143,0.639254
10140146269,-84.902870,-50.860718,-133.812820,0.685883,0.178435,0.641427
10140166313,-83.489609,-55.884113,-129.636459,0.713584,0.255445,0.644726
10140186358,-82.772804,-56.217937,-126.921921,0.749361,0.303755,0.617093
10140206403,-81.760742,-56.545460,-126.533218,0.744788,0.331529,0.603356
10140226448,-83.515175,-58.726467,-129.001266,0.723310,0.349260,0.615344
10140246493,-86.434410,-62.995476,-128.891037,0.705980,0.358483,0.631802
10140266538,-92.425308,-69.707855,-125.654327,0.726046,0.367627,0.639339
10140286582,-99.946007,-72.345116,-122.805870,0.772481,0.422356,0.613643
10140306626,-113.240784,-70.927521,-122.834793,0.771716,0.487440,0.573222
10140326671,-124.407860,-71.155975,-128.340790,0.766112,0.536394,0.548833
10140346716,-132.161774,-74.458359,-134.494751,0.787229,0.579741,0.523137
10140366761,-149.708786,-75.387268,-137.985626,0.822080,0.604366,0.508439
10140386806,-170.554108,-73.129173,-142.665558,0.849110,0.573807,0.498965
10140406851,-186.511948,-68.224258,-150.897507,0.841632,0.587353,0.503532
10140426896,-203.764114,-69.064232,-158.855057,0.815894,0.625625,0.485639
10140446941,-223.582565,-70.876053,-169.435577,0.840331,0.580035,0.422189
10140466985,-235.472046,-71.388672,-182.820709,0.883000,0.481434,0.377975
10140487030,-243.208191,-72.593437,-189.304382,0.910783,0.373247,0.413941
10140507076,-241.554489,-68.712181,-192.131882,0.938991,0.259917,0.407981
10140527121,-238.041748,-65.737259,-195.483185,0.962059,0.192456,0.418266
10140547166,-228.248291,-63.943707,-194.059158,0.989754,0.086310,0.433729
10140567211,-208.138092,-51.894978,-185.646545,1.003677,-0.002791,0.470711
10140587256,-189.755661,-42.798317,-170.346191,0.943563,-0.028632,0.541682
10140607301,-173.662582,-39.217594,-154.634521,0.868132,-0.108504,0.573019
10140627346,-149.877777,-33.030613,-142.762970,0.802224,-0.147605,0.601448
10140647390,-126.883873,-28.931808,-127.957939,0.767029,-0.087503,0.644852
10140667435,-111.516068,-27.297079,-114.097755,0.743437,-0.053005,0.651496
10140687479,-95.611298,-21.012522,-103.209572,0.713981,-0.032896,0.660766
10140707524,-80.006996,-15.435789,-95.015320,0.698704,-0.012657,0.654296
10140727569,-65.038979,-9.630257,-86.313583,0.722676,0.017017,0.672253
10140747614,-54.099430,-2.872144,-79.798782,0.721564,0.033676,0.666645
10140767659,-40.155064,-1.681631,-76.150993,0.727818,0.086783,0.686100
10140787704,-39.922573,4.087272,-75.762085,0.741673,0.177340,0.718594
10140807749,-46.679714,12.249795,-73.234421,0.762503,0.204123,0.708601
10140827794,-45.718021,19.297329,-67.649010,0.751512,0.211127,0.671225
10140847839,-45.082512,26.071667,-61.740879,0.726459,0.238049,0.673643
10140867885,-51.422966,31.309822,-54.208435,0.707659,0.240588,0.720737
10140887930,-48.893761,28.109940,-49.349091,0.714118,0.234605,0.726114
10140907974,-43.753483,28.574934,-53.350460,0.608998,0.197025,0.682501
10140928020,-65.266785,42.922928,-65.533089,0.446272,0.114594,0.696014
10140948064,-64.782082,28.105436,-72.889687,0.475767,-0.024516,0.770668
10140968109,-62.223667,21.302032,-86.562477,0.665767,-0.063611,0.750528
10141008197,-61.036011,35.597717,-86.996498,0.570635,0.106500,0.816894
10141028242,-49.554794,27.185173,-78.711678,0.721456,0.067018,0.875953
10141048288,-39.990997,41.898918,-79.903564,0.828857,0.036482,0.872164
10141068332,-39.883507,50.844841,-79.920464,0.717843,0.030054,0.900359
10141088377,-42.916817,49.732220,-75.348045,0.585367,0.028060,0.904779
10141108422,-40.227234,50.305916,-62.136215,0.522308,-0.005611,0.808362
10141128467,-40.362930,47.429726,-52.480083,0.528962,-0.030064,0.756626
10141148512,-35.066360,49.258022,-50.038857,0.540438,-0.008327,0.685516
10141168557,-24.108418,57.893459,-43.586918,0.484014,-0.011398,0.673476
10141188602,-15.549846,57.790627,-36.125565,0.456346,-0.032745,0.764949
10141208647,-13.168437,57.943459,-29.759834,0.470363,-0.005767,0.805344
10141228693,-16.331797,62.281178,-24.018343,0.471335,0.059678,0.792975
10141248738,-12.365996,66.012154,-18.574720,0.405822,0.067194,0.876651
10141268782,-5.403715,62.260487,-15.272505,0.324289,0.026589,0.966889
10141288828,-6.893465,56.799896,-8.567056,0.282063,0.076776,0.998942
10141308872,-4.528993,48.690563,-2.688574,0.156677,0.107708,1.070151
10141328917,-1.311177,31.645529,-6.011089,0.028325,0.104821,1.148446
10141348962,-2.731618,13.793129,-5.107216,-0.026619,0.181904,1.229713
10141369022,-11.135468,-2.449421,-4.044666,-0.055721,0.211761,1.313743
10141389050,-28.131479,-20.717220,-10.258362,-0.071135,0.268560,1.370065
10141409095,-42.994343,-39.103931,-23.245729,-0.069819,0.328185,1.423208
10141429140,-41.300152,-54.305050,-36.233543,-0.183327,0.284741,1.496028
10141449185,-34.626705,-69.982559,-51.133183,-0.334575,0.192655,1.496685
10141469230,-39.862175,-84.972046,-63.153866,-0.350029,0.160636,1.512313
10141489275,-41.369621,-94.783173,-62.995903,-0.186572,0.149594,1.396333
10141509320,-30.531755,-84.948593,-60.696159,0.095021,0.074241,1.104938
10141529365,-20.147301,-33.816833,-53.510555,0.220644,0.278812,1.011848
10141549410,-60.561047,-90.155014,-33.835045,0.317109,0.299196,0.553975
10141569454,-55.322475,-171.870041,-40.517292,0.658264,0.192245,0.703294
10141589499,3.332295,-117.888275,-42.595036,0.660013,-0.186092,1.145993
10141609546,53.232307,-62.822071,-16.319937,0.270439,-0.423762,1.346318
10141629591,20.334881,-86.489243,24.864918,0.042117,-0.464943,0.967519
10141649636,37.585999,-93.221649,28.197720,-0.022601,-0.192465,0.731541
10141669680,56.604397,-97.710861,3.441435,0.076968,0.155309,0.532013
10141689725,43.867737,-109.377243,-19.419043,0.227232,0.369711,0.387308
10141709770,26.057270,-117.491219,-28.751978,0.399520,0.487783,0.392782
10141729815,-3.882376,-117.732231,-30.609613,0.660650,0.375661,0.406085
10141749858,-2.750127,-114.263611,-22.447140,0.928473,0.008756,0.411798
10141769903,-6.016358,-83.494965,-26.427937,1.026483,-0.045717,0.331570
10141789948,-9.467525,-29.118793,-14.438834,0.970784,0.127126,0.278387
10141809993,5.279440,-17.390776,-2.739393,0.933455,0.120127,0.404815
10141830038,15.195912,-11.964823,-2.698661,1.179151,0.076320,0.503206
10141850083,34.800060,10.596934,7.543911,1.183417,-0.048998,0.491980
10141870128,42.319572,30.288132,0.207405,0.967787,-0.008075,0.497442
10141890173,34.102322,10.622736,-3.984864,1.063344,0.282267,0.440388
10141910218,5.477776,14.600749,-1.925528,1.204658,0.353778,0.235343
10141930263,-10.409863,47.414543,4.869361,0.978767,0.006442,0.435401
10141950308,13.112818,34.615681,0.945290,1.239568,-0.003475,0.323673
10141970353,-3.486991,69.154869,-10.379917,1.478283,0.262778,0.282886
10141990398,-32.874626,132.023178,-43.231735,1.157298,0.336984,0.348122
10142010443,-24.301523,145.248993,-42.327206,0.700701,0.062323,0.451117
10142030488,-6.029015,123.981735,-25.366976,0.513829,0.024938,0.491486
10142050533,-10.913244,123.970360,-26.213240,0.432255,0.043342,0.459692
10142070578,-10.899761,121.186203,-31.314972,0.388541,0.019209,0.398299
10142090623,-5.335076,119.859093,-30.823101,0.326382,0.071643,0.460142
10142110666,-4.717841,113.826881,-23.577131,0.130236,0.134076,0.680434
10142130712,2.130500,88.827469,-12.071901,-0.056789,0.158253,0.899196
10142150756,3.394971,70.389549,-6.601846,-0.139788,0.149291,1.075290
10142170801,6.835846,48.134369,-0.771573,-0.238395,0.249128,1.286881
10142190846,18.405392,15.392330,8.426907,-0.274342,0.367034,1.367039
10142210891,16.370932,0.015266,2.636666,-0.220560,0.387664,1.456303
10142230936,12.270951,-12.599069,-15.801959,-0.258930,0.335609,1.678146
10142250980,19.233898,-20.713911,-30.177691,-0.048865,0.396833,1.616537
10142271025,26.087570,-10.666761,-36.044880,0.240712,0.283108,1.280177
10142291071,30.657799,37.709087,-33.025009,0.540824,0.310571,1.099233
10142311115,27.761135,-6.361530,8.010064,0.742765,0.545481,0.734773
10142331162,-39.308281,-104.984268,39.860168,0.671170,0.692685,1.485063
10142351207,-38.257755,-90.301445,21.219120,0.004414,0.206440,1.833909
10142371251,27.606937,-49.515381,14.146682,-0.074841,0.109934,1.337843
10142391296,6.289743,-72.214417,33.247810,-0.065136,0.196237,1.253258
10142411341,-2.895858,-48.069370,27.292198,-0.200074,0.213705,1.033166
10142431386,1.671761,-24.335865,11.510574,-0.353901,0.331162,0.809015
10142451431,-7.073761,-47.202244,3.897149,-0.307619,0.320534,0.909590
10142471475,-2.742444,-105.350716,5.214026,0.088438,0.256756,0.928396
10142491520,12.136235,-134.543030,21.194536,0.454824,0.192157,0.760897
10142511564,10.555045,-122.716606,17.576786,0.529950,0.223711,0.553786
10142531609,-8.106780,-88.517792,5.978216,0.487268,0.290360,0.404157
10142551654,-26.627077,-74.625008,1.338026,0.483698,0.262761,0.400079
10142571699,-30.404240,-71.286491,-1.881565,0.555970,0.118586,0.443132
10142591744,-22.872452,-68.508057,-11.860961,0.742221,0.019393,0.500393
10142611788,-19.381252,-62.615829,-18.269812,0.865552,0.035330,0.538855
10142631834,-12.979863,-36.402340,-8.919844,0.847215,0.148136,0.505651
10142651878,-8.484568,-21.176075,4.271893,0.755597,0.112770,0.581114
10142671923,-16.173252,-42.978588,-1.842218,1.105811,0.127492,0.606585
10142691970,-10.778559,-21.201147,-5.149563,1.470872,0.266633,0.308657
10142712015,-1.074623,56.641022,4.187219,0.973622,0.201134,0.319040
10142732059,14.131187,43.050602,-1.203616,0.683873,0.258770,0.602055
10142752104,22.551315,-1.793326,15.290689,0.884253,0.231193,0.494766
10142772149,14.831839,15.986312,4.088461,0.944902,0.092486,0.350773
10142792194,18.778509,27.967611,0.565313,0.843753,0.073185,0.371589
10142812239,18.544033,20.549479,0.444613,0.974246,0.196192,0.442997
10142832282,14.026954,30.393133,-6.531275,1.188025,0.138337,0.399514
10142852328,15.511423,74.886848,-5.388650,1.212305,0.092222,0.439039
10142872372,10.110829,113.709877,-18.677874,0.866849,0.252035,0.642141
10142892417,2.191961,116.655228,-25.225006,0.509621,0.250599,0.673958
10142912462,8.359092,100.159195,-18.986837,0.308563,0.167159,0.670356
10142932507,13.661998,88.161957,-16.243093,0.205339,0.128464,0.740390
10142952552,14.793934,74.199623,-13.777863,0.089317,0.091659,0.830800
10142972597,21.776192,55.588741,-10.088453,-0.121415,0.196519,1.013397
10142992642,30.241459,33.686256,-4.700806,-0.316050,0.319671,1.174475
10143012686,26.861492,29.639271,-1.905623,-0.299271,0.391260,1.262229
10143032731,22.780947,27.505911,-4.310175,-0.116490,0.431132,1.229639
10143052778,35.606766,6.541939,-16.227524,0.074741,0.392756,1.085318
10143072822,54.669895,30.516943,-24.928841,0.412333,0.469674,0.862269
10143092867,31.738583,29.113762,-28.598938,0.445054,0.458025,0.669316
10143112912,-26.511335,-43.364613,-1.214073,0.957137,0.671988,1.096469
10143132957,-65.901489,-23.367407,7.113953,0.769546,0.825712,1.639551
10143153002,-44.703068,-14.755661,-2.495790,-0.057472,0.464633,1.419622
10143173047,-18.746887,-47.563961,5.312574,0.045278,0.356040,1.128196
10143193090,-5.214611,-41.698055,10.307533,0.075866,0.247970,1.085793
10143213135,-6.952889,-29.548037,-0.767629,-0.012172,0.197058,0.886364
10143233180,-7.828630,-32.268810,-1.832522,-0.054486,0.265323,0.884399
10143253225,-11.324372,-40.958027,4.723757,-0.064746,0.356683,0.964964
10143273270,-11.525975,-60.959927,11.273092,0.134533,0.378403,0.964966
10143293315,-1.443182,-85.019455,23.186878,0.492841,0.335092,0.937531
10143313360,3.458389,-75.386551,21.982208,0.675924,0.298245,0.811164
10143333405,-4.125639,-52.274868,19.824434,0.581086,0.277993,0.764479
10143353450,-5.083062,-45.578308,18.751265,0.395867,0.225979,0.764739
10143373494,4.139058,-52.867073,20.233961,0.333856,0.227062,0.723216
10143393539,-1.224577,-66.239006,21.681877,0.436377,0.246609,0.701498
10143413585,-7.427910,-70.217285,19.737206,0.534601,0.223849,0.695029
10143433630,-3.831890,-68.085968,16.698395,0.544892,0.242502,0.723811
10143453675,-2.738744,-72.480263,16.374199,0.569317,0.253760,0.717614
10143473720,-5.692434,-75.578575,16.856873,0.642007,0.222570,0.677797
10143493765,-8.994656,-74.246201,15.532493,0.708795,0.195849,0.651192
10143513810,-7.802621,-67.886108,14.062245,0.721234,0.217219,0.619150
10143533855,-6.901358,-62.064632,14.354563,0.712165,0.237218,0.580133
10143553898,-8.729419,-56.690029,12.885548,0.695569,0.221881,0.543084
10143573943,-8.276985,-55.626091,13.391500,0.711375,0.200851,0.579699
10143593988,-4.212540,-54.139645,13.876976,0.762825,0.154177,0.585832
10143614033,0.735563,-49.537247,15.320254,0.792756,0.143789,0.585499
10143634078,5.066317,-46.355515,17.043867,0.789595,0.172780,0.591428
10143654123,3.041470,-45.533371,15.992053,0.770676,0.203568,0.574010
10143674168,0.308595,-46.239033,13.423453,0.781464,0.180696,0.547602
10143694213,0.992512,-47.874355,12.124646,0.808318,0.171880,0.518919
10143714258,1.374984,-43.413769,10.601454,0.789866,0.149607,0.489560
10143734303,5.468463,-41.805927,10.667587,0.786687,0.120833,0.500336
10143754348,9.119910,-42.355961,11.485742,0.826468,0.135804,0.497225
10143794439,14.143122,-33.573353,12.680707,0.906790,0.142016,0.488929
10143814483,13.375246,-27.446953,11.743752,0.883434,0.168214,0.470424
10143834528,10.900488,-27.977207,10.986161,0.870291,0.153344,0.467082
10143854573,11.864957,-26.260782,9.880109,0.861751,0.155953,0.469821
10143874618,12.705784,-25.495266,6.711346,0.832215,0.180348,0.466399
10143894663,12.572510,-25.678905,3.749024,0.831669,0.186546,0.465161
10143914706,12.002939,-25.732431,1.947905,0.847369,0.192724,0.456939
10143934751,12.208452,-24.562326,1.450034,0.859786,0.203267,0.440464
10143954796,10.689046,-24.478191,-0.282986,0.857811,0.185427,0.465452
10143974841,9.039116,-26.081978,-3.537068,0.896452,0.170098,0.455482
10143994886,9.946408,-23.863537,-3.927037,0.900941,0.177556,0.424771
10144014931,9.616842,-22.806395,-3.133206,0.878295,0.180335,0.421669
10144034976,6.858284,-23.632164,-2.410392,0.861086,0.175970,0.425403
10144075065,1.060970,-23.369263,-3.585119,0.916034,0.223303,0.440709
10144095110,-4.451386,-20.896650,-8.847527,0.923755,0.211964,0.426747
10144115155,-7.366888,-20.493612,-13.983142,0.901010,0.170567,0.429017
10144135201,-9.824190,-23.397223,-18.997248,0.893166,0.165098,0.463147
10144155246,-16.376905,-26.023430,-23.492649,0.913661,0.229916,0.442549
10144175291,-24.325525,-25.493572,-26.715693,0.908173,0.273747,0.416018
10144195336,-32.925213,-28.998821,-29.274755,0.876018,0.231253,0.448545
10144215381,-42.388939,-33.643764,-32.580326,0.889103,0.182990,0.445489
10144235426,-49.761684,-34.186100,-35.799152,0.902752,0.201762,0.422399
10144255471,-58.574108,-34.362766,-39.913864,0.906573,0.219826,0.419456
10144275520,-70.354111,-35.228676,-44.355618,0.907520,0.204166,0.424235
10144295559,-83.500015,-36.435959,-49.944550,0.925987,0.192870,0.413356
10144315604,-95.729095,-35.758934,-55.260422,0.934745,0.182969,0.423790
10144335649,-108.214233,-34.253101,-60.331322,0.922876,0.149220,0.422069
10144355694,-122.198128,-36.348949,-65.935837,0.889022,0.094668,0.447856
10144375739,-134.778671,-45.066956,-73.190414,0.882224,0.107094,0.462635
10144395784,-151.474075,-52.528675,-83.500038,0.954808,0.180017,0.435341
10144415828,-171.620224,-51.969402,-95.421104,1.035888,0.162182,0.368798
10144435873,-187.131744,-49.002895,-103.304192,1.006008,0.076543,0.352808
10144455918,-203.196701,-56.602913,-115.698311,0.996796,0.013265,0.357724
10144475963,-217.343155,-61.667095,-130.615952,1.074956,-0.016715,0.295085
10144496009,-227.363922,-57.226028,-144.789536,1.105946,0.016850,0.273365
10144516054,-237.781158,-56.690666,-157.387009,1.109323,0.009465,0.267715
10144536099,-242.246872,-58.902077,-165.060410,1.131526,-0.023316,0.218620
10144556144,-244.687363,-56.400780,-168.251358,1.147411,-0.063484,0.231267
10144576189,-248.612137,-52.980728,-176.330399,1.136007,-0.056970,0.263451
10144596234,-253.541046,-49.870525,-182.413025,1.137006,-0.065289,0.312509
10144616279,-252.842712,-47.555347,-187.799072,1.129496,-0.077260,0.355799
10144636326,-244.215805,-44.911896,-191.654007,1.148198,-0.102243,0.381270
10144656367,-236.501724,-41.923954,-191.807404,1.159816,-0.124562,0.382541
10144676412,-229.099655,-36.388290,-189.263916,1.046940,-0.090582,0.459916
10144696457,-220.769119,-38.857830,-188.639816,0.994212,-0.060741,0.493153
10144716502,-214.614227,-40.345356,-188.807495,1.006996,-0.079197,0.488938
10144736547,-206.502747,-37.577885,-188.308563,1.020883,-0.157050,0.530470
10144756592,-190.238510,-36.087093,-188.533676,1.020974,-0.158441,0.552515
10144776636,-172.957870,-32.512615,-184.380478,1.007719,-0.075660,0.562933
10144796681,-160.428391,-28.841879,-178.133987,1.009146,-0.074830,0.604817
10144816726,-152.683380,-29.004812,-170.666321,0.943287,-0.168440,0.659644
10144836771,-131.288193,-31.670738,-159.156601,0.925914,-0.223186,0.717692
10144856816,-118.263000,-27.627895,-152.685699,0.944775,-0.146772,0.746333
10144876862,-111.649109,-25.606922,-141.828918,0.983661,-0.076187,0.729100
10144896907,-100.216957,-18.095314,-132.096085,0.999628,-0.058956,0.686921
10144916952,-87.529144,-6.983600,-125.774017,0.966850,-0.029541,0.665225
10144936997,-78.658852,2.801467,-119.055763,0.970132,0.001630,0.746022
10144957042,-71.123093,15.097596,-108.619537,0.934494,-0.061510,0.778148
10144977087,-61.293335,26.868067,-96.471039,0.893912,-0.106652,0.755281
10144997132,-49.054981,45.259560,-77.909821,0.828606,0.020020,0.764320
10145017175,-47.012627,57.859894,-60.742905,0.784400,0.060406,0.773405
10145037220,-40.267563,71.174988,-50.796761,0.735800,-0.076852,0.766444
10145077310,-10.326878,104.308914,-38.487457,0.696327,-0.120892,0.771891
10145097355,-10.498688,120.108368,-27.302185,0.491555,-0.024266,0.737277
10145117400,-15.832079,113.358749,-21.091709,0.458911,0.316736,0.750521
10145137445,-23.359550,111.536491,-14.427210,0.474569,0.308272,0.747245
10145157489,-6.921019,97.970245,2.387433,0.179787,0.091359,0.925785
10145177534,-24.572792,67.245232,-4.350355,0.175571,0.281270,1.093894
10145197579,-68.676498,82.526512,-29.616510,0.603965,0.371307,0.893706
10145217624,-57.926617,107.572571,-55.678146,0.339379,0.632239,1.027187
10145237670,-61.946510,78.771751,-67.298943,-0.453246,0.511401,1.181086
10145257715,-58.968933,18.863213,-61.269539,-0.506266,0.389271,1.226774
10145277760,-48.940189,-8.505560,-55.964890,-0.464484,0.295488,1.479409
10145297805,-42.229168,-43.204903,-47.915764,-0.667775,0.149817,1.639001
10145317857,-50.223602,-75.706314,-31.391071,-0.725034,0.305221,1.766765
10145337895,-47.704300,-98.846382,-17.591778,-0.798716,0.331505,1.894565
10145357940,-35.955830,-104.496559,-18.301212,-0.838890,0.213730,1.876216
10145377991,-9.219352,-73.382126,-23.876049,-0.698497,0.250618,1.747107
10145398028,10.118101,-20.077530,-18.536205,-0.832868,0.487929,1.333282
10145418073,-61.165413,-72.900482,0.793666,-0.603254,0.451813,0.601530
10145438118,-49.674721,-200.302002,42.597130,0.465993,0.472342,-0.702509
10145458163,62.291645,-353.214111,18.159863,2.459502,-0.417539,-0.194424
10145478208,6.429852,-164.903702,-31.207834,3.037217,-0.573805,0.856187
10145498253,116.127373,282.912048,-11.019161,0.608668,-0.328693,0.411701
10145518298,13.034086,161.751480,49.057129,-0.478542,-0.914583,0.320738
10145538342,56.642582,-120.829300,60.417381,0.581735,-0.784452,-0.147207
10145558387,71.535011,-62.715561,-31.582687,1.976414,0.231188,-0.288980
10145578432,52.459038,202.230759,-132.644577,1.498009,1.336869,-0.608148
10145598477,-14.042839,328.806580,-37.795109,0.030931,0.737088,0.731452
10145618523,-29.254532,167.010330,-33.746841,-0.593158,0.038503,1.354221
10145638568,-21.332287,76.315414,-26.187342,0.247038,0.063382,0.664936
10145658613,-38.281082,96.335487,-8.432344,0.433342,0.272664,0.542297
10145678658,-29.486549,87.860924,-24.810150,0.206772,0.320341,0.889677
10145698703,-26.685598,80.994133,-60.585415,-0.241551,0.253056,1.406822
10145718748,-19.898359,61.960899,-50.014801,-0.688733,0.009743,1.640095
10145738793,18.701099,24.274277,-31.930254,-1.293906,0.041912,1.745482
10145758836,23.180876,-19.219173,5.299514,-1.619673,0.207218,2.255138
10145778881,7.587524,-45.243183,27.711954,-1.654944,0.196842,2.548130
10145798926,29.099146,-58.189148,30.804657,-1.735508,0.428717,1.986796
10145818971,117.086830,-38.262516,25.456423,-1.638049,0.574338,0.926001
10145839016,159.755554,-37.428837,17.593990,-1.308491,0.474746,0.096081
10145859060,-6.455457,-193.250519,70.469650,-0.072043,0.640811,0.243313
10145879106,-95.939148,-560.336243,230.489014,2.570954,1.427572,1.323987
10145899151,-192.573547,-334.055023,47.567421,3.421933,-0.462048,-0.458157
10145919195,47.524513,404.780548,-94.082047,0.177417,-0.195327,-0.540232
10145939240,88.620232,153.233200,13.083427,-0.774076,0.401369,1.260498
10145959285,-41.350975,-260.642731,61.171383,0.446345,-0.247210,-0.163283
10145979331,-54.144585,-124.443916,-9.518988,1.711439,-0.476689,-0.642149
10145999376,-60.947948,122.571243,-89.578194,1.713349,-0.200071,-0.322576
10146019421,2.118656,237.706848,-52.543831,0.549962,0.358588,0.738458
10146039466,-30.745863,171.634003,-14.335978,-0.237411,0.651397,0.893897
10146059511,-16.758816,104.091805,-60.317684,-0.024658,0.446245,0.488901
10146079555,-5.645461,76.040665,-15.481754,0.303679,0.363552,0.650490
10146099601,-6.062391,56.862453,-19.939983,0.463292,0.192561,0.708696
10146119671,-16.789742,78.038704,-22.056587,0.211647,0.371104,1.185553
10146139689,-12.009911,77.759338,-42.471916,-0.746629,0.422725,1.520546
10146159734,12.609437,-13.842037,-24.137794,-1.494668,0.398068,2.179637
10146179779,46.697968,-102.436920,21.653400,-1.549978,0.369887,2.389961
10146199824,26.972923,-51.793106,18.442797,-1.491182,0.332674,2.420925
10146219868,56.053280,-57.421444,15.086418,-1.322384,0.308472,1.522473
10146239913,124.054504,-20.978966,4.154468,-0.747007,0.105882,0.236699
10146259958,47.697811,8.665943,31.307350,0.046800,-0.165276,0.075574
10146280003,-49.266117,-237.441696,121.684174,0.995037,0.782433,2.608266
10146300048,-85.856201,-305.223206,54.964931,2.202432,0.741159,0.813105
10146320093,13.669325,142.711029,-52.397827,0.177782,0.705705,0.191615
10146340138,0.748754,15.419821,35.546265,-0.726703,0.602140,0.797409
10146360184,-23.524689,-185.894699,84.634094,0.276249,-0.181068,-0.005925
10146380229,-40.618530,-82.951981,32.627239,0.833322,-0.522450,-0.156909
10146400274,-97.644463,-11.785699,-40.671738,1.231462,-0.584320,-0.096952
10146420319,-78.676094,1.908653,-93.236374,1.453175,-0.170167,-0.006159
10146440364,-62.312931,152.034164,-19.004452,0.990718,0.945215,0.764877
10146460408,23.219904,163.944199,-24.280577,0.434316,0.506466,0.538826
10146480453,-38.486660,107.647018,-21.902994,0.396177,-0.042817,0.271769
10146500497,-9.525949,127.707016,-13.101086,0.229083,0.072023,0.900721
10146520542,61.819454,43.364819,11.572015,0.299724,0.044448,0.664476
10146540587,54.283520,28.076443,6.509516,0.305617,-0.041275,0.860972
10146560632,2.610662,29.411480,2.721994,-0.396742,0.416394,1.809398
10146580677,30.865862,-30.977219,20.526392,-1.274856,0.729166,2.040760
10146600721,59.069664,-46.202576,55.079212,-1.048994,0.508874,1.574074
10146620766,34.950443,-83.983017,48.390060,-1.118245,0.661986,2.301844
10146640811,43.049191,-83.596054,28.733343,-0.787598,0.836514,2.035239
10146660856,89.843864,7.384966,-14.922430,-0.721131,0.694826,0.892281
10146680901,72.314766,89.084984,-31.336033,-0.581762,0.151563,-0.098608
10146700946,-130.101730,18.819702,26.170179,-0.207457,-0.370214,0.968283
10146720992,39.134552,-454.623016,90.883286,1.714075,0.435492,3.705457
10146741038,-8.413908,-103.900581,24.515192,1.985616,0.998933,-0.541344
10146761082,49.498299,229.444839,54.884369,-0.558247,0.745392,1.198235
10146781127,1.834492,-70.515900,66.328537,-0.730490,0.078472,0.024547
10146801172,-18.652575,-153.945526,51.061260,0.152625,-0.348226,-0.367533
10146821216,-31.049892,-74.061737,11.564683,0.628971,-0.272058,-0.207630
10146841261,-77.951241,-45.781532,-65.740509,1.134338,-0.228492,0.192292
10146861305,-34.244061,-36.350586,-86.516808,1.521574,0.489880,1.061762
10146881350,-39.592377,73.467041,-6.412295,0.964807,0.720540,0.543119
10146901395,-0.049863,64.886612,-30.095531,0.446114,0.290006,0.558908
10146921440,48.345711,3.467329,16.284019,0.473430,0.172915,1.011382
10146941485,103.780930,2.313601,41.655628,-0.067067,0.228890,1.940361
10146961529,60.439346,-23.456947,50.483849,-1.094895,0.425663,2.071711
10146981574,70.380722,-53.289482,69.946289,-1.087171,0.618450,1.319331
10147001619,62.031090,-53.458157,67.564995,-1.114741,1.040104,0.963125
10147021664,-7.719047,-142.482407,91.633057,-0.462734,0.919020,1.063118
10147041709,22.518021,-164.095657,72.284500,0.868891,0.715372,0.812955
10147061754,-38.623627,-86.832863,43.243137,0.782148,0.547428,1.108419
10147081800,-35.724083,-72.792877,35.284603,-0.178453,-0.041611,0.407042
10147101845,58.951141,-107.167610,55.168228,-0.560309,0.083479,0.749645
10147121890,45.807762,-127.623398,75.408272,-0.361464,-0.552007,0.976033
10147141935,51.249001,-170.404953,41.429394,0.080379,-0.443018,1.353191
10147161980,54.744057,-152.297989,2.265525,0.313556,0.483497,0.378533
10147182025,55.763302,-161.269302,-1.291553,0.425842,1.220795,-0.149784
10147202069,-5.438832,-160.102448,8.173798,0.989504,1.912766,-0.264820
10147222122,-100.733452,-75.812317,41.232979,0.697739,0.710264,0.247361
10147242158,-58.290966,-137.435959,-6.046680,0.896043,-0.494769,0.781808
10147262202,-24.834562,-131.416504,-43.722340,1.286551,-0.999686,0.741485
10147282248,26.303488,-38.807281,-41.718414,0.834920,-0.051296,0.723984
10147302292,15.894822,-82.511703,-28.897591,1.108537,1.163506,0.636838
10147322337,-14.029167,-34.183918,-29.955631,1.104162,1.399596,0.210134
10147342382,-48.683254,6.346785,-3.658442,0.413572,0.662538,0.708277
10147362427,-47.951454,-48.623478,-6.750820,0.561112,0.073617,0.713488
10147382472,-20.684973,-26.575920,-26.506414,0.490708,-0.120494,0.829292
10147402517,4.087176,-38.678234,-34.067032,0.463957,0.174782,0.734886
10147422562,10.447173,-38.873222,-32.904305,0.770447,0.664774,0.535058
10147442608,-16.741262,-28.105188,-22.345142,1.136258,1.054559,0.292608
10147462653,-60.332161,12.059560,1.202143,1.124644,0.832647,0.567670
10147482698,-77.955475,2.689935,5.665697,1.199686,0.241619,0.660136
10147502743,-76.139351,12.913882,-5.457752,1.468577,-0.301807,0.402010
10147522788,-50.282471,90.221916,13.331886,1.047323,-0.380208,0.474510
10147542833,-52.625980,89.657486,54.991997,0.613162,-0.226326,0.431647
10147562878,-68.902962,55.330074,51.629589,0.753087,-0.153284,0.183424
10147582925,-70.659431,60.641014,27.091890,1.172681,0.142527,0.116856
10147602966,-86.946510,89.566154,22.709862,1.517129,0.198201,0.133024
10147643055,8.215201,182.003998,-18.133682,0.847706,0.115093,0.150398
10147663100,-22.363577,170.506088,-38.663452,1.082806,0.088589,-0.176337
10147683145,-0.506042,220.477737,-70.677048,1.056515,-0.102715,0.065135
10147703190,-12.663910,225.064941,-85.108643,0.786976,-0.074653,0.196861
10147723235,-40.027157,188.431427,-99.704651,1.088725,-0.014665,0.104066
10147743280,-42.052910,247.240143,-98.838150,1.070757,-0.118999,0.099242
10147763325,-43.365444,310.291870,-126.305931,0.123588,0.080336,0.610816
10147783369,-56.963463,237.206909,-94.432854,-0.296417,0.101407,0.424210
10147803414,-48.525856,203.426147,-68.677673,-0.147825,0.039916,0.285503
10147823461,-33.047256,200.663254,-47.584404,-0.188838,-0.173071,0.248086
10147843506,-11.801267,199.923050,-30.270227,-0.553156,-0.261210,0.427786
10147863550,4.438599,161.120789,-17.589794,-0.686286,-0.118051,0.796274
10147883596,-17.070808,127.406128,-3.748632,-0.725681,0.127858,1.183172
10147903640,-34.351479,116.315399,27.598886,-0.868129,0.327984,1.668752
10147923685,5.315722,82.882805,42.532478,-1.326310,0.467927,2.003482
10147943730,59.498196,10.413039,34.689163,-1.519060,0.601265,2.077451
10147963774,79.345016,-24.813292,28.559467,-1.255046,0.673272,2.406000
10147983819,90.303436,-26.540707,28.134256,-1.453222,0.600733,2.716068
10148003864,102.264359,-72.785263,46.743477,-1.603575,0.499875,2.202402
10148023909,186.550034,-80.965584,68.944633,-1.341097,-0.019262,1.071912
10148043964,210.414841,-46.969566,110.424454,-0.538823,-0.619798,0.390518
10148063998,-9.287869,-195.261093,174.033539,0.381126,0.150572,1.045944
10148084043,-73.826927,-392.828278,197.052002,2.217833,2.073153,0.651271
10148104088,-76.831131,-111.752800,-57.436111,1.280497,1.793872,-1.233432
10148124133,-125.461205,220.966370,-119.703102,-1.020754,1.347403,0.138687
10148144178,-183.549149,-134.147919,67.512947,-0.540390,0.424399,0.233576
10148164222,-172.749115,-315.103943,57.491745,0.989302,-0.426988,-0.423045
10148184269,-162.907089,-184.431580,-55.846573,2.374654,-0.900165,-0.605677
10148204314,-135.135498,79.710785,-130.793320,1.965202,-1.524689,-0.388374
10148224359,45.208649,275.461884,-133.100082,0.810701,-0.203551,0.410141
10148244403,24.297119,216.281693,-57.935001,0.781998,1.499782,1.237123
10148264449,-8.986844,158.288361,29.909241,-0.041140,0.059353,0.357319
10148284493,32.580418,129.528275,10.533897,0.071736,-0.181052,0.639908
10148304538,20.016636,110.020699,10.846745,0.219252,0.043080,0.599076
10148324582,-25.335024,89.656769,38.251049,0.316605,0.248580,0.825975
10148344626,-25.884529,111.694252,27.149805,-0.037060,0.499755,1.038915
10148364671,-19.770857,116.102753,5.371383,-0.518521,0.618642,1.150863
10148384716,6.609321,61.514088,21.150591,-1.067516,0.619417,1.192005
10148404761,29.530727,-3.896184,34.262051,-1.056825,0.757324,1.510693
10148424807,23.432993,-15.078563,35.545921,-1.116357,0.420117,2.117213
10148444851,37.171261,0.627124,34.023972,-1.280497,0.202461,2.763317
10148464896,49.853333,-34.723850,41.144211,-1.602954,0.111871,1.990744
10148484941,117.476479,-25.607904,41.836040,-1.225522,-0.351514,0.252001
10148504985,93.056374,-64.321495,38.433571,-0.265306,0.058078,0.760385
10148525030,-35.372753,-318.504211,61.591644,1.449287,1.939970,2.640724
10148545077,-41.766380,-148.594711,74.065453,1.332741,0.174049,0.055035
10148565122,27.559200,167.228149,35.471436,-0.992148,0.589666,1.317896
10148585166,18.793697,-93.964531,80.863045,-1.583448,0.460502,0.929979
10148605211,-3.045507,-268.815399,79.748322,-0.354479,-0.030104,-0.015238
10148625256,-5.927776,-160.246597,41.522964,0.443670,-0.157995,-0.211382
10148645301,-52.918854,-101.335556,-2.190958,1.111160,-0.103141,-0.206595
10148665346,-48.486393,-156.957062,-43.356865,2.151560,0.137270,-0.156095
10148685390,-73.352242,3.404598,-35.623352,1.647487,0.686755,0.137227
10148705434,-43.673580,193.218933,-41.408875,0.902464,0.040737,0.280604
10148725479,29.757904,129.846970,3.904463,1.279225,-0.095801,0.308610
10148745524,1.452308,169.720276,118.304916,0.813013,-0.116914,0.556662
10148765569,7.932013,197.652283,-22.130672,-0.009485,0.458810,0.304998
10148785614,-16.852003,118.358772,-25.781488,0.440003,0.333999,0.415469
10148805659,-9.441543,66.285683,20.492077,0.645783,0.075249,0.523263
10148825704,18.594383,109.911476,18.735073,0.508636,0.199526,0.781987
10148845749,15.160272,142.280792,-26.057167,-0.294672,0.324500,1.180509
10148865794,17.682468,68.833923,-7.357476,-0.929753,0.342421,1.283246
10148885839,33.936279,-12.157541,27.181540,-1.477049,0.454092,1.796461
10148905885,58.942764,-47.706799,56.414806,-1.678631,0.589679,2.386661
10148925930,48.769661,-31.503201,34.544411,-1.503960,0.896341,2.430017
10148945975,104.263374,-13.850592,14.408949,-1.314019,0.918858,1.229977
10148966020,173.584213,15.610827,-2.019309,-1.113836,0.421482,0.067807
10148986064,27.759468,46.622578,24.087917,-0.491885,-0.015383,0.659916
10149006109,-78.246780,-281.937286,97.409897,1.485620,1.234159,3.291957
10149026154,-40.219097,-307.121063,63.233112,2.247011,0.734474,0.186735
10149046222,22.654245,262.106812,-26.205055,-1.168919,0.915200,1.101237
10149066242,-1.015915,-66.362480,68.494820,-1.657147,0.744689,1.156983
10149086287,-59.633934,-271.039154,96.510315,-0.126129,-0.281283,0.051961
10149106332,-53.955505,-145.272614,52.039852,0.498531,-0.560787,-0.038313
10149126377,-102.847656,-84.819649,-14.447278,0.916203,-0.458174,-0.023363
10149146422,-93.774452,-148.582169,-98.775864,1.717523,-0.154200,-0.312090
10149166467,-13.025383,-54.535320,-121.858833,1.668625,0.647647,-0.457727
10149186512,-61.458717,203.218384,-14.876951,1.037677,0.795764,0.607035
10149206557,24.402672,122.018425,10.885574,0.930992,0.039128,0.669313
10149226601,-3.506531,129.214508,71.406807,1.019070,-0.108282,0.488356
10149246646,-9.789653,167.152130,14.510439,0.411204,-0.033618,0.627241
10149266691,21.459846,133.870819,-38.804832,0.472844,0.275897,0.403898
10149286738,24.555014,105.642273,-15.101357,-0.073307,0.045211,0.377322
10149306782,18.722965,59.826618,-23.271557,0.103540,0.148293,0.825155
10149326827,4.182457,73.019958,-20.666128,-0.083895,0.281160,1.171026
10149346872,29.721153,72.395508,-8.146410,-1.127017,0.363279,1.751423
10149366917,56.892471,-29.869358,32.568398,-1.727656,0.713436,2.053788
10149386962,67.000282,-3.038583,52.608307,-1.426697,0.922334,2.327487
10149407007,75.135109,-22.868557,18.190931,-1.251154,0.886827,1.718335
10149427050,133.620529,28.178461,-2.966566,-0.876865,0.458399,0.091357
10149447095,64.360825,68.710609,-6.008750,-0.529068,0.003913,0.178223
10149467140,-123.451866,-126.450470,43.192009,0.653032,1.408998,3.153783
10149487185,-15.167467,-275.279175,99.967293,1.996055,0.878802,1.062109
10149527274,-43.640110,-56.313175,56.904732,-1.018887,0.741814,1.011081
10149547319,-38.459785,-170.867355,74.594437,-0.141736,-0.183385,0.293400
10149567364,-32.509113,-77.095032,41.069164,0.132829,-0.415396,0.245880
10149587409,-72.213326,-61.887646,-4.761960,0.217158,-0.354466,0.198195
10149607454,-66.708008,-112.474884,-38.139717,0.973478,-0.099817,0.079436
10149627499,2.938970,-122.195465,-38.009350,1.451669,0.693074,-0.048984
10149647545,-104.659233,64.239899,-46.472126,1.227646,0.866505,0.120659
10149667590,-23.513735,145.652512,-39.293926,0.737205,-0.517653,0.304309
10149687635,54.270142,81.442238,9.361736,1.356070,-0.203265,0.820454
10149707680,-16.789858,145.451508,33.386585,0.507410,-0.066025,0.355897
10149727725,24.138817,161.402008,-47.262005,0.324458,0.429722,0.377782
10149747770,11.749573,97.616753,-37.804768,0.304327,0.373659,0.324381
10149767814,22.338455,91.077110,-41.125164,0.133597,0.251190,0.494671
10149787858,-1.229572,74.601273,-47.046379,0.188270,0.354538,1.040849
10149807903,-8.937078,93.284416,-43.576714,-0.407959,0.206040,1.418559
10149827948,26.453144,29.739073,-17.329636,-1.364548,0.185294,1.985142
10149847992,55.348473,-26.320240,28.706785,-1.515981,0.304908,2.187534
10149868037,58.271019,-28.586020,32.594704,-1.310450,0.637902,2.104347
10149888082,107.493073,10.623495,20.249990,-1.127273,0.619506,1.068657
10149908127,153.203568,73.359726,6.858632,-0.903503,0.361308,-0.076013
10149928172,-12.628726,59.850044,19.158922,-0.368265,0.509708,0.597306
10149948217,-99.203606,-219.392288,88.468536,0.961141,2.512429,3.693557
10149968262,-41.939911,-185.603790,20.339451,1.378010,0.485281,0.422438
10149988306,-41.731205,71.457947,-16.061617,-0.833832,0.963911,1.757347
10150008353,-20.853725,-99.474480,39.903923,-1.067120,0.061457,0.751496
10150028398,2.869175,-137.637039,52.777782,-0.449694,-0.419097,0.404626
10150048442,-15.961934,-82.287056,20.553022,-0.126500,-0.388957,0.313326
10150068487,-42.081768,-74.320099,-26.266748,0.183429,-0.188537,0.254756
10150088532,11.462681,-130.283600,-23.904640,0.858310,0.417389,0.233107
10150108577,19.752480,-119.292305,-6.502220,1.214599,1.061867,-0.057675
10150128622,-100.943573,30.344666,-30.797728,1.177580,0.685636,0.206185
10150148666,-29.907707,89.776398,-8.566526,1.071456,-0.444276,0.452089
10150168711,45.825127,101.858688,45.891205,1.301798,-0.335163,0.673927
10150188755,0.409001,153.745377,69.662331,0.732511,-0.212298,0.650637
10150208800,13.339602,148.783630,-20.145174,0.026757,0.558407,0.473146
10150228845,-10.739182,95.684135,-34.819366,0.127819,0.950423,0.543302
10150248890,-11.592997,55.662579,-28.230860,0.185344,0.466033,0.320564
10150268935,21.776697,55.510517,-31.853857,0.272118,0.231502,0.554842
10150288980,-7.436003,55.315430,-48.458511,0.361036,-0.052872,1.035004
10150309025,-32.356972,91.272186,-33.521935,-0.240768,0.002407,1.441582
10150329069,-76.007423,12.167080,-26.332190,-1.262242,0.137103,1.787354
10150349114,-63.591675,-90.423332,-11.017615,-1.308656,0.209361,1.887205
10150369161,-19.114437,-59.166908,-21.726206,-0.927214,0.429481,1.926869
10150389206,114.525269,7.267399,-26.097139,-0.907239,0.290152,0.598914
10150409251,143.849213,92.915230,-47.147568,-0.433863,0.071655,-0.301536
10150429295,-137.283401,44.629440,-9.338511,0.385223,0.771105,2.264218
10150449340,-98.722900,-264.781342,60.792408,1.226575,0.976760,3.430122
10150469385,7.309159,-28.875822,-67.095840,-0.708665,0.538124,1.082675
10150489430,-3.372270,-9.790924,-4.318178,-1.611719,0.513007,1.534786
10150509477,1.312461,-181.568420,34.410213,-0.634776,0.015889,1.130043
10150529518,-9.380854,-83.095894,26.156105,-0.415633,-0.244455,0.846000
10150549563,-10.924206,-61.837303,21.965395,-0.667920,-0.136902,0.811860
10150569608,24.322172,-147.499786,33.035984,-0.183854,0.170675,0.928847
10150589653,8.887135,-194.383591,31.179806,0.332370,0.281044,0.659211
10150609698,9.774217,-136.965698,21.001623,0.398378,0.250188,0.488602
10150629743,8.351381,-106.995216,20.321407,0.133524,0.194451,0.577625
10150649787,-9.253784,-124.663589,27.535254,0.113187,0.216601,0.735712
10150669833,-13.347225,-131.986816,28.221113,0.223033,0.193365,0.712852
10150689878,13.844610,-133.659668,28.158958,0.255890,0.186324,0.752572
10150709922,29.360132,-145.205933,39.211720,0.356572,0.168120,0.625632
10150729967,26.729628,-159.207825,47.922367,0.643459,0.125896,0.450175
10150750013,40.678520,-157.998474,42.778580,0.938048,0.081783,0.507044
10150770058,36.412949,-119.055885,43.970539,0.984050,0.104628,0.446192
10150790103,39.129028,-105.505287,45.955753,0.781968,0.023401,0.544078
10150810148,46.048050,-104.564926,37.658813,0.756181,0.030378,0.572876
10150830193,56.606789,-93.598495,37.994118,0.709916,-0.006807,0.566836
10150850238,59.255585,-90.286331,39.197220,0.750437,-0.009257,0.426306
10150870283,49.862480,-78.822388,42.717110,0.755957,0.210414,0.306903
10150890326,32.789848,-65.247849,43.040871,0.704334,0.450577,0.304999
10150910371,8.870125,-56.342274,42.400684,0.680236,0.605597,0.323027
10150930416,-6.261327,-52.059669,37.850254,0.723356,0.541454,0.404446
10150950461,-5.323508,-40.687981,25.132620,0.991354,0.339299,0.575048
10150970506,-14.330517,-24.647722,14.063798,1.185798,0.328330,0.658226
10150990551,-26.124538,-1.576859,14.429526,0.976666,0.304664,0.596076
10151010596,-29.162548,-6.190094,9.474813,0.771068,0.282385,0.744435
10151030640,-35.055656,-7.834115,10.009124,0.715295,0.198576,0.625815
10151050685,-31.845016,-7.521458,18.432903,0.661483,0.263355,0.697450
10151070730,-34.434517,-15.085718,26.840033,0.712661,0.309172,0.659571
10151090775,-31.587355,-13.537530,27.075764,0.706326,0.228046,0.598011
10151110821,-18.636597,-11.875637,29.123257,0.683598,0.190659,0.612721
10151130866,-4.021338,-11.500383,29.658401,0.683962,0.121025,0.615848
10151150911,12.034039,-10.958814,30.951790,0.715430,0.077890,0.616160
10151170956,24.498796,-6.147727,37.624336,0.720750,0.116203,0.605231
10151191001,31.687305,-5.388170,50.245346,0.729957,0.226303,0.582539
10151211045,38.275139,-5.246324,57.165443,0.788490,0.295361,0.571471
10151231090,42.681534,-4.108850,59.766518,0.858580,0.326723,0.540496
10151251134,55.429371,-1.456828,65.943748,0.877936,0.342594,0.543783
10151271179,64.721069,2.063940,70.531570,0.871533,0.348607,0.492520
10151291224,73.382645,-0.108131,74.093521,0.869070,0.340433,0.541825
10151311269,80.158844,-0.014042,76.601234,0.866331,0.327583,0.486647
10151331314,83.721878,-4.248307,81.918343,0.881030,0.327202,0.477106
10151351358,89.626846,-2.578298,88.468933,0.900831,0.300541,0.437229
10151371403,93.141830,-0.298621,94.016418,0.921344,0.326866,0.438801
10151391448,97.622917,4.411983,98.540970,0.942864,0.320738,0.380194
10151411493,103.468895,6.497510,99.393143,0.939829,0.294005,0.383579
10151431538,112.355278,10.297713,99.237610,0.932261,0.270041,0.419866
10151451583,123.998894,11.816416,101.493340,0.887202,0.230225,0.480683
10151471629,136.390060,8.445876,100.761581,0.864734,0.213679,0.478289
10151511719,143.163803,3.303028,103.137131,0.964210,0.335484,0.383323
10151531764,146.284668,3.111697,106.198792,0.955746,0.357648,0.392365
10151551809,148.004486,3.864506,110.245453,0.960176,0.383423,0.347937
10151571854,147.776566,5.304543,117.574623,0.960146,0.465319,0.351813
10151591899,142.886719,5.683669,123.043610,0.945267,0.480222,0.339655
10151611942,134.776123,4.482607,124.028740,0.934284,0.403643,0.354774
10151631987,130.760071,2.783675,124.373489,0.947080,0.308139,0.373773
10151652031,131.704697,3.749063,126.399429,0.940348,0.282312,0.368839
10151672076,130.220078,1.418986,130.953506,0.945072,0.282559,0.374880
10151692121,128.078552,-0.736103,134.628738,1.010389,0.278069,0.393512
10151712166,127.611504,0.047513,135.385788,1.062290,0.236958,0.425823
10151732211,131.749008,2.095876,134.826477,1.083638,0.186943,0.424571
10151752256,134.507812,5.506249,134.923981,1.082841,0.159092,0.379182
10151772301,138.422928,7.016843,138.107468,1.005005,0.122878,0.416423
10151792346,142.171555,-3.024691,143.032486,1.012834,0.106486,0.460134
10151812390,145.619385,-7.944709,144.382004,1.070812,0.101420,0.434561
10151832437,149.064972,-6.816143,142.251862,1.091820,0.149872,0.408549
10151852482,148.579666,-7.014949,138.690414,1.077650,0.149911,0.422193
10151872527,148.067093,-6.545542,133.642975,1.048812,0.112814,0.439132
10151892571,149.769348,-8.175099,130.233704,1.024297,0.119849,0.440897
10151912616,149.693237,-11.946875,126.032547,1.109199,0.212028,0.466613
10151932661,142.026077,-6.904303,118.696831,1.200942,0.181948,0.430659
10151952706,137.030029,6.906472,109.823906,0.942601,0.115700,0.516812
10151972749,135.007584,-15.497406,112.542229,0.869489,0.134312,0.518583
10151992794,132.352310,-26.995407,111.567833,0.964600,0.137792,0.491025
10152012839,131.258408,-24.526463,106.629623,0.999127,0.139676,0.532869
10152032884,130.084717,-27.619503,105.369293,1.069375,0.105421,0.530387
10152052929,129.953674,-23.349836,100.856224,1.151621,0.100773,0.499525
10152072974,127.983727,-16.023643,95.135452,1.111946,0.128294,0.516489
10152093019,124.663574,-15.551168,91.511292,1.040484,0.156539,0.529845
10152113063,124.919342,-17.240503,87.617981,0.990012,0.189268,0.526202
10152133108,127.563629,-18.893753,84.033897,0.965709,0.221190,0.515655
10152153153,127.954109,-19.922340,79.262833,0.922251,0.185984,0.524278
10152173198,132.782059,-24.206549,77.378609,0.905255,0.172831,0.535916
10152193244,137.061966,-26.642000,78.422279,0.933456,0.181961,0.508096
10152213289,138.574203,-25.176773,77.533203,0.962975,0.206680,0.508107
10152233334,141.486816,-22.603121,76.495201,1.006596,0.223138,0.479247
10152253379,144.204803,-15.544594,76.109627,1.015872,0.239550,0.473443
10152273424,147.786758,-8.722712,75.115814,0.981384,0.246546,0.486881
10152293469,149.103027,-4.573751,75.376053,0.917282,0.273479,0.473080
10152313513,148.451065,-3.576587,77.391335,0.895515,0.313077,0.445099
10152333557,149.259705,0.710706,80.047493,0.850510,0.359995,0.448116
10152353602,145.226578,1.863011,82.522804,0.822732,0.380134,0.502465
10152373647,137.122421,1.385516,86.844009,0.860875,0.383396,0.503080
10152393692,131.541092,4.759312,90.982262,0.911586,0.385286,0.529019
10152413737,125.882851,9.925543,92.026367,0.925938,0.368741,0.527530
10152433782,121.347481,17.529823,91.292130,0.871345,0.371842,0.540581
10152453826,113.112495,18.631958,92.451263,0.794058,0.410940,0.542607
10152473871,101.047234,16.202221,91.708054,0.734272,0.415622,0.561706
10152493916,91.496017,12.742350,86.825035,0.764481,0.374135,0.535411
10152513961,85.675377,17.692923,81.273148,0.782333,0.362257,0.543469
10152534006,80.261040,15.902287,77.842415,0.734462,0.381105,0.604601
10152554052,72.994308,11.071243,70.581520,0.768416,0.377665,0.602601
10152574097,57.588852,11.727501,63.697800,0.773167,0.356350,0.589884
10152594142,45.140686,5.083390,54.276649,0.826915,0.304651,0.624298
10152614187,35.369514,2.874914,42.949066,0.871473,0.277779,0.593800
10152634232,31.527719,14.677479,32.682663,0.842525,0.252833,0.613915
10152654277,33.205070,16.385479,31.114059,0.750274,0.248806,0.684926
10152674321,24.685488,6.594425,28.644125,0.726682,0.215817,0.675740
10152694365,16.656897,5.225022,27.289972,0.767936,0.197292,0.632948
10152714410,11.231617,5.082992,22.189354,0.791308,0.237174,0.599194
10152734455,6.010894,7.654463,17.595026,0.786492,0.283014,0.599509
10152754499,-5.289008,7.145426,13.278769,0.757004,0.268489,0.635012
10152774544,-17.163578,5.055756,8.549409,0.759095,0.231218,0.641434
10152794589,-27.653744,6.231665,0.446676,0.726822,0.177790,0.662125
10152814634,-35.149426,3.088607,-5.854158,0.667932,0.146846,0.698459
10152834679,-42.599648,-4.379271,-12.120780,0.642625,0.124113,0.729599
10152854723,-50.523514,-9.939645,-19.893997,0.640139,0.140176,0.751936
10152874768,-53.904854,-11.201542,-26.769054,0.610512,0.149878,0.796343
