Timestamp (us),Gyroscope X (deg/s),Gyroscope Y (deg/s),Gyroscope Z (deg/s),Accelerometer X (g),Accelerometer Y (g),Accelerometer Z (g)
8440482919,-2.743326,0.006179,0.447368,0.285575,-0.232888,0.933019
8440502949,-2.477204,-0.064040,0.357101,0.284549,-0.234254,0.934177
8440522979,-2.195066,0.032984,0.227527,0.285181,-0.235986,0.933623
8440543009,-1.966055,0.061404,-0.015229,0.283556,-0.238607,0.931838
8440563039,-1.783977,-0.023237,0.000734,0.284712,-0.232412,0.930362
8440583070,-1.655132,-0.061723,0.076941,0.282398,-0.228746,0.929080
8440603099,-1.625462,-0.145201,0.198970,0.284808,-0.231411,0.930464
8440623129,-1.526910,-0.191291,0.229733,0.286964,-0.233431,0.931028
8440643160,-1.343934,-0.093411,0.198671,0.287273,-0.238178,0.932359
8440663190,-1.243812,0.072904,0.015353,0.287465,-0.241809,0.930046
8440683220,-0.786189,0.160726,-0.311194,0.285440,-0.246167,0.929881
8440703252,-0.260963,0.187883,-0.462811,0.287486,-0.244890,0.927279
8440743311,0.964901,0.416512,-0.714347,0.287528,-0.252358,0.927028
8440763342,1.694878,0.252039,-0.940076,0.287422,-0.253998,0.927285
8440783372,2.503514,0.588932,-1.344366,0.284729,-0.252971,0.925790
8440803402,3.243294,0.643821,-1.966202,0.284544,-0.258183,0.929482
8440823432,3.905280,0.708566,-2.042247,0.285108,-0.235434,0.932714
8440843462,3.867234,0.701156,-2.042203,0.279031,-0.207470,0.939173
8440863491,2.929255,0.464408,-1.487175,0.278862,-0.185990,0.942290
8440883521,1.487616,0.025857,-0.619829,0.278931,-0.177062,0.941918
8440903551,-0.196331,-0.091393,0.343269,0.276285,-0.175778,0.943347
8440943611,-2.750586,-0.513770,2.006063,0.277905,-0.202537,0.937922
8440963642,-3.276636,-0.723524,2.181958,0.286870,-0.219135,0.931889
8440983672,-3.611278,-0.706351,2.234727,0.296404,-0.224009,0.929625
8441003702,-3.443153,-0.570537,2.142683,0.293024,-0.233898,0.926466
8441023732,-3.274168,-0.298025,1.958506,0.294331,-0.238106,0.928092
8441043762,-2.877331,-0.194632,1.639381,0.290312,-0.244994,0.926502
8441063792,-2.283135,-0.114890,1.388789,0.283980,-0.252520,0.927425
8441083822,-1.582380,-0.104624,1.017518,0.279401,-0.252688,0.929905
8441103852,-0.904602,-0.055848,0.744480,0.279250,-0.255674,0.926589
8441123884,-0.188304,0.061000,0.402650,0.286226,-0.256904,0.926965
8441143914,0.496815,0.033571,0.115092,0.288690,-0.252554,0.928140
8441163944,0.892960,0.084169,-0.059530,0.288492,-0.241986,0.928144
8441183974,1.059944,-0.015793,-0.096520,0.288535,-0.240699,0.925965
8441204004,1.396213,0.309319,-0.220401,0.288596,-0.241165,0.927697
8441224034,1.563484,0.193775,-0.363410,0.286239,-0.237424,0.929154
8441244065,1.578777,0.178319,-0.408766,0.283789,-0.229777,0.932562
8441264095,1.450674,0.300121,-0.606985,0.284160,-0.226051,0.933698
8441284123,1.199346,0.202527,-0.598705,0.283161,-0.223683,0.934799
8441304153,1.002037,0.226127,-0.682402,0.280488,-0.226101,0.930443
8441324184,0.955921,0.135159,-0.643750,0.287816,-0.228155,0.931182
8441344214,0.940459,0.189005,-0.500150,0.285828,-0.228321,0.930509
8441364244,0.758119,0.105760,-0.643599,0.286809,-0.227425,0.932085
8441384274,0.590817,0.213692,-0.500526,0.287527,-0.229158,0.931807
8441404304,0.690740,0.441358,-0.547882,0.284356,-0.227501,0.932136
8441424334,0.476779,0.191359,-0.530722,0.283745,-0.221583,0.933277
8441444364,0.225259,0.162753,-0.378961,0.282843,-0.221484,0.932898
8441464395,-0.148327,-0.040579,-0.316778,0.283740,-0.218769,0.934854
8441484425,-0.574778,0.008240,-0.052020,0.283871,-0.217483,0.932860
8441504455,-0.963706,-0.057290,0.221298,0.283763,-0.217852,0.933768
8441524485,-1.230121,-0.070848,0.297104,0.285084,-0.223144,0.934014
8441544516,-1.345125,-0.176267,0.457158,0.285488,-0.235884,0.931438
8441564547,-1.086294,-0.109184,0.441556,0.287268,-0.236329,0.927720
8441584577,-1.047282,-0.018687,0.251262,0.287922,-0.238086,0.931548
8441604607,-0.795624,0.116785,0.189589,0.286656,-0.235532,0.932373
8441624637,-0.726550,0.115758,-0.007504,0.288033,-0.233355,0.932416
8441644667,-0.597081,0.107207,-0.083190,0.283324,-0.233412,0.931608
8441664697,-0.482981,0.083615,-0.128430,0.284291,-0.229762,0.929467
8441684727,-0.674152,-0.005974,0.092111,0.281134,-0.224557,0.930468
8441704756,-1.102005,-0.116229,0.585667,0.281471,-0.215541,0.930465
8441724786,-1.835154,-0.445325,1.164317,0.288523,-0.204058,0.937533
8441744816,-2.926919,-0.595419,2.347858,0.281996,-0.198018,0.939674
8441764846,-4.260943,-0.729999,3.235450,0.280706,-0.196381,0.941585
8441784877,-5.504332,-1.047891,4.079132,0.282782,-0.204939,0.938527
8441804907,-6.443028,-1.245686,4.899207,0.280278,-0.222476,0.933942
8441824937,-6.809297,-1.402904,5.105066,0.281474,-0.249493,0.926500
8441844967,-6.032743,-1.247579,4.982824,0.283018,-0.281333,0.917831
8441864997,-4.419540,-1.311031,4.498882,0.283812,-0.316176,0.909397
8441885027,-1.813454,-0.941014,3.192913,0.297628,-0.344724,0.901232
8441905057,1.583875,-0.529874,1.780831,0.296618,-0.357236,0.907947
8441925087,4.778131,0.201113,0.093009,0.299408,-0.342692,0.910227
8441945117,7.589265,0.532062,-1.189787,0.291861,-0.321358,0.914866
8441965149,9.874364,0.821399,-2.093383,0.287009,-0.299415,0.921563
8441985179,11.418703,0.926912,-2.237582,0.282333,-0.275351,0.923718
8442005209,12.440136,0.972317,-2.972934,0.282980,-0.263995,0.928125
8442025239,13.241599,1.102436,-3.762178,0.278525,-0.244858,0.931424
8442045269,13.288561,1.100814,-4.171576,0.275607,-0.214798,0.934211
8442065299,12.716053,0.808087,-3.843364,0.275776,-0.196203,0.931830
8442085329,11.717772,0.693419,-3.296973,0.280709,-0.193406,0.931114
8442105360,11.206000,0.354599,-2.998673,0.286132,-0.196843,0.936922
8442125402,10.581717,0.458127,-2.620739,0.286309,-0.187307,0.941578
8442145418,9.545304,0.351425,-2.028939,0.282428,-0.171558,0.947229
8442165449,8.464320,0.305038,-1.680295,0.283523,-0.173925,0.945764
8442185478,7.551593,0.432548,-1.416433,0.287003,-0.181782,0.946113
8442205508,7.071217,0.230138,-1.248160,0.285094,-0.190947,0.942163
8442225539,6.980524,0.191848,-1.460181,0.283662,-0.198652,0.937322
8442245569,7.279139,0.287488,-1.976423,0.286063,-0.211132,0.934871
8442265599,7.905845,0.341984,-2.894013,0.293046,-0.208146,0.930904
8442285629,8.405292,0.693219,-4.049201,0.293480,-0.198527,0.936569
8442305659,8.525119,1.053566,-5.356292,0.291483,-0.177949,0.940014
8442325689,8.196826,1.331746,-6.905538,0.289821,-0.160563,0.943891
8442345719,7.138721,1.728371,-8.334816,0.289414,-0.136650,0.951683
8442365749,5.417611,1.824347,-9.670905,0.282545,-0.114214,0.954061
8442385781,3.254372,1.939135,-10.635843,0.276846,-0.099510,0.953556
8442405811,0.973349,1.630331,-10.990712,0.272343,-0.108860,0.952849
8442465901,2.936713,2.305539,-19.904409,0.290044,-0.299668,0.930557
8442485931,8.038466,2.958264,-26.026188,0.297798,-0.368972,0.920091
8442505961,15.609733,4.141954,-33.341618,0.297997,-0.428789,0.915159
8442525992,24.609404,4.554707,-41.309532,0.284000,-0.450818,0.911989
8442546022,34.540249,4.622530,-50.790524,0.276260,-0.465926,0.918205
8442566050,45.435066,4.495798,-60.019203,0.283480,-0.466690,0.932283
8442586080,56.899437,3.793475,-69.750771,0.260376,-0.451368,0.953686
8442606111,67.896072,2.073444,-79.542259,0.232008,-0.374905,1.008435
8442626140,77.187637,-0.720873,-90.061028,0.215499,-0.333532,0.991386
8442646171,87.697968,-4.066551,-99.641968,0.183843,-0.356014,0.990937
8442666201,98.803703,-9.664851,-110.409256,0.147852,-0.335704,1.014277
8442686231,111.219566,-16.411324,-121.014641,0.101775,-0.296916,1.034884
8442706261,123.535980,-25.357834,-131.844223,0.078015,-0.203606,1.069596
8442726292,135.322540,-36.634949,-141.653656,0.029175,-0.150929,1.069929
8442746321,148.712936,-50.197803,-151.852539,-0.034758,-0.115903,1.098610
8442766352,161.624710,-66.448746,-160.869064,-0.077826,-0.019989,1.097702
8442786382,173.220474,-84.411514,-167.180176,-0.115717,0.137653,1.048972
8442806413,183.822464,-102.745468,-167.718658,-0.166948,0.256104,1.034445
8442826443,192.360779,-120.980873,-162.557220,-0.183309,0.466928,0.933332
8442846473,196.041733,-137.463928,-153.242676,-0.224000,0.611890,0.796523
8442866503,199.098755,-152.720245,-142.270691,-0.213068,0.659293,0.809738
8442886533,206.420212,-168.716675,-129.629929,-0.252870,0.710273,0.794499
8442906565,213.446518,-187.525513,-116.268158,-0.356631,0.802555,0.730856
8442926594,220.060394,-206.284241,-99.972725,-0.364868,0.861626,0.668732
8442946624,229.710785,-224.542191,-81.625259,-0.411877,0.941214,0.581336
8442966654,239.881271,-239.603333,-57.966606,-0.483219,1.019410,0.382884
8442986682,246.709671,-252.349289,-30.158831,-0.445291,1.099422,0.146967
8443006713,250.071808,-258.214081,-1.000239,-0.416124,1.121546,-0.071459
8443026743,250.976807,-257.942444,29.212627,-0.345996,1.076394,-0.245747
8443046773,252.899445,-254.243439,59.389633,-0.347084,1.111966,-0.410130
8443066803,251.700653,-245.211777,88.193466,-0.323962,1.013860,-0.528340
8443086833,253.226120,-232.818878,115.817940,-0.323391,0.973303,-0.682262
8443106863,251.936371,-216.893234,141.515839,-0.257156,0.886349,-0.806332
8443126893,251.409561,-198.077698,165.370148,-0.239639,0.779259,-0.924350
8443146924,250.138962,-176.913330,187.104111,-0.237803,0.702723,-1.001076
8443166954,248.802414,-152.609955,205.058563,-0.247188,0.591298,-1.049366
8443186984,247.087936,-126.686699,219.723755,-0.195614,0.477359,-1.153748
8443207014,246.293610,-99.576393,231.187378,-0.147475,0.342636,-1.204515
8443227044,243.976349,-71.676201,239.724487,-0.126953,0.165168,-1.221160
8443247076,241.393158,-44.577454,244.916916,-0.157832,0.148562,-1.198901
8443267106,241.773010,-16.804583,246.988846,-0.100242,-0.006256,-1.218569
8443287136,241.063583,10.953018,245.057068,-0.126412,-0.165524,-1.213620
8443307166,238.395950,37.884399,241.068924,-0.057091,-0.323392,-1.206833
8443327196,234.864136,63.327171,232.164505,-0.086854,-0.398642,-1.125574
8443347226,231.686096,87.395920,222.657593,-0.031277,-0.584233,-1.082566
8443367257,227.547668,109.385414,208.997559,-0.078384,-0.554761,-1.040881
8443387287,226.414383,130.264114,195.704651,-0.051980,-0.734126,-0.940775
8443407315,221.440491,147.548920,178.285049,-0.074859,-0.855286,-0.803592
8443427345,215.207275,161.864410,158.668243,-0.024260,-0.931644,-0.758651
8443447375,209.974594,174.289917,139.954895,-0.052742,-0.902006,-0.671197
8443467405,207.215805,185.193649,120.792999,-0.037604,-1.005130,-0.559249
8443487435,204.039047,193.340317,100.486404,-0.045097,-1.014613,-0.502308
8443507466,200.703766,199.552902,79.741058,-0.050354,-1.063456,-0.414382
8443527496,196.353867,203.366852,59.386868,-0.046201,-1.061605,-0.266584
8443547526,191.036469,205.598160,39.955360,-0.054878,-1.119316,-0.138078
8443567556,188.008133,204.377426,20.713169,-0.040898,-1.092842,-0.131854
8443587586,186.844131,204.406372,2.545625,-0.007771,-1.099531,-0.081805
8443607616,188.166214,204.368729,-15.665649,-0.056639,-1.094389,-0.083738
8443627646,189.521072,203.021576,-33.903824,-0.062399,-1.093993,0.058681
8443647676,189.379242,198.287811,-52.046047,-0.058089,-1.082068,0.212601
8443667707,189.317352,191.990555,-68.704170,-0.091884,-1.046456,0.265057
8443687738,190.313553,185.938660,-85.432083,-0.068626,-1.050560,0.366916
8443707768,191.138992,177.391937,-101.873764,-0.090648,-0.982340,0.406902
8443727798,191.048874,167.821472,-118.618156,-0.132731,-0.924583,0.529269
8443747828,193.063034,155.956467,-133.037292,-0.221626,-0.945746,0.567067
8443767858,193.139832,141.761673,-146.156433,-0.140767,-0.764134,0.750457
8443787888,190.429871,126.959145,-156.504364,-0.164226,-0.715159,0.780747
8443807918,191.026550,112.178001,-166.608215,-0.171309,-0.659187,0.812007
8443827947,190.015015,94.948471,-173.924835,-0.165682,-0.542388,0.911594
8443847977,189.108185,78.125267,-180.213654,-0.175246,-0.453786,0.942111
8443868007,188.852020,60.705780,-183.972290,-0.173210,-0.387886,0.963660
8443888037,187.811584,43.696777,-186.862839,-0.172692,-0.283107,0.989561
8443908067,187.881836,26.864750,-187.434189,-0.175272,-0.195642,1.019998
8443928097,188.173553,10.321018,-187.939636,-0.149822,-0.098585,1.015558
8443948127,187.223633,-5.678698,-187.070282,-0.149083,-0.002289,1.011804
8443968158,187.407394,-21.601078,-184.047699,-0.131068,0.110319,1.019621
8443988188,186.696701,-37.100979,-179.027451,-0.151001,0.168621,1.008515
8444008218,186.231827,-52.199661,-174.275818,-0.141357,0.323286,0.966738
8444048278,182.875992,-77.881302,-156.691193,-0.120690,0.517752,0.882326
8444068308,179.778412,-89.188049,-146.650024,-0.060622,0.615520,0.812449
8444088340,176.738174,-96.142570,-132.497955,-0.088450,0.671721,0.747790
8444108370,173.049454,-102.319489,-119.012375,-0.024264,0.768476,0.675323
8444128400,168.298996,-106.338188,-105.992775,0.021378,0.813921,0.627643
8444148430,165.116013,-108.218803,-93.013115,0.017666,0.824502,0.550355
8444168460,161.491776,-107.979675,-79.642029,0.049247,0.900367,0.486660
8444188490,155.670700,-106.131981,-66.732864,0.080109,0.949881,0.381444
8444208520,147.392227,-101.801010,-54.892063,0.128739,1.056861,0.164302
8444228550,132.927597,-92.494888,-42.368149,0.213550,1.227849,-0.213069
8444248579,105.632225,-75.030006,-30.009920,0.318114,1.323406,-0.389330
8444268609,82.970177,-57.585335,-20.902012,0.298043,1.094593,-0.021211
8444288639,78.191360,-51.724075,-17.056332,0.300542,0.923816,0.241728
8444308669,72.221878,-47.304062,-13.600977,0.312285,1.018733,-0.054821
8444328699,59.119099,-39.122391,-9.642327,0.282616,1.079546,-0.127410
8444348729,46.280674,-27.386381,-5.379780,0.328070,1.034731,-0.081713
8444368760,36.477131,-18.702091,-2.947759,0.379714,0.995492,-0.046180
8444388790,28.572836,-13.794433,-2.401383,0.363158,0.966404,0.024217
8444408820,22.893543,-11.746721,-2.254516,0.337100,0.991128,0.029683
8444428850,16.797117,-9.139882,-1.733440,0.329881,0.996659,-0.005532
8444448880,9.354130,-4.599031,-0.888059,0.337621,0.993709,-0.054914
8444468910,0.978743,0.639490,-0.026241,0.336616,1.005524,-0.049161
8444488940,-6.412219,4.967271,0.919522,0.346872,0.988349,-0.004328
8444508972,-12.293463,7.945151,1.202541,0.326028,0.956383,0.048627
8444529002,-16.506420,9.909719,1.570696,0.332193,0.954266,0.077283
8444549032,-20.158133,11.444683,1.828999,0.332008,0.952099,0.105652
8444569062,-23.149656,12.679347,2.105305,0.337447,0.948169,0.133457
8444589092,-25.320301,13.948131,2.503036,0.326804,0.941882,0.161071
8444609122,-27.073772,15.047556,2.993377,0.321611,0.937412,0.183495
8444629153,-28.174114,15.861458,3.357534,0.313546,0.922051,0.233707
8444649183,-28.014633,16.006023,3.591443,0.309408,0.907004,0.288459
8444669212,-26.595568,15.397421,3.665478,0.301545,0.893475,0.320798
8444689242,-24.486113,14.320421,3.614884,0.301657,0.882833,0.349551
8444709272,-21.610342,12.919957,3.650780,0.307154,0.868535,0.374796
8444729302,-18.567577,11.037345,3.175221,0.316677,0.865531,0.379853
8444749332,-15.653221,9.391502,2.735523,0.318766,0.861101,0.371995
8444769362,-12.981504,7.906788,2.294354,0.317597,0.856741,0.386725
8444789392,-9.877473,6.076905,1.750144,0.315430,0.854784,0.396714
8444809422,-6.652624,3.933849,1.072143,0.313401,0.862359,0.396386
8444829452,-3.996755,2.151780,0.459075,0.315256,0.864519,0.383198
8444849482,-1.644212,0.699176,0.009900,0.312677,0.865951,0.374588
8444869512,0.359493,-0.385612,-0.260560,0.313170,0.874603,0.358517
8444889542,1.664370,-1.260983,-0.472461,0.315376,0.881298,0.348207
8444909572,2.490640,-2.034843,-0.677863,0.315900,0.888202,0.335225
8444929604,3.051849,-2.418548,-0.719862,0.313211,0.891569,0.322888
8444949634,3.316737,-2.716804,-0.717230,0.314433,0.900218,0.306646
8444969664,3.065790,-2.654277,-0.626891,0.311563,0.901157,0.304782
8444989694,2.913956,-2.409112,-0.393977,0.319454,0.894985,0.308322
8445009725,3.264115,-2.441973,-0.560338,0.317050,0.892134,0.315652
8445029754,3.567317,-2.801884,-0.723976,0.322335,0.891836,0.314274
8445049784,3.818176,-2.849035,-0.768952,0.323578,0.894213,0.311304
8445069815,4.007738,-3.048245,-0.858173,0.323560,0.895785,0.307392
8445089855,4.168709,-2.698837,-0.823118,0.319291,0.897264,0.308158
8445109873,4.344051,-2.516807,-0.741159,0.314385,0.894749,0.307234
8445129903,4.655367,-2.678554,-0.815471,0.312535,0.894260,0.315050
8445149933,5.438789,-2.415507,-0.582255,0.313167,0.893619,0.314963
8445169963,5.978219,-2.456193,-0.513414,0.317719,0.895231,0.314870
8445189994,6.769475,-2.308074,-0.491529,0.320536,0.889094,0.317780
8445210024,7.811571,-2.168871,-0.461865,0.328672,0.887974,0.313702
8445230054,8.626447,-1.884123,-0.516937,0.325308,0.890389,0.309288
8445250084,9.630142,-1.851329,-0.501563,0.322902,0.893476,0.313568
8445270114,10.679548,-1.795942,-0.486356,0.318600,0.891127,0.314755
8445290144,12.047108,-2.107928,-0.566478,0.314948,0.894140,0.317462
8445310175,13.239723,-2.327191,-0.510986,0.316367,0.894641,0.308178
8445330205,14.402184,-2.569484,-0.561464,0.316884,0.900236,0.300843
8445350236,15.496496,-2.712339,-0.574900,0.316857,0.900293,0.290983
8445370266,16.567789,-2.870143,-0.542728,0.317083,0.895641,0.291857
8445390296,18.148342,-3.137511,-0.600376,0.316329,0.886837,0.318695
8445410326,20.502987,-4.003726,-0.963488,0.330020,0.893058,0.299438
8445430356,22.388617,-3.983240,-0.955166,0.312311,0.895561,0.295065
8445450387,24.599094,-4.436241,-0.897219,0.314561,0.894393,0.289979
8445470417,27.038771,-4.692858,-0.931795,0.315993,0.894275,0.308716
8445490447,30.118040,-4.739815,-0.990569,0.315929,0.894807,0.295574
8445510477,33.028648,-5.051979,-0.956212,0.319690,0.904778,0.268521
8445530505,35.034191,-5.389593,-0.861422,0.317479,0.913373,0.233782
8445550536,36.630821,-5.382774,-0.845543,0.319785,0.919991,0.205306
8445570566,37.338203,-4.981731,-0.439134,0.320045,0.927713,0.145584
8445590596,35.442986,-3.440999,-0.225524,0.340517,0.967804,0.027058
8445610626,32.420197,-2.335234,0.150417,0.300888,0.935391,0.114212
8445630656,32.267529,-2.777120,-0.209887,0.345546,0.961023,0.091530
8445650686,30.978594,-2.254180,-0.654664,0.337656,0.939123,0.075223
8445670716,29.594191,-2.146805,-0.330204,0.314508,0.956038,0.041955
8445690746,26.797064,-1.628304,0.058360,0.314183,0.960798,0.006754
8445710776,23.824329,-1.436782,0.267613,0.328622,0.964525,0.008210
8445730807,21.188030,-1.203128,-0.046490,0.344935,0.957203,0.012607
8445750837,18.900921,-0.940189,-0.155953,0.329309,0.948847,0.009446
8445770868,16.719267,-0.906107,-0.248280,0.322568,0.952763,0.001064
8445790898,14.173856,-0.642004,-0.418534,0.333733,0.958517,-0.013673
8445810928,11.301810,-0.139525,-0.386232,0.338154,0.956219,-0.030421
8445830959,8.095721,0.348940,-0.520779,0.327625,0.958590,-0.035317
8445850989,5.001688,0.540748,-0.417736,0.312705,0.959182,-0.027246
8445871019,2.408160,0.494275,-0.213883,0.313226,0.955287,-0.015862
8445891049,0.278723,0.490888,-0.048078,0.322315,0.947254,0.008952
8445911079,-0.862630,0.329706,0.020963,0.324271,0.949521,0.024251
8445931110,-1.714310,0.334368,0.066004,0.325973,0.948742,0.031210
8445951138,-2.710783,0.171986,0.006229,0.318733,0.956278,0.027327
8445971169,-3.371847,0.228590,-0.047641,0.320318,0.950732,0.039626
8445991198,-3.653324,0.268470,0.050456,0.328839,0.946155,0.050039
8446011228,-4.048403,0.331429,0.042154,0.321102,0.945685,0.045253
8446031258,-4.580934,0.242859,0.027476,0.315702,0.942374,0.040752
8446051289,-5.236346,-0.042530,0.143287,0.322230,0.940207,0.046133
8446071319,-5.737436,0.119917,0.126517,0.327275,0.940525,0.048774
8446091349,-6.024261,0.600840,0.084429,0.328224,0.946645,0.060532
8446111379,-5.885643,0.957546,-0.009484,0.325781,0.948537,0.066718
8446131409,-5.832820,0.927100,0.074200,0.324324,0.942606,0.070108
8446151439,-5.445732,0.757569,0.068229,0.317683,0.942460,0.070912
8446171469,-5.422910,0.803296,0.120931,0.326783,0.945568,0.059312
8446191501,-5.946716,0.927550,0.028649,0.326788,0.946966,0.053847
8446211531,-6.630190,1.106160,0.004072,0.321842,0.947378,0.050941
8446231561,-7.671650,1.165033,0.025821,0.323300,0.949312,0.045687
8446251591,-8.918340,1.255515,0.069951,0.323502,0.947501,0.043574
8446271621,-10.407328,1.590852,0.111908,0.325231,0.950978,0.039069
8446291651,-12.072567,1.576937,0.141548,0.324215,0.950796,0.040055
8446311682,-13.638058,1.699147,0.063944,0.322387,0.949282,0.051789
8446331712,-14.998687,1.858915,0.160512,0.315211,0.950109,0.058253
8446351741,-16.230968,1.766693,0.221347,0.315315,0.949114,0.056967
8446371771,-17.964558,1.783637,0.265859,0.330632,0.952859,0.054512
8446391800,-19.879675,1.739429,-0.053144,0.328639,0.955508,0.055417
8446431860,-24.616320,1.726301,-0.100817,0.322140,0.951349,0.056916
8446451891,-27.138693,2.181132,-0.105855,0.330306,0.954930,0.058908
8446471921,-29.767574,2.430224,-0.344263,0.335136,0.952296,0.068183
8446491951,-32.185009,2.450358,-0.429005,0.325733,0.949170,0.099132
8446511981,-33.941181,2.558914,-0.339780,0.318079,0.944233,0.110374
8446532011,-35.575848,2.682253,-0.189964,0.315446,0.937699,0.124878
8446552041,-37.102974,2.956771,-0.185425,0.325490,0.947598,0.166397
8446572072,-37.613129,2.799731,-0.154025,0.321618,0.926402,0.212972
8446592102,-37.127918,2.301746,-0.346744,0.321660,0.920617,0.236747
8446612132,-36.734207,1.819799,-0.441074,0.317568,0.905946,0.242114
8446632163,-36.495129,2.694072,-0.387642,0.327840,0.911372,0.237949
8446652193,-36.482021,4.629818,0.331575,0.314399,0.910387,0.249407
8446672223,-36.470882,5.872029,0.791241,0.319056,0.900355,0.278056
8446692254,-35.468124,5.638268,0.763361,0.328396,0.894778,0.334484
8446712284,-33.173538,5.253123,0.760122,0.297898,0.874714,0.371508
8446732314,-30.933395,4.747218,0.977752,0.294225,0.878671,0.352678
8446752344,-28.867910,4.280245,1.179806,0.300415,0.870807,0.382924
8446772374,-26.253262,4.152530,1.273129,0.315495,0.860555,0.406811
8446792403,-24.055302,4.361831,1.333091,0.323791,0.875388,0.353128
8446812433,-23.543556,4.975840,1.381257,0.314915,0.878506,0.359038
8446832463,-22.407747,5.853433,1.571573,0.324363,0.868924,0.383387
8446852493,-20.687235,6.728668,1.982072,0.309901,0.843910,0.408666
8446872523,-18.406580,6.709182,2.043995,0.313531,0.843695,0.426160
8446892553,-15.678385,6.581375,2.289015,0.295760,0.828838,0.447005
8446912583,-12.616579,6.062922,2.332759,0.300839,0.825978,0.463494
8446952643,-3.964053,3.517443,1.448463,0.308575,0.795669,0.529984
8446972673,1.916452,1.793727,0.631747,0.302841,0.777475,0.563410
8446992703,6.712542,-1.302812,-0.431758,0.345677,0.854673,0.430709
8447012733,7.215475,-1.864607,-1.465547,0.328166,0.891993,0.359561
8447052795,5.277838,-1.771407,-1.702312,0.319450,0.862864,0.381334
8447072825,6.706686,-2.152986,-2.009284,0.312643,0.834576,0.397486
8447092855,7.929628,-2.173591,-1.682488,0.301009,0.850289,0.370511
8447112885,8.088457,-1.699689,-0.844776,0.285572,0.873991,0.352311
8447132915,7.365460,-1.381750,-0.241227,0.303219,0.899533,0.326816
8447152945,5.777298,-1.152552,-0.228755,0.321285,0.914727,0.310452
8447172976,3.838895,-1.081496,-0.260617,0.323283,0.911115,0.302965
8447193006,1.879416,-0.660500,-0.386413,0.317779,0.905461,0.309853
8447213035,0.428593,-0.264370,-0.314620,0.309493,0.894955,0.324137
8447233065,-0.499166,-0.045239,0.009122,0.309196,0.887307,0.339672
8447253095,-0.863103,0.360765,0.202672,0.310154,0.883346,0.346316
8447273125,-1.076397,0.224733,0.158219,0.312434,0.883665,0.351651
8447293155,-1.082672,0.659086,0.291047,0.307442,0.878724,0.360927
8447313186,-0.787279,0.414077,0.331157,0.314415,0.878674,0.362044
8447333215,-0.566395,0.443074,0.247617,0.316499,0.872902,0.365494
8447353245,-0.240409,0.144215,0.166881,0.314399,0.873093,0.366374
8447373275,0.079051,0.065950,0.031215,0.316348,0.876276,0.365066
8447393306,0.345061,-0.019441,-0.043761,0.312617,0.876420,0.359894
8447413335,0.436733,0.056063,-0.082261,0.315133,0.880790,0.357693
8447433366,0.528311,0.261600,0.067700,0.314477,0.879151,0.358307
8447453396,0.459417,0.117217,0.030968,0.311480,0.880986,0.359188
8447473427,0.445059,0.299870,-0.000901,0.309641,0.881261,0.360804
8447493457,0.597274,0.489990,0.187129,0.306481,0.883286,0.360589
8447513488,0.711456,0.565679,0.239624,0.310610,0.877849,0.366996
8447533518,1.137365,0.647355,0.299801,0.309610,0.871098,0.369839
8447553548,1.692125,0.606461,0.330741,0.310879,0.869579,0.363455
8447573578,1.958540,0.681166,0.330242,0.315712,0.874008,0.364122
8447593608,2.338712,0.709701,0.360515,0.311262,0.873854,0.364139
8447613638,2.582668,0.937038,0.442127,0.311741,0.878470,0.352961
8447633667,2.567774,1.104953,0.554442,0.317046,0.879541,0.350957
8447653697,2.567200,0.891526,0.465248,0.309938,0.887116,0.356024
8447673727,2.513637,0.838656,0.503577,0.307934,0.888159,0.351163
8447693757,2.354386,0.884940,0.434872,0.313464,0.887156,0.345400
8447713787,2.262995,0.877939,0.472798,0.317389,0.882655,0.347796
8447733817,2.043258,1.214649,0.659417,0.317202,0.883993,0.337124
8447753848,1.073959,2.484632,1.042555,0.320382,0.906171,0.294655
8447773878,-1.164938,3.967614,1.650753,0.308394,0.909935,0.302438
8447793908,-2.387272,4.729011,2.053203,0.310730,0.900386,0.328772
8447813938,-3.101145,5.045350,2.194262,0.316372,0.892351,0.341753
8447833968,-3.465912,5.047104,2.140996,0.313763,0.889856,0.350725
8447853999,-3.650130,4.530108,2.031516,0.309902,0.879677,0.366636
8447874028,-3.149632,3.917308,1.672963,0.317581,0.868522,0.381447
8447894060,-2.215212,3.615024,1.531892,0.316443,0.859756,0.386460
8447914090,-1.114231,3.060344,1.294454,0.313460,0.857566,0.390408
8447934120,0.016420,2.361038,1.103738,0.309096,0.865437,0.388584
8447954150,0.850300,1.655922,0.981166,0.311657,0.871764,0.378551
8447974180,1.199350,1.486619,0.982756,0.308563,0.880296,0.371276
8447994210,1.578343,1.050114,0.797052,0.304426,0.879906,0.380243
8448014240,2.190840,-0.111518,0.382503,0.309306,0.873144,0.378617
8448034270,2.874119,-0.526876,0.174022,0.313832,0.870840,0.378395
8448054299,3.640346,-1.171275,-0.108317,0.316932,0.863979,0.380299
8448074329,4.673268,-1.580745,-0.278768,0.318069,0.854168,0.390269
8448114389,7.870536,-2.977489,-0.894810,0.315474,0.857435,0.395096
8448134420,9.136362,-4.172620,-1.187447,0.318543,0.874475,0.374854
8448154449,9.536942,-5.219465,-1.754704,0.304230,0.901984,0.327129
8448174480,7.899837,-6.094913,-2.096922,0.308335,0.916555,0.291726
8448194510,6.287195,-6.230765,-2.028322,0.310661,0.904732,0.317673
8448214540,5.966692,-6.602392,-2.131506,0.311978,0.882123,0.351081
8448234570,6.764136,-6.720382,-2.008816,0.307461,0.876311,0.352780
8448254600,6.992249,-6.721616,-2.016278,0.318038,0.900424,0.314284
8448274630,5.664115,-5.937384,-1.780877,0.322270,0.915281,0.276694
8448294660,3.745103,-4.502528,-1.399583,0.318788,0.907420,0.269353
8448314692,1.894299,-2.937874,-0.791882,0.325005,0.905150,0.277193
8448334722,0.448047,-1.101827,-0.330325,0.325692,0.908402,0.281160
8448354752,-0.999233,0.483043,0.133341,0.319535,0.908446,0.280147
8448374782,-2.446619,2.090951,0.657470,0.315016,0.907449,0.284173
8448394812,-3.796895,3.172712,1.057168,0.311701,0.905841,0.298072
8448414843,-4.615980,4.046324,1.511946,0.316780,0.902708,0.314467
8448434873,-4.949643,4.314727,1.577770,0.310310,0.891067,0.333974
8448454903,-4.730835,3.818458,1.475893,0.314052,0.885261,0.341741
8448474944,-4.450131,3.534782,1.311604,0.320197,0.882123,0.342177
8448494962,-4.047997,3.197182,1.147827,0.319695,0.879531,0.349905
8448514992,-3.579365,2.242079,0.807296,0.314853,0.878335,0.357118
8448555052,-2.161063,0.885203,0.190059,0.314373,0.877057,0.358194
8448575082,-1.752293,0.250460,-0.047041,0.314684,0.880679,0.345725
8448595112,-1.790745,0.144101,-0.046167,0.321128,0.889370,0.332308
8448615142,-2.268614,0.413013,-0.056238,0.319317,0.894050,0.328305
8448635172,-2.769967,0.529867,-0.049879,0.312285,0.888866,0.334442
8448655202,-2.898998,0.675553,0.062567,0.309788,0.892317,0.338907
8448675233,-3.354757,0.914486,0.227147,0.308077,0.894002,0.332960
8448695263,-3.872094,0.963429,0.385710,0.311457,0.896442,0.332764
8448715293,-4.472572,1.065814,0.460381,0.311077,0.895075,0.333201
8448735325,-5.043753,0.962810,0.620194,0.308441,0.889606,0.336760
8448755355,-5.438495,1.132432,0.641325,0.312512,0.885726,0.341720
8448775384,-5.589663,1.369269,0.662010,0.320012,0.875390,0.356810
8448795415,-5.126170,1.198952,0.542350,0.316187,0.868768,0.372024
8448815445,-4.374407,0.668524,0.175644,0.310258,0.866489,0.378571
8448835475,-3.547157,0.176466,0.020951,0.315663,0.865202,0.374904
8448855505,-2.923279,0.279725,0.020386,0.323317,0.862951,0.377929
8448875535,-1.943771,-0.335637,-0.345497,0.317837,0.860725,0.390600
8448895565,-0.775511,-1.348108,-0.798940,0.309321,0.864997,0.385571
8448915594,0.028300,-2.061057,-1.035192,0.306516,0.877656,0.373227
8448935624,0.264397,-1.810489,-0.847629,0.313304,0.878400,0.363302
8448955654,0.370489,-1.780121,-0.703773,0.310989,0.875854,0.365066
8448975684,0.696231,-2.101661,-0.738826,0.308122,0.875398,0.368211
8448995714,0.908104,-2.392202,-0.789359,0.304667,0.878631,0.364168
8449015744,0.945252,-2.475592,-0.629416,0.314169,0.882114,0.350295
8449035774,0.597500,-1.879587,-0.498111,0.329851,0.882620,0.340421
8449055804,0.318653,-1.276793,-0.503307,0.323033,0.879833,0.357174
8449075835,0.469926,-1.628390,-0.697417,0.313483,0.875242,0.373683
8449095865,0.993501,-2.065787,-0.920954,0.309971,0.872458,0.370587
8449115895,1.365166,-2.227371,-0.851179,0.308357,0.875847,0.353338
8449135925,1.273439,-2.188165,-0.654417,0.307628,0.879064,0.349156
8449155955,1.173584,-2.423545,-0.637325,0.311101,0.880834,0.354342
8449175987,1.181417,-2.416179,-0.698040,0.323238,0.881418,0.350619
8449216047,0.577603,-1.217475,-0.564337,0.321666,0.883698,0.336007
8449236077,0.062330,-0.536245,-0.251857,0.313093,0.889733,0.341219
8449256107,-0.347375,-0.160420,-0.050494,0.313902,0.891508,0.348369
8449276137,-0.544478,-0.098814,-0.149674,0.315539,0.884379,0.350795
8449296168,-0.528724,0.083985,-0.090544,0.317594,0.881992,0.351810
8449316198,-0.529409,0.069401,0.099131,0.308261,0.884873,0.351959
8449336226,-0.574085,0.458491,0.292977,0.312270,0.880369,0.354813
8449356256,-0.695520,0.535352,0.322601,0.318802,0.882392,0.344439
8449376287,-0.899958,0.650227,0.207806,0.320063,0.883289,0.345472
8449396317,-1.158621,0.361313,-0.100760,0.319433,0.881263,0.350008
8449416347,-1.317472,0.651777,0.010456,0.322467,0.881985,0.347873
8449436377,-1.497817,1.055664,-0.137082,0.321819,0.880167,0.347845
8449456407,-1.731912,1.575027,0.017668,0.316997,0.879830,0.348403
8449476437,-1.968171,1.523353,0.124137,0.302327,0.881412,0.358313
8449496467,-1.938276,1.775955,0.592122,0.297775,0.885796,0.361109
8449516497,-1.907813,2.081479,0.953513,0.302881,0.887045,0.360291
8449536528,-1.961744,1.944908,1.000126,0.313099,0.884422,0.361711
8449556558,-2.007874,1.716371,0.873127,0.323152,0.880206,0.355536
8449576588,-2.289145,1.671962,0.805124,0.323313,0.884319,0.352929
8449596619,-2.515850,1.931627,0.704267,0.318137,0.876107,0.360894
8449616649,-2.257057,1.891740,0.568249,0.313132,0.864189,0.379509
8449636679,-1.338260,1.475314,0.412966,0.311840,0.857729,0.395405
8449656710,0.156516,0.751983,0.442508,0.299182,0.850186,0.406085
8449676739,1.582541,-0.031800,0.495271,0.303039,0.859841,0.401854
8449696770,2.804253,-0.731409,0.357676,0.313648,0.865471,0.393589
8449716800,3.828568,-1.422616,0.144094,0.315371,0.868013,0.377390
8449736830,3.905165,-1.492391,-0.113075,0.324495,0.884857,0.353045
8449756859,3.541957,-0.987770,-0.018920,0.325562,0.886908,0.343769
8449776889,2.807968,-0.154320,-0.056602,0.325167,0.888692,0.335015
8449796919,2.133531,0.374376,-0.084113,0.318874,0.885292,0.346932
8449816949,2.164118,0.557478,0.088753,0.303104,0.877997,0.365141
8449836979,2.353862,0.671461,0.330515,0.308518,0.882925,0.357879
8449857009,2.323918,0.877515,0.442502,0.309825,0.877082,0.358760
8449877039,2.505298,0.793590,0.670758,0.307057,0.879172,0.362568
8449897069,2.641291,0.595019,0.687655,0.319843,0.882277,0.347467
8449917099,2.291492,0.459353,0.536983,0.324253,0.883995,0.344907
8449937130,2.109994,0.581617,0.391808,0.324079,0.887360,0.345940
8449957160,1.852429,0.780756,0.352101,0.317109,0.884595,0.343336
8449977190,1.449828,0.820742,0.290914,0.315784,0.884889,0.341126
8449997220,1.159925,0.616916,0.337978,0.313636,0.878942,0.348066
8450017251,1.182234,0.311571,0.113089,0.316874,0.881363,0.351154
8450037281,1.272503,-0.047162,-0.035497,0.322008,0.880953,0.353607
8450057311,1.143514,-0.184327,-0.284618,0.323902,0.883093,0.343707
8450077341,0.916117,-0.099751,-0.391587,0.313623,0.883547,0.339344
8450097372,0.513061,-0.158662,-0.436780,0.310396,0.885093,0.343232
8450117402,0.246097,-0.263379,-0.307134,0.309898,0.891324,0.337256
8450137432,-0.187420,-0.230357,-0.224218,0.308766,0.894166,0.335438
8450157462,-0.932728,-0.218544,-0.148856,0.314179,0.895879,0.332620
8450177492,-1.729641,0.089988,-0.197325,0.317134,0.893971,0.328542
8450197521,-2.368020,0.207746,-0.137965,0.319141,0.889353,0.337479
8450237581,-2.945883,-0.140752,-0.559917,0.314577,0.874726,0.367305
8450257611,-2.157265,-0.807774,-0.743488,0.318200,0.872213,0.372545
8450277641,-1.679022,-1.321658,-1.148376,0.322885,0.874600,0.364335
8450297672,-1.352096,-1.445684,-1.298818,0.316669,0.876235,0.356124
8450317701,-1.314218,-1.522179,-1.351233,0.304296,0.875814,0.363405
8450337732,-0.889936,-1.629920,-1.031674,0.308315,0.884042,0.353961
8450357762,-1.041957,-1.338704,-0.685416,0.303795,0.880534,0.351116
8450377792,-1.429408,-1.031221,-0.400065,0.312053,0.895821,0.329207
8450397822,-2.606842,-0.445130,0.003879,0.312373,0.902502,0.323340
8450417852,-3.768373,-0.073851,-0.068039,0.321388,0.897937,0.331205
8450457914,-5.075262,0.383198,0.238358,0.307655,0.879188,0.359109
8450477944,-4.899989,0.572941,0.350581,0.313505,0.873467,0.365633
8450497974,-4.435455,0.791371,0.394464,0.318045,0.857736,0.387563
8450518004,-3.074720,0.608564,0.237433,0.317704,0.853193,0.401575
8450538034,-1.806175,0.266707,0.172678,0.320500,0.858358,0.387609
8450558064,-1.326347,0.408532,0.095898,0.313888,0.875766,0.377072
8450578094,-0.816195,0.626720,0.139805,0.313077,0.865804,0.383814
8450598124,-0.109089,0.600013,0.102461,0.308900,0.867307,0.396176
8450618153,0.885027,0.229773,0.219782,0.310631,0.861302,0.393045
8450638183,1.713274,-0.018719,0.063044,0.309906,0.868824,0.384703
8450658213,2.107032,-0.416633,0.058994,0.312795,0.870775,0.375000
8450678243,2.434445,-0.342429,0.005454,0.314036,0.871278,0.365530
8450698273,2.723176,-0.473711,-0.099453,0.309065,0.869399,0.380678
8450718303,3.404386,-1.467845,-0.394061,0.312384,0.865606,0.387361
8450738334,4.465861,-2.441183,-0.696242,0.310415,0.865628,0.385595
8450758363,5.073104,-3.047217,-1.138204,0.317654,0.875066,0.368089
8450778394,5.047739,-4.068691,-1.622477,0.318427,0.886842,0.347213
8450798424,4.394345,-4.080988,-1.781914,0.318578,0.888623,0.338285
8450818454,3.884755,-4.070449,-1.714010,0.307295,0.883926,0.343627
8450838484,3.557242,-4.052830,-1.517181,0.304472,0.887062,0.339776
8450878546,1.536037,-3.515934,-1.226964,0.315775,0.906652,0.310835
8450898576,0.084360,-3.248867,-1.055520,0.314151,0.903486,0.308771
8450918606,-1.289916,-2.586152,-0.811540,0.310647,0.898549,0.315790
8450938636,-2.345229,-2.001191,-0.551588,0.316555,0.898696,0.315430
8450958666,-3.695686,-1.110330,-0.332257,0.326211,0.899954,0.308113
8450978697,-5.304256,-0.111489,-0.098794,0.322673,0.903066,0.309362
8450998727,-6.572234,0.527880,0.160598,0.315163,0.900477,0.324006
8451018757,-7.695898,1.174273,0.473076,0.310967,0.893887,0.333919
8451038786,-8.447536,1.643427,0.726565,0.318890,0.891270,0.336945
8451058816,-9.266540,2.280011,0.864884,0.316037,0.891273,0.339455
8451078846,-10.071255,2.772229,1.102990,0.312896,0.888638,0.341753
8451098876,-10.913330,3.516210,1.452695,0.315329,0.884824,0.352804
8451118906,-11.442755,4.509820,1.830784,0.314564,0.878718,0.369990
8451138936,-11.342831,5.073796,2.197620,0.306886,0.869049,0.380548
8451158966,-11.190061,5.485006,2.489944,0.309799,0.868274,0.385518
8451178996,-10.984456,5.636455,2.579757,0.313514,0.858551,0.393248
8451199026,-10.307843,5.724643,2.708239,0.316038,0.854339,0.409957
8451219056,-9.410440,5.513259,2.376835,0.317023,0.847811,0.419499
8451239086,-8.127913,4.499954,1.855216,0.320031,0.841155,0.433180
8451259117,-6.611371,2.806858,1.005805,0.316482,0.838687,0.438395
8451279147,-5.260777,1.808848,0.612985,0.308546,0.843332,0.431279
8451319208,-3.756778,1.267257,0.375633,0.315427,0.857259,0.409701
8451339238,-3.710174,1.862191,0.810422,0.299280,0.866459,0.395555
8451359268,-4.173068,2.459925,1.275270,0.298732,0.864496,0.389046
8451379298,-4.668139,2.272358,1.306934,0.313438,0.863066,0.400136
8451399329,-4.592571,2.104274,1.240143,0.322192,0.853624,0.416715
8451419359,-4.106886,1.605803,0.903368,0.321730,0.842406,0.435410
8451439389,-3.052117,0.478716,0.139967,0.311760,0.833504,0.441922
8451479447,-0.327481,-2.045477,-1.490422,0.322176,0.819941,0.460681
8451499477,1.743832,-3.855913,-2.406819,0.307972,0.820775,0.457810
8451519508,3.200618,-5.007098,-2.912032,0.297846,0.844278,0.436683
8451539538,3.875821,-5.299635,-2.825846,0.303321,0.861354,0.407716
8451559568,3.344252,-4.670710,-2.247561,0.303669,0.878049,0.387152
8451579598,2.472552,-3.392335,-1.477759,0.300503,0.880980,0.387767
8451599628,1.897117,-2.176423,-0.707289,0.309919,0.873429,0.391776
8451619658,1.185839,-0.945534,-0.225131,0.324410,0.866670,0.379350
8451639689,0.277215,0.324280,0.203530,0.324102,0.872846,0.366986
8451659719,-1.011856,1.626988,0.760627,0.324341,0.876228,0.364830
8451679749,-2.080567,2.806361,1.205134,0.326409,0.868623,0.385974
8451699779,-2.434457,3.882438,1.484048,0.312415,0.855035,0.403879
8451719811,-2.296817,4.324226,1.791272,0.303566,0.858254,0.408056
8451739841,-2.692451,4.441258,2.017561,0.313736,0.874076,0.386001
8451759871,-3.558152,4.796384,2.135475,0.312460,0.872231,0.391349
8451779901,-4.151424,5.021432,2.482075,0.307626,0.857707,0.403644
8451799931,-4.400694,5.548487,2.636754,0.308527,0.853578,0.408002
8451819961,-4.302168,5.441276,2.599791,0.314215,0.846037,0.429936
8451839991,-3.467783,4.651564,2.220137,0.322024,0.840313,0.450551
8451860021,-2.275836,3.798583,1.697128,0.307302,0.832734,0.453802
8451880050,-0.909774,2.907233,1.356496,0.303018,0.826271,0.457781
8451900080,0.745037,1.907510,0.933510,0.308641,0.827290,0.464455
8451920110,2.308051,0.496103,0.172741,0.313679,0.828241,0.467832
8451940140,4.000128,-0.900511,-0.512268,0.310482,0.832409,0.459328
8451960170,5.221601,-1.859752,-0.897893,0.311714,0.841243,0.442540
8451980200,6.224000,-2.345381,-1.128376,0.303876,0.838555,0.443301
8452000230,7.362447,-2.899699,-1.198993,0.306191,0.838376,0.440324
8452020260,8.335375,-3.057465,-1.310929,0.313759,0.841645,0.433904
8452040290,9.155646,-3.488975,-1.579866,0.315455,0.850446,0.422237
8452060320,9.535246,-3.551573,-1.488171,0.313232,0.858539,0.411320
8452080350,9.778327,-3.567930,-1.442424,0.313287,0.862408,0.403688
8452100381,9.823951,-3.407667,-1.246612,0.298449,0.868549,0.397387
8452120411,9.565845,-3.139182,-1.036692,0.304603,0.878688,0.385804
8452140442,8.928040,-2.593981,-0.624562,0.307634,0.879295,0.372165
8452160472,8.170227,-1.568283,-0.117958,0.322903,0.875367,0.357678
8452180502,7.268475,-0.519420,0.259487,0.319059,0.868475,0.356548
8452200533,6.472635,0.185469,0.374498,0.321627,0.879858,0.354230
8452220563,5.302890,0.450408,0.356543,0.325616,0.885101,0.356991
8452240593,4.423074,0.888572,0.246289,0.324119,0.881006,0.357933
8452260623,3.664151,1.135781,0.130115,0.322535,0.876003,0.358317
8452280653,3.033555,1.291531,0.181577,0.325224,0.870035,0.363601
8452300683,2.721272,1.003307,-0.005706,0.318930,0.869155,0.365134
8452320712,2.143154,0.892017,-0.058126,0.317307,0.883079,0.353276
8452360772,0.654541,1.410412,0.096026,0.300858,0.883256,0.371817
8452380802,0.574783,0.482141,0.081035,0.303634,0.876979,0.383125
8452400832,0.769585,-0.440811,-0.184078,0.308043,0.874212,0.384358
8452420862,1.110296,-0.869196,-0.278883,0.312707,0.867836,0.379353
8452440892,1.057144,-0.968349,-0.422137,0.326245,0.871763,0.362994
8452460922,0.579006,-0.752666,-0.416597,0.319286,0.872454,0.361244
8452480953,0.177976,-0.225112,-0.352981,0.318451,0.874997,0.363536
8452500983,-0.133371,-0.162698,-0.391566,0.313782,0.880553,0.368533
8452521013,-0.544965,-0.449912,-0.434846,0.307279,0.887362,0.363652
8452541043,-1.083983,-0.180346,-0.346385,0.305021,0.891320,0.358905
8452561073,-1.814445,-0.030662,0.008364,0.304647,0.887776,0.357953
8452581104,-2.520640,0.316134,0.164335,0.312670,0.880494,0.364132
8452601135,-3.029519,0.769262,0.562136,0.314213,0.872093,0.366180
8452621165,-3.088996,1.165660,0.642182,0.308132,0.866489,0.381001
8452641195,-2.937111,1.165034,0.695336,0.313147,0.866795,0.385559
8452661225,-2.693555,1.148190,0.597028,0.324017,0.866446,0.387010
8452681255,-2.412577,0.803086,0.274030,0.318574,0.860021,0.401287
8452701285,-1.571338,-0.230487,-0.179393,0.310514,0.851892,0.413771
8452721315,-0.235683,-1.205761,-0.625485,0.313323,0.847025,0.417697
8452741344,0.955536,-2.126784,-1.011446,0.313302,0.848231,0.413782
8452761374,2.139843,-2.750385,-1.240682,0.313540,0.856097,0.407925
8452781404,3.006517,-2.861918,-1.353059,0.310475,0.860610,0.402713
8452801434,3.667444,-3.055963,-1.426931,0.307963,0.865939,0.397426
8452821465,4.940998,-3.823231,-1.230320,0.285410,0.842142,0.441391
8452841494,7.653935,-4.378938,-1.497298,0.326918,0.849260,0.426064
8452861525,7.291409,-3.194752,-0.771952,0.314197,0.908759,0.279059
8452881555,2.798931,-0.443259,0.021641,0.315577,0.959332,0.242666
8452901585,-0.540037,1.608757,0.609366,0.321798,0.896546,0.350826
8452921615,-0.259077,1.393610,0.452084,0.324568,0.863208,0.379321
8452941646,-0.024540,0.988444,0.303957,0.309981,0.863650,0.365941
8452961675,0.089074,0.888917,0.312430,0.299307,0.862505,0.386207
8452981705,0.747731,0.177448,0.288394,0.310367,0.857458,0.396565
8453021767,3.061229,-2.259899,-1.062385,0.331018,0.849045,0.395910
8453041797,4.283082,-3.425903,-1.817797,0.318553,0.860989,0.391436
8453061827,4.798529,-4.229606,-2.333965,0.312339,0.872322,0.375828
8453081857,5.101375,-4.596796,-2.398975,0.302338,0.873560,0.377321
8453101895,5.623291,-5.139501,-2.250105,0.296569,0.883241,0.379051
8453121917,5.734879,-5.458609,-1.898595,0.292772,0.888674,0.357220
8453141947,5.234215,-4.776846,-1.404142,0.298839,0.900279,0.328577
8453161978,4.312920,-4.304352,-0.422880,0.315507,0.901295,0.308134
8453182006,1.693240,-1.924541,-0.823234,0.350060,0.916202,0.276515
8453202036,-0.563181,-0.408527,0.527725,0.304812,0.908407,0.286937
8453222067,-3.385491,1.709893,1.304695,0.328784,0.930605,0.250193
8453242097,-7.277180,4.251674,1.797055,0.331263,0.931054,0.248594
8453262127,-10.860603,5.954571,2.304189,0.328903,0.927301,0.270157
8453282157,-13.494592,7.393517,2.776089,0.308804,0.903059,0.325387
8453302187,-14.635221,7.751345,3.265370,0.312908,0.883579,0.350288
8453322217,-15.061322,7.708085,3.311020,0.310019,0.869353,0.371929
8453342248,-14.872160,7.386989,3.192494,0.308793,0.860727,0.400039
8453362278,-13.864952,6.139843,2.869839,0.313823,0.850820,0.422305
8453382308,-12.430932,5.164532,2.567855,0.317200,0.841984,0.434603
8453402338,-10.783125,4.011368,1.774631,0.314334,0.829197,0.443750
8453422368,-8.832268,2.467874,0.825606,0.316129,0.830110,0.457116
8453442400,-6.487247,0.992297,0.323546,0.303214,0.826753,0.468743
8453462429,-3.808588,-0.721082,-0.199102,0.299078,0.819243,0.480201
8453482460,-1.113084,-2.138131,-0.853126,0.313370,0.821813,0.461468
8453502490,0.716588,-3.329857,-1.509461,0.315748,0.835748,0.443377
8453522519,2.021527,-4.312300,-1.872105,0.306086,0.847341,0.433650
8453542550,2.984457,-5.293059,-2.272838,0.308023,0.854403,0.423248
8453562580,3.438670,-5.836143,-2.343880,0.312845,0.857510,0.400714
8453582610,3.598114,-5.981989,-2.456310,0.309036,0.859476,0.395558
8453602640,3.627964,-5.905141,-2.191566,0.310137,0.874837,0.384306
8453622669,3.111183,-5.512813,-1.778095,0.308130,0.878184,0.374810
8453642699,2.071755,-4.798691,-1.564712,0.322808,0.873573,0.368798
8453662729,1.588783,-3.943761,-1.610034,0.329603,0.867950,0.372965
8453682759,1.089358,-3.087472,-1.276271,0.315905,0.875398,0.375641
8453702789,0.353538,-2.145134,-0.624895,0.313410,0.884492,0.365094
8453722819,-0.577989,-0.989755,-0.309016,0.325059,0.876311,0.365391
8453742849,-1.388000,0.157472,0.037319,0.320002,0.873106,0.373860
8453762880,-1.539423,0.478648,0.239266,0.310110,0.865312,0.393347
8453782910,-1.387344,0.775916,0.600785,0.306957,0.866306,0.398052
8453802940,-1.120187,1.086807,0.666543,0.314352,0.859758,0.404046
8453822970,-0.595571,1.038155,0.606548,0.314881,0.852811,0.407733
8453843000,0.133277,0.683755,0.488562,0.317724,0.853406,0.411985
8453863030,0.748710,0.489824,0.376757,0.318424,0.857002,0.403722
8453883062,1.098165,0.113733,0.000978,0.316788,0.857012,0.403786
8453903092,1.424087,-0.475512,-0.418515,0.318074,0.854341,0.407434
8453923122,2.099109,-1.050669,-0.625659,0.318370,0.853679,0.411450
8453943152,2.897967,-1.024885,-0.754385,0.310370,0.854724,0.412608
8453963182,3.671809,-1.562330,-0.908722,0.308114,0.851018,0.410072
8453983212,4.508820,-1.399307,-0.909686,0.318954,0.855631,0.403991
8454003242,4.875133,-1.005189,-0.836997,0.316510,0.860746,0.388388
8454023273,4.998364,-0.655860,-0.885363,0.316301,0.868379,0.376130
8454043303,4.597228,-0.258135,-0.949554,0.314608,0.870218,0.374933
8454063331,4.368927,-0.394292,-1.054670,0.318452,0.868900,0.378178
8454083362,4.305716,-1.087071,-1.185362,0.310720,0.867489,0.378496
8454103392,4.494617,-1.667775,-1.544336,0.310575,0.869468,0.382894
8454123422,4.621141,-2.345929,-1.553745,0.299034,0.862598,0.386295
8454143452,5.172429,-3.155246,-1.417787,0.311840,0.868732,0.382908
8454163482,5.231993,-3.444727,-1.392582,0.312023,0.877826,0.369484
8454183512,4.821777,-3.144811,-1.129924,0.306711,0.891364,0.349529
8454203542,3.675254,-2.498245,-0.802295,0.311277,0.901383,0.329064
8454223572,1.943490,-1.802911,-0.475358,0.315532,0.904929,0.325605
8454243603,0.440096,-0.979134,-0.073567,0.313721,0.895790,0.332795
8454263633,-0.644226,-0.082071,0.145840,0.322752,0.888017,0.344007
8454283663,-1.507383,1.065361,0.469401,0.318289,0.886404,0.344194
8454303693,-2.469515,2.320464,0.966399,0.313577,0.888560,0.338751
8454323724,-3.454961,3.385120,1.381581,0.315172,0.891228,0.348296
8454343755,-4.228765,3.998960,1.618680,0.315044,0.884606,0.359370
8454363785,-4.418403,4.106527,1.617685,0.311559,0.875883,0.375118
8454383815,-4.313108,3.770830,1.552316,0.312491,0.866428,0.386732
8454403845,-3.669178,2.913724,1.203465,0.311406,0.851494,0.402917
8454423875,-2.538640,2.076953,0.877424,0.316019,0.849972,0.409186
8454443905,-1.295086,0.927253,0.478245,0.309041,0.844138,0.417327
8454463935,0.199283,-0.445351,-0.169151,0.312596,0.850151,0.413332
8454483964,1.383334,-1.320922,-0.631318,0.317761,0.848208,0.413124
8454503994,2.560313,-1.944763,-0.943959,0.322172,0.860872,0.392133
8454524024,2.780511,-2.236086,-1.214363,0.313114,0.874300,0.379420
8454544054,2.804424,-1.832238,-1.050935,0.306753,0.880094,0.376631
8454564084,2.766466,-1.549288,-0.719717,0.301453,0.879842,0.378734
8454584114,2.768020,-0.840043,-0.316237,0.306984,0.876568,0.371855
8454604144,2.594824,-0.198784,-0.033585,0.317169,0.878271,0.365737
8454624175,2.345130,0.389853,0.325293,0.312613,0.876567,0.366012
8454644205,1.996573,0.765023,0.428124,0.312137,0.883261,0.358854
8454664235,1.382680,1.408336,0.627143,0.316939,0.887565,0.349752
8454684265,0.562784,1.900609,0.857658,0.317779,0.880687,0.356822
8454704295,0.547815,1.854586,0.729142,0.312268,0.859782,0.386393
8454724325,1.147568,1.447207,0.497807,0.314492,0.859661,0.389258
8454744356,1.647979,0.941504,0.297578,0.307682,0.866402,0.380719
8454764387,2.094838,0.581646,0.376637,0.313547,0.869657,0.378653
8454784417,2.398176,0.206308,0.152471,0.316507,0.869988,0.381170
8454804447,2.670760,-0.160874,0.041955,0.325421,0.875003,0.370679
8454824477,2.498430,0.594147,0.202338,0.322095,0.876193,0.357490
8454844508,1.895215,2.403709,0.907153,0.305954,0.883851,0.342235
8454864538,1.389497,3.824309,1.539460,0.309386,0.884516,0.349509
8454884568,0.918726,4.361217,2.012397,0.306161,0.874142,0.382774
8454904597,1.413143,1.744434,1.026187,0.311172,0.878831,0.401249
8454924626,2.097769,-1.255667,-0.472296,0.333199,0.883302,0.376360
8454944656,2.280270,-1.524184,-0.811148,0.298521,0.860203,0.359880
8454964686,2.081908,-1.568295,-0.659231,0.317492,0.858267,0.359258
8454984716,2.529016,-2.020128,-0.768953,0.319235,0.854404,0.379609
8455004746,2.939626,-2.114075,-0.896861,0.314471,0.875787,0.357180
8455024777,2.399361,-2.148967,-0.805844,0.304568,0.898635,0.338880
8455044806,1.302828,-2.431867,-0.644775,0.300462,0.905988,0.331852
8455064837,-0.080822,-2.317621,-0.540254,0.311442,0.903556,0.331095
8455104897,-2.184793,-1.605372,-0.297042,0.321532,0.887475,0.328828
8455124927,-3.504215,-0.593017,-0.116627,0.324660,0.892047,0.322439
8455144957,-4.610304,0.784634,0.379272,0.318279,0.891135,0.329539
8455164988,-5.924011,1.470220,0.729240,0.312696,0.891119,0.338212
8455185019,-6.697655,1.885165,0.672307,0.318224,0.891014,0.350443
8455205049,-7.259861,2.086451,0.791659,0.322135,0.885111,0.358943
8455225079,-7.683139,2.751132,0.854112,0.311231,0.878055,0.362169
8455245109,-7.994727,3.127175,1.275402,0.307851,0.876218,0.368488
8455265140,-8.260499,3.380478,1.485446,0.309533,0.872615,0.375420
8455285170,-8.115300,3.646471,1.589432,0.316292,0.866946,0.387711
8455305200,-7.904196,3.028050,1.367263,0.315602,0.860503,0.399965
8455325230,-7.152428,2.566406,1.083383,0.309818,0.850364,0.411098
8455345264,-6.044118,1.828525,0.703427,0.310725,0.844806,0.426124
8455365288,-4.457914,0.821707,0.325960,0.310290,0.834960,0.443737
8455385319,-2.317275,-0.500835,-0.260887,0.313376,0.834180,0.449258
8455405349,-0.351018,-1.715942,-0.863885,0.315432,0.838402,0.441570
8455425379,1.243693,-2.440920,-1.167893,0.317102,0.850168,0.421348
8455445409,1.852016,-2.490091,-1.250589,0.314547,0.865280,0.394058
8455465439,1.618689,-1.520553,-0.773588,0.315833,0.877471,0.363699
8455485470,0.307676,0.018332,-0.188156,0.320798,0.890895,0.336699
8455505500,-1.655494,2.262134,0.747401,0.320136,0.905106,0.321573
8455525530,-4.264522,4.776476,1.892673,0.312938,0.913384,0.315325
8455545560,-7.178909,6.873312,2.897242,0.310536,0.910625,0.322564
8455565590,-9.843784,8.465774,3.701451,0.315579,0.903846,0.339564
8455585620,-11.878036,9.810740,4.333654,0.317610,0.890629,0.354721
8455605651,-13.297368,10.824718,4.840037,0.309927,0.871682,0.378887
8455625681,-13.944236,10.989285,5.225031,0.307752,0.854291,0.411466
8455645712,-13.588348,10.522634,5.092642,0.314416,0.838981,0.437086
8455665742,-12.396564,9.685105,4.637743,0.313995,0.821805,0.462117
8455685772,-10.720659,8.083191,3.992359,0.312447,0.817022,0.471908
8455705802,-8.975512,6.472435,3.089292,0.312338,0.815256,0.478097
8455725832,-6.972519,4.731042,2.225358,0.306841,0.814057,0.486579
8455745862,-5.075961,2.936702,1.293577,0.307795,0.815704,0.484327
