Timestamp (us),Gyroscope X (deg/s),Gyroscope Y (deg/s),Gyroscope Z (deg/s),Accelerometer X (g),Accelerometer Y (g),Accelerometer Z (g)
7447845747,-0.890963,3.463766,0.720727,0.949086,0.088153,0.277640
7447865793,-1.979930,2.362634,0.783446,0.960470,0.057762,0.259037
7447885838,-0.238478,3.432647,0.380549,0.962227,0.056948,0.276082
7447905882,-0.984480,2.718870,0.478363,0.963853,0.065034,0.288136
7447925941,-1.782871,2.651156,0.484549,0.970053,0.054500,0.268875
7447945971,-0.276522,3.782232,0.205289,0.956289,0.054717,0.270412
7447966016,-0.466386,3.014916,0.626477,0.945256,0.063822,0.283731
7447986061,-0.968752,1.586659,1.157341,0.947036,0.056666,0.293636
7448006106,0.017383,0.795242,0.952453,0.962308,0.059043,0.288447
7448026151,-0.518805,2.847877,0.916532,0.962176,0.061188,0.282328
7448046196,-0.693090,3.258445,0.871770,0.947771,0.055604,0.287094
7448066241,-1.115839,1.206522,0.648403,0.951459,0.058746,0.288006
7448086286,-1.251047,1.738766,0.824157,0.956229,0.047723,0.286311
7448106331,-0.004433,2.216402,0.532270,0.950109,0.042127,0.294051
7448126376,1.192505,0.512671,0.219972,0.956433,0.049929,0.289208
7448146421,0.652033,0.771426,-0.080860,0.962292,0.062070,0.278498
7448186512,-0.558324,0.764692,-0.475344,0.956324,0.060946,0.287113
7448206557,-0.126092,0.057474,-0.432279,0.963411,0.058533,0.283361
7448226602,0.012434,0.756666,-0.327346,0.963739,0.061131,0.277697
7448246647,-0.571639,1.228470,-0.201421,0.954242,0.060850,0.282182
7448266692,-0.823803,0.605415,-0.236991,0.950013,0.058364,0.282536
7448286737,-0.597863,0.452985,-0.726150,0.959878,0.061552,0.289956
7448306782,-1.711466,1.533486,-0.192971,0.947200,0.046745,0.283704
7448326829,-0.013162,-0.056741,-0.669204,0.951602,0.062955,0.290339
7448346870,-0.972882,-0.884419,-0.737247,0.968110,0.072141,0.271174
7448366915,-1.743466,1.601717,-0.642269,0.970601,0.053641,0.264789
7448386960,-0.661176,2.588979,-0.407715,0.957487,0.053843,0.290549
7448407005,-0.958515,1.107322,0.083536,0.960563,0.050836,0.284587
7448427050,0.017799,2.315102,0.333931,0.967646,0.045417,0.268569
7448447095,0.788642,4.161357,0.227237,0.955306,0.062763,0.271613
7448467140,-0.481370,3.790059,0.313509,0.952961,0.067262,0.283668
7448487185,-0.877403,3.661136,0.194774,0.952318,0.061279,0.286990
7448507230,-0.756573,3.151798,0.224803,0.952092,0.058276,0.287377
7448527275,-0.651071,2.543672,0.270278,0.953482,0.059426,0.285284
7448547320,-0.461920,1.547924,0.505937,0.960895,0.068825,0.289357
7448567365,-0.463691,0.719419,0.438169,0.969938,0.068639,0.282323
7448587412,-0.020161,1.403255,0.784564,0.972641,0.052139,0.275560
7448607456,1.281280,2.238189,0.743323,0.967216,0.056266,0.280312
7448627501,1.450177,2.405416,1.092311,0.956544,0.062267,0.281186
7448647546,0.827793,2.155308,1.485853,0.947037,0.061066,0.284495
7448667592,1.244884,2.025638,1.269465,0.954181,0.058074,0.288942
7448687636,1.192127,2.724851,1.055896,0.959694,0.054611,0.287918
7448707681,1.473867,3.416174,0.839770,0.963696,0.054380,0.289497
7448727726,1.498334,4.183854,0.907421,0.959915,0.059417,0.297349
7448747769,0.601216,3.903465,1.044076,0.943689,0.053385,0.299465
7448767815,1.218861,1.280573,0.782798,0.947582,0.059204,0.305272
7448787859,1.367822,0.588564,0.302357,0.953628,0.061299,0.305026
7448807904,-0.218715,1.266539,0.618613,0.945470,0.050442,0.299593
7448827949,0.620959,0.247039,-0.003943,0.951292,0.064929,0.310442
7448847994,-0.975520,0.119246,0.084601,0.961004,0.058562,0.294905
7448868039,-0.060348,1.836178,0.007396,0.954271,0.046443,0.294319
7448888084,0.144132,1.721922,-0.146430,0.939317,0.062937,0.312647
7448908129,-1.798344,-1.096096,0.213951,0.950014,0.056501,0.302217
7448928174,-0.458672,0.544330,-0.155931,0.965062,0.047510,0.287834
7448948219,0.129106,1.995522,-0.230374,0.954908,0.054230,0.300815
7448968264,-0.146633,1.015241,-0.295898,0.950418,0.046747,0.303211
7448988311,0.902743,0.611608,-0.052158,0.949986,0.047831,0.300831
7449008356,0.084562,0.734244,0.654882,0.949605,0.060072,0.303459
7449028400,-0.921020,0.567695,0.205652,0.965510,0.066948,0.291409
7449048445,-0.794817,2.071838,-1.312779,0.972240,0.065842,0.291104
7449068490,-0.160395,3.067168,-0.899578,0.975254,0.039126,0.284154
7449088535,2.518903,4.425455,-0.730947,0.953596,0.034788,0.282392
7449108580,6.134696,3.311601,-3.012632,0.947057,0.061139,0.307073
7449128625,7.704424,0.389930,-6.663451,0.958809,0.058709,0.297984
7449148669,11.038602,1.009766,-7.862819,0.973866,0.021534,0.269266
7449168714,15.601612,5.421936,-7.627717,0.962276,0.013294,0.265608
7449188759,18.569464,7.357460,-7.827523,0.941790,0.050107,0.308674
7449208803,16.125622,4.790693,-7.478772,0.950620,0.066151,0.326633
7449228849,17.095684,4.190064,-6.007692,0.944627,0.050319,0.306052
7449248893,21.451948,5.000287,-4.434398,0.942997,0.067415,0.321741
7449268939,21.501413,5.137482,-3.490238,0.934545,0.088706,0.323598
7449288983,21.320639,3.990381,-2.497389,0.925728,0.096486,0.322285
7449309028,20.419107,1.856204,-0.637213,0.928882,0.094918,0.326327
7449329073,19.866741,-0.081666,-1.012061,0.960505,0.106637,0.323002
7449349118,19.382587,1.720015,-1.238601,0.960442,0.112199,0.310482
7449369163,18.323927,2.427419,-2.069165,0.943475,0.105737,0.314600
7449389210,17.308697,1.249962,-2.570694,0.933605,0.111579,0.320306
7449409255,15.670653,-0.557607,-2.609754,0.936875,0.130791,0.323814
7449429300,12.239566,-0.691692,-3.131838,0.942593,0.146229,0.314806
7449449345,8.428963,0.626044,-4.185665,0.953531,0.139773,0.314483
7449469390,6.203090,2.550733,-4.650371,0.947636,0.129671,0.317255
7449489435,6.085949,2.756541,-3.567870,0.927598,0.119164,0.323022
7449509479,5.181023,-0.411506,-2.102842,0.917069,0.122804,0.325465
7449529524,3.458354,-2.781449,-2.133103,0.926764,0.123801,0.319609
7449549568,1.911929,-2.765278,-2.944038,0.951746,0.136249,0.315228
7449569613,0.677892,-0.559870,-2.631930,0.955023,0.126908,0.303584
7449589658,0.797660,1.135294,-1.941185,0.943155,0.113055,0.304886
7449609703,2.136051,0.701028,-1.653923,0.932785,0.117690,0.319066
7449649793,1.430815,-3.584914,-1.118801,0.941536,0.136317,0.316063
7449669838,1.606479,-3.174622,-1.105299,0.958043,0.140631,0.303857
7449689883,1.217217,-0.574690,-0.754331,0.947404,0.141396,0.299494
7449709928,0.848516,-0.452332,0.193049,0.935963,0.146937,0.310745
7449729973,-0.124467,-2.191655,1.070639,0.938839,0.137122,0.308298
7449750017,-1.348908,-2.395819,1.064983,0.934767,0.142837,0.296021
7449770062,-2.027507,-2.585440,0.643741,0.938970,0.151106,0.300991
7449790109,-3.154772,-2.774687,0.195465,0.956548,0.137914,0.303322
7449810154,-4.201022,-1.101644,0.163814,0.953408,0.111192,0.282853
7449830199,-2.754851,-0.016034,0.075516,0.948824,0.139299,0.302344
7449850244,-5.500007,-0.986408,0.394595,0.950498,0.143339,0.309698
7449870289,-5.517967,-1.685831,0.006861,0.958695,0.108400,0.298483
7449890334,-3.751884,-0.220474,-0.107103,0.955087,0.123674,0.297784
7449910379,-4.828078,0.145612,0.609303,0.945535,0.131196,0.297106
7449930424,-5.328247,0.131037,1.039776,0.942034,0.115468,0.295845
7449950467,-3.962400,-0.394791,0.595559,0.942476,0.108735,0.298544
7449970512,-3.140458,-0.030646,0.642240,0.949294,0.114486,0.301187
7449990557,-2.741889,0.964867,1.011540,0.948790,0.116561,0.297069
7450010602,-1.978592,1.534495,1.530812,0.945492,0.122750,0.301364
7450030647,-2.936170,1.117418,1.828043,0.939532,0.114941,0.306028
7450050692,-2.028322,-0.038953,1.205094,0.943262,0.102702,0.310618
7450070737,-0.960009,-0.861009,0.633926,0.955988,0.118057,0.304575
7450090782,-1.579111,0.849825,0.949405,0.953086,0.110557,0.295147
7450110827,-0.370483,1.023534,0.810463,0.947812,0.100012,0.301022
7450130872,0.859248,0.292736,0.656978,0.947712,0.113550,0.307010
7450150917,0.653994,0.285317,0.666177,0.944312,0.111218,0.305274
7450170962,1.260659,0.269411,0.265389,0.943802,0.114249,0.307340
7450191008,1.087075,0.634466,0.426359,0.944285,0.122632,0.307820
7450211053,0.055107,0.939558,0.807280,0.937398,0.126318,0.311472
7450231098,-0.827579,-0.435200,1.264827,0.941371,0.129710,0.309743
7450251143,-1.754910,-0.814327,1.500844,0.948125,0.134553,0.300102
7450271189,-3.650976,0.388508,2.138944,0.960764,0.126446,0.301991
7450291233,-3.550073,1.285354,2.251597,0.963792,0.120346,0.296874
7450311278,-1.611184,2.643932,1.648838,0.945909,0.136325,0.288509
7450331323,-2.369520,2.789199,2.088758,0.937987,0.146392,0.302571
7450351366,-5.964542,2.337389,4.585077,0.939331,0.154031,0.315264
7450371412,-6.975479,1.221228,5.180492,0.929726,0.162783,0.308020
7450391456,-5.159636,-0.787534,3.827649,0.952498,0.128675,0.303187
7450411501,-4.233556,1.552002,2.325150,0.982689,0.103007,0.295881
7450431546,-4.567343,5.231219,2.750856,0.959097,0.149796,0.300238
7450451591,-12.824743,5.444331,4.436662,0.932689,0.175320,0.320684
7450471636,-17.781227,0.713562,4.844815,0.925260,0.120138,0.289220
7450491681,-9.996741,-2.486652,2.190317,0.957316,0.128980,0.279912
7450511726,-12.186430,0.183396,2.882609,0.988227,0.163864,0.288955
7450531771,-25.366875,5.857300,2.886882,0.944389,0.135363,0.303528
7450551816,-31.070457,4.629200,-0.907848,0.921514,0.114332,0.323018
7450571861,-31.956343,-0.471269,-3.494072,0.932063,0.098447,0.316580
7450591907,-33.246353,-1.610622,-4.298262,0.955458,0.086968,0.303280
7450611952,-37.743046,1.714539,-4.800210,0.958743,0.129432,0.319887
7450631997,-45.846916,2.329543,-4.913878,0.914821,0.149165,0.347810
7450652042,-51.121353,-7.744726,-5.580033,0.924122,0.113454,0.358096
7450672087,-51.448238,-15.148618,-8.008382,0.969908,0.071817,0.305604
7450692132,-49.787434,-11.829761,-10.698277,0.973779,0.044791,0.257875
7450712177,-53.208595,-5.845441,-11.546189,0.962326,0.062767,0.299160
7450732238,-59.622269,-7.822894,-9.796265,0.944176,0.108523,0.335613
7450752265,-62.259224,-11.917265,-9.513154,0.915028,0.117361,0.312475
7450772310,-60.694710,-9.814773,-12.947752,0.896866,0.110729,0.290820
7450792355,-67.980499,-5.240828,-13.757083,0.912385,0.114106,0.298189
7450812400,-78.653450,-7.633653,-14.251980,0.943274,0.165708,0.274408
7450832445,-88.413101,-6.516390,-16.174202,1.002492,0.244607,0.263901
7450852490,-100.691612,-2.785853,-25.941664,1.051576,0.219244,0.249720
7450872535,-121.631432,-3.555185,-36.011757,1.071314,0.064424,0.199975
7450892580,-121.349373,5.193871,-34.018581,1.044888,-0.122897,0.161724
7450912625,-89.813385,26.409559,-36.284039,0.947337,-0.245415,0.250336
7450932670,-59.646973,15.505500,-39.407593,0.856921,-0.159197,0.348840
7450952715,-47.493813,-7.990107,-37.101650,0.903795,-0.055339,0.347778
7450972760,-46.199364,-6.461780,-33.326729,0.955141,-0.008762,0.289409
7450992806,-38.852573,5.610670,-30.469048,0.930477,0.021392,0.298176
7451012851,-31.960176,6.045971,-29.554781,0.918029,0.076996,0.334226
7451032896,-27.027596,0.614895,-29.374151,0.930860,0.116332,0.316423
7451052941,-29.374754,1.681038,-29.334309,0.956604,0.118380,0.312589
7451072986,-35.958965,5.543018,-23.261404,0.955420,0.070173,0.325451
7451113077,-18.120966,-5.067442,-5.721310,0.955314,0.092486,0.372245
7451133120,-20.237892,-8.664364,3.097454,1.010788,0.224202,0.371017
7451153165,-39.195957,-0.307847,7.927778,0.981859,0.309619,0.335685
7451173210,-59.103691,12.248247,2.949048,0.890033,0.315638,0.347347
7451193255,-81.023186,5.283062,-11.846258,0.824839,0.176227,0.361041
7451213299,-92.446732,-6.744971,-25.132648,0.867267,-0.122851,0.353623
7451233344,-71.351265,-10.188824,-20.080223,0.973910,-0.283805,0.291362
7451253390,-49.234970,-20.483660,-19.188730,0.942127,-0.038276,0.265886
7451273435,-61.879013,-15.250469,-17.870190,0.964654,0.240113,0.332674
7451293480,-83.708099,-6.960430,-14.259571,0.920054,0.292206,0.346212
7451313524,-91.718735,-12.350324,-14.962504,0.919358,0.094323,0.337643
7451333569,-78.530670,-18.247303,-20.840332,0.991481,-0.033093,0.303077
7451353614,-71.725945,-12.911915,-25.323778,0.978741,0.007392,0.277795
7451373661,-77.841629,-6.231427,-21.344547,0.916857,0.039049,0.303666
7451393706,-77.293159,-10.904293,-16.834301,0.894871,0.061406,0.323988
7451413751,-71.201569,-17.879475,-17.019161,0.934802,0.128697,0.307337
7451433796,-80.433418,-16.382336,-18.282995,1.003875,0.182595,0.239113
7451453841,-94.957092,-6.025963,-19.872692,1.034132,0.198215,0.167826
7451473886,-101.834480,2.020144,-22.905361,1.097691,0.184045,0.180516
7451493931,-121.509895,3.757686,-33.558891,1.129508,0.069451,0.208826
7451513976,-133.838409,16.313847,-40.728855,1.036974,-0.090245,0.159940
7451534020,-107.521843,36.007069,-41.292072,0.916636,-0.227056,0.242039
7451554064,-75.204277,24.751545,-44.363220,0.810491,-0.188482,0.400820
7451574109,-58.939331,-5.771995,-45.022823,0.833815,-0.056230,0.394436
7451594154,-61.267910,-12.777464,-44.221279,0.901148,0.026134,0.313127
7451614199,-65.210854,-5.316344,-41.051743,0.927747,0.068919,0.309144
7451634244,-67.873466,2.043446,-41.015434,0.941382,0.107858,0.351167
7451654289,-68.364037,4.589979,-41.288338,0.946947,0.163708,0.370412
7451674334,-70.885979,5.124349,-40.972397,0.932486,0.148366,0.349584
7451694379,-72.414024,2.474510,-37.682304,0.945078,0.077003,0.340705
7451714424,-63.827225,-1.847880,-32.761692,0.968268,0.018110,0.351012
7451734469,-52.997456,-4.120444,-28.782028,0.974302,-0.036372,0.330656
7451754514,-42.027058,-8.613808,-10.783672,1.020171,-0.008977,0.218325
7451774560,-23.925297,-6.224991,11.884460,1.013820,0.220941,0.292403
7451794605,-38.609928,17.963446,7.319402,0.930893,0.471839,0.435944
7451814650,-76.145340,16.619867,-10.119314,0.831161,0.284581,0.405715
7451834695,-120.079315,-13.414562,-19.025536,0.780117,-0.127846,0.364772
7451854740,-87.071602,-19.871382,-14.869132,1.015627,-0.456090,0.329870
7451874785,-32.248680,-25.250238,-22.445581,0.978547,-0.134376,0.276778
7451894830,-43.243446,-18.712393,-23.883505,0.917087,0.232536,0.295971
7451914875,-81.978592,-0.488894,-20.381207,0.863380,0.327775,0.356612
7451934919,-96.862091,-18.664755,-20.935555,0.860785,0.138151,0.351694
7451954964,-85.830521,-29.422949,-23.775408,1.015035,-0.019536,0.322712
7451975008,-76.338844,-19.420088,-21.686424,0.987001,-0.000943,0.251794
7451995053,-78.697182,-7.173449,-21.954178,0.925398,0.102885,0.311487
7452015099,-92.642647,-14.709301,-22.853363,0.921745,0.154479,0.315587
7452035143,-99.273582,-24.186453,-16.668453,1.002729,0.143695,0.253173
7452055188,-106.704842,-18.638021,-14.216959,1.066440,0.098718,0.167062
7452075233,-108.975288,-4.897541,-22.059389,1.122983,0.013587,0.148148
7452095278,-112.251839,13.272856,-34.682579,1.090671,-0.070243,0.187844
7452115324,-104.095024,26.869804,-37.454849,0.943424,-0.151134,0.269377
7452135368,-83.970200,13.884875,-39.143387,0.812184,-0.188279,0.357038
7452155413,-64.719116,-14.066269,-43.485100,0.838083,-0.107829,0.340812
7452175459,-60.534622,-20.910479,-43.419289,0.902821,-0.050000,0.277623
7452195505,-63.025707,-10.684588,-41.642418,0.960342,-0.012812,0.269724
7452215550,-59.582672,1.353717,-37.703442,0.974828,0.037084,0.265776
7452235595,-53.418968,6.836458,-36.902634,0.950758,0.088926,0.299587
7452255639,-54.565414,3.538745,-36.905964,0.933141,0.140615,0.338090
7452275684,-57.403797,-6.184996,-30.925121,0.942783,0.098645,0.328401
7452295729,-52.761627,-13.908214,-24.058855,0.986918,0.004526,0.301641
7452315774,-43.639610,-11.190386,-13.740008,1.033906,-0.056408,0.243308
7452335818,-31.167795,-9.538774,-1.708864,1.094388,0.080212,0.237250
7452355863,-33.975525,4.054985,1.149054,1.061683,0.364446,0.329443
7452375908,-54.110798,26.861565,-10.587434,0.901783,0.436057,0.344800
7452395953,-96.759689,19.558420,-22.343771,0.728619,0.219681,0.346323
7452415998,-135.996231,-32.855408,-28.796524,0.724836,-0.055016,0.362037
7452436043,-127.000275,-64.434822,-25.156006,1.003044,-0.421248,0.230981
7452456087,-46.645260,-36.690117,-18.157175,1.109193,-0.379111,0.088741
7452476132,-36.093479,-26.241232,-19.398321,1.003484,0.100553,0.139183
7452496178,-82.253357,7.946167,-24.699034,1.009197,0.470410,0.312980
7452516223,-101.860168,7.263172,-26.170755,0.904302,0.347415,0.245947
7452536267,-111.426407,-18.022049,-22.553848,0.979741,0.182100,0.259244
7452556312,-119.451416,-18.061197,-23.604553,1.006433,0.083810,0.224834
7452576359,-115.664078,-11.209083,-24.584738,0.983143,0.096148,0.181133
7452596404,-118.349998,-15.607771,-25.039940,1.015697,0.127962,0.147422
7452616449,-132.105652,-15.922918,-25.475073,1.099450,0.049145,0.112722
7452636494,-147.224228,-6.257768,-27.227161,1.150257,-0.109685,0.076985
7452656539,-127.097572,19.102844,-28.845308,1.144444,-0.183933,0.109967
7452676584,-93.485092,36.247753,-36.889889,1.001454,-0.144501,0.222949
7452696629,-81.523903,31.749723,-44.176640,0.849744,-0.082403,0.313465
7452716673,-78.929108,9.470424,-42.895592,0.800668,-0.035280,0.336298
7452736717,-76.685684,-13.696056,-37.626648,0.867139,0.002175,0.295778
7452756762,-76.036957,-14.281450,-36.694016,0.950234,0.002134,0.248131
7452776807,-76.560333,-0.706244,-36.893295,0.977847,-0.007022,0.236937
7452796852,-73.035057,9.431164,-34.400635,0.975337,0.001774,0.262976
7452816897,-67.440865,10.203066,-31.160774,0.977721,0.025864,0.308408
7452836942,-70.150070,8.109556,-26.856541,0.962907,0.051567,0.352244
7452856987,-76.808792,5.291311,-19.184525,0.943749,0.027016,0.334098
7452877032,-67.584152,-1.803578,-9.154302,0.968364,-0.071690,0.263349
7452897077,-52.718086,-3.029251,-1.892613,1.009557,-0.084631,0.235989
7452917122,-46.195438,-0.980502,2.969241,1.067212,0.044169,0.252008
7452937167,-48.625038,5.924625,6.508612,1.059278,0.194179,0.266280
7452957212,-63.997280,23.400593,-1.709228,0.933846,0.256981,0.294617
7452977258,-94.290794,20.180975,-19.178841,0.790578,0.092532,0.327522
7452997303,-119.122826,-9.818110,-31.103653,0.766839,-0.130627,0.343576
7453017348,-103.025528,-24.674498,-27.396261,0.930388,-0.361082,0.331468
7453037393,-60.159286,-28.471931,-23.112263,1.014421,-0.260044,0.269884
7453057438,-56.015221,-29.019873,-16.721294,1.042777,-0.027276,0.193240
7453077483,-75.398460,-0.954078,-11.205461,0.998771,0.063975,0.252073
7453097528,-83.957703,13.043348,-17.514347,0.892184,0.049045,0.311142
7453117573,-78.004730,-7.188274,-19.795876,0.903288,0.055812,0.374444
7453137635,-83.999680,-22.694136,-15.408060,0.936337,0.052039,0.312351
7453157661,-85.248924,-21.034946,-12.840303,0.933987,0.019392,0.218554
7453177706,-85.785995,-22.937521,-19.188046,0.956537,0.045892,0.210761
7453197751,-96.913513,-31.152443,-20.466259,1.072265,0.052308,0.190704
7453217796,-118.545631,-28.276785,-22.428621,1.167742,-0.027414,0.105841
7453237841,-122.840729,4.491003,-28.018501,1.188742,-0.160934,0.041635
7453257886,-99.932564,42.000870,-33.745251,1.101212,-0.226450,0.129121
7453277931,-81.580452,55.527321,-38.484959,0.944586,-0.202430,0.276000
7453297976,-66.821419,42.651821,-43.751152,0.802809,-0.123385,0.385568
7453318021,-56.447727,15.216892,-49.640366,0.741954,-0.026583,0.408269
7453338066,-62.883385,-8.513435,-47.229771,0.813873,0.005278,0.349353
7453358111,-68.712372,-15.098304,-47.453114,0.917351,-0.039859,0.310512
7453378156,-70.468414,-0.245514,-48.527866,0.968642,-0.065368,0.318290
7453398202,-62.374210,11.765775,-45.028305,0.941637,-0.003690,0.344715
7453418247,-58.141781,4.427860,-44.116768,0.957851,0.070701,0.365433
7453438292,-62.555099,-4.648737,-38.749161,0.979924,0.053767,0.313838
7453458337,-60.608498,-4.113952,-28.959843,0.978784,-0.002738,0.276331
7453478382,-50.338234,-5.949821,-18.394093,0.962260,-0.052457,0.262873
7453498427,-42.224586,-7.277086,-13.381261,0.974089,-0.009623,0.260239
7453518472,-43.607254,-8.579207,-4.509348,1.079328,0.077599,0.260469
7453538517,-44.515293,-5.039856,4.895245,1.109044,0.226347,0.266742
7453558561,-58.434040,23.851498,-2.445574,0.974586,0.319531,0.317159
7453578606,-86.774696,30.201777,-14.804475,0.840922,0.205999,0.338607
7453598650,-115.663475,-2.379812,-30.649635,0.761406,0.006040,0.371087
7453618696,-129.079712,-25.066788,-37.038963,0.893129,-0.342348,0.323576
7453638741,-78.182610,-20.820778,-30.012995,1.021977,-0.470389,0.219598
7453658785,-44.673939,-31.748173,-27.920767,0.990636,-0.076751,0.202554
7453678830,-71.248764,-14.614727,-24.975384,0.997735,0.277547,0.358281
7453698875,-105.962868,5.214402,-26.449711,0.892968,0.270174,0.282101
7453718920,-97.919266,-10.586094,-24.904219,0.912351,0.079453,0.296745
7453738965,-97.193810,-19.914881,-29.570980,0.998713,0.012239,0.295927
7453759010,-95.379761,-12.960970,-27.709742,0.948759,0.045356,0.246398
7453779055,-100.331238,-17.023333,-28.300257,0.925672,0.123175,0.231293
7453799101,-110.583374,-27.305828,-28.310970,0.971187,0.131362,0.172197
7453819146,-123.961136,-35.541580,-29.533813,1.113603,0.050939,0.112719
7453839191,-136.157639,-17.374403,-32.680012,1.202730,-0.075257,0.067797
7453859237,-127.138695,26.531687,-39.197662,1.120269,-0.219582,0.072301
7453879281,-100.099464,51.709049,-46.277626,0.967368,-0.242970,0.239263
7453899326,-77.920509,37.596947,-49.055027,0.847559,-0.179150,0.393912
7453919371,-60.374977,6.130415,-48.390354,0.811641,-0.052836,0.389238
7453939416,-56.353401,-9.788210,-46.829147,0.832768,0.060750,0.331461
7453959460,-64.688438,-10.607794,-43.077213,0.865058,0.116681,0.316577
7453979505,-72.109917,-11.869667,-40.786957,0.906462,0.108401,0.328875
7453999550,-80.777191,-12.880469,-40.331020,0.969818,0.087594,0.318584
7454019595,-83.658173,-6.957361,-41.045883,0.994375,0.097881,0.266965
7454039640,-82.940094,2.118392,-38.515461,0.979173,0.140198,0.250390
7454059685,-84.525719,1.546230,-29.383663,0.976100,0.106066,0.289252
7454079730,-81.271683,-4.753492,-20.374977,1.013828,0.004646,0.323414
7454099774,-68.451469,-7.322514,-12.654469,1.010690,-0.047255,0.275657
7454119819,-58.625626,-7.981455,-5.552747,0.988329,-0.019501,0.209894
7454139865,-57.778690,-6.665392,-1.400895,1.052860,0.044065,0.208202
7454159910,-50.539135,1.784107,6.969064,1.072795,0.188559,0.260963
7454179955,-60.260395,25.008831,-1.449905,0.952403,0.278867,0.346194
7454200001,-89.734055,22.295694,-23.474403,0.816915,0.201956,0.360042
7454220045,-120.974564,-9.575644,-36.323448,0.771579,-0.011979,0.358837
7454240090,-121.639305,-37.268215,-27.919664,0.951571,-0.300088,0.250272
7454260135,-62.357838,-24.066742,-17.599161,1.041117,-0.356626,0.156979
7454280180,-52.590424,-14.325842,-22.825607,0.932034,-0.018045,0.206467
7454300225,-78.524742,-5.431902,-19.435490,0.952606,0.210224,0.347400
7454320270,-95.059036,-10.917335,-12.363264,0.959075,0.200239,0.304010
7454340315,-96.040329,-18.929550,-16.644886,1.000248,0.140483,0.245170
7454360359,-103.012764,-8.246043,-19.945959,0.933491,0.142055,0.236111
7454380404,-108.223190,-13.539284,-20.068607,0.937639,0.160862,0.248277
7454400449,-120.942680,-32.706120,-22.870771,1.045664,0.152622,0.177755
7454420494,-144.194504,-29.495640,-27.068436,1.161452,0.064261,0.087557
7454440539,-152.952850,0.335116,-31.364296,1.177963,-0.145902,0.030598
7454460584,-129.717804,28.602448,-36.665810,1.093153,-0.312229,0.101092
7454480629,-100.394836,42.194519,-43.417126,0.943885,-0.304139,0.241509
7454500674,-76.682831,29.016359,-45.361530,0.820421,-0.177608,0.336980
7454520718,-66.126923,7.870163,-44.355911,0.808844,-0.028560,0.374541
7454540763,-70.606308,-4.369104,-40.843670,0.840596,0.034117,0.358414
7454560808,-73.144005,-11.822294,-38.844028,0.892316,0.022693,0.323288
7454580853,-70.791069,-10.274583,-40.615738,0.942555,0.006003,0.300576
7454600900,-69.649956,-1.581267,-42.598228,0.960319,-0.001290,0.299492
7454620944,-69.029221,0.326141,-42.223877,0.974869,0.021919,0.299133
7454640989,-68.056488,-2.128344,-39.166458,0.991589,0.017823,0.296922
7454661034,-64.914627,-0.942678,-33.249397,0.996086,-0.006808,0.291422
7454681079,-58.708073,-2.250256,-21.944490,0.966404,-0.037763,0.286180
7454701124,-51.642567,-8.431390,-12.340436,0.927285,-0.047924,0.275053
7454721169,-42.600040,-14.637892,-4.640854,0.980560,0.007280,0.278628
7454741214,-43.458748,-14.725592,1.490922,1.087334,0.121071,0.287573
7454761258,-47.544296,-6.792989,4.920126,1.076110,0.208138,0.252358
7454781303,-62.620350,13.390646,1.306524,0.956558,0.221576,0.274226
7454801348,-88.544090,13.523623,-6.280739,0.830243,0.119286,0.327227
7454821393,-107.297638,-12.977989,-20.860920,0.809976,-0.035801,0.358950
7454841438,-99.025803,-32.642582,-25.400545,0.943410,-0.232267,0.282610
7454861482,-72.797394,-34.022900,-19.063837,1.011419,-0.243860,0.170035
7454881528,-70.657501,-23.756207,-19.067097,1.009134,-0.060544,0.162587
7454901573,-84.963806,-5.965816,-19.050409,1.002869,0.110189,0.259460
7454921617,-83.429253,-4.522565,-18.065544,0.983550,0.120064,0.273713
7454941662,-82.828995,-13.356828,-21.909035,1.026292,0.138533,0.243828
7454961707,-94.047646,-4.128226,-23.530624,0.954897,0.115732,0.208352
7454981752,-103.139114,-2.950850,-25.709429,0.903285,0.153840,0.214853
7455001799,-112.654144,-19.606529,-32.736217,0.990713,0.205630,0.182834
7455021843,-136.613068,-29.810474,-36.504387,1.129371,0.102498,0.114503
7455041889,-164.973434,-4.552865,-39.152447,1.143701,-0.144826,0.032706
7455061934,-128.188324,36.966942,-42.315361,1.072688,-0.325314,0.114980
7455081979,-83.682617,44.752728,-52.270626,0.859524,-0.248411,0.334391
7455102023,-68.432961,13.066925,-53.454632,0.784924,-0.106436,0.410244
7455122068,-68.191124,-14.087575,-46.818123,0.816809,-0.022314,0.334670
7455142113,-66.651482,-17.196459,-44.312958,0.887407,0.033406,0.282011
7455162157,-63.776409,-11.551800,-44.698395,0.916445,0.103613,0.292842
7455182202,-66.679428,-7.497952,-44.321911,0.957949,0.134823,0.307364
7455202247,-74.882240,-4.236604,-41.740444,1.002278,0.118189,0.280148
7455222292,-77.752190,1.765589,-35.614239,0.964295,0.091971,0.269890
7455242337,-73.167778,0.526576,-27.062401,0.935915,0.046339,0.304929
7455262382,-60.982571,-12.203204,-17.514265,0.988938,-0.019558,0.303584
7455282427,-46.376385,-20.016296,-5.467683,1.070521,-0.047946,0.203628
7455302472,-40.856850,-11.898983,4.584184,1.101404,0.081378,0.186307
7455322517,-47.370255,-0.825279,7.830956,1.087899,0.286599,0.221843
7455342561,-50.182255,10.525358,8.649324,0.999557,0.333041,0.208159
7455362607,-76.004356,11.868624,5.204492,0.925909,0.148591,0.241737
7455382652,-118.277130,1.512962,-16.112804,0.822093,-0.031433,0.295089
7455402698,-114.073631,-10.870126,-28.353071,0.882274,-0.214653,0.297132
7455422743,-77.074028,-32.599541,-22.757744,0.988455,-0.245468,0.190001
7455442788,-64.597076,-38.149029,-17.896265,1.074222,-0.019759,0.113288
7455462833,-86.581375,-2.627321,-18.180298,1.041558,0.240902,0.173537
7455482878,-111.575569,22.540874,-27.253452,0.918493,0.253473,0.206858
7455502923,-114.544960,-3.960375,-27.662731,0.920702,0.160829,0.271461
7455522967,-123.428238,-19.374268,-27.115328,1.006840,0.030418,0.230012
7455543012,-119.098862,-2.284631,-28.421701,0.949153,0.042877,0.169671
7455563056,-124.344604,-6.713029,-32.239765,0.936497,0.172292,0.200467
7455583101,-138.770844,-21.376591,-30.195490,1.036122,0.131464,0.132065
7455603146,-148.751083,-12.332439,-33.951900,1.136671,-0.009624,0.068594
7455623191,-140.807373,16.889223,-42.268192,1.173218,-0.177134,0.063688
7455643236,-118.047508,40.512589,-48.338737,1.065107,-0.218139,0.169577
7455663281,-103.071060,43.858318,-50.208935,0.893674,-0.149434,0.300410
7455683326,-92.592232,27.986710,-50.007633,0.757052,-0.058766,0.389071
7455703371,-88.557434,-2.275178,-50.078518,0.769400,0.050199,0.404831
7455723416,-88.845886,-24.286234,-49.392708,0.871386,0.098408,0.336713
7455743461,-86.512520,-23.019291,-50.181244,0.956337,0.073465,0.253596
7455763514,-88.349747,-7.276150,-49.046913,0.982536,0.033075,0.231906
7455783551,-91.481934,9.723458,-45.176495,0.982176,-0.015695,0.269361
7455803597,-81.352821,12.553021,-37.973740,0.970043,-0.088168,0.320127
7455823642,-62.440186,4.543921,-30.957596,0.933962,-0.095973,0.338319
7455843687,-50.097603,-7.319973,-22.424721,0.944773,0.008866,0.360294
7455863732,-46.945461,-15.056189,-13.528168,1.006806,0.120097,0.326142
7455883777,-53.525562,-12.363981,-5.816255,0.991886,0.123744,0.220392
7455903822,-61.694851,-5.460546,-0.175936,1.009995,0.071705,0.197282
7455923867,-47.524662,-13.084500,9.093131,1.125387,0.195019,0.317468
7455943912,-61.250729,-0.884125,2.452264,1.030047,0.359848,0.396714
7455963955,-103.764709,16.621496,-25.677427,0.835764,0.213642,0.275776
7455984000,-127.082550,-16.812618,-33.633850,0.751832,-0.006356,0.289179
7456004045,-129.166718,-52.212734,-28.922005,0.914344,-0.228002,0.270254
7456024090,-88.105728,-45.548214,-20.565886,1.077205,-0.244667,0.144574
7456044135,-70.478004,-29.983040,-22.848881,1.006533,0.054680,0.093242
7456064180,-96.400475,-1.140190,-25.899937,1.001745,0.300603,0.177488
7456084225,-114.126236,6.729900,-18.671219,0.952908,0.236402,0.199511
7456104270,-117.635330,-4.546364,-18.367012,0.973887,0.100672,0.245033
7456124315,-116.159554,-10.454703,-21.298168,0.997906,0.115754,0.212126
7456144360,-125.605354,-13.282269,-22.769585,1.003325,0.126450,0.189771
7456164405,-134.794235,-18.032799,-23.730730,1.079893,0.012250,0.163868
7456184450,-132.582962,-7.775221,-26.941832,1.110060,-0.150218,0.124551
7456204496,-119.846832,9.524603,-34.834114,1.045717,-0.227878,0.119259
7456224541,-102.191368,19.943977,-37.348621,0.948143,-0.132982,0.242858
7456244586,-104.561668,13.643913,-39.853767,0.896498,-0.069038,0.316974
7456264631,-93.960648,0.074774,-40.615486,0.888781,-0.131813,0.256345
7456284676,-76.881798,-1.498322,-41.064911,0.908513,-0.125276,0.243143
7456304721,-69.871849,-0.559370,-35.482006,0.907947,-0.050413,0.269015
7456324766,-70.426758,-5.285491,-33.195408,0.938533,-0.005659,0.280704
7456344811,-71.877747,-5.429386,-34.822083,0.960164,0.015978,0.254281
7456364854,-75.840668,-3.746795,-36.118874,0.951090,0.014353,0.262877
7456384899,-76.370140,-8.488725,-35.127571,0.960658,0.013761,0.288900
7456404944,-69.689316,-15.052715,-32.513805,0.983148,-0.009470,0.249833
7456424989,-62.566166,-12.944609,-29.705933,1.012952,-0.012825,0.263553
7456445034,-60.913906,-10.170287,-26.399651,1.025128,-0.019306,0.274894
7456465079,-58.117970,-7.754625,-24.061695,1.004187,0.041033,0.280161
7456485124,-57.129448,-5.983981,-22.874878,0.967794,0.093059,0.263624
7456505169,-54.398563,-7.673153,-21.675291,0.926549,0.077819,0.239322
7456525214,-52.510319,-9.322553,-18.168556,0.923372,0.053820,0.242228
7456545259,-52.122787,-10.378281,-15.725055,0.964525,0.016107,0.230913
7456565304,-46.676586,-5.571572,-15.344732,0.980762,0.019849,0.214795
7456585349,-48.088848,-1.245371,-14.934225,0.973289,0.095362,0.265739
7456605395,-52.487896,-2.738236,-13.443991,0.976660,0.097198,0.274398
7456625440,-55.903751,-3.480256,-13.668503,0.982831,0.106348,0.266629
7456645485,-63.423618,-1.748863,-14.686664,0.977555,0.102849,0.276088
7456665530,-64.529678,-5.670353,-15.763891,0.996813,0.058858,0.271493
7456685575,-59.959038,-5.590547,-15.440950,0.995592,0.016974,0.238599
7456705620,-58.700886,-1.220840,-14.571007,0.971860,0.004756,0.252092
7456725665,-55.731159,-2.560288,-12.710791,0.950746,0.004843,0.270783
7456745710,-53.220253,-6.560224,-12.269162,0.958304,0.027254,0.258999
7456765753,-53.210251,-4.827364,-12.468953,0.975406,0.033801,0.241772
7456785798,-50.989876,-0.337297,-12.528315,0.961993,0.021468,0.248331
7456805843,-49.952538,0.877155,-14.221059,0.945792,0.020370,0.264519
7456825888,-49.390083,2.077301,-14.835969,0.924078,0.014659,0.274331
7456845933,-47.215149,-3.487920,-14.024607,0.941784,0.024197,0.280937
7456865978,-47.142914,-9.362501,-12.206452,1.013145,0.003559,0.247760
7456886023,-45.595787,-1.298994,-11.090811,1.057173,-0.023343,0.212159
7456906068,-42.466370,12.233671,-14.350141,0.983018,0.004023,0.236975
7456926113,-40.488708,9.585806,-16.823509,0.946949,0.027365,0.276032
7456946158,-37.588943,6.223987,-16.393085,0.983176,-0.010169,0.266501
7456966203,-29.001148,13.909119,-14.965389,1.030699,-0.045415,0.268959
7456986248,-20.633085,23.624376,-12.319001,0.994429,-0.042395,0.308729
7457006295,-16.731234,26.383259,-5.236037,0.859812,0.008401,0.334458
7457026339,-12.981125,15.035761,2.699440,0.855255,0.153848,0.355075
7457046384,-21.856005,2.488596,6.070452,0.979693,0.177106,0.337037
7457066429,-37.141075,7.152002,2.922605,1.050318,0.045400,0.210995
7457086474,-32.972126,27.316603,-6.041831,1.048578,-0.051709,0.180009
7457106519,-23.230206,41.989891,-12.339308,0.947104,-0.070013,0.249615
7457126564,-14.392187,35.999531,-14.511675,0.844613,-0.059536,0.338185
7457146609,-9.316661,16.196541,-11.834991,0.856555,0.006653,0.375692
7457166652,-14.426740,6.528139,-5.478719,0.917815,0.094450,0.364489
7457186698,-18.426643,11.617958,-2.154142,0.971844,0.155023,0.355735
7457206742,-20.440166,16.285660,-4.070546,0.958539,0.156448,0.361270
7457226787,-25.853081,15.772730,-5.750294,0.922245,0.109465,0.357205
7457246833,-29.915918,9.049825,-5.301400,0.902648,0.062748,0.348980
7457266877,-29.844151,-0.664132,-5.757482,0.963888,0.026971,0.306750
7457286922,-22.894501,4.423118,-4.017658,1.008380,-0.008788,0.257660
7457306967,-16.954723,19.338770,-2.652680,0.989371,0.012653,0.283474
7457327012,-14.113662,23.607603,-3.326053,0.961865,0.091657,0.372026
7457347058,-15.292892,18.988304,-1.324269,0.944187,0.135980,0.425521
7457367102,-18.349066,11.748159,0.183957,0.935392,0.093035,0.419165
7457387147,-15.524058,8.400854,-1.053465,0.917861,0.049065,0.404286
7457407194,-13.101044,4.917227,-1.975327,0.882399,0.076000,0.412090
7457427239,-18.656427,-2.017447,-2.055687,0.842006,0.053751,0.403512
7457447283,-41.211010,-17.864059,-9.676530,0.826041,-0.048773,0.350889
7457467328,-45.707695,-47.446903,-20.348265,0.992101,-0.109233,0.339673
7457487373,-27.897894,-50.397724,-23.841696,1.174281,-0.132711,0.269727
7457507418,-5.489474,-15.573654,-19.772562,1.069101,-0.089031,0.179921
7457527463,15.029455,-9.774610,-14.823489,0.955434,-0.020658,0.258919
7457547508,33.946209,-15.390421,-9.866576,1.035403,0.025848,0.312198
7457567552,35.896397,4.773143,-8.529301,1.071734,0.099351,0.252314
7457587597,27.965240,36.611855,-8.201479,0.976373,0.226717,0.257303
7457607642,21.935165,60.058716,-5.747175,0.821653,0.295273,0.377151
7457627687,15.307693,62.666271,-0.449821,0.716984,0.285159,0.513128
7457667777,1.839672,29.504913,8.522016,0.856214,-0.027536,0.499974
7457687822,16.521646,38.168274,16.606161,0.825655,-0.074449,0.555038
7457707867,18.907928,27.566317,23.416264,0.777966,0.053161,0.616548
7457727912,15.685676,15.455464,27.566299,0.820137,0.267063,0.581495
7457747957,2.819030,15.508244,18.842911,0.971823,0.192940,0.529863
7457768001,-11.252441,37.639587,4.592244,0.957398,-0.089058,0.534999
7457788046,-4.092500,44.022190,-2.942235,0.681040,-0.209444,0.598706
7457808093,13.759829,1.858443,-8.417767,0.639805,-0.030704,0.608766
7457828138,9.738667,-22.678947,-4.463169,0.751712,0.246894,0.512878
7457848183,-11.575160,-14.813304,2.884483,0.810838,0.292427,0.439826
7457868228,-23.176594,-13.503801,2.362731,0.865579,0.193499,0.438129
7457888272,-30.741873,-9.143072,0.138742,0.890109,0.191890,0.455346
7457908317,-41.636448,-4.179958,-4.178177,0.880944,0.201287,0.512560
7457928362,-52.453522,-6.946774,-8.396962,0.846627,0.099830,0.531174
7457948407,-50.032986,-21.968756,-10.427784,0.852781,-0.034596,0.487443
7457968451,-38.124065,-36.366398,-8.738037,0.951322,-0.084706,0.431583
7457988496,-27.521225,-31.736889,-3.772776,0.985988,-0.010580,0.353563
7458008541,-25.042377,-14.483736,0.023909,0.942766,0.115944,0.325254
7458028586,-33.398434,-11.287689,-7.647616,0.906432,0.221687,0.386845
7458048630,-60.779266,-30.042192,-17.468485,1.012561,0.148847,0.392592
7458068676,-78.375870,-30.592476,-24.181896,1.099625,-0.099133,0.307872
7458088720,-64.561615,-7.053134,-31.456026,1.132295,-0.328657,0.241904
7458108766,-27.598690,25.742256,-31.663782,0.976121,-0.343089,0.304886
7458128811,-6.600249,25.443808,-29.638044,0.832767,-0.179752,0.456174
7458148855,-3.251041,8.932645,-28.665354,0.846917,-0.038646,0.507646
7458168900,-6.313161,6.458209,-27.009220,0.878317,0.039545,0.442861
7458188945,-15.960149,18.242985,-20.440372,0.893793,0.043446,0.409438
7458208992,-16.895485,32.681572,-11.449644,0.922126,0.005058,0.441827
7458229037,-3.644691,43.897430,-9.063043,0.836900,-0.058339,0.474322
7458249082,3.359829,43.071861,-6.053412,0.733043,-0.060796,0.561714
7458269127,-4.317763,34.396515,6.393387,0.706985,-0.016687,0.668775
7458289181,-8.850116,17.463810,18.199175,0.658615,0.168347,0.714875
7458309216,-4.192564,-6.942524,9.166478,0.778508,0.371661,0.725453
7458329261,-36.181774,-30.309402,-6.709333,0.924577,0.231426,0.597301
7458349306,-68.212135,-19.307796,-9.948095,0.917093,-0.094657,0.459365
7458369350,-38.290745,2.605366,-19.264000,0.841727,-0.248499,0.511161
7458389395,-8.668946,-6.173757,-30.651237,0.719708,-0.043243,0.591153
7458409440,-15.435829,-27.197247,-26.678909,0.708658,0.085239,0.572258
7458429485,-21.458754,-44.715649,-18.693140,0.767045,0.054960,0.477884
7458449530,-14.170660,-53.164841,-15.427071,0.879476,0.031839,0.388489
7458469575,-3.749367,-53.614834,-15.765569,0.839707,0.054373,0.271293
7458489619,-2.716676,-47.669819,-10.971963,0.860113,0.137905,0.191180
7458509665,-9.135309,-71.806686,0.085654,1.126032,0.097507,0.223500
7458529710,-22.007811,-86.113213,4.677433,1.401236,0.010626,0.138734
7458549755,3.090946,-18.717541,2.851909,1.437467,-0.110419,0.041305
7458569800,27.792200,43.576553,-3.079623,1.139988,0.006561,0.157344
7458589845,23.202950,50.829445,-7.805110,0.895210,0.151129,0.389349
7458609891,3.776184,29.262012,-3.902807,0.781716,0.161291,0.524821
7458629936,-2.426211,-10.134054,-2.606696,0.794771,0.047423,0.438908
7458649981,10.551636,-16.378296,-3.629728,0.880156,-0.033920,0.310920
7458670026,15.157709,7.619898,-5.462795,0.925611,0.019786,0.330565
7458690071,5.412685,26.052223,-5.854984,0.949245,0.129133,0.409499
7458710116,0.647807,41.496559,1.251962,0.929720,0.128801,0.499130
7458730161,-3.313486,46.229259,4.904169,0.862303,0.055154,0.475209
7458750206,3.457800,44.947342,6.780893,0.796885,0.015400,0.490082
7458770249,5.693490,44.809586,8.965569,0.706914,-0.071176,0.534842
7458790294,17.994194,20.067072,10.684950,0.843744,-0.146715,0.533552
7458810339,31.969059,7.263215,11.085097,1.077872,-0.088552,0.401584
7458830384,28.413950,49.598770,3.568307,1.040532,0.022769,0.375810
7458850429,23.363430,83.960892,-7.494842,0.824408,0.167872,0.627594
7458870474,25.676542,54.013439,-4.635020,0.527042,0.228289,0.826132
7458890519,19.732807,-14.394724,-3.366792,0.511641,0.234948,0.769790
7458910564,-9.931938,-65.336311,3.407221,0.702335,0.158550,0.510971
7458930609,-26.229752,-61.483517,4.221802,0.835270,0.006247,0.388741
7458950654,-0.629434,-17.825550,1.736847,0.873026,-0.078945,0.372968
7458970699,26.784882,1.879570,-4.045711,0.789126,0.060096,0.464983
7458990744,26.561602,-4.329895,-3.801961,0.828058,0.209293,0.526675
7459010790,20.987576,-16.184647,7.542298,0.881242,0.272877,0.453885
7459030835,13.385846,-18.427279,8.890194,0.931728,0.301593,0.357236
7459050880,-1.125083,-24.404276,8.489059,0.961751,0.244812,0.321051
7459070925,-19.373005,-44.044327,7.588593,1.029235,0.103766,0.308050
7459111015,-10.665907,-66.575714,0.930456,1.337283,0.104909,0.234906
7459131060,-18.472780,-8.298784,-8.709547,1.234304,0.069288,0.214327
7459151105,-6.905564,32.103001,-11.205723,0.916217,0.036332,0.292395
7459171148,6.759542,25.233603,-15.128386,0.725824,0.112094,0.426945
7459191193,2.434005,-1.136729,-14.354171,0.678856,0.153622,0.449476
7459211238,-12.896862,-22.555958,-11.047164,0.752342,0.085651,0.368087
7459231283,-9.942912,-13.290279,-4.443037,0.876926,0.043151,0.296604
7459251328,3.590710,4.979239,-1.044420,1.004483,0.102951,0.320531
7459271373,0.533489,27.775833,-2.223369,1.019512,0.163211,0.363845
7459291418,-2.809751,44.577366,0.224234,0.972131,0.105896,0.445548
7459311463,-1.565183,48.879780,3.547438,0.937150,0.017719,0.558825
7459331508,2.843299,43.898464,5.636233,0.901390,0.038926,0.605731
7459351553,4.601213,36.884117,11.426910,0.766098,0.110771,0.566002
7459371598,2.427599,26.875429,10.439804,0.670073,0.038576,0.544957
7459391643,2.858592,10.155059,13.834831,0.822141,-0.041288,0.519413
7459411690,6.988866,16.233669,17.423725,0.959830,0.068922,0.450680
7459431734,9.912498,34.079117,3.991474,1.009850,0.159669,0.433453
7459451779,-13.661367,66.301445,-0.848229,0.847557,-0.042875,0.516517
7459471824,-8.289629,54.273792,2.016908,0.678008,-0.135704,0.790908
7459491869,10.380474,7.520016,-0.138975,0.579298,0.026369,0.885447
7459511914,18.972975,-25.923580,-1.719751,0.564267,0.191263,0.650447
7459531959,5.688987,-42.502872,1.719352,0.653100,0.222478,0.487595
7459552004,-20.758554,-49.919216,5.928746,0.729208,0.125649,0.454991
7459572047,-28.741941,-42.139442,0.086039,0.760434,0.008906,0.487320
7459592093,-11.850513,-26.498405,-3.920734,0.764417,-0.004324,0.494014
7459612137,8.143147,-25.003653,-5.065820,0.887387,0.065222,0.457100
7459632183,14.043815,-34.270088,3.597794,0.847754,0.148848,0.341587
7459652227,10.693186,-24.371166,3.423667,0.849184,0.203517,0.252559
7459672272,-13.399639,-79.980392,2.221108,1.119995,0.184893,0.305403
7459692317,-54.939056,-142.396515,8.731337,1.500538,0.058809,0.224370
7459712362,-49.906860,-98.082764,5.245479,1.762022,-0.165499,0.055966
7459732407,21.205975,36.701237,-8.347815,1.343004,-0.129098,-0.001384
7459752452,49.444016,66.421906,-34.189892,0.788725,0.143842,0.196163
7459792542,-13.487878,-27.522295,-2.162622,0.671744,0.197703,0.503960
7459812588,-45.695648,-66.084160,-4.278985,0.797721,0.083395,0.276756
7459832634,-25.540894,-15.526689,-4.603207,0.982589,-0.060932,0.167404
7459852679,8.572326,35.193489,-5.065077,0.874034,-0.015352,0.256642
7459872723,12.002248,36.784653,-9.534345,0.810163,0.179899,0.434467
7459892768,-9.581594,19.651379,-3.212313,0.883531,0.230412,0.573976
7459912813,-31.846621,1.802942,0.266374,1.024352,0.121677,0.516723
7459932859,-27.815264,11.726748,1.993528,1.104852,0.000107,0.425722
7459952903,-15.979412,37.178562,1.337818,1.002496,-0.013426,0.422446
7459972947,-10.053440,48.590324,2.751925,0.780787,0.023386,0.514571
7459992992,-9.987695,28.881107,1.513036,0.691681,-0.009267,0.529395
7460013037,-9.664963,5.508742,1.631696,0.799280,0.015726,0.427094
7460033082,-12.835242,9.108541,5.911228,0.972338,0.086711,0.352751
7460053127,-7.953180,34.171532,6.162451,1.051765,0.173713,0.357530
7460073171,-9.100499,70.956528,-1.291369,0.911616,0.088617,0.452168
7460093217,-12.762185,60.666405,-5.588377,0.756878,-0.037584,0.593381
7460113261,-10.657088,14.847491,-5.820220,0.685451,-0.010954,0.673213
7460133306,-12.319603,-14.220759,0.771744,0.796861,0.053838,0.610672
7460153351,-15.636874,-13.062232,1.565531,0.851945,0.059124,0.510881
7460173396,-12.343557,-2.918382,1.043119,0.811262,-0.030189,0.493841
7460193441,-3.568426,-4.948027,0.421622,0.789823,-0.059104,0.485274
7460213488,10.004602,-6.432817,3.671010,0.806560,0.002499,0.428531
7460233533,25.121796,-4.794735,7.629343,0.781022,0.108521,0.450412
7460253578,21.605156,-7.663734,9.906415,0.780830,0.174313,0.433298
7460273622,3.082772,-50.622028,9.997623,0.972216,0.129759,0.354944
7460293668,-28.466528,-92.518997,12.686510,1.283165,0.031947,0.244855
7460313712,-37.967770,-75.749229,17.207823,1.464877,-0.101223,0.146222
7460333757,4.359634,-3.190286,3.139852,1.358853,-0.110903,0.138699
7460353803,35.473824,58.578388,-9.521599,1.016815,0.021670,0.263661
7460373846,31.417469,60.230400,-11.381397,0.798038,0.107733,0.427236
7460393891,11.732816,29.232832,-2.805802,0.698639,0.127452,0.502005
7460413936,-7.419017,-3.311329,-1.302611,0.713782,0.075268,0.465400
7460433981,-8.733318,-3.014616,-3.182151,0.780677,0.012336,0.386562
7460454026,7.314343,14.946678,-4.274460,0.807692,-0.035328,0.419292
7460474071,13.146678,20.277199,-4.568003,0.831162,-0.030545,0.510923
7460494116,10.603333,15.507611,-1.344308,0.894860,0.007844,0.543028
7460514161,9.251518,18.861036,-0.567666,0.957726,0.090849,0.578128
7460534206,3.809217,34.470341,0.274461,0.918726,0.163530,0.613570
7460554250,-7.115525,40.232311,-2.366957,0.828584,0.124779,0.640180
7460574295,-19.833931,36.359398,-2.235308,0.746923,0.063163,0.649197
7460594340,-18.536047,32.485603,-10.926455,0.558863,-0.057977,0.603028
7460614387,-4.340352,-0.425102,-16.763611,0.687200,-0.199186,0.542674
7460634432,17.557863,-8.201482,-10.463843,0.956340,-0.173779,0.403858
7460654477,28.832113,35.197701,-7.483049,0.928356,0.008182,0.445397
7460674522,28.723314,56.355980,-12.248418,0.757406,0.246736,0.753461
7460694566,25.817253,15.090915,-2.938511,0.685492,0.366059,0.828883
7460714611,-0.396983,-29.409794,0.450906,0.758169,0.285520,0.660008
7460734656,-45.396416,-34.614120,3.307264,0.826352,0.117215,0.535798
7460754701,-46.976612,-19.304522,4.264811,0.849033,-0.118854,0.514514
7460774745,-5.157894,-15.199636,1.212949,0.737196,-0.171722,0.535984
7460794790,47.073788,-41.112347,-4.168242,0.789052,-0.098793,0.379165
7460814835,87.516693,-67.422546,13.396218,1.125826,0.050849,0.250742
7460834880,98.194962,-15.542160,29.484648,1.206142,0.347649,0.398374
7460854925,74.987053,65.995628,13.274727,0.904747,0.511962,0.496149
7460874970,56.361214,65.024353,-1.962887,0.651930,0.505523,0.631741
7460895015,15.626808,5.288115,-0.954156,0.615304,0.543053,0.765000
7460915060,-49.802612,-49.501858,-0.636865,0.711300,0.402776,0.590778
7460935105,-88.229721,-61.850555,-1.412362,0.847887,0.144417,0.422017
7460955150,-58.112488,-23.355240,0.796276,0.957817,-0.134808,0.287556
7460975195,9.032912,19.994606,1.375604,0.902196,-0.121509,0.296691
7460995240,16.028139,28.091036,1.664757,0.874425,0.057580,0.457706
7461015286,-0.790025,32.774879,7.183030,0.881078,0.030167,0.562955
7461035331,3.805012,32.031055,18.286449,0.818604,-0.006543,0.526111
7461055376,32.709244,31.546873,28.090975,0.799328,0.104034,0.548001
7461075421,37.666985,30.611097,18.759523,0.770151,0.131453,0.672748
7461095466,13.017161,18.852253,4.020158,0.779450,-0.051114,0.684884
7461115511,20.487455,3.370147,2.606226,0.838042,-0.070967,0.658071
7461135556,41.251392,10.920067,-2.801500,0.818959,0.185714,0.700425
7461155601,43.100998,17.776669,2.449697,0.692254,0.387995,0.637558
7461175644,34.608109,5.856115,13.984000,0.620072,0.366047,0.567290
7461195689,-12.747561,-34.620514,17.935478,0.622415,0.220012,0.523992
7461215734,-54.533833,-73.900803,22.406876,0.665999,0.022937,0.354318
7461235779,-43.597317,-112.195244,21.772619,0.932950,-0.073666,0.156949
7461255824,-1.727277,-128.324707,15.943581,1.360693,-0.052621,0.108460
7461275869,15.199604,-67.815086,15.710882,1.625739,0.040555,0.153601
7461295914,6.139147,49.467979,7.967370,1.283374,0.059008,0.243176
7461315959,8.426902,67.213715,-8.682452,0.864829,0.052489,0.414887
7461336004,14.920414,24.245743,-15.837577,0.754082,0.126159,0.601295
7461356049,1.839660,-23.033749,-14.191781,0.776208,0.142748,0.483508
7461376094,-8.410528,-25.972624,-11.223079,0.838929,0.064673,0.332020
7461396139,2.941427,-4.347301,-3.361823,0.897972,0.008678,0.288211
7461416185,10.121668,12.224017,-2.472637,0.938663,0.026252,0.381592
7461436230,5.711138,30.143185,-1.320636,0.924121,0.087584,0.498792
7461456275,0.686504,30.764944,2.579777,0.843807,0.141513,0.515604
7461476320,0.110288,31.125488,8.808002,0.832439,0.118109,0.545850
7461496365,-0.748681,35.437607,12.764406,0.835307,0.046031,0.581610
7461516410,-1.911373,36.313461,14.478992,0.736586,-0.009514,0.650632
7461536455,-3.403279,21.272415,13.240014,0.700714,-0.000924,0.704835
7461556500,1.726532,2.668358,11.633666,0.745449,0.047257,0.640213
7461576543,-0.039657,3.572993,8.591415,0.841464,0.005577,0.584993
7461596588,-0.218730,13.793377,2.595145,0.870226,-0.016204,0.557705
7461616634,8.034777,24.279276,-5.233475,0.798235,0.054698,0.669034
7461636678,8.230768,11.889751,-5.726072,0.657557,0.109248,0.696964
7461656724,6.328959,-9.404887,-3.802021,0.594360,0.177906,0.643312
7461676768,-0.377476,-38.377979,1.883857,0.649400,0.230505,0.568259
7461696813,-21.175776,-59.146698,4.607467,0.760047,0.222345,0.476451
7461716858,-41.440842,-61.811203,6.913722,0.898817,0.114616,0.352894
7461736903,-37.453392,-49.371868,7.884622,0.870606,0.038774,0.258446
7461756948,-36.398102,-32.307274,-4.664082,0.911492,0.038300,0.239902
7461776993,-51.622238,-82.080933,-9.642649,1.216797,0.004753,0.242409
7461797038,-42.244602,-118.871643,0.886812,1.582224,-0.134928,0.153457
7461817084,9.626792,6.739645,3.958566,1.493675,-0.193539,0.135267
7461837129,6.097630,67.348572,-17.463854,0.852728,0.021423,0.242617
7461857174,-0.207117,37.577480,-27.679688,0.654439,0.073967,0.490197
7461877219,-17.956568,-28.389021,-11.261877,0.732614,0.067312,0.525966
7461897264,-15.975968,-42.908066,-11.270955,0.891334,-0.007667,0.295945
7461917309,-7.457049,-10.886256,-11.640803,0.935156,-0.007481,0.161244
7461937354,-13.794456,21.178717,-12.163429,0.946821,0.046572,0.259211
7461957399,-18.129602,43.841351,-9.462358,0.961768,0.074744,0.440449
7461977443,-15.825076,47.984554,-3.236941,0.943545,0.020318,0.565860
7461997488,-9.230122,46.847893,0.179894,0.899277,-0.053823,0.596922
7462017533,-3.991948,38.005657,4.376246,0.818318,-0.105570,0.572904
7462037578,-0.084005,29.337578,4.567791,0.754272,-0.077003,0.520578
7462057623,-0.581804,23.866257,6.237569,0.742577,-0.035761,0.513779
7462077668,4.316103,18.969341,11.027026,0.811011,-0.005889,0.537704
7462097713,14.780143,17.522594,8.418891,0.926220,-0.022394,0.548970
7462117757,6.651355,33.486557,-1.590028,0.946511,-0.085993,0.532891
7462137802,19.333183,47.499008,-18.163649,0.682679,0.106112,0.693622
7462157847,29.969431,15.649284,-20.873871,0.601016,0.276558,0.796138
7462177892,-7.206650,-45.119873,-11.336099,0.645996,0.232210,0.557476
7462197937,-51.154137,-69.995621,-8.309224,0.796345,0.057254,0.389948
7462217983,-46.620960,-63.697002,-4.837902,0.912626,-0.113072,0.350049
7462238028,1.263668,-35.889736,-5.566535,0.979574,-0.116387,0.320521
7462258073,32.021095,-13.030543,-5.435436,0.884675,0.013521,0.249835
7462278118,40.057751,-20.728565,-3.608058,0.933092,0.150620,0.284655
7462298163,7.884416,-67.572960,-0.704016,1.247747,0.187748,0.271716
7462318208,-30.255419,-81.419106,-1.190804,1.417282,0.089225,0.173618
7462338253,-26.087618,12.806737,-10.011938,1.301892,-0.056979,0.177806
7462358298,17.611843,74.962708,-16.172804,0.913185,-0.020028,0.333535
7462378342,36.511757,41.583275,-24.277748,0.710474,0.132622,0.472550
7462398387,13.212825,-5.867076,-16.580700,0.713590,0.262042,0.473963
7462418431,-20.110634,-36.846104,-9.858454,0.814184,0.278683,0.387158
7462438476,-35.929268,-26.836662,-7.948716,0.976299,0.144524,0.312699
7462458522,-18.247936,13.221661,-1.913243,1.029090,0.015759,0.303495
7462478567,-1.934230,35.894131,-5.274679,0.917833,0.094244,0.386342
7462498612,-7.677432,39.669655,-3.908630,0.855789,0.188842,0.542159
7462518657,-26.732208,34.982925,-0.253688,0.833824,0.115551,0.585577
7462538702,-10.008282,24.642015,6.118652,0.910303,-0.027947,0.542344
7462558747,6.136810,31.316666,6.072357,0.882644,0.001636,0.516588
7462578792,4.145679,39.739124,4.243650,0.739202,0.046265,0.566247
7462598837,-0.949833,29.125654,4.902217,0.677003,-0.012633,0.600421
7462618883,6.422606,15.226151,6.976718,0.732349,-0.007746,0.559087
7462638928,21.500040,18.094208,7.894494,0.827907,0.051223,0.553289
7462658973,16.413399,36.626846,2.910752,0.845998,0.023362,0.557839
7462679018,16.393639,41.775780,-6.731109,0.766165,0.074378,0.638866
7462699063,22.084137,25.520025,-7.970679,0.701953,0.245300,0.730125
7462719108,18.236958,-4.114787,2.181078,0.686425,0.313833,0.619555
7462739152,-8.169785,-31.626331,8.763211,0.740923,0.265130,0.490980
7462759197,-35.538742,-44.353790,15.125434,0.841904,0.152605,0.419811
7462779241,-32.279419,-45.005493,8.861676,0.933223,-0.002551,0.358574
7462799286,-17.203333,-36.707870,-1.150309,1.003017,-0.063859,0.320805
7462819331,-2.373831,-40.725792,-0.147939,1.079505,-0.034121,0.305367
7462839376,2.935655,-59.563206,3.607837,1.302720,-0.036945,0.264139
7462859421,15.070310,-36.786251,4.834085,1.326886,-0.046982,0.187375
7462879466,35.355526,43.786224,4.419540,1.068244,0.029959,0.293285
7462899511,40.359875,63.204399,-6.417077,0.759935,0.151071,0.478768
7462919556,28.608271,29.708279,-11.719535,0.628059,0.244785,0.607407
7462939600,1.185993,-16.849733,-5.142080,0.638237,0.243331,0.553777
7462959645,-15.076895,-33.237213,-3.424910,0.782868,0.140343,0.442424
7462979691,-2.936744,-7.761944,-2.048889,0.901519,0.046672,0.430134
7462999736,10.930927,15.659389,-1.240307,0.846111,0.059476,0.484524
7463019782,6.900864,18.618830,-2.812048,0.821826,0.120745,0.598102
7463039827,-6.480603,16.137827,-1.777673,0.813748,0.161646,0.627113
7463059872,-7.322341,7.101736,-0.871335,0.825394,0.132737,0.562157
7463079917,-5.989268,3.352757,-2.386435,0.878785,0.096070,0.519240
7463099962,-2.547986,9.097041,0.118642,0.914447,0.041280,0.467511
7463120007,3.794579,24.339985,3.278141,0.860760,0.027259,0.434731
7463140052,0.190479,32.523235,7.236697,0.828911,0.027422,0.504328
7463160097,-2.583125,31.781986,9.955540,0.782211,0.034159,0.544629
7463180141,2.761665,26.143780,6.682116,0.717297,0.035961,0.558434
7463200185,14.750404,12.202462,9.147887,0.841783,0.006808,0.604560
7463220230,19.524139,11.348950,13.332628,0.926822,-0.032114,0.630175
7463240275,18.058271,22.672981,8.297469,0.831501,0.033374,0.688573
7463260320,24.430666,9.652648,2.897640,0.728576,0.162999,0.787901
7463280365,23.592091,-16.827398,3.012905,0.652097,0.216662,0.688480
7463300410,7.835298,-46.918602,6.438032,0.706187,0.175058,0.519785
7463320455,-13.695696,-64.790878,9.027391,0.802740,0.069129,0.381247
7463340500,-5.519967,-60.025406,7.467017,0.855875,0.008622,0.369206
7463360545,18.893198,-43.414280,11.652270,0.875107,0.007614,0.307809
7463380590,40.552937,-51.228779,17.237783,0.936455,0.096595,0.246614
7463400634,33.844856,-76.951462,16.947857,1.213916,0.240183,0.254193
7463420681,-8.520425,-67.759239,9.866623,1.357605,0.250521,0.229209
7463440726,-36.377106,6.061515,-3.565392,1.173960,0.100567,0.241579
7463460771,-18.456215,46.508938,-10.658447,0.890602,0.009425,0.400682
7463480816,1.857525,17.652388,-15.022687,0.699885,0.063385,0.482604
7463500860,1.581349,-20.198156,-13.506835,0.703950,0.173509,0.415171
7463520905,-14.194576,-38.173313,-8.935036,0.848642,0.174955,0.322896
7463540950,-21.722435,-28.953297,-5.663496,1.009452,0.074672,0.265628
7463560995,-9.426653,5.035006,-3.435850,1.074548,0.013603,0.301204
7463581039,-3.728626,30.704609,-4.821772,0.988536,0.072489,0.411164
7463601084,-4.220263,36.072063,-2.735664,0.909494,0.124246,0.533070
7463621129,-4.203029,28.738304,-0.687159,0.839657,0.086262,0.569200
7463641174,1.603944,10.021537,1.883853,0.825009,0.035141,0.504600
7463661219,1.654027,5.394198,5.270367,0.855233,0.043821,0.469333
7463681264,-0.984882,12.154647,7.821101,0.864978,0.083765,0.478543
7463701309,3.669744,14.705014,9.047639,0.866525,0.066724,0.545431
7463721354,6.393753,13.325697,6.300708,0.852804,-0.002835,0.592520
7463741399,14.446822,7.320595,3.646802,0.828169,-0.065618,0.520933
7463761444,26.188972,5.803554,-0.700420,0.851308,0.011357,0.497523
7463781489,22.994814,9.468039,-4.709473,0.879524,0.138374,0.533645
7463801534,7.650901,8.881683,-2.831448,0.807395,0.140650,0.497501
7463821580,-1.105776,-5.268490,2.399037,0.748298,0.112896,0.470622
7463841625,-2.591357,-28.864431,8.908288,0.807044,0.152045,0.459075
7463861670,3.208527,-34.529057,15.337108,0.878766,0.164655,0.347601
7463881715,-3.048171,-30.618591,11.572233,0.830452,0.151411,0.319862
7463901760,-15.565022,-33.353165,8.189227,0.990729,0.077526,0.318638
7463921805,-2.145708,-54.393982,12.387714,1.338634,-0.036119,0.238629
7463941850,25.014683,-14.681991,10.191642,1.381632,-0.064240,0.120999
7463961895,31.880260,57.817886,-0.511355,1.015458,0.064266,0.251191
7463981938,19.335575,72.471191,-9.548128,0.706103,0.139959,0.532274
7464001983,1.943060,11.827664,-3.757994,0.657621,0.168695,0.685457
7464022028,-10.137769,-39.252655,-1.247785,0.775568,0.109937,0.508538
7464042073,-1.549893,-19.181049,-5.728363,0.883100,0.044477,0.366287
7464062118,10.865926,9.608304,-3.428157,0.821605,0.058434,0.391215
7464082163,6.288041,8.989914,-1.404098,0.801795,0.102519,0.482752
7464102208,-0.244622,4.102441,2.436903,0.825067,0.143484,0.484860
7464122253,-3.337457,5.618401,4.097116,0.838524,0.151430,0.502009
7464142298,-8.410920,2.414795,3.003918,0.847077,0.068282,0.506491
7464162343,-5.546371,-8.374537,-0.253238,0.900446,0.044430,0.470660
7464182388,-4.644443,-9.607594,-2.392111,0.974626,0.073235,0.460039
7464202432,-7.127866,-5.478845,-3.664465,0.988525,0.101807,0.431043
7464222479,-3.039579,-1.977649,-1.878348,0.928341,0.112648,0.431334
7464242524,0.373097,-5.628256,-0.385021,0.870881,0.055820,0.446587
7464262569,-1.027391,-9.032511,-1.163368,0.860725,-0.051988,0.406342
7464282614,12.623811,-8.967808,-0.087259,0.894643,0.001026,0.382298
7464302664,15.537705,-4.895190,2.484388,0.917657,0.148157,0.453177
7464322704,3.549381,-1.996150,3.419194,0.925582,0.164997,0.415859
7464342749,0.060422,3.965505,2.747044,0.906872,0.140009,0.426308
7464362794,-4.069153,4.143700,2.329058,0.853275,0.093874,0.478101
7464382837,-5.930951,-8.418525,2.591377,0.864310,0.012874,0.457273
7464402882,1.615588,-13.174808,4.076909,0.952443,0.009895,0.417244
7464422927,3.552563,-2.976055,4.722826,0.976395,0.054966,0.396107
7464442972,4.137001,3.362736,5.420853,0.925713,0.110016,0.415039
7464463017,-0.767234,1.389365,2.260636,0.873583,0.136078,0.443942
7464483062,-8.572843,-4.480375,-0.271807,0.873121,0.088416,0.432951
7464503107,-5.702568,-5.388463,-2.768901,0.898034,0.013246,0.402343
7464523152,4.554320,-1.741187,-2.325329,0.910496,0.020058,0.411938
7464543197,5.736588,1.800305,-1.019776,0.901908,0.083320,0.443400
7464563242,2.693119,0.899267,0.787092,0.888593,0.129343,0.451390
7464583287,-0.678067,-0.154465,0.463494,0.878741,0.125088,0.435148
7464603332,-2.464879,-1.255703,-1.045425,0.877194,0.075633,0.413603
7464623378,-3.323709,-0.715396,-1.229808,0.890546,0.056392,0.427880
7464643423,-4.106392,-1.049030,-0.964470,0.908518,0.089888,0.457506
7464663468,-5.618297,-3.942840,0.695410,0.913646,0.117516,0.431095
7464683513,-5.405602,-2.528722,1.964698,0.900479,0.075102,0.426068
7464703557,-5.131153,-2.491775,0.149404,0.888001,0.045818,0.435323
7464723603,-2.875744,-5.785323,-0.954191,0.904742,0.050760,0.409730
7464743648,-1.690731,-4.448133,0.132494,0.926006,0.057125,0.401093
7464763693,-0.981688,-2.426262,1.679279,0.926551,0.059948,0.414366
7464783736,-0.715660,-1.490916,3.207632,0.922991,0.086575,0.420493
7464803781,-4.128222,-0.583554,3.057718,0.913139,0.098852,0.421048
7464823826,-7.070099,-0.042334,0.908548,0.907749,0.073250,0.424589
7464843871,-6.480561,0.481080,-0.254448,0.908885,0.030916,0.422488
7464863916,-4.077157,2.591652,-1.021464,0.895582,0.028756,0.411393
7464883961,-3.571101,4.499084,-0.813835,0.913921,0.042133,0.408321
7464904006,-5.409750,6.280794,2.642048,0.973451,0.047093,0.398062
7464924051,-3.130135,16.047066,5.624564,0.979989,0.045988,0.372445
7464944096,3.334806,31.211300,3.031384,0.918091,0.015348,0.381805
7464964141,8.074123,32.886024,0.966997,0.849322,0.012988,0.442049
7464984186,7.481552,16.408243,0.994737,0.834983,0.076481,0.505789
7465004231,-4.057518,-1.336551,2.021800,0.904099,0.090507,0.445815
7465024277,-10.229571,-3.473990,3.411963,0.960281,-0.009324,0.360557
7465044322,-7.628106,7.257384,6.596792,0.976842,-0.097841,0.345385
7465064367,9.813335,24.928102,4.298000,0.934029,-0.034764,0.418571
7465084412,24.499577,27.605215,2.407804,0.940455,0.039014,0.447689
7465104457,26.806170,26.775272,3.579358,0.950688,-0.015057,0.342235
7465124502,20.753992,37.878674,6.144538,0.914634,-0.024926,0.427726
7465144547,14.654964,37.016556,4.142793,0.864776,0.096862,0.599250
7465184635,14.210041,24.292057,1.217572,0.893763,-0.014622,0.359933
7465204680,9.905076,38.891144,5.723953,0.822330,0.037954,0.584950
7465224725,17.602625,30.198298,8.819510,0.788867,0.213598,0.686864
7465244770,20.538157,16.276598,3.743998,0.825222,0.259493,0.554008
7465264815,-4.352453,22.262552,-0.885585,0.855535,0.201067,0.505275
7465284860,-32.825111,24.513630,-2.033083,0.743785,0.128527,0.667481
7465304905,-38.738640,5.393385,-6.464461,0.755112,0.038015,0.655382
7465324950,-21.325537,1.859412,-6.046112,0.828316,-0.021198,0.586939
7465344995,-0.019670,23.998901,-1.926062,0.785434,-0.058505,0.633730
7465365040,20.819160,23.959866,1.982371,0.713027,-0.017784,0.655809
7465385085,30.287525,13.234666,1.897061,0.739405,0.113396,0.658742
7465405130,17.792158,7.484899,3.598143,0.745272,0.148052,0.660047
7465425177,10.156023,4.423825,10.272264,0.708138,0.069340,0.691563
7465445221,13.969829,0.296615,17.499544,0.702741,0.059343,0.709815
7465465266,25.049515,3.373453,18.661083,0.717231,0.122510,0.650402
7465485311,25.196400,4.748144,16.647429,0.713187,0.134944,0.659465
7465505356,9.078309,-0.755777,17.233311,0.693095,0.045093,0.698663
7465525401,9.502220,-9.320496,20.849230,0.700924,-0.062284,0.679486
7465545446,30.997683,-10.995364,22.285847,0.755862,-0.059175,0.643535
7465565491,42.412941,-11.065600,23.234478,0.847617,0.017125,0.593501
7465585534,36.265015,-3.968251,24.539543,0.904376,0.002480,0.564629
7465605579,40.709351,13.457552,27.300144,0.846094,-0.067163,0.608570
7465625624,56.367664,20.201887,29.162086,0.745023,-0.042023,0.660613
7465645669,59.025219,13.123569,29.658829,0.719962,0.064976,0.679940
7465665714,45.417698,-2.812725,25.702438,0.754835,0.098166,0.639679
7465685759,33.909462,-12.258431,24.862555,0.791294,0.036727,0.565523
7465705804,36.863888,-8.216847,26.115955,0.802491,-0.003018,0.564021
7465725849,48.006104,-2.897239,28.646193,0.787246,0.025906,0.585977
7465745894,51.931480,-10.480208,24.913153,0.837003,0.077405,0.561788
7465765939,50.264214,-11.665389,22.892971,0.880383,0.070598,0.504894
7465785984,57.118637,-4.851744,26.749781,0.864256,-0.027050,0.495659
7465806029,70.382477,-3.606108,33.343391,0.849598,-0.084809,0.546194
7465826075,85.529434,-7.287468,39.675819,0.845665,-0.054342,0.515414
7465846120,100.284424,-4.888844,43.986649,0.873845,0.044647,0.495774
7465866165,103.923599,-1.820471,45.837566,0.895757,0.126846,0.536317
7465886210,90.688980,2.674612,44.159729,0.829628,0.051598,0.558215
7465906255,91.974930,-3.246033,47.278961,0.773940,-0.045073,0.526467
7465926300,110.420212,-20.462107,47.793758,0.845091,0.026684,0.486335
7465946345,109.113281,-18.156576,50.871769,0.920361,0.130500,0.412646
7465966390,104.352661,-6.538563,50.958233,0.920884,0.201351,0.365632
7465986455,98.328140,9.047930,50.654484,0.885469,0.263335,0.429230
7466006478,88.909813,14.447570,56.442928,0.840913,0.315916,0.459699
7466026523,81.370049,5.416365,55.358913,0.827808,0.377622,0.443434
7466046568,49.628792,-13.974972,40.795406,0.965157,0.313841,0.417924
7466066613,-9.225251,-28.605242,31.592863,1.034851,0.052266,0.345936
7466086658,-23.233595,-28.009394,28.256231,1.077841,-0.246504,0.306744
7466106703,40.957409,-0.400573,23.220318,1.072840,-0.443989,0.306517
7466126748,116.948029,26.934807,24.325960,0.913563,-0.186211,0.386349
7466146793,132.349625,23.228176,25.674091,0.934200,0.144168,0.477822
7466166838,105.453995,11.356532,26.158171,0.943318,0.361024,0.417375
7466186883,74.906868,14.295244,28.956964,0.928787,0.417121,0.366458
7466206928,45.583839,23.338545,36.822010,0.811486,0.267316,0.410539
7466226972,29.328506,9.581223,39.260372,0.760681,0.088459,0.508061
7466247019,31.327429,-9.014161,34.044098,0.857092,0.031278,0.515974
7466267064,42.256409,4.281896,26.679876,0.975613,-0.003505,0.465049
7466287109,60.130047,31.232347,23.622402,0.929625,-0.087984,0.475062
7466307154,73.335960,34.170265,24.181164,0.806279,-0.040189,0.525115
7466327203,73.102997,18.285168,24.525557,0.792422,0.085019,0.514057
7466347244,64.858841,9.194992,26.159109,0.825901,0.149823,0.480626
7466367289,60.032280,6.411349,29.802200,0.868482,0.101938,0.490073
7466387334,60.587517,8.363853,28.927612,0.901057,0.046014,0.514262
7466407377,66.175400,15.099372,25.663481,0.885711,0.060575,0.504106
7466427422,69.909653,18.843533,26.202682,0.829358,0.076223,0.496372
7466447467,70.489159,14.360691,30.788694,0.776488,0.049835,0.494656
7466467512,75.914139,6.082035,37.847557,0.820165,0.079633,0.507567
7466487557,74.369644,6.942826,39.130844,0.881329,0.135068,0.496448
7466507602,66.173027,14.473770,37.304848,0.860523,0.131279,0.459181
7466527647,67.084961,15.415217,36.748447,0.855548,0.111702,0.502280
7466547692,71.814552,12.211110,36.463810,0.838291,0.107613,0.493629
7466567737,75.444092,6.272573,38.102386,0.841693,0.105818,0.504594
7466587782,73.349174,-1.569233,38.773422,0.890363,0.061908,0.508954
7466607827,80.185432,-3.012995,35.835033,0.947917,0.066335,0.459081
7466627872,89.415825,9.777716,33.862831,0.942799,0.171346,0.446796
7466647918,87.231712,24.715992,36.128086,0.864591,0.283431,0.491824
7466667964,72.191261,22.054754,38.828529,0.789526,0.269059,0.529633
7466688008,51.377190,4.233523,37.999344,0.768688,0.186250,0.520331
7466708053,39.888077,-4.322646,37.760319,0.839747,0.168111,0.479120
7466728098,46.219803,5.736469,40.559124,0.838830,0.214735,0.432295
7466748143,42.521698,1.852573,33.612789,0.872388,0.241867,0.433864
7466768188,15.663905,-16.726887,25.296165,0.962542,0.111385,0.390806
7466788233,2.708421,-14.785583,24.273775,1.010845,-0.096191,0.378942
7466808277,37.661446,9.863227,23.251122,0.981345,-0.168306,0.418107
7466828321,77.390991,24.320913,17.653362,0.895256,0.042612,0.460713
7466848366,76.873749,16.572998,27.278942,0.901629,0.144044,0.544048
7466868412,52.092583,6.647691,33.047302,0.869152,0.058221,0.484794
7466888456,58.975189,9.109889,28.428844,0.872915,0.223234,0.442671
7466908501,54.294567,15.488954,24.085800,0.853223,0.348535,0.432389
7466928546,32.082451,8.007346,26.510571,0.855391,0.256574,0.427883
7466948591,4.546684,-3.702541,30.511442,0.928948,0.016664,0.497227
7466968636,13.872555,5.690013,27.292318,0.939016,-0.112626,0.478156
7466988681,51.736332,29.424294,26.415817,0.839648,-0.004727,0.480819
7467008726,57.970154,25.580435,26.143106,0.802339,0.082223,0.563680
7467028771,43.626301,5.208862,28.595924,0.832892,0.010169,0.521890
7467048817,54.775276,9.107341,31.584549,0.875885,-0.028770,0.471176
7467068862,77.808731,29.663143,32.935032,0.841104,0.126389,0.523904
7467088907,78.142853,33.500324,30.993792,0.757793,0.254584,0.554922
7467108952,58.480263,16.124155,24.875881,0.740022,0.262743,0.562099
7467128997,34.281364,-5.380783,23.398108,0.792691,0.134498,0.536320
7467149042,35.770683,-9.508453,25.158033,0.903953,-0.040988,0.503620
7467169087,67.810402,13.799471,28.387144,0.954994,-0.118565,0.471767
7467189132,93.624786,27.922970,30.377556,0.863237,0.020944,0.486515
7467209175,89.154663,22.851597,34.880943,0.788749,0.131408,0.529489
7467229220,80.277153,11.582565,40.940029,0.779502,0.138877,0.547113
7467249265,78.051819,3.497565,41.421833,0.823375,0.115235,0.545626
7467269310,78.354370,4.013854,40.763851,0.873390,0.093582,0.542073
7467289355,80.842461,5.318077,38.663742,0.893026,0.112706,0.529494
7467309400,77.494560,10.633289,37.412132,0.857494,0.165473,0.503853
7467329445,69.206039,13.050969,39.850304,0.787850,0.195934,0.499906
7467349490,61.612453,1.350672,35.897129,0.811846,0.184085,0.524579
7467369535,48.978733,-7.774936,34.829403,0.873910,0.104748,0.486538
7467389580,48.059883,-2.681747,34.671646,0.908439,0.005423,0.476230
7467409625,61.395584,3.889371,35.629749,0.892846,0.049973,0.477569
7467429670,68.486900,6.378192,39.877361,0.860079,0.150640,0.512917
7467449716,64.111755,-2.397158,39.157375,0.892326,0.154963,0.509384
7467469761,61.506031,-4.791070,34.852425,0.931174,0.058451,0.443728
7467489806,71.770866,5.345833,32.280575,0.914828,0.009188,0.405413
7467509851,79.407196,17.736370,33.154976,0.832696,0.151081,0.442062
7467529896,72.022957,13.281869,34.777557,0.796326,0.282338,0.514368
7467549941,49.101868,-9.258480,31.942528,0.843531,0.267050,0.477602
7467569986,30.476665,-20.149551,31.592815,0.943068,0.177521,0.418979
7467590031,28.665825,-8.566293,27.679947,0.983647,0.105147,0.403940
7467610087,39.173153,10.235027,24.739983,0.917319,0.138986,0.432492
7467630119,45.217796,12.539073,21.758419,0.827112,0.193305,0.495025
7467650164,35.982716,-3.620369,20.122765,0.837770,0.170241,0.479634
7467670209,29.789576,-10.068049,20.039217,0.894589,0.071464,0.427694
7467690254,41.994331,2.195957,18.760828,0.914641,0.044687,0.422417
7467710299,53.492908,8.304543,18.666893,0.862790,0.142785,0.428785
7467730344,44.235332,6.458677,20.232801,0.863710,0.206681,0.454121
7467750389,36.101746,3.440540,20.046614,0.884502,0.161757,0.449818
7467770434,38.372364,8.082192,19.133474,0.863044,0.118456,0.468592
7467790479,35.238384,6.367318,19.524803,0.840567,0.157055,0.514997
7467810524,26.598049,-0.436198,17.852894,0.848639,0.191072,0.508129
7467830569,22.687824,-3.337743,14.624988,0.884685,0.164204,0.460634
7467850614,27.551823,-1.062437,13.069502,0.939996,0.131237,0.403952
7467870660,29.520674,10.291517,13.546479,0.921285,0.170252,0.415056
7467890705,19.360697,12.884552,13.599071,0.876580,0.203166,0.461163
7467910750,13.624365,6.702521,13.557478,0.875551,0.197592,0.444723
7467930795,12.059893,8.869803,12.965578,0.874094,0.145782,0.413001
7467950840,10.968555,12.679182,14.044524,0.887987,0.094075,0.426822
7467970885,7.061164,16.179972,16.470934,0.941236,0.106461,0.447047
7467990930,7.502548,27.594320,13.112328,0.941343,0.219210,0.431459
7468010974,5.411181,32.646729,4.553003,0.946673,0.101573,0.350347
7468031018,-0.492669,48.060020,8.065258,0.873235,-0.039360,0.313373
7468051063,14.272528,55.017479,8.882523,0.828447,0.116997,0.535178
7468071108,22.594292,34.847813,13.690642,0.824834,0.325462,0.598346
7468091153,8.541853,15.760526,16.185719,0.800242,0.218425,0.459023
7468111198,-14.075379,7.177147,18.568932,0.835589,0.061638,0.421700
7468131243,-11.752136,20.409214,21.364998,0.869112,-0.011972,0.497937
7468151288,10.864527,30.414450,20.146044,0.903897,0.006452,0.645895
7468171333,20.996956,18.878990,11.165858,0.816889,0.079769,0.619708
7468191377,15.150223,2.381969,9.039831,0.786413,0.121595,0.504151
7468211422,6.666964,-16.133030,10.303214,0.949829,0.183831,0.385381
7468231467,7.154387,-12.759371,8.909759,1.042229,0.237472,0.204616
7468251512,3.761624,22.045700,5.703181,0.974094,0.115279,0.160515
7468271558,-7.585169,39.591503,8.363811,0.959097,0.050408,0.398203
7468291604,-9.320748,36.331856,7.366966,0.927749,0.050133,0.621582
7468311649,5.876837,21.399046,8.437779,0.848920,0.092132,0.605546
7468331693,12.702903,7.619022,4.741689,0.872098,0.089306,0.528078
7468351739,9.383221,6.657132,5.918414,0.947292,0.073662,0.487422
7468371784,11.749954,17.258736,7.421522,0.926036,0.150516,0.493916
7468391829,10.959016,22.701214,6.744413,0.832282,0.207106,0.535555
7468411873,3.392460,13.266809,4.807734,0.780590,0.120648,0.524966
7468431917,-1.752611,7.038465,4.327408,0.784572,0.002143,0.547186
7468451962,1.396110,9.566370,3.424772,0.799478,-0.029754,0.617117
7468472006,12.691432,1.659116,2.591434,0.799836,0.099551,0.596932
7468492051,19.030260,1.514837,-1.822314,0.764534,0.193830,0.513501
7468512097,9.993640,6.182124,-1.254634,0.719624,0.117543,0.536473
7468532141,-10.906942,-10.094067,2.402563,0.718571,0.037620,0.651204
7468552186,-15.844528,-32.587002,4.305314,0.825980,0.027033,0.620210
7468572231,-8.068117,-28.957916,10.222623,0.978685,0.024532,0.540772
7468592276,7.371536,-4.046937,13.836514,0.962631,-0.047880,0.479160
7468612322,28.579847,18.736906,13.995188,0.802740,-0.172221,0.502144
7468632366,56.688278,9.952840,22.442364,0.714195,-0.142236,0.506621
7468652411,101.824654,-14.078301,29.615421,0.742734,-0.056151,0.205307
7468672457,140.265259,-19.695780,34.559772,0.855558,0.194523,-0.068161
7468692503,141.491806,-17.615704,48.177532,1.078519,0.553861,0.072076
7468712547,60.240906,-14.316454,28.639364,1.231548,1.026160,0.294540
7468732592,-106.525360,-41.034344,-24.222839,1.497782,0.899098,0.157051
7468752637,-252.858902,-111.233681,-33.265881,1.622791,0.252760,0.168398
7468772682,-358.739288,-54.411613,-1.729883,1.636163,-0.129167,0.354557
7468792727,-177.057190,103.361389,4.140571,1.328811,-0.954382,0.414205
7468812772,25.773624,109.771896,-21.814411,0.574764,-0.785569,0.398928
7468832815,38.183163,65.160156,-55.822124,0.590776,-0.198976,0.711220
7468872906,-35.797096,98.990211,-13.569101,0.320604,0.230759,0.552653
7468892950,13.046675,106.011078,-25.971905,0.191534,-0.056615,0.472416
7468912995,-12.636993,73.100571,-6.621944,0.400573,-0.459188,0.516961
7468933040,-47.437389,35.131958,20.870470,0.322270,-0.267165,0.973213
7468953085,7.758738,60.287659,2.840464,0.234830,0.455302,1.378133
7468973130,96.503555,23.277044,-2.002646,0.527737,0.421091,0.925605
7468993175,-19.628214,-23.415382,8.546188,0.860609,-0.081657,0.876740
7469013220,-161.218704,-25.085173,12.284531,0.671634,-0.489290,0.922426
7469033265,-66.807129,5.413733,1.749936,0.552110,-0.840939,0.961693
7469053310,115.050858,-7.164693,-2.298909,0.544181,-0.473946,0.576218
7469073356,186.683411,-7.837664,7.787651,0.821808,0.000674,0.497214
7469093402,142.561188,36.398941,25.629055,0.774006,0.139565,0.417420
7469113447,79.647789,51.742104,34.118980,0.640093,0.031864,0.400305
7469133491,67.363190,17.775721,46.777382,0.619219,0.003697,0.332739
7469153536,102.460564,-11.753363,45.736282,0.697736,0.047804,0.203848
7469173581,122.005775,-35.376682,48.671314,0.987816,0.845176,0.742283
7469193626,34.466347,-57.019920,6.898572,1.238387,1.036502,1.103253
7469213671,-166.041901,-97.614639,-55.496555,1.337765,0.517979,0.610883
7469233715,-231.053909,-149.622818,-20.811338,1.397205,-0.103554,0.375634
7469253759,-165.083878,-105.939323,26.278761,1.505454,-0.641156,0.298740
7469273804,11.231913,21.122978,13.272692,1.238249,-0.621483,0.234716
7469293849,85.754097,59.436928,-15.095977,0.837617,-0.105631,0.353810
7469313894,57.584282,111.134636,-40.244473,0.541725,0.472903,0.745466
7469333939,-10.875600,133.735611,-44.266209,0.302116,0.609109,0.778828
7469353984,-24.442928,61.279079,-34.555580,0.276332,0.371425,0.686370
7469374029,-69.658798,14.823251,-20.863438,0.262694,0.066930,0.658557
7469394074,-113.471672,42.496868,-21.643097,0.134303,-0.271542,0.849149
7469414119,-68.572174,31.338190,-4.987997,0.166174,-0.511839,0.842169
7469434164,48.001625,2.729534,16.802073,0.508202,-0.376403,0.689320
7469454209,81.961525,37.933323,25.429441,0.880671,0.056818,0.891950
7469474255,92.290268,100.602402,14.473017,0.489807,0.456236,1.141906
7469494300,42.137527,97.617516,-9.297248,0.077223,0.296772,1.418077
7469514345,-4.539056,-31.884735,-17.928419,0.176948,-0.037595,1.264604
7469534390,-27.145094,-105.059250,0.361832,0.561512,-0.172276,0.774608
7469554435,54.090431,-53.064602,17.318565,0.614420,-0.075225,0.539663
7469574480,170.839493,11.558639,26.494667,0.662210,0.309498,0.562875
7469594525,165.750275,14.103463,30.477562,0.823209,0.476750,0.187567
7469614570,62.119923,-13.413255,12.549500,1.005788,0.419533,-0.183364
7469634613,-64.350571,-94.000114,13.671541,1.160092,0.590664,0.461584
7469654658,-158.150467,-204.955353,35.697334,1.463744,0.689593,1.138536
7469674703,-197.175858,-139.797272,22.366764,1.573512,-0.039511,0.393874
7469694748,-51.532337,-6.444484,11.631618,1.410519,-0.472320,-0.097661
7469714793,73.787704,81.967804,-15.810213,0.996577,-0.079583,0.439428
7469734838,61.603363,92.055412,-35.831017,0.713500,0.234358,0.803681
7469754883,-9.573951,40.164822,-5.044921,0.620099,0.292218,0.770018
7469774928,-80.821533,15.345506,20.276653,0.549664,0.195707,0.817644
7469794973,-99.699257,56.775345,14.394243,0.570963,-0.242713,0.811403
7469815018,12.630586,106.648407,38.077702,0.141684,-0.466668,0.835336
7469835063,74.553253,59.948906,20.041199,-0.112756,-0.309476,0.840464
7469855108,55.236107,7.284621,35.673767,0.431180,-0.253186,0.500189
7469875154,90.194542,-26.644842,52.144737,0.723097,0.252436,0.564155
7469895199,73.257202,73.646194,2.577052,0.629451,0.388449,1.121817
7469915244,3.640890,99.386078,12.792183,0.228361,-0.139026,1.124971
7469935289,50.813717,-23.281870,34.989979,0.179551,-0.327104,0.986778
7469955334,92.088852,-54.859924,36.059429,0.571405,0.006693,0.758727
7469975379,106.913261,10.325345,34.505226,0.702791,0.216894,0.599170
7469995424,110.316521,33.445099,20.713867,0.864180,0.360688,0.621650
7470015469,21.217960,0.253979,4.264359,0.940856,0.275778,0.323829
7470035512,-22.151064,-84.597145,12.242065,1.253382,0.335149,0.306230
7470055557,-56.166836,-129.274918,29.389164,1.410538,0.516770,0.932811
7470075602,-84.233780,-57.303436,-6.399191,1.324100,0.337430,0.602440
7470095647,-49.856506,-12.279523,-30.596312,1.277616,0.144682,0.315809
7470115692,-45.073826,-9.149180,-23.977551,1.183426,0.094001,0.386099
7470135737,-66.704651,23.354044,-25.823191,0.836308,0.017616,0.399762
7470155782,-58.882710,53.173523,-6.538027,0.677007,0.025411,0.654369
7470175827,-38.185966,76.252609,6.864892,0.398962,0.015554,0.882125
7470195872,-22.874670,136.796265,11.604058,0.052415,-0.154299,1.182080
7470215917,42.533321,72.768814,20.663113,-0.020771,-0.238463,1.091651
7470235962,78.563347,19.536280,28.322130,0.091743,-0.166115,0.691644
7470256007,66.300323,68.928757,28.674187,0.022503,0.200716,0.946768
7470276053,46.066914,58.433746,27.079414,0.248424,0.456841,1.041263
7470296098,97.765839,5.390508,12.601241,0.283039,0.684958,0.726713
7470316143,1.450019,42.471210,-10.152082,0.354031,0.407880,1.258124
7470336188,-102.655739,-17.678513,14.403500,0.225368,-0.111341,1.327750
7470356233,-23.799294,-89.835274,23.138580,0.478429,-0.382882,0.990423
7470376278,93.117455,-31.144794,23.298946,0.779628,-0.088996,0.603531
7470396323,155.928696,59.339462,21.109119,0.687313,0.327093,0.176065
7470416367,147.112259,41.849380,2.292259,0.951863,0.495078,-0.085780
7470436411,-40.797424,-73.380547,5.731272,1.179886,0.653267,0.648672
7470456456,-186.073868,-211.071960,37.052338,1.305321,0.713478,1.050325
7470476501,-242.182800,-143.561386,16.582670,1.432985,-0.073896,0.490822
7470496546,-67.425041,2.599671,-3.430726,1.234115,-0.506066,-0.036943
7470516591,65.758652,95.112549,-24.232626,0.797192,-0.017905,0.586957
7470536636,32.848381,104.526047,-28.179260,0.490694,0.247889,1.076805
7470556681,-50.701210,30.849941,8.375066,0.327908,0.092533,1.153922
7470576726,-73.416595,8.395757,11.594921,0.374511,-0.330942,1.223948
7470596771,23.275936,63.554844,13.224034,0.149827,-0.363723,1.167677
7470616816,67.117279,-17.132332,16.933311,0.088351,-0.045315,0.722852
7470636861,47.594654,-11.103069,34.332733,0.360045,-0.121139,0.446593
7470656906,31.420610,25.328014,56.004936,0.575931,-0.111796,0.583840
7470676952,44.719284,75.236687,36.474838,0.258412,0.233736,0.971435
7470696997,65.694244,101.615265,1.625835,0.160174,0.377757,1.292190
7470717042,17.818409,39.309723,5.221024,0.034767,0.317045,1.247710
7470737086,-41.819988,-25.036633,11.506165,0.109150,0.030223,1.136178
7470757131,-78.750046,-86.243713,27.952259,0.507786,-0.515563,0.457483
7470777176,-45.524689,-114.839806,35.982784,0.990644,-0.692017,-0.371229
7470797221,149.184662,-179.194763,21.523476,1.586691,0.181508,-0.201101
7470817266,94.226631,-124.220673,-20.106794,2.233253,1.142112,1.252679
7470837310,-193.947617,75.437500,-59.491520,1.525025,0.476277,0.439883
7470857355,-171.213501,77.397537,-18.079401,0.780968,-0.279164,0.619495
7470877400,-61.312672,10.730749,4.574879,0.405471,-0.381979,1.177252
7470897445,4.973940,-28.534840,-21.021368,0.414985,-0.142678,0.781852
7470917490,-15.430127,-14.544551,-15.286325,0.665895,-0.063747,0.681973
7470937535,-9.686893,73.370720,-8.686522,0.637237,-0.216711,0.837802
7470957579,-3.160680,103.961533,-0.598667,0.171274,-0.356587,1.077459
7470977624,6.571824,40.823803,3.949765,-0.108221,-0.290344,1.186309
7470997669,28.726448,-11.918951,9.292085,0.055309,-0.148299,0.734750
7471017714,43.765144,1.154583,5.134343,0.167251,-0.211790,0.646686
7471037759,0.336330,12.290992,9.311646,0.423222,-0.254327,0.928232
7471057804,34.262383,-0.726593,12.202575,0.250431,0.333299,0.918568
7471077851,115.819244,33.626427,-21.693840,0.293517,0.703041,1.090910
7471097895,5.077646,6.598373,-14.625538,0.537751,0.216110,1.041085
7471117940,-130.435211,-81.422165,19.270588,0.510998,-0.449041,0.773246
7471137985,-62.558392,-101.208008,28.543150,0.360517,-0.755915,0.349684
7471158030,101.123581,-73.767754,-8.040956,0.961628,-0.418719,-0.057863
7471178075,157.447113,-191.714767,-16.817596,2.043739,0.280903,0.166779
7471198120,-66.573044,-163.172791,12.237938,2.190375,0.821419,0.780307
7471218165,-149.863678,65.376343,-4.023607,1.547016,0.077986,0.537380
7471238209,-20.365297,63.610168,-15.063354,0.889589,-0.326903,0.359112
7471258254,45.958572,20.341057,-52.898701,0.629594,0.029597,0.480458
7471278299,6.891120,27.609970,-37.590382,0.698387,0.295090,0.699461
7471298344,-45.463432,37.848083,-3.091535,0.603618,0.023692,0.680433
7471318389,-23.750248,117.047333,4.772976,0.412479,-0.420857,0.810259
7471338434,10.513534,125.391685,0.274227,-0.130732,-0.309355,1.158351
7471358478,55.789513,21.628670,6.455032,-0.138591,-0.114482,0.923520
7471378523,55.235783,-20.362175,28.881533,0.274225,-0.134780,0.487504
7471398569,24.123844,13.654695,28.188950,0.450887,0.074357,0.613256
7471418614,46.477242,38.564938,26.561773,0.513565,0.557634,1.005768
7471438658,60.607597,67.814911,-8.222231,0.324349,0.642577,1.013791
7471458703,-7.833961,50.245743,-30.086279,0.377379,0.194621,1.215716
7471478749,-92.601486,-25.582314,-14.828953,0.296520,-0.302180,1.257465
7471498795,-15.398987,-54.132870,9.837914,0.136406,-0.506546,0.656268
7471518839,112.042305,-75.180176,-1.084030,0.852101,-0.116724,0.024335
7471538885,200.515686,-257.707855,6.493211,2.131271,0.736820,0.107936
7471558929,-109.861282,-242.234222,32.650230,2.413073,1.423308,0.688561
7471578974,-282.498413,91.495216,-15.670124,1.465776,0.102656,-0.023159
7471599019,-83.788231,219.799316,3.742002,0.703538,-0.574687,0.515666
7471619064,41.394600,55.722923,-26.568331,0.051664,-0.400801,1.031974
7471639108,50.804523,-51.817196,-37.516773,0.443376,0.206998,1.098011
7471659153,-20.736078,11.567374,-17.609148,0.646714,0.367344,0.875569
7471679198,-14.116908,116.317177,5.286414,0.248200,-0.084405,0.866827
7471699243,28.797537,80.212830,17.736927,-0.079929,-0.382657,1.049436
7471719288,54.421116,-7.118258,18.247734,-0.007238,-0.310791,0.701675
7471739333,51.451824,-3.919191,27.577032,0.161277,-0.035942,0.732867
7471759378,45.068115,16.714064,26.364687,0.348885,0.337995,0.877186
7471779423,87.534088,27.856537,6.251463,0.201820,0.471279,0.774681
7471799467,63.416210,48.862122,-12.271161,0.216729,0.515837,1.040272
7471819512,-29.440842,-9.188775,2.406681,0.257431,0.142139,1.323616
7471839557,-64.983276,-98.394714,9.353354,0.318211,0.048486,0.743877
7471859602,-8.191892,-117.848389,-7.610621,0.952762,0.059734,-0.112225
7471879648,39.855331,-257.980713,-12.927924,2.125360,0.226852,-0.001885
7471899694,-128.941818,-255.532822,35.665955,2.759785,0.521841,0.436235
7471919738,-48.812733,179.022415,21.986763,1.745763,-0.082819,0.121536
7471939783,33.661835,195.444092,-29.833206,0.501117,-0.000010,0.394455
7471959828,48.436596,91.547493,-41.245232,0.267417,0.354986,1.315377
7471979873,-61.305992,-51.373837,6.141967,0.276295,0.125289,0.938683
7471999918,-95.435074,-101.205887,4.012897,0.672260,-0.336345,0.555897
7472019963,1.031271,85.282478,15.065306,0.761959,-0.322028,0.728508
7472040007,4.647222,91.908569,35.044579,0.142890,0.008248,0.779165
7472060052,31.767609,39.090179,50.694550,0.048885,-0.130553,0.855009
7472080097,36.385674,-9.122831,38.713524,0.207105,-0.145049,0.566853
7472100142,31.889826,16.322376,25.849014,0.270522,-0.044007,0.425819
7472120186,3.454035,45.009499,9.751999,0.431038,-0.091576,0.721458
7472140232,-16.597902,35.075638,5.633649,0.443060,0.148140,1.077281
7472160277,-1.612823,34.667553,5.831493,0.229579,0.172365,1.473568
7472180322,-35.088493,-53.474243,-0.006950,0.504120,-0.070119,1.302223
7472200366,-59.059238,-116.362022,22.329351,0.870448,-0.398643,0.947075
7472220411,10.069355,-71.399025,13.864267,1.165048,-0.562761,0.724244
7472240456,103.607391,-17.809837,-33.436123,0.889526,-0.303917,0.310486
7472260501,157.564362,-20.126736,-28.316742,1.099696,0.274802,-0.097085
7472280547,140.832489,-164.454422,11.342205,1.756175,0.544491,0.116890
7472300593,-165.827988,-147.341812,38.368141,1.396073,0.612661,0.499999
7472320637,-229.515900,96.176430,-0.280427,1.266646,-0.120520,0.143112
7472340682,0.570678,190.885590,-4.739536,0.479681,-0.166115,0.400495
7472360727,42.862823,70.327133,-33.327969,0.215322,0.055701,0.884549
7472380772,-24.867720,32.754509,-16.660450,0.674005,0.083240,1.078047
7472400817,-0.601145,140.025925,-14.555779,0.362671,-0.198028,0.960647
7472420862,16.013407,121.111221,-8.837285,-0.184778,0.010346,1.157047
7472440909,46.413536,4.666969,12.119548,-0.143751,-0.043137,0.945199
7472460951,42.075123,-43.805122,32.059536,0.202598,-0.364690,0.654853
7472480996,16.966841,-17.133123,20.258484,0.511607,-0.238124,0.668356
7472521086,80.082901,80.642838,-9.168364,0.454669,0.680158,1.071882
7472541131,87.047409,78.451439,-17.995968,0.384803,0.555263,1.128941
7472561175,-25.947287,22.506523,-23.712263,0.451976,0.187179,1.198477
7472581221,-107.484070,-88.348419,8.199385,0.729102,-0.046747,0.517322
7472601266,-32.628136,-192.692398,29.969528,1.399053,0.022862,-0.176215
7472621310,16.587870,-258.381561,14.402458,1.990583,0.286447,0.706331
7472641355,-127.953476,9.258785,0.638132,1.856162,0.079303,0.916279
7472661400,-43.926540,146.415558,-18.869179,0.697190,-0.333575,0.298856
7472681445,37.099785,67.645134,-42.049908,0.257783,-0.065942,0.604991
7472701491,26.428534,-4.366028,-16.752012,0.472088,0.391515,1.206679
7472721537,-52.413536,-9.416668,9.256658,0.497088,0.249372,0.767653
7472741581,2.234405,89.302856,-0.321441,0.518346,-0.317710,0.657591
7472761627,37.370750,145.744751,-2.381170,0.219231,-0.300269,0.897531
7472781672,42.601223,80.206367,12.976318,-0.031125,-0.178064,0.951506
7472801716,61.053005,37.059082,35.585781,-0.157908,-0.097649,0.741515
7472821761,72.093964,13.478389,49.320156,-0.021206,0.007131,0.926742
7472841806,107.663109,-29.906830,49.035133,0.289020,0.397043,0.850314
7472861850,59.277401,4.725150,14.077804,0.389599,0.599484,0.939147
7472881895,-16.600176,30.318367,7.314189,0.419852,0.538002,1.009070
7472901939,-41.054508,-16.095289,2.608910,0.397447,0.172042,1.110801
7472921984,-46.316345,-86.290985,2.121392,0.712316,-0.177386,0.821365
7472942030,-45.908478,-119.494629,11.329704,1.112844,-0.210796,0.124252
7472962074,67.475731,-189.003220,25.716967,1.876117,0.211278,0.313804
7472982119,-54.130581,-106.285706,10.069907,1.749445,0.398380,0.908769
7473002165,-117.008400,67.507744,-51.937588,1.102867,-0.096823,0.556701
7473022210,-13.432448,54.408222,-46.784683,0.575469,-0.119310,0.552670
7473042254,40.288071,3.730558,-36.665878,0.454850,0.147832,0.896373
7473062299,-29.322245,-6.138518,-25.777191,0.501475,0.248316,0.957248
7473082344,-45.804768,30.422800,-19.270779,0.511325,-0.108590,0.791196
7473102391,-8.537804,87.822350,-17.317669,0.273014,-0.064211,0.949328
7473122436,24.992683,35.430786,-3.614211,0.083055,0.011635,0.921002
7473142481,36.813911,-2.952975,18.462591,0.282989,-0.125547,0.721931
7473162526,36.859802,30.092705,30.635509,0.114022,-0.135052,0.533770
7473182570,56.008450,25.497215,40.092091,0.119953,-0.128602,0.956207
7473202616,49.039303,-19.292084,30.306940,0.263776,0.186895,0.909859
7473222660,44.128304,6.218229,26.176121,0.462446,0.489867,0.758677
7473242705,-14.810795,6.303233,17.531691,0.590633,0.323350,0.915855
7473262749,-82.264153,-48.829433,-4.342509,0.683071,-0.140989,0.638853
7473282794,-106.745789,-105.376236,4.598751,1.095887,-0.628854,0.256680
7473302839,44.318604,-198.194061,28.363914,1.885249,-0.313328,-0.060271
7473322884,140.744812,-190.031845,42.457321,2.361050,0.523733,0.889987
7473342928,-57.851624,62.958870,-47.876823,1.681160,0.567124,0.642210
7473362973,-114.041946,134.320724,-73.590897,0.825459,0.029958,0.144110
7473383019,-52.454807,97.161133,-22.673029,0.316395,-0.075557,0.419222
7473403063,-2.712645,38.629219,-9.347085,0.275227,0.107591,1.135296
7473423108,-75.864288,-5.826311,-29.351683,0.292161,0.413786,1.052864
7473443154,-32.175423,25.672031,-27.606163,0.445357,-0.057583,0.699158
7473463199,71.771568,90.967560,-18.492525,0.490815,-0.254513,0.853888
7473483243,33.782528,92.934456,22.973778,0.256760,-0.485944,0.903890
7473503290,-1.995291,76.945343,44.807747,-0.242862,-0.489447,1.047580
7473523335,28.025112,16.790756,28.955996,-0.565176,-0.029490,1.251378
7473543380,157.692642,-61.367828,23.076197,0.078980,0.565433,0.844567
7473563424,139.681580,-63.092072,7.926001,0.698361,0.797149,0.862930
7473583469,-60.575603,25.086880,-14.368194,0.400098,0.235283,0.511043
7473603514,-133.200363,49.331715,-4.837080,0.204247,-0.181510,0.925030
7473623559,-82.908600,-68.242447,9.408955,0.163009,-0.843057,0.896958
7473643604,30.942486,-173.416931,67.608711,1.095290,-0.434094,0.058776
7473663648,246.041519,-367.171600,96.890137,2.457760,0.648021,0.391380
7473683693,-148.742157,-191.655396,0.385626,2.895733,1.535196,0.545947
7473703738,-124.417130,186.631271,-54.073200,1.683403,-0.413652,-0.431196
7473723783,-78.326355,263.655823,-18.434397,0.530223,-0.564906,0.262672
7473743828,-13.633312,151.035187,1.844505,-0.092562,-0.480207,1.398941
7473763873,54.624283,-63.422070,-27.143732,0.250323,-0.059910,1.080231
7473783917,7.551458,-54.579098,-42.408680,0.685772,0.255455,0.563857
7473803962,0.442598,58.287453,-30.698235,0.623158,0.233878,0.326316
7473824008,5.983040,138.290375,-7.694825,0.182384,0.007704,0.485020
7473844053,21.740137,111.221527,16.321861,-0.178878,-0.095630,0.950656
7473864098,48.759209,7.573258,39.699905,-0.105186,-0.316289,1.034865
7473884142,10.099138,-47.985939,20.439346,0.547809,-0.127696,0.896686
7473904189,52.668846,-7.371544,9.439420,0.601115,0.325015,0.640053
7473924234,97.697433,125.972046,4.739957,0.277296,0.445260,1.137986
7473944279,66.708565,85.601341,22.080704,-0.048163,0.269009,1.767092
7473964323,14.072994,-73.955215,16.289080,0.064791,0.338388,1.160532
7473984368,5.650025,-122.176437,11.691143,0.718526,0.364356,0.299715
7474004413,-76.176498,-223.001480,2.685279,1.689953,0.149789,0.112654
7474024458,-196.319473,-324.860077,38.449783,2.219630,-0.397504,-0.027363
7474044504,82.263824,61.000969,41.830364,2.060886,-0.632319,0.339051
7474064547,104.803444,162.006516,-33.127724,0.633604,0.371550,0.436967
7474084592,80.854279,175.191208,-101.368866,0.205906,0.797876,0.951099
7474104637,-25.320192,77.986206,-51.302044,0.030588,0.426280,0.990942
7474124681,-70.265533,-99.592903,-11.570565,0.238886,0.113851,0.730650
7474144727,-130.272217,-167.405426,-6.498248,0.760463,0.199686,0.558217
7474164772,11.983695,93.319130,8.391526,0.968553,-0.361866,0.590411
7474184817,43.619869,156.718628,6.230162,-0.071852,-0.142507,0.792861
7474204862,31.367905,75.857735,6.027252,-0.320342,-0.029957,1.215113
7474224906,48.844727,-36.832867,33.532318,-0.041919,0.142030,0.993032
7474244952,68.112000,-54.501488,26.521976,0.387719,0.218162,0.826290
7474264997,40.806332,-13.197133,29.602472,0.667837,0.125877,0.748251
7474285042,-7.835140,8.332020,29.551289,0.742673,-0.109730,0.722518
7474305088,22.348503,-11.124349,23.076019,0.720741,-0.083848,0.713586
7474325133,68.194283,-24.349972,25.692917,0.968237,-0.205277,0.334373
7474345178,134.578140,-110.535400,66.015686,1.726812,0.516040,0.080583
7474365222,60.704014,-124.682999,53.377735,1.878077,1.638399,0.981777
7474385267,-247.783798,-7.353114,-69.963211,1.578404,0.651390,0.234068
7474405313,-306.893646,21.543739,-67.388962,1.388152,-0.456471,-0.270940
7474425358,-62.524956,233.857498,54.402576,0.860655,-0.818120,0.009793
7474445403,-16.896450,163.364471,31.432093,-0.071558,-0.522047,0.465869
7474465446,51.020565,74.227402,-15.262659,-0.104206,-0.036834,1.429247
7474485491,-15.925517,16.010632,-32.224030,0.286847,0.521340,1.452169
7474505536,-12.571042,49.881416,-38.033585,0.348622,-0.122295,0.790303
7474525581,10.635553,97.502991,-20.178322,0.134386,-0.275898,1.115126
7474545626,37.487522,40.854630,-3.303751,-0.145936,-0.154219,1.273314
7474565671,45.139065,-10.208347,8.006648,-0.055785,-0.133389,1.051561
7474585716,38.127132,-15.137035,3.814061,0.316172,0.015260,0.946893
7474625806,101.694458,92.753708,-11.798604,0.039080,0.578509,1.093539
7474645851,58.264900,81.243042,-0.964346,-0.137781,0.786290,1.006680
7474665895,37.652534,17.165270,1.463579,0.026685,0.609011,0.436310
7474685941,-173.291962,-159.538620,-54.986275,0.870126,-0.205538,0.797986
7474705987,-372.355896,-409.998199,-34.939312,1.785751,-0.735577,0.240749
7474726032,262.444275,-26.535362,102.277946,2.345607,-1.179769,1.289145
7474766122,35.387253,121.317520,-104.138542,0.368733,1.269076,0.504193
7474786166,-28.001751,80.396294,-71.815063,0.193878,0.762020,0.734712
7474806211,-109.162010,-41.678204,-7.563655,0.006897,0.221769,0.763480
7474826256,-167.503189,-149.915970,7.018890,0.240652,-0.085718,0.771095
7474846321,-45.487450,-50.898392,-4.797747,0.978782,-0.582705,0.681987
7474866345,57.210278,64.783264,-12.459563,0.654011,0.011794,0.489705
7474886390,-7.076396,83.909584,-11.017225,0.425781,0.121912,0.694711
7474906435,-2.318518,87.055901,30.965843,0.043923,-0.210743,1.050287
7474926480,61.847382,-20.770067,30.332029,-0.042110,-0.365585,1.268352
7474946525,59.617561,-87.500694,33.779503,0.446850,-0.057109,1.143098
7474966570,74.563072,-76.818321,36.237415,0.624739,0.395631,0.833749
7474986614,31.732887,-27.117958,3.485880,0.814509,0.352792,0.925077
7475006660,-50.525833,-32.930908,1.150931,0.661801,0.242788,0.790761
7475026705,-3.724982,-57.860641,24.569517,0.414396,0.012175,0.687704
7475046749,-8.683929,-71.268517,14.525973,0.765137,-0.160556,0.173557
7475066795,-1.229127,-223.052383,16.463564,1.644548,-0.079532,-0.161286
7475086840,-6.477139,-311.681763,28.426426,1.798236,-0.115200,-0.098414
7475106886,43.616112,173.234528,5.315617,1.617061,-0.149628,0.648023
7475126931,-32.539593,218.620697,-34.017555,0.470672,0.057143,0.280501
7475146976,17.663803,120.340454,-46.201714,0.102685,0.178245,0.855311
7475167020,-29.371029,19.537052,-24.940224,0.316866,0.388539,1.505380
7475187066,-26.913288,-29.924471,-28.645271,0.495939,0.117330,0.823361
7475207111,28.682613,22.288639,-14.592805,0.660451,0.020883,0.624423
7475227156,38.024971,64.795906,12.538404,0.466405,-0.055489,0.767123
7475247218,10.665008,73.986572,30.711046,0.182840,-0.148147,0.955553
7475267244,28.072916,39.565845,36.575249,0.143193,0.006298,0.987857
7475287289,113.057716,-16.826410,7.994970,0.601212,0.418481,0.655670
7475307334,62.008408,60.068695,-8.004716,0.722378,0.674550,0.589435
7475327379,-58.949234,133.174133,17.483519,0.358438,0.399137,0.955232
7475347424,-104.616486,38.972519,17.397057,0.097368,-0.211372,0.810781
7475367469,-90.855400,-93.340897,8.960333,0.940687,-0.099952,-0.069205
7475387514,58.347832,-291.226562,21.602116,1.861119,0.357591,0.269149
7475407559,-115.487961,-102.367836,1.432776,2.119953,0.316568,1.365916
7475427604,-134.652313,195.473175,-34.865929,1.135590,-0.387649,0.372882
7475447649,-17.906139,104.194099,-35.575699,0.300661,-0.405728,0.504227
7475467693,73.539032,5.359819,-34.393082,0.267798,0.056723,1.320846
7475487738,-11.939318,-14.704410,-42.830223,0.343670,0.545272,1.149663
7475507785,-57.255882,6.770773,-38.213974,0.169837,0.274547,0.722081
7475527830,-27.460417,40.216301,-26.254297,0.259046,-0.167050,1.095564
7475547875,40.733452,34.235596,-28.173265,0.164949,-0.242929,1.223603
7475567920,33.182667,9.169094,-24.472982,0.147910,-0.086212,1.151261
7475587966,4.188227,11.630228,0.940704,-0.043709,-0.038220,1.062608
7475608010,44.683865,-25.301760,27.451063,-0.044908,0.016948,0.886519
7475628055,78.607834,-44.590614,28.809042,0.351236,0.075806,0.770114
7475648100,62.507690,-6.149693,40.986378,0.500643,0.306553,0.539686
7475668143,48.628685,54.393791,56.835899,0.155225,0.137111,0.547575
7475688188,-27.813593,36.966206,30.233532,0.350043,-0.188273,0.170663
7475708233,20.598663,-175.225662,31.518055,1.463487,0.287893,0.120694
7475728278,-13.139420,-357.556671,55.779144,2.092415,0.429961,1.644923
7475748323,-131.876007,0.855474,16.758375,2.371929,-0.425642,0.641430
7475768368,-8.251816,129.091415,-5.931435,0.988261,-0.446747,-0.046056
7475788413,108.070610,73.837349,-29.344069,0.357557,-0.098469,0.838061
7475808458,113.669106,10.795895,-38.301746,0.425503,0.454988,1.263993
7475828502,29.038757,-28.992123,-28.244751,0.372722,0.477044,0.515676
7475848547,-53.003147,-37.855114,-18.114944,0.374312,0.563839,0.632237
7475868592,-100.401337,-34.651482,-16.314709,0.364478,0.398350,0.972308
7475888638,-51.905533,-12.507884,-1.592767,0.395571,-0.284549,0.890040
7475908684,26.510553,7.409244,21.061066,0.259066,-0.486053,0.555480
7475928729,44.638924,-5.663487,6.261597,0.175724,-0.282294,0.647148
7475948774,36.402954,-21.115406,-8.843913,0.372333,0.098969,0.576516
7475968819,32.799854,-39.297657,-1.973104,0.722584,0.364612,0.455975
7475988864,-11.169443,-35.648632,-0.374797,1.002771,0.451387,0.667345
7476008909,-65.396729,-25.854931,5.775908,1.113890,0.166822,0.903853
7476028954,-30.377028,-24.591375,9.505816,1.127479,-0.234106,0.797188
7476048999,42.377205,-9.928639,-0.642061,1.119742,-0.258433,0.657943
7476069042,62.762569,0.620318,2.894160,1.118990,0.082075,0.756824
7476089087,62.471252,12.062261,8.751663,0.914205,0.339858,0.618363
7476109132,43.274258,36.080250,5.234597,0.601025,0.378631,0.678850
7476129177,9.812444,24.462652,0.298841,0.315438,0.225103,0.829620
7476149222,-6.045857,-19.197586,-0.452488,0.280840,0.154606,0.817476
7476169267,-1.083254,-29.023687,-4.252304,0.413026,0.159888,0.662985
7476189312,-2.243084,-13.672194,-10.710623,0.428449,-0.021070,0.620617
7476209357,2.429997,-34.042904,-3.642177,0.602507,-0.045926,0.632563
7476229402,33.688999,-29.170233,7.038186,0.788091,0.341952,0.646468
7476249447,25.030815,12.206257,3.545798,0.776060,0.542479,0.741505
7476269492,-24.911303,14.251992,-5.276124,0.584469,0.265251,0.874500
7476289537,-37.976788,-40.089729,-6.213989,0.597290,0.071496,0.847332
7476309583,-22.412310,-54.766052,-8.742067,0.803634,0.154122,0.649680
7476329628,-23.370697,-48.453560,-1.907075,0.984363,0.208235,0.552771
7476349673,-37.043797,-48.173477,3.073203,1.029641,0.092861,0.501613
7476369718,-29.966732,-24.427280,3.377407,0.969560,-0.036596,0.528190
7476389763,-5.007860,-3.418771,1.025440,0.813343,-0.044219,0.549600
7476409808,3.180635,-6.643805,-5.327006,0.747395,0.122360,0.566590
7476429853,-15.407690,-6.296041,-11.355637,0.710868,0.163891,0.573446
7476449897,-40.385380,-15.397241,-15.650319,0.702549,0.030992,0.559277
7476469941,-34.756153,-23.547913,-10.916719,0.813953,-0.052993,0.547856
7476489986,-7.315405,-9.271213,-3.179489,0.901757,-0.039027,0.543102
7476510031,6.301937,18.035320,-0.094791,0.847378,0.131321,0.663389
7476530076,-4.515957,18.780972,-2.221860,0.731264,0.229561,0.757327
7476550121,-23.054214,1.587902,-4.668926,0.690824,0.189125,0.767562
7476570166,-33.733124,-17.093094,-4.912211,0.743752,0.063475,0.672934
7476590211,-29.701160,-12.202493,-6.600918,0.801510,0.032008,0.627092
7476610256,-25.612249,-1.504018,-6.101485,0.756731,0.054640,0.650705
7476630301,-30.189257,-3.729305,-11.054273,0.690320,0.033339,0.631094
7476650346,-30.368633,-10.791905,-14.840132,0.728158,-0.034951,0.607989
7476670391,-19.644087,-7.318451,-11.299334,0.803760,-0.023059,0.618822
7476690436,-16.808933,6.869154,-12.286772,0.743236,0.075042,0.657812
7476710481,-25.366838,2.525719,-19.439198,0.686094,0.113188,0.683301
7476730527,-39.207031,-12.733702,-22.929726,0.768027,0.086386,0.651709
7476770617,-54.535759,12.704489,-21.548758,0.805586,0.155016,0.726528
7476790662,-69.441101,15.876304,-28.080629,0.652951,0.184762,0.791539
7476810707,-87.284492,-6.556357,-35.205704,0.623901,0.136998,0.770326
7476830752,-100.708115,-18.327457,-38.786526,0.665920,0.021482,0.655322
7476850797,-99.902275,-9.960703,-40.811844,0.677468,-0.090881,0.647776
7476870842,-94.615112,-12.293796,-46.822922,0.663125,-0.100708,0.670969
7476890885,-94.984505,-20.436188,-52.069019,0.697904,-0.042149,0.658995
7476910930,-98.364464,-21.733221,-52.582771,0.740586,-0.044567,0.640116
7476930975,-100.718155,-22.809879,-51.238125,0.778736,-0.086459,0.637099
7476951020,-99.629707,-25.052391,-49.834969,0.807929,-0.137012,0.603041
7476971065,-95.853577,-25.162329,-50.427570,0.832041,-0.144448,0.582976
7476991110,-98.935188,-25.669102,-50.837708,0.851763,-0.116483,0.582889
7477011155,-102.296043,-27.854774,-49.903290,0.865145,-0.090304,0.562195
7477031200,-107.942154,-27.872372,-49.174339,0.864322,-0.097822,0.529657
7477051245,-114.694603,-27.387943,-49.717247,0.877400,-0.129210,0.490316
7477071290,-115.461418,-23.922882,-53.089550,0.879534,-0.152619,0.459934
7477091335,-115.034546,-20.086498,-56.623722,0.864078,-0.143356,0.460746
7477111380,-118.928207,-21.869938,-58.039661,0.854068,-0.168858,0.456149
7477131426,-120.870079,-21.586571,-57.011810,0.849634,-0.168769,0.446647
7477151471,-121.532379,-22.049643,-57.013908,0.866709,-0.127334,0.450436
7477171516,-122.958595,-21.844669,-60.286652,0.902431,-0.116052,0.445778
7477191561,-126.345581,-17.966671,-63.128826,0.912815,-0.122483,0.447819
7477211606,-128.081436,-16.947186,-64.251610,0.894333,-0.152361,0.450662
7477231651,-130.119888,-20.441998,-64.811668,0.898314,-0.141028,0.425196
7477251696,-131.203644,-21.665001,-65.312630,0.918607,-0.117558,0.397382
7477271741,-129.789307,-19.530861,-66.277771,0.919913,-0.184286,0.375819
7477291785,-122.973122,-19.331089,-65.301758,0.942908,-0.210108,0.395046
7477311829,-121.392769,-19.529249,-63.477676,0.976261,-0.194106,0.382593
7477331874,-120.151917,-18.799723,-61.415707,0.996209,-0.159043,0.343665
7477351919,-117.673706,-12.812943,-62.362183,0.973497,-0.159522,0.318739
7477371964,-117.479652,-6.967167,-60.129417,0.940893,-0.199767,0.358801
7477392009,-112.468918,-8.665122,-57.187477,0.917820,-0.193065,0.392810
7477412054,-106.921951,-12.035758,-54.385197,0.936150,-0.129208,0.361007
7477432099,-103.919212,-7.217891,-50.801701,0.931417,-0.124372,0.351828
7477452144,-99.957710,-8.155042,-48.240967,0.917422,-0.108451,0.381092
7477472189,-99.446945,-12.570371,-45.764759,0.942990,-0.102480,0.364751
7477492234,-96.718620,-9.820195,-43.373280,0.974885,-0.156578,0.325189
7477512279,-88.254814,-2.629173,-42.325081,0.981681,-0.200906,0.311310
7477532325,-78.901184,4.887877,-41.352577,0.948013,-0.217280,0.334598
7477552370,-70.881042,4.851362,-39.547554,0.904429,-0.146984,0.396156
7477572415,-69.847092,-0.104117,-37.181503,0.927318,-0.083717,0.417742
7477592460,-68.545372,0.404090,-36.993885,0.951662,-0.090518,0.385291
7477612505,-65.001526,5.333830,-37.109524,0.915331,-0.128892,0.374053
7477632550,-58.303154,4.059043,-36.413082,0.885336,-0.137379,0.423888
7477652595,-53.973270,-3.658174,-33.688782,0.939120,-0.110635,0.426336
7477672640,-49.973930,0.556780,-33.639629,0.965961,-0.090080,0.362176
7477692684,-51.117470,13.562078,-34.702099,0.900327,-0.057298,0.397115
7477712728,-53.729008,10.585058,-34.267872,0.852257,-0.037090,0.469342
7477732774,-57.863319,-0.112452,-32.717636,0.853309,0.013074,0.449543
7477752818,-62.711407,-2.016235,-33.151001,0.893488,0.029913,0.415829
7477772863,-65.673454,0.942714,-33.771027,0.921924,0.001526,0.432022
7477792908,-66.122070,2.470505,-34.515625,0.911098,-0.050534,0.421811
7477812953,-62.159584,2.786416,-34.287281,0.918969,-0.040393,0.428340
7477832998,-61.665035,3.105192,-34.344704,0.918072,-0.027273,0.425494
7477853043,-63.010681,4.117034,-34.815292,0.883932,-0.017253,0.429168
7477873088,-64.210632,-0.374619,-36.317886,0.899892,-0.022209,0.432512
7477893133,-64.937233,-0.374505,-37.455059,0.923910,0.006131,0.430086
7477913178,-67.028488,2.379000,-36.908352,0.903655,0.011369,0.431625
7477973314,-64.374931,-2.897012,-34.333488,0.884555,0.002575,0.436657
7477993359,-63.850128,-3.429375,-34.024654,0.895972,0.000835,0.421550
7478013404,-61.975258,-3.917689,-34.579468,0.899876,-0.001733,0.414862
7478033449,-62.795490,-4.775571,-33.940052,0.925323,0.000942,0.421399
7478053494,-64.206429,-3.330158,-33.801086,0.934577,0.018629,0.428058
7478073539,-65.900429,-1.398367,-34.353680,0.916274,0.006674,0.426293
7478093583,-63.195583,-2.388785,-34.335392,0.909324,-0.005362,0.436812
7478113628,-61.067303,-4.685596,-33.366776,0.907957,-0.012476,0.433492
7478133672,-58.838737,-4.094681,-33.399658,0.890786,-0.016458,0.427208
7478153717,-58.957397,-5.896101,-33.747490,0.891981,0.008105,0.447591
7478173763,-58.219002,-8.595194,-34.207695,0.897082,0.008480,0.422041
7478193807,-54.621189,-8.544906,-33.785847,0.925201,-0.005580,0.401969
7478213852,-54.399261,-4.881282,-33.166313,0.923644,0.018856,0.399206
7478233897,-56.325405,-2.044585,-33.222794,0.902042,0.045401,0.431970
7478253942,-56.228664,-5.389400,-34.165039,0.911267,0.037891,0.421174
7478273987,-53.776649,-3.529284,-34.025612,0.916836,0.017415,0.412643
7478294032,-53.206970,-3.528939,-32.171116,0.873148,0.052609,0.435978
7478314077,-53.664558,-10.117992,-31.384315,0.883071,0.081117,0.452659
7478334123,-53.766758,-12.633590,-31.061188,0.924250,0.050545,0.407872
7478354168,-50.452843,-8.342191,-31.357294,0.932923,0.012442,0.376293
7478374213,-47.875298,-4.027229,-31.373514,0.915793,0.044156,0.401945
7478394258,-49.006321,-5.378673,-30.258913,0.880784,0.088942,0.433276
7478414303,-51.376968,-10.613107,-29.374920,0.901042,0.083887,0.431827
7478434348,-48.952232,-11.002816,-29.332197,0.925071,0.051544,0.384016
7478454393,-45.057320,-7.851401,-28.245148,0.932207,0.058976,0.380092
7478474438,-43.981297,-5.609232,-26.267143,0.913111,0.067270,0.403100
7478494482,-43.356697,-8.322496,-24.661907,0.913022,0.077038,0.417313
7478514527,-40.624542,-9.920329,-23.172920,0.930064,0.070563,0.389449
7478534572,-35.544083,-7.081556,-22.064196,0.943112,0.061401,0.372503
7478554617,-33.957485,-2.901928,-20.701397,0.923408,0.085222,0.398202
7478574662,-32.151890,-4.392460,-19.007336,0.911677,0.072322,0.417888
7478594707,-29.700947,-5.450507,-17.752872,0.916809,0.068973,0.394282
7478614751,-27.950104,-2.525222,-16.580608,0.912356,0.080362,0.384140
7478634796,-27.611565,-1.126813,-16.195993,0.905442,0.114724,0.418949
7478654841,-29.533064,-2.545940,-14.991465,0.901762,0.107161,0.424447
7478674886,-29.295372,-3.434997,-14.040158,0.902434,0.105563,0.406712
7478694931,-28.020817,-2.850392,-13.037251,0.932364,0.105490,0.395642
7478714976,-29.042431,1.529009,-11.890813,0.904865,0.116662,0.408459
7478735023,-29.217958,-1.198979,-10.759379,0.890691,0.113152,0.435698
7478755068,-27.168379,-5.152632,-9.697176,0.915654,0.092588,0.404730
7478775113,-25.572451,-1.520840,-9.613809,0.923592,0.076008,0.385260
7478795158,-26.530056,2.523624,-9.465543,0.900468,0.106753,0.428265
7478815202,-26.442310,-2.226272,-8.105668,0.896675,0.112099,0.441031
7478835247,-23.955631,-2.973059,-7.598365,0.917799,0.076781,0.404421
7478855293,-21.745081,-0.071449,-7.480928,0.914687,0.055645,0.400021
7478875337,-20.811371,0.337924,-8.052227,0.897617,0.057948,0.418268
7478895383,-20.100061,-1.076511,-8.254419,0.900633,0.060614,0.427464
7478915426,-16.380617,-0.935141,-7.879302,0.912240,0.059608,0.413354
7478935471,-15.261312,0.584804,-6.167585,0.919033,0.085033,0.425849
7478955516,-14.738104,1.170216,-4.816093,0.908009,0.091855,0.426167
7478975561,-12.704381,2.384756,-4.406210,0.883394,0.079490,0.430186
7478995606,-10.262644,-0.634929,-4.627770,0.885737,0.077537,0.429673
7479015651,-9.293075,-1.806445,-5.007393,0.902237,0.087964,0.418236
7479035696,-10.854470,0.057237,-4.646742,0.905643,0.124166,0.426520
7479055741,-13.916815,0.250043,-4.326331,0.901191,0.152931,0.436356
7479075786,-16.761299,-1.785071,-5.620564,0.910500,0.124690,0.420725
7479095831,-15.361765,-0.319588,-6.158342,0.920944,0.081337,0.410507
7479115876,-13.171658,1.632438,-4.965670,0.910277,0.069028,0.413353
7479135920,-9.815274,2.010814,-2.218702,0.897085,0.065717,0.419839
7479155967,-8.327131,0.118027,0.156204,0.891464,0.094367,0.424023
7479176012,-7.727959,-0.717658,2.171249,0.915666,0.097458,0.422626
7479196057,-4.956928,2.108126,3.762410,0.928536,0.089703,0.410675
7479216102,-4.621769,6.972207,3.595258,0.891137,0.097862,0.427633
7479236147,-8.607231,8.958810,2.222170,0.841600,0.108038,0.458598
7479256191,-9.604292,3.608908,2.501513,0.841825,0.103273,0.480762
7479276236,-6.867608,-0.937727,4.595098,0.874290,0.095029,0.467138
7479296281,-4.878209,-1.197212,6.050421,0.900038,0.097704,0.436713
7479316326,-3.019764,0.283398,6.225229,0.913764,0.076079,0.437356
7479336371,1.097338,5.205403,6.912748,0.910538,0.070208,0.450855
7479356415,1.599786,4.522033,9.408341,0.907552,0.081835,0.438902
7479376460,2.200066,3.922949,13.594369,0.880542,0.125627,0.387631
7479396505,5.317496,6.808832,14.283859,0.882735,0.156192,0.408062
7479416550,0.004330,12.299176,9.969357,0.867909,0.106411,0.489667
7479436595,-6.858619,5.265957,7.971687,0.908493,-0.008547,0.511034
7479456640,2.972567,-9.084552,9.067857,0.980513,-0.044881,0.401878
7479476685,9.036088,-0.798733,6.179528,0.963046,0.018323,0.331852
7479496730,6.640267,6.787980,4.293769,0.918513,0.045443,0.383927
7479516775,3.710893,3.453352,3.290911,0.887341,0.079293,0.448790
7479536820,3.162169,-4.785506,2.899138,0.862926,0.174418,0.441453
7479556866,-9.840818,-4.774544,2.305559,0.888894,0.188847,0.423133
7479576911,-28.455873,-2.669140,0.389353,0.905960,0.075837,0.425647
7479596956,-27.897739,1.698405,-4.868062,0.851182,0.050664,0.399052
7479617001,-28.280382,-4.483191,-10.542533,0.820088,0.111811,0.419260
7479637046,-39.636486,-10.493348,-11.013535,0.893434,0.015087,0.395284
7479657091,-25.723261,-6.826501,-10.735144,0.985188,-0.081089,0.346856
7479677136,-11.519091,0.330100,-7.605421,0.988174,0.033706,0.380254
7479697181,-17.558998,7.001994,-5.683701,0.937217,0.116950,0.439466
7479717224,-20.847691,-0.072193,-7.411624,0.891156,0.120448,0.437007
7479737269,-26.210268,-4.636704,-9.903086,0.901091,0.104987,0.425007
7479757314,-30.412180,-2.141199,-12.455832,0.936938,0.082046,0.428189
7479777359,-33.300850,-0.984503,-14.903106,0.928775,0.075134,0.413620
7479797404,-38.617531,-0.357967,-17.811214,0.883574,0.061924,0.409575
7479817449,-44.456326,-4.146636,-19.949318,0.857700,0.035386,0.430272
7479837494,-44.823170,-10.121202,-21.578791,0.861569,0.043589,0.425407
7479857539,-45.970528,-14.506590,-23.295200,0.887684,0.008625,0.397480
7479877584,-42.809860,-14.928411,-25.634995,0.948309,-0.051589,0.353353
7479897629,-31.932381,-10.140349,-22.492765,0.988070,-0.067375,0.333107
7479917674,-24.062809,0.382129,-17.374990,0.963861,-0.057096,0.367806
7479937719,-14.909997,4.343521,-13.533107,0.920401,-0.068916,0.395446
7479957765,-3.498578,-2.376338,-10.406944,0.910791,-0.001779,0.393456
7479997855,-10.861267,-3.060974,-8.925224,0.975528,0.068652,0.471008
7480037945,-5.857915,3.342594,-7.811659,0.909044,0.045684,0.410077
7480057990,-14.925524,6.034086,-6.449570,0.861898,0.100721,0.434588
7480078035,-21.456167,1.752975,-6.357360,0.837962,0.053824,0.442722
7480098080,-18.713490,-2.537287,-8.796950,0.872129,0.015225,0.445657
7480118142,-14.661694,-3.217159,-8.598825,0.923195,0.000859,0.430671
7480138168,-11.690481,2.458395,-7.712776,0.921423,0.011293,0.432757
7480158213,-10.602557,8.751358,-6.546230,0.890985,0.044533,0.465400
7480178258,-9.253942,8.416181,-5.619204,0.848435,0.035976,0.479727
7480198311,-4.978419,2.271881,-3.947295,0.848312,0.004145,0.490004
7480218348,0.196797,-3.485341,-1.787462,0.902553,-0.008091,0.461185
7480238393,4.619493,0.023152,-0.034389,0.933254,0.014048,0.422259
7480258438,7.248532,8.595135,1.445772,0.931348,0.035463,0.429625
7480278483,10.929508,14.665545,2.851668,0.895392,0.032381,0.458249
7480298528,15.813066,13.255809,4.202088,0.883678,0.038960,0.473769
7480318573,19.182739,10.593425,5.908122,0.887736,0.069751,0.453788
7480338618,17.707100,13.605641,8.270641,0.886813,0.101485,0.428027
7480358663,14.770690,19.453444,9.003746,0.861125,0.097069,0.432246
7480378709,10.806323,17.920565,6.871996,0.858323,0.085285,0.485857
7480398754,8.580628,9.158304,5.586998,0.869039,0.087942,0.509767
7480418799,8.334069,2.371275,5.983838,0.894777,0.107428,0.471737
7480438844,10.271020,5.835463,5.859056,0.919123,0.026310,0.449459
7480458889,16.248857,7.478641,3.617600,0.915411,0.002574,0.449901
7480478934,17.052734,6.687406,3.467437,0.906250,0.046432,0.431992
7480498979,14.608631,7.845944,5.953409,0.886290,0.102755,0.426010
7480519024,11.984565,4.368612,9.321247,0.889511,0.129759,0.422715
7480539068,12.632904,3.113557,8.479450,0.902963,0.106539,0.416540
7480559113,10.458323,6.328913,4.897248,0.906582,0.092558,0.419505
