Timestamp (us),Gyroscope X (deg/s),Gyroscope Y (deg/s),Gyroscope Z (deg/s),Accelerometer X (g),Accelerometer Y (g),Accelerometer Z (g)
6221655032,0.236224,-0.161763,0.644446,0.982900,-0.021255,0.152857
6221675032,0.870254,0.027418,0.716686,0.986635,-0.019270,0.157333
6221695032,0.517963,-0.298489,0.924954,0.988276,-0.017046,0.162697
6221715033,-0.620897,-0.805698,1.023648,0.986368,-0.021086,0.163470
6221735034,-1.780038,-0.712200,0.754943,0.989305,-0.024689,0.151058
6221755035,-1.471035,0.154906,0.483624,0.986980,-0.023677,0.148465
6221775036,-0.417724,0.318778,0.288086,0.986190,-0.024392,0.154489
6221795036,0.030248,-0.124872,0.257654,0.983804,-0.024490,0.156838
6221815037,-0.397183,-0.184589,0.275076,0.981580,-0.022084,0.156505
6221835038,-1.045284,-0.129273,0.300583,0.984096,-0.024248,0.155104
6221855038,-0.776742,0.234818,0.054527,0.984206,-0.025892,0.148380
6221875039,-0.143594,0.248025,-0.001620,0.985486,-0.024139,0.152106
6221895041,-0.000414,-0.148052,0.174306,0.988571,-0.027980,0.155024
6221915042,-0.169040,-0.344893,0.373551,0.989651,-0.024379,0.154158
6221935043,0.029801,-0.296964,0.957575,0.994883,-0.017581,0.154198
6221955043,-0.236185,-0.126612,1.353183,0.986173,-0.019624,0.157334
6221975044,-1.145196,-0.333043,0.689530,0.986043,-0.026452,0.156434
6221995045,-1.858010,0.459284,1.745502,1.007380,-0.024252,0.144848
6222015046,-0.681298,3.877458,4.543985,1.005205,-0.016809,0.128111
6222035045,0.856044,7.920237,5.795324,0.989243,-0.028233,0.138342
6222055046,-0.646080,8.068258,5.565935,1.003407,-0.069999,0.162934
6222075046,-1.954023,8.751176,7.324261,1.052160,-0.116398,0.162678
6222095047,7.394320,15.694199,12.220052,1.026352,-0.112387,0.156975
6222115048,20.499588,17.069412,15.778836,0.979899,-0.095507,0.194194
6222135049,21.934376,15.513060,16.455675,0.990163,-0.075455,0.213053
6222155049,18.692381,13.647107,18.226791,0.995020,-0.060195,0.213050
6222175050,17.543201,12.304583,20.677515,0.999920,-0.071994,0.196223
6222195051,20.745228,13.489188,21.554237,1.005273,-0.106906,0.178479
6222215052,28.311253,16.820749,19.467955,0.990894,-0.136333,0.184442
6222235054,37.757507,19.279577,17.764603,0.977472,-0.133816,0.219751
6222255054,44.626633,20.079039,18.383144,0.981682,-0.096959,0.241484
6222275055,45.361313,22.045084,20.194717,0.978126,-0.066650,0.238793
6222295056,42.689232,23.071741,21.266174,0.966254,-0.063367,0.240995
6222315057,40.485977,21.456245,23.411375,0.964685,-0.082700,0.240729
6222335057,41.541515,21.756895,26.368933,0.981753,-0.099094,0.238508
6222355058,44.766880,24.628902,27.747059,0.962104,-0.107387,0.239714
6222375081,48.418816,24.171545,28.340395,0.948549,-0.105963,0.242931
6222395058,52.317265,20.660643,31.575821,0.924190,-0.107213,0.259215
6222415059,49.587837,15.491090,36.482895,0.903034,-0.101978,0.301520
6222435060,37.633091,11.686926,37.595863,0.918324,-0.101547,0.290721
6222455060,28.660013,12.800445,37.153042,0.939687,-0.138690,0.267882
6222475061,23.363363,13.544079,39.712044,0.943176,-0.210087,0.289629
6222495062,26.516760,13.533790,45.913940,0.985303,-0.265120,0.311513
6222515063,36.305191,18.310974,50.999928,1.006765,-0.260282,0.325611
6222535064,44.211632,24.142548,50.534611,1.003112,-0.203077,0.334638
6222555064,38.147823,25.735920,51.725380,0.998130,-0.150002,0.351651
6222575065,29.576122,22.381264,56.415340,0.986899,-0.144287,0.359569
6222595067,20.557966,18.085461,61.765144,0.947115,-0.187953,0.342964
6222615068,14.733159,15.198792,63.833858,0.904361,-0.206829,0.339083
6222635068,7.634172,9.552564,60.403790,0.891432,-0.251517,0.341647
6222655069,9.116068,5.445225,56.950336,0.901369,-0.261113,0.314712
6222675076,17.051975,7.783623,56.303143,0.882182,-0.241561,0.363019
6222695070,23.038029,8.630444,59.988037,0.844521,-0.299277,0.422270
6222715071,25.455231,10.365618,57.476543,0.861407,-0.346338,0.411123
6222735071,29.482447,16.089249,49.551693,0.861220,-0.311449,0.396811
6222755071,24.575836,17.922626,44.079075,0.821336,-0.255796,0.415257
6222775072,8.037500,14.364324,44.467125,0.786409,-0.247963,0.421718
6222795072,-1.769451,9.911207,45.064060,0.778836,-0.303347,0.421671
6222815073,-3.860126,6.924465,41.036701,0.786742,-0.358586,0.397515
6222835074,0.255905,5.371032,34.185539,0.779652,-0.367219,0.374499
6222855075,6.386302,3.890634,27.856802,0.760040,-0.342236,0.363427
6222875075,10.129117,0.623174,22.747759,0.718601,-0.339636,0.362970
6222895076,11.106732,-6.557423,15.655269,0.714996,-0.344847,0.368304
6222915077,7.816323,-14.186446,4.685846,0.739276,-0.304986,0.356534
6222935077,0.429401,-18.754908,-4.857663,0.720153,-0.286542,0.359251
6222955079,-5.207915,-21.509876,-10.366938,0.766360,-0.313529,0.396800
6222975080,-7.100296,-22.117355,-6.084714,0.847138,-0.374611,0.440785
6222995081,-7.097859,-17.147734,-1.600847,0.887025,-0.422377,0.465272
6223015082,-4.090634,-11.979612,-0.140943,0.845604,-0.409177,0.443307
6223035083,-2.106827,-12.126184,2.312845,0.790369,-0.396853,0.428606
6223055083,-2.846167,-15.434792,3.630707,0.841866,-0.419710,0.394175
6223075084,-5.308101,-16.122705,-1.454083,0.849249,-0.392097,0.359071
6223095083,-2.756112,-14.278776,-9.962557,0.833817,-0.354251,0.370010
6223115084,-2.063635,-10.731314,-15.658505,0.859461,-0.334522,0.376350
6223135085,-4.182770,-8.525197,-18.022221,0.896488,-0.352183,0.378636
6223155085,-2.094208,-5.476912,-18.759914,0.938386,-0.346464,0.376599
6223175087,4.015828,1.314167,-20.566458,0.927182,-0.274737,0.410958
6223195087,0.123966,6.331022,-24.606670,0.906814,-0.162716,0.452360
6223215088,-17.836704,5.329599,-24.535286,0.897151,-0.094862,0.466088
6223235089,-36.878647,4.479528,-22.103857,0.932644,-0.101219,0.449212
6223255090,-50.325878,7.838041,-21.282522,0.952931,-0.175697,0.433047
6223275090,-58.015423,11.219940,-23.405741,0.919294,-0.227535,0.400758
6223295091,-61.535267,16.132488,-29.954960,0.897684,-0.237057,0.370403
6223315093,-62.368843,19.665209,-36.456997,0.894880,-0.219753,0.343018
6223335094,-63.557705,22.063196,-41.250011,0.903679,-0.208976,0.327799
6223355094,-64.573578,27.111277,-45.037529,0.922056,-0.199809,0.328573
6223375095,-65.651657,28.672539,-49.333309,0.900438,-0.172147,0.336504
6223395096,-74.641853,26.643867,-54.815357,0.903951,-0.138825,0.345241
6223415097,-85.994698,23.431242,-60.532040,0.911740,-0.120125,0.316755
6223435097,-94.338333,22.819632,-67.505333,0.927091,-0.111115,0.308470
6223455097,-102.634026,24.378532,-75.005447,0.934350,-0.107694,0.285139
6223475097,-103.001060,24.985537,-82.370277,0.935182,-0.108063,0.247845
6223495098,-99.516731,27.105558,-89.979942,0.965228,-0.098437,0.247179
6223515099,-104.364662,30.338175,-97.845367,0.977974,-0.055862,0.204694
6223535099,-107.547386,31.720867,-99.204979,1.004285,-0.042492,0.167902
6223555100,-111.443764,31.064728,-90.239777,0.931439,-0.014072,0.165637
6223575101,-120.827293,33.084164,-96.118362,0.835066,-0.082236,0.189157
6223595102,-127.463158,29.074121,-134.104553,0.909982,-0.235308,0.199560
6223615102,-120.355240,28.227604,-159.150177,0.996295,-0.042273,0.177760
6223635103,-105.896194,23.643648,-154.020279,1.083242,0.105979,0.203723
6223655104,-114.022751,14.470254,-150.879059,1.156470,0.123791,0.229271
6223675106,-138.704803,9.889956,-150.547974,1.126206,0.089622,0.229674
6223695107,-146.362946,12.607298,-144.772614,1.204594,-0.022794,0.214950
6223715108,-139.965317,20.831404,-118.857002,1.217205,-0.177118,0.299635
6223735108,-121.882179,24.895916,-70.519852,1.189188,-0.323759,0.340099
6223755109,-100.306496,29.496965,-29.253290,1.220862,-0.408786,0.353218
6223775110,-111.193222,25.446976,4.639442,1.121549,-0.479680,0.384868
6223795136,-96.920952,17.789852,30.735476,1.052076,-0.551933,0.321336
6223815110,-59.738628,20.704527,42.057808,1.026836,-0.437817,0.304916
6223835111,-45.393120,31.008869,48.047840,0.955265,-0.255168,0.384396
6223855111,-54.654018,32.479996,63.532921,0.950448,-0.157125,0.437571
6223875112,-58.711349,30.158316,86.337181,0.978833,-0.139553,0.437040
6223895113,-49.064068,32.898788,102.543282,1.010326,-0.196341,0.441240
6223915114,-36.635223,44.237411,110.057236,1.006576,-0.274844,0.451256
6223935115,-13.817207,56.081451,112.878258,0.947300,-0.329925,0.465644
6223955115,-0.237566,63.746433,106.785606,0.928375,-0.269188,0.470176
6223975116,-12.643103,64.655823,93.273331,0.877069,-0.161592,0.442374
6223995116,-32.444870,56.058159,82.102547,0.791349,-0.080733,0.394569
6224015119,-42.327198,41.188946,74.440971,0.728879,-0.095784,0.361972
6224035119,-44.748672,26.759729,64.265938,0.704002,-0.134540,0.348452
6224055120,-33.881382,16.452320,48.342415,0.675370,-0.158100,0.330374
6224075121,-17.087652,9.506519,30.879511,0.643223,-0.186542,0.353474
6224095121,-5.254371,8.833811,11.586990,0.645588,-0.175552,0.381697
6224115122,-6.768155,10.224971,-8.109879,0.631416,-0.058682,0.434398
6224135123,-29.842234,5.982819,-29.020210,0.614760,0.066161,0.487954
6224155142,-71.215004,-3.444647,-46.335350,0.613513,0.107334,0.485576
6224175123,-109.381653,-16.167702,-58.817024,0.610902,0.016375,0.446264
6224195123,-133.460648,-25.710459,-72.464172,0.706652,-0.118852,0.444928
6224215124,-128.698639,-18.855162,-85.777832,1.000797,-0.284552,0.443958
6224235125,-100.606918,11.239666,-78.891602,1.223021,-0.493813,0.405171
6224255126,-74.269768,32.396729,-50.564709,1.038030,-0.625670,0.356898
6224275127,-78.616959,33.294189,-42.273247,1.036394,-0.603292,0.425407
6224295127,-79.915451,31.377031,-58.392014,0.991973,-0.421108,0.302849
6224315128,-67.483276,42.755489,-74.907356,0.833051,-0.142301,0.314935
6224335129,-77.476997,34.739845,-94.294861,0.751885,0.089391,0.351423
6224355130,-96.493340,11.323481,-105.713638,0.852108,0.166338,0.312118
6224375132,-122.424416,1.538474,-98.954613,1.075270,0.118603,0.254621
6224395133,-147.539597,8.080602,-76.626282,1.083864,-0.033414,0.265891
6224415134,-165.460938,9.513442,-66.367798,0.884585,-0.218313,0.244196
6224435134,-168.778000,6.908501,-85.650757,0.771864,-0.289756,0.185871
6224455135,-173.488953,11.421782,-121.153786,0.811541,-0.258429,0.115096
6224475135,-171.670425,14.660645,-144.833511,0.915855,-0.164255,0.027861
6224495136,-145.826508,18.577288,-149.407303,1.020729,-0.086347,0.024436
6224515140,-118.717056,21.811953,-149.059464,1.072558,-0.053146,0.102621
6224535136,-112.610138,18.284752,-152.855835,1.092711,0.052708,0.147900
6224555137,-124.530853,10.908912,-157.281952,1.132484,0.127813,0.119052
6224575137,-138.133392,6.398561,-150.025604,1.237121,0.162102,0.103707
6224595139,-165.079987,1.674451,-131.308319,1.190279,0.073555,0.129315
6224615139,-209.721848,5.900547,-131.655502,1.191057,-0.179060,0.125177
6224635140,-193.324554,18.724703,-118.793701,1.355967,-0.347996,0.106811
6224655141,-150.965179,20.717878,-73.225426,1.322017,-0.441908,0.215001
6224675142,-130.839539,24.305336,-39.220196,1.196192,-0.399391,0.274379
6224695142,-133.655746,22.781353,-13.043512,1.147656,-0.386095,0.254986
6224715143,-140.069244,19.674656,3.543622,1.106403,-0.381674,0.166114
6224735145,-125.758743,21.487799,18.288738,1.030422,-0.346955,0.173755
6224755146,-112.995193,25.338121,32.385742,0.971399,-0.330372,0.235024
6224775146,-100.628273,30.609989,48.575527,0.947657,-0.345741,0.275704
6224795147,-78.290344,33.077789,63.022636,0.981132,-0.342150,0.309462
6224815148,-53.246117,34.439781,69.293098,1.029627,-0.319626,0.309969
6224835149,-33.926109,40.487186,71.290047,1.037126,-0.247552,0.339039
6224855150,-28.917360,44.329617,75.801758,1.005315,-0.206942,0.391821
6224875149,-34.032299,46.619759,76.551880,0.980474,-0.213792,0.397241
6224895149,-35.392159,48.134644,73.579880,0.948613,-0.215255,0.406611
6224915150,-37.275333,48.805691,69.208221,0.911868,-0.190411,0.398471
6224935151,-44.888985,47.557690,63.549156,0.887093,-0.132198,0.376804
6224955152,-55.326172,44.286781,58.960869,0.859777,-0.129944,0.373119
6224975152,-61.275803,39.933548,53.901024,0.882483,-0.175601,0.354438
6224995153,-54.918297,41.913570,42.547596,0.865362,-0.250131,0.304603
6225015154,-36.583893,49.557220,26.622580,0.788355,-0.213704,0.296609
6225035155,-30.712032,50.857265,11.436789,0.700507,-0.123491,0.346697
6225055155,-44.752918,43.188610,-4.673694,0.675899,-0.114539,0.351420
6225075156,-58.903057,35.096233,-21.777271,0.691512,-0.140639,0.335741
6225095158,-64.254448,31.491755,-42.421879,0.656392,-0.127711,0.310469
6225115159,-76.715218,26.345606,-64.379700,0.625964,-0.038697,0.310984
6225135159,-98.789154,12.315319,-84.193924,0.689454,-0.005016,0.319316
6225155160,-117.806694,2.428473,-101.517914,0.770907,-0.016454,0.288659
6225175161,-123.736618,0.643829,-121.423393,0.848660,-0.044216,0.293335
6225195162,-118.818634,15.997171,-130.573853,1.175301,-0.194788,0.387599
6225215163,-103.659782,46.101715,-85.457130,1.442249,-0.547957,0.287804
6225235162,-66.536186,68.889320,-55.796227,1.077152,-0.474067,0.247601
6225255163,-97.906471,58.203335,-72.079842,0.925913,-0.252049,0.387337
6225275163,-158.396774,26.815229,-87.999817,0.746789,-0.168576,0.282179
6225295164,-190.565948,-3.407964,-101.941833,0.699843,-0.144009,0.112578
6225315165,-190.101562,-13.169453,-119.879730,0.922343,-0.137158,0.012551
6225335166,-148.176559,6.657345,-131.750076,1.146822,-0.206117,0.011127
6225355167,-98.820435,28.762932,-131.262619,1.110037,-0.306279,0.116647
6225375167,-69.981895,31.072018,-127.255592,1.052764,-0.265381,0.202645
6225395168,-72.687904,29.734365,-126.325249,1.034558,-0.092219,0.206369
6225415169,-93.453583,30.771259,-125.786728,1.016064,0.095200,0.202209
6225435169,-128.848602,15.323945,-107.787781,0.933774,0.143719,0.237395
6225455171,-169.539261,5.340879,-98.452652,1.023489,-0.034147,0.188764
6225475172,-193.850052,14.674447,-95.009804,1.198695,-0.174867,0.194423
6225495173,-202.957993,17.488705,-75.937027,1.231917,-0.264442,0.184276
6225515174,-177.322144,25.235783,-44.278427,1.221093,-0.420965,0.188578
6225535174,-146.456406,36.536785,-20.722725,1.125180,-0.539137,0.199371
6225555175,-123.753204,39.734047,-14.731056,1.035637,-0.536202,0.195597
6225575176,-109.807899,38.406769,-14.613956,1.041299,-0.452376,0.141187
6225595175,-101.540840,44.278049,-11.273831,1.021539,-0.340829,0.150311
6225615176,-98.884537,43.914181,-4.346123,0.937336,-0.285582,0.214473
6225635177,-95.621605,36.190842,2.650173,0.899278,-0.262762,0.240830
6225655177,-92.773911,31.630297,4.185305,0.899443,-0.273791,0.226316
6225675178,-82.233002,31.521307,3.522104,0.904279,-0.272130,0.228893
6225695179,-67.286293,32.332382,3.328562,0.903584,-0.229203,0.241909
6225715179,-59.785427,31.215229,3.740125,0.906750,-0.144105,0.253586
6225735180,-67.539139,26.965799,5.101891,0.910462,-0.103382,0.290579
6225755181,-82.511673,20.734842,3.967438,0.935215,-0.156912,0.315549
6225775181,-88.464714,17.281601,-1.043274,0.951334,-0.231348,0.308828
6225795182,-83.730949,18.887575,-6.954062,0.946877,-0.266550,0.288071
6225815184,-75.111000,20.946266,-9.928514,0.912583,-0.245463,0.294152
6225835185,-75.615585,19.159002,-10.875624,0.875158,-0.247080,0.316330
6225855186,-81.136192,15.011175,-14.152512,0.873166,-0.283122,0.304002
6225875186,-79.190521,13.948846,-18.389418,0.885583,-0.305194,0.253841
6225895187,-68.936310,14.650893,-20.255680,0.879513,-0.286532,0.240267
6225915188,-66.762909,12.971343,-21.017927,0.881216,-0.281837,0.278705
6225935189,-66.828415,12.390690,-24.556288,0.882252,-0.299688,0.309639
6225955188,-62.243912,14.486895,-28.454792,0.883217,-0.276268,0.327806
6225975189,-62.333946,18.525164,-32.393944,0.899488,-0.235395,0.330352
6225995190,-67.883362,22.926540,-35.344688,0.931700,-0.215637,0.323075
6226015191,-73.484779,27.223701,-34.533051,0.925340,-0.224779,0.310108
6226035191,-78.324799,29.552429,-33.518387,0.908952,-0.250641,0.314445
6226055192,-79.797348,29.582287,-34.537701,0.912343,-0.286151,0.290122
6226075193,-75.043594,30.183014,-36.917938,0.889968,-0.303829,0.266726
6226095194,-67.794655,30.718809,-37.014271,0.879733,-0.249990,0.259502
6226115194,-67.060623,30.732441,-33.666382,0.907393,-0.178834,0.279758
6226135195,-76.194740,29.556086,-29.834860,0.930480,-0.172499,0.299231
6226155196,-84.404800,27.288225,-28.943550,0.933181,-0.224003,0.287006
6226175198,-84.234940,27.941946,-30.900316,0.980647,-0.242268,0.256203
6226195198,-85.203423,31.518303,-33.055115,1.014380,-0.247867,0.245227
6226215199,-90.212715,33.761467,-34.129105,0.956007,-0.280525,0.271502
6226235200,-91.331306,31.298899,-36.362236,0.881107,-0.315638,0.298744
6226255201,-88.083557,27.820164,-38.040752,0.888362,-0.304077,0.285139
6226275201,-87.236092,28.109859,-39.170639,0.923088,-0.273563,0.251908
6226295220,-89.868645,27.874748,-38.853577,0.930153,-0.254323,0.247397
6226315202,-91.093124,26.870066,-37.574337,0.913368,-0.257401,0.267890
6226335202,-90.489929,26.632519,-34.209515,0.914804,-0.245300,0.289793
6226355203,-95.308701,28.325336,-30.577894,0.924211,-0.257133,0.289978
6226375204,-99.234055,30.689384,-31.239418,0.933441,-0.311853,0.272304
6226395204,-95.644913,33.663620,-35.486927,0.924146,-0.350239,0.256928
6226415205,-88.859886,36.378860,-37.764435,0.911371,-0.331801,0.262263
6226435206,-87.320610,35.966183,-37.040062,0.922880,-0.303556,0.271067
6226455206,-88.040001,33.627617,-35.354317,0.925107,-0.295742,0.274070
6226475207,-87.906174,31.298853,-35.944717,0.913261,-0.309844,0.274806
6226495208,-85.145699,29.447292,-35.637363,0.912706,-0.337013,0.287532
6226515210,-79.819611,29.587910,-33.352127,0.901041,-0.359093,0.302714
6226535211,-74.577759,31.416733,-32.084881,0.887416,-0.357425,0.303828
6226555212,-69.315727,32.782703,-31.947926,0.874451,-0.334987,0.308917
6226575212,-68.028618,30.705181,-31.929188,0.873776,-0.314829,0.318999
6226595220,-71.894081,26.171886,-31.860582,0.883011,-0.331492,0.305392
6226615214,-70.855553,23.017046,-30.832718,0.891874,-0.361673,0.293083
6226635215,-63.051960,22.896000,-29.203560,0.914526,-0.370309,0.294903
6226655214,-54.859146,24.378727,-26.800716,0.919859,-0.354395,0.328554
6226675214,-52.725830,23.327406,-22.071310,0.914082,-0.335544,0.347727
6226695215,-52.968342,23.122896,-17.046114,0.906629,-0.329136,0.339800
6226715216,-54.023724,23.651821,-12.202912,0.903612,-0.333305,0.342570
6226735217,-56.877495,22.905579,-7.193732,0.911723,-0.364592,0.353531
6226755218,-55.563026,22.909513,-2.313381,0.902712,-0.386743,0.355058
6226775219,-50.340221,23.666569,1.284213,0.860704,-0.387954,0.347903
6226795219,-47.540035,23.651117,2.920548,0.836827,-0.358054,0.324673
6226815220,-48.945244,23.135614,4.342779,0.832106,-0.323755,0.306858
6226835221,-51.786449,20.733044,4.115870,0.819690,-0.324427,0.298717
6226855221,-50.997643,15.340963,-0.552079,0.779487,-0.342213,0.285815
6226875223,-45.641651,6.888771,-11.146902,0.702712,-0.306918,0.199121
6226895224,-43.388710,-3.578197,-30.488050,0.596684,-0.158112,0.130365
6226915225,-57.869019,-17.881718,-55.237293,0.753047,-0.093546,0.268319
6226935225,-73.315399,-30.068840,-48.750851,1.239303,-0.394389,0.313047
6226955226,-33.488705,-11.641119,-18.755751,1.097766,-0.578639,0.263371
6226975227,-4.729323,23.774698,-37.757229,0.827014,-0.369785,0.443245
6226995227,-26.754704,5.130505,-39.821503,0.871466,-0.362838,0.397430
6227015227,-43.781872,-1.533637,-27.243010,0.966332,-0.403832,0.309623
6227035228,-59.480820,11.209056,-24.979660,0.935641,-0.442591,0.306352
6227055228,-44.014214,17.474386,-27.601690,0.851909,-0.436328,0.289632
6227075229,-19.459864,10.800295,-26.368912,0.855579,-0.403332,0.231331
6227095230,-12.787771,10.052691,-24.070604,0.938895,-0.394067,0.201743
6227115231,-10.303518,15.054793,-14.423072,0.942202,-0.455818,0.236658
6227135232,1.822193,12.747355,1.604593,0.955043,-0.528569,0.361868
6227155232,15.365580,9.512514,23.967834,1.020457,-0.546959,0.374303
6227175233,27.325264,17.175695,42.542435,0.994568,-0.496536,0.416413
6227195234,18.830696,14.305847,59.609158,0.950280,-0.470559,0.444575
6227215234,11.635979,10.770919,73.838402,0.948421,-0.470925,0.390835
6227235237,5.491487,12.166698,83.252922,0.920159,-0.442542,0.331280
6227255237,7.420167,14.611467,88.681755,0.858675,-0.404827,0.296605
6227275238,13.727351,10.984112,89.664902,0.775341,-0.370417,0.278088
6227295239,15.544022,3.369871,86.537399,0.714412,-0.352364,0.261417
6227315239,11.970285,-6.587446,79.706261,0.673657,-0.365316,0.261571
6227335240,12.280727,-16.117195,72.072716,0.641673,-0.413874,0.270387
6227355241,17.810825,-21.565813,61.440681,0.619954,-0.470525,0.306978
6227375240,22.807293,-26.315712,45.017227,0.616407,-0.424990,0.307428
6227395241,17.996801,-31.143328,19.147346,0.570928,-0.253558,0.315009
6227415242,-2.023881,-43.632233,-12.203833,0.575753,-0.123187,0.335585
6227435242,-27.981262,-53.130707,-45.182907,0.692586,-0.068490,0.360549
6227455243,-32.364178,-38.807484,-64.948090,1.046197,-0.263519,0.475471
6227475244,-9.663100,1.142090,-23.185760,1.278087,-0.795327,0.431247
6227495245,-10.421246,15.283274,37.495090,1.012360,-0.874201,0.440091
6227515251,-22.262217,1.209531,25.932796,0.902098,-0.429840,0.334551
6227535246,-19.085011,-3.620758,2.655817,0.716420,-0.008585,0.236908
6227555247,-34.508785,-4.884083,-1.196859,0.684061,-0.105679,0.296544
6227575247,-44.201134,-9.988693,-9.382323,0.926295,-0.484172,0.347123
6227595250,-32.584442,3.551636,-14.147560,1.189011,-0.760239,0.241996
6227615250,29.508783,25.222233,-12.606798,0.980247,-0.669602,0.314029
6227635251,54.408184,24.358978,-15.915944,0.868432,-0.350891,0.478216
6227655252,24.749525,20.949858,-17.596451,0.922657,-0.097378,0.467752
6227675253,6.297085,20.395166,-13.611190,0.947086,-0.057081,0.461267
6227695253,-6.245337,20.204975,-16.159607,0.963440,-0.083863,0.430830
6227715254,-23.520016,18.473471,-10.388547,0.996978,-0.165018,0.425026
6227735253,-31.524710,21.500849,1.132090,0.947250,-0.238069,0.417529
6227755254,-28.820450,23.965372,1.480932,0.879193,-0.229616,0.380136
6227775255,-30.628719,24.287743,-2.403129,0.900630,-0.231320,0.369068
6227795256,-32.644432,25.403681,-1.411066,0.927907,-0.245294,0.347756
6227815256,-28.306862,27.733351,2.054254,0.877919,-0.289330,0.366355
6227835257,-32.387138,24.763359,0.406902,0.830094,-0.309855,0.366828
6227855258,-38.138191,24.063669,-7.535359,0.811916,-0.259377,0.354285
6227875258,-40.051624,21.677252,-13.519275,0.835357,-0.251188,0.345091
6227895259,-44.808399,15.845955,-14.360235,0.830172,-0.316231,0.340656
6227915260,-46.517086,11.362847,-18.557339,0.803888,-0.411035,0.327892
6227935260,-41.243027,9.976448,-29.746170,0.828138,-0.431442,0.316318
6227955263,-35.485073,12.884296,-43.601242,0.845687,-0.377850,0.339296
6227975263,-28.805244,13.519050,-53.832943,0.806025,-0.343385,0.344844
6227995264,-23.299698,13.641702,-58.524643,0.828539,-0.379772,0.351102
6228015265,-19.712040,18.556496,-68.465240,0.843553,-0.376876,0.347013
6228035266,-13.526812,21.573906,-83.090302,0.807498,-0.294431,0.305795
6228055266,-12.619807,19.477371,-95.487053,0.813106,-0.217380,0.298739
6228075267,-12.308312,15.007217,-102.216415,0.843882,-0.218932,0.350245
6228095266,-14.701022,11.359433,-109.180344,0.876365,-0.242561,0.348016
6228115267,-15.264187,11.823407,-126.027603,0.937369,-0.206609,0.308034
6228135268,-12.970678,11.938920,-147.179947,1.019462,-0.130312,0.304496
6228155269,-10.811639,16.465153,-157.910202,0.976779,-0.019080,0.346597
6228175270,-3.404478,20.817612,-166.778976,0.954625,0.077330,0.355291
6228195270,2.797156,21.128922,-184.484772,1.035776,0.225658,0.378002
6228215271,3.714990,8.887435,-187.913986,1.000326,0.285232,0.340334
6228235272,14.610630,-13.189357,-175.408356,1.038590,0.252538,0.227748
6228255272,21.215883,-24.927372,-159.115128,0.990371,0.266448,0.238998
6228275273,-21.187859,-27.785475,-148.489807,0.861040,0.216381,0.391983
6228295274,-89.956566,-43.583767,-145.672272,0.934903,0.021489,0.464134
6228315276,-108.577782,-58.423386,-72.566330,1.470372,-0.733899,0.390370
6228335277,12.122644,3.448160,1.972064,1.639006,-1.240052,0.552359
6228355278,100.053909,42.021214,3.918527,1.197465,-0.370857,0.821891
6228375278,47.161980,19.350138,15.684703,1.063384,0.265577,0.591204
6228395279,-31.565397,20.096365,54.463184,0.986204,0.214571,0.323855
6228415280,-48.036213,28.204252,66.273041,0.887986,-0.032153,0.171771
6228435281,-15.115803,26.973562,59.334435,0.870887,-0.127242,0.159104
6228455280,30.369501,11.999376,46.214874,0.876309,-0.115151,0.217990
6228475280,80.865051,13.030331,34.542542,0.889787,0.003862,0.220037
6228495281,101.215240,31.344814,30.331314,0.774887,0.213628,0.243478
6228515282,96.166847,34.056828,38.161797,0.691302,0.314950,0.358385
6228535283,72.996521,27.596973,43.464466,0.729639,0.313087,0.431043
6228555284,44.080261,19.060635,33.406544,0.867315,0.315268,0.425372
6228575284,12.100718,8.509233,17.816635,0.973946,0.330843,0.363084
6228595285,-16.238218,-4.505965,13.969836,0.941904,0.300743,0.333943
6228615285,-33.670498,-15.174153,16.347227,0.877440,0.220088,0.364088
6228635286,-41.285057,-18.976143,17.273169,0.841267,0.113113,0.362813
6228655287,-30.041683,-19.704369,8.554270,0.833639,0.050333,0.315995
6228675289,-6.872180,-19.327715,-2.929479,0.889436,0.043508,0.296502
6228695290,16.804743,-15.506263,-7.964127,0.960474,0.035407,0.337477
6228715291,37.745930,-8.469445,-7.012578,0.977049,0.041476,0.385987
6228735292,52.118866,0.145821,-6.729719,0.947760,0.103822,0.404984
6228755292,50.301823,1.461651,-6.894569,0.877519,0.205803,0.433177
6228775293,23.989576,-4.032604,-8.945678,0.861382,0.284708,0.453602
6228795293,-16.397852,-11.794319,-8.657614,0.888482,0.276913,0.412765
6228815293,-44.222183,-19.634125,-7.735044,0.893264,0.185576,0.358027
6228835293,-53.554890,-23.850222,-6.715786,0.907148,0.090527,0.305080
6228855294,-44.564213,-21.137560,-6.594366,0.919647,0.019565,0.281667
6228875295,-25.226999,-14.466145,-6.477359,0.931419,-0.017049,0.287913
6228895296,-1.945579,-7.200794,-10.674685,0.943429,0.010781,0.312964
6228915297,12.626442,-5.607538,-19.905670,0.958852,0.092102,0.364685
6228935297,12.508058,-9.009432,-26.729111,0.924142,0.121950,0.353569
6228955298,10.010273,-9.910707,-25.300140,0.878505,0.119776,0.330977
6228975299,-1.604764,-9.603568,-23.675415,0.896668,0.215700,0.314636
6228995299,-18.071537,-8.709467,-28.247444,0.987287,0.277254,0.265345
6229015300,-21.706577,-8.456782,-23.695179,1.007952,0.142144,0.300741
6229035302,-23.272970,-16.686504,-13.756383,0.935387,-0.017497,0.325997
6229055303,-23.113384,-21.947149,-11.909424,0.895835,-0.007705,0.335482
6229075304,-27.198820,-20.921619,-15.178325,0.921420,0.061221,0.266724
6229095304,-19.988520,-16.906376,-18.026018,0.976007,0.049813,0.134820
6229115305,13.879368,-12.129766,-16.515324,0.938693,0.011008,0.105760
6229135306,40.547089,-19.611872,-22.097542,0.742774,0.193702,0.156623
6229155307,37.432194,-31.318773,-40.777805,0.671319,0.446691,0.285466
6229175306,18.197039,-18.840521,-44.994530,1.034225,0.439796,0.474669
6229195307,-30.251385,-9.249443,-4.350243,1.351603,0.080826,0.380944
6229215308,-37.743908,-11.217707,25.094734,1.262407,-0.202011,0.157992
6229235308,-17.565107,-1.463536,1.803168,1.025661,-0.033931,0.283283
6229255309,-55.237724,-14.164944,0.740942,0.945301,0.113832,0.465556
6229275310,-96.428604,-20.295502,26.445061,0.966108,-0.047168,0.254701
6229295311,-67.431541,-13.843319,34.384247,1.112929,-0.360544,-0.031082
6229315311,-8.731117,-5.903728,29.345734,1.154736,-0.597977,-0.076087
6229335312,30.160770,-2.264148,20.663122,1.097445,-0.526291,0.160310
6229355313,42.019539,-2.984469,22.132086,1.098041,-0.351219,0.242731
6229375315,40.199963,-4.280987,25.862347,1.025859,-0.232639,0.132091
6229395316,33.677177,-2.383707,21.665913,0.998076,-0.170774,0.062539
6229415317,33.273670,6.962214,12.802563,1.042317,-0.114969,0.133641
6229435317,38.806641,11.846656,18.697826,1.036877,-0.110931,0.210785
6229455318,36.218010,11.933508,27.539686,0.949066,-0.184850,0.206932
6229475319,31.186882,6.806860,20.700907,0.956782,-0.152263,0.176863
6229495320,30.293961,4.271580,12.851168,1.051075,-0.056250,0.165209
6229515339,33.757069,10.126492,19.579815,1.086123,-0.046969,0.198622
6229535320,37.966167,16.326038,35.209915,1.055119,-0.089239,0.260804
6229555320,39.440182,17.641735,41.869434,1.045898,-0.078393,0.280886
6229575321,25.968712,14.517735,39.148575,1.102867,-0.004545,0.272207
6229595322,-2.467345,9.068255,45.375046,1.095373,-0.037617,0.249653
6229615323,-16.870468,3.328010,64.677979,1.014825,-0.209569,0.228680
6229635324,-15.458237,3.409157,81.207314,0.970715,-0.384444,0.241595
6229655324,-2.463230,7.038775,87.400955,1.025967,-0.426984,0.234869
6229675325,18.531940,11.123178,86.427803,1.042436,-0.391225,0.210678
6229695326,37.400742,13.356106,90.982285,0.987087,-0.302284,0.232744
6229715326,31.636967,12.864023,101.292740,0.954237,-0.229329,0.257289
6229735329,17.504902,9.374152,107.961746,0.927191,-0.198050,0.224063
6229755329,6.414249,4.466185,108.353828,0.877474,-0.208345,0.225089
6229775330,-2.293259,-2.499674,103.850380,0.888279,-0.262309,0.275284
6229795331,3.444108,-2.701844,108.080719,0.962695,-0.391810,0.235881
6229815333,27.917322,3.516914,117.189117,1.017667,-0.540622,0.247660
6229835332,42.538490,8.602047,112.790459,0.928196,-0.568039,0.365397
6229855333,32.617523,6.691383,105.898651,0.949948,-0.489827,0.368154
6229875332,34.791851,11.103228,111.439026,0.993212,-0.474929,0.285354
6229895333,42.392666,15.415763,108.808586,0.870458,-0.501554,0.332963
6229915334,42.546299,11.653844,100.169296,0.817106,-0.493122,0.334942
6229935335,50.981079,14.785700,98.292725,0.831370,-0.498687,0.265755
6229955335,54.501106,18.591446,100.592392,0.797018,-0.477402,0.349184
6229975336,39.536438,23.722466,101.253036,0.754841,-0.433448,0.397888
6229995337,24.309660,25.930473,93.059708,0.741596,-0.390131,0.387785
6230015337,14.418626,27.103638,86.898514,0.750079,-0.376495,0.362212
6230035338,11.061928,29.786360,76.482994,0.674036,-0.392153,0.387774
6230055339,3.964085,26.922794,64.825417,0.627274,-0.408161,0.368759
6230075340,-5.640219,21.033970,56.939484,0.645360,-0.480172,0.407355
6230095342,-6.345719,20.006199,43.846107,0.551383,-0.477985,0.363777
6230115342,-1.359001,6.769204,25.682924,0.509334,-0.485029,0.323783
6230135343,-3.685501,-2.162723,17.123993,0.608158,-0.424319,0.316639
6230155344,-16.812426,-14.433691,10.369781,0.596399,-0.413720,0.334783
6230175344,-30.545187,-26.965748,-0.392929,0.543891,-0.429627,0.352378
6230195345,-34.793343,-26.115839,-7.064792,0.595584,-0.431805,0.403830
6230215346,-53.761318,-30.455894,-7.361239,0.643316,-0.446073,0.430345
6230235345,-60.505424,-20.280899,-12.331324,0.662408,-0.515465,0.405697
6230255346,-55.338730,-10.546175,-21.123091,0.600739,-0.488358,0.379028
6230275347,-65.716423,-21.068840,-22.509859,0.732757,-0.590850,0.362229
6230295348,-60.030434,-15.968736,-17.687777,0.836805,-0.808280,0.403287
6230315348,-38.818741,-1.999418,-13.022412,0.656101,-0.948128,0.298443
6230335349,-21.846323,0.043419,-15.996950,0.624264,-0.920510,0.205569
6230355350,-5.837657,-9.043738,-12.517988,0.725026,-0.738847,0.191843
6230375350,13.122052,-15.277564,-6.930030,0.843004,-0.674254,0.351029
6230395351,14.403871,-4.853739,3.701528,0.900910,-0.771767,0.375367
6230415352,15.009460,-1.491134,8.942260,0.778612,-0.840121,0.258247
6230435353,28.792431,-4.842261,8.271346,0.650886,-0.883280,0.178539
6230455355,57.062523,-5.363855,0.165272,0.665443,-0.707965,0.152549
6230475355,73.315079,5.058018,-9.918940,0.720014,-0.402806,0.206971
6230495356,73.442085,6.651424,-14.767519,0.693417,-0.216201,0.305452
6230515357,52.930134,-3.269350,-30.465866,0.629569,-0.197134,0.361709
6230535358,19.186796,-18.055859,-55.938053,0.609559,-0.231192,0.366044
6230555358,-0.109676,-24.394449,-84.250290,0.656195,-0.239571,0.338821
6230575359,-6.332090,-21.290474,-108.994583,0.736628,-0.200994,0.345880
6230595359,-13.947536,-11.518508,-128.891541,0.799612,-0.198985,0.395375
6230615359,-31.688879,-3.654809,-153.665573,0.795174,-0.219176,0.445262
6230635360,-41.982025,-8.495438,-175.839874,0.910566,-0.212408,0.345891
6230655361,-44.514832,-4.671688,-181.461548,1.023115,-0.236700,0.250798
6230675361,-28.873562,3.844273,-160.939392,1.105857,-0.334738,0.332405
6230695362,-16.707253,5.395543,-130.148697,1.085369,-0.512629,0.353814
6230715363,8.621647,6.157320,-113.488525,1.038185,-0.482991,0.296785
6230735364,2.329990,12.033278,-119.505104,0.944153,-0.271303,0.332995
6230755364,-31.195847,-1.462105,-103.651352,1.030512,-0.122228,0.447419
6230775365,-67.466621,-16.021967,-75.788483,1.190920,-0.158120,0.381264
6230795366,-67.954559,-21.921524,-51.221256,1.112030,-0.236330,0.192397
6230815368,-52.900845,-29.119205,-22.615494,1.013870,-0.513087,0.222296
6230835369,-2.903529,-39.888264,39.337109,1.146387,-0.871110,0.333757
6230855370,59.704872,-3.799232,52.490334,1.072914,-0.631416,0.280169
6230875370,69.384117,30.193663,25.929932,1.056834,-0.206203,0.252950
6230895371,51.275162,23.771236,38.998631,1.100997,-0.025619,0.340468
6230915372,42.104057,15.311210,66.816444,1.001647,-0.024350,0.364533
6230935372,25.004007,7.249938,83.854820,0.932769,-0.106606,0.327066
6230955372,13.484138,5.216493,83.969856,0.869922,-0.142827,0.288314
6230975373,6.401127,6.368734,79.908546,0.898159,-0.074901,0.261558
6230995374,5.695769,8.014666,72.753342,0.862875,0.003132,0.249879
6231015374,7.483594,-0.288573,64.142365,0.837117,-0.019420,0.331878
6231035375,12.166206,-7.498438,53.028225,0.946852,-0.168573,0.356437
6231055376,28.444305,1.336758,47.693077,0.979846,-0.270134,0.321478
6231075376,33.366459,10.585751,42.491516,0.901429,-0.177467,0.347360
6231095377,23.892498,9.672350,35.524742,0.820997,-0.012656,0.374119
6231115378,5.088621,8.468161,29.247854,0.710300,-0.009449,0.434253
6231135379,-18.921028,2.503097,14.353084,0.824249,-0.167435,0.502135
6231155379,-32.707371,2.435400,9.537591,1.137431,-0.359571,0.454331
6231175381,-22.233591,12.216289,26.787090,1.227004,-0.394579,0.325970
6231195382,-6.222256,30.226273,28.212976,0.946639,-0.434993,0.339001
6231215383,23.700068,23.056547,14.771961,0.819667,-0.394011,0.378414
6231235384,34.245983,17.354996,15.000410,0.821577,-0.192894,0.383462
6231255384,9.170053,10.274378,13.611988,0.827655,-0.121028,0.395919
6231275385,-2.582565,1.158752,10.636864,0.882990,-0.185142,0.450732
6231295386,-0.548378,-2.893326,12.796553,0.932502,-0.265481,0.417711
6231315385,2.829044,1.445243,14.813279,0.845988,-0.228274,0.405687
6231335386,3.013989,5.120661,14.962958,0.731412,-0.246421,0.441664
6231355387,-4.646369,8.563762,9.647608,0.769220,-0.261394,0.397852
6231375387,-11.058289,10.063563,2.055563,0.769439,-0.192234,0.326920
6231395388,-11.178302,-0.342284,-4.044580,0.661890,-0.189319,0.333181
6231415389,-14.963969,-13.424533,-9.097536,0.745693,-0.289097,0.402784
6231435390,-11.129225,-6.339791,-17.939602,0.926194,-0.353737,0.415720
6231455390,6.892889,11.189952,-33.170872,0.940376,-0.205780,0.402187
6231475391,11.310907,16.297539,-47.029793,0.896597,0.009064,0.466584
6231495392,-8.093580,11.892132,-50.143307,0.957412,0.089553,0.552889
6231515392,-25.319475,7.931590,-48.139233,0.984656,0.063024,0.549922
6231535395,-45.291367,7.177610,-45.286026,1.015643,0.031844,0.545058
6231555395,-58.679890,15.412024,-48.552711,1.053625,0.043857,0.513330
6231575396,-68.187271,21.705658,-51.980312,1.071551,0.034842,0.513375
6231595397,-78.740227,29.622169,-56.299614,1.032798,0.021065,0.465217
6231615398,-84.593964,37.763771,-61.834499,0.931747,0.076567,0.369758
6231635398,-94.001099,38.005554,-67.948074,0.919612,0.156304,0.346246
6231655399,-108.085236,36.471851,-74.997375,0.964767,0.151069,0.364933
6231675398,-119.983299,36.090572,-83.764130,0.979642,0.103536,0.330603
6231695399,-126.394173,36.391495,-93.356964,0.945804,0.105568,0.276322
6231715400,-135.922668,38.944439,-104.252861,0.962147,0.122723,0.266919
6231735401,-140.730225,41.631737,-117.815498,0.986932,0.132682,0.288087
6231755402,-143.143036,46.080025,-133.274063,1.020348,0.208247,0.281971
6231775402,-147.972702,48.781712,-145.407990,1.043847,0.294098,0.255713
6231795403,-161.464752,46.833096,-154.403534,1.034187,0.362029,0.211244
6231815403,-184.901886,37.284031,-165.758591,1.000065,0.391759,0.148234
6231835404,-211.552139,20.504700,-174.543213,0.980138,0.357547,0.072120
6231855405,-228.788071,1.978808,-179.403656,1.060614,0.249467,-0.081299
6231875407,-226.750916,-12.271466,-168.253342,1.170126,0.155874,-0.163955
6231895408,-244.584106,-6.118403,-162.743439,1.242958,0.016793,-0.246190
6231915408,-247.799881,12.853106,-164.547409,1.343556,-0.449812,-0.172058
6231935409,-163.742004,22.815216,-123.073799,1.482586,-0.799334,0.104805
6231955410,-93.830910,-7.214036,-10.042124,1.513063,-1.460289,0.151845
6231975411,-10.039158,6.890643,70.778473,1.381455,-1.374701,0.385638
6231995412,-11.551416,28.608177,63.710751,1.247342,-0.599802,0.721286
6232015411,-66.808197,9.508145,87.615280,1.269115,-0.075977,0.564408
6232035412,-85.938324,8.505053,143.554733,1.202249,0.032973,0.296895
6232055412,-106.621681,10.564951,176.940186,0.926798,-0.154904,0.233795
6232075413,-107.049751,-5.177396,183.875687,0.777131,-0.310239,0.204300
6232095414,-65.623337,-10.045523,181.968277,0.819936,-0.415366,0.150704
6232115415,5.247498,8.851795,174.605499,0.951483,-0.413899,0.124093
6232135416,65.062103,39.166836,161.283569,0.976662,-0.258488,0.177692
6232155416,77.648270,50.864571,144.652084,0.816031,-0.029073,0.350331
6232175417,49.187584,41.399570,123.820435,0.682263,0.021250,0.409874
6232195417,18.297249,36.032528,87.607849,0.575186,0.017748,0.305045
6232215418,-24.679323,32.926315,38.460556,0.476118,0.231671,0.293099
6232235420,-93.919189,8.748112,-14.316509,0.389017,0.338961,0.349682
6232255421,-114.228256,-24.699818,-61.674351,0.419322,0.124984,0.357653
6232275422,-121.518066,-15.780314,-108.698578,0.681689,-0.025381,0.352115
6232295422,-126.907578,32.652477,-154.436310,1.192930,-0.175113,0.626097
6232315423,-136.835434,67.934006,-139.078659,1.792460,-0.810744,0.592369
6232335424,-82.321762,98.076485,-59.017754,1.129258,-1.047834,0.359104
6232355425,-60.157413,78.899063,-68.630020,0.939440,-0.672035,0.255094
6232375424,-60.141640,76.504379,-106.121956,0.869298,-0.245918,0.115668
6232395425,-57.384583,41.109905,-91.322594,0.660095,-0.016684,0.146526
6232415426,-64.539207,5.693076,-82.352135,0.725040,-0.132089,0.271366
6232435426,-58.097721,9.023009,-75.701630,0.934287,-0.502851,0.394011
6232455427,-47.891136,18.486094,-71.102356,0.960002,-0.582666,0.298807
6232475428,-7.560528,28.324705,-82.190636,0.852100,-0.270022,0.343359
6232495428,-16.966412,21.293665,-94.510315,0.800126,-0.025747,0.425739
6232515429,-47.666565,2.987509,-88.222824,0.809935,-0.011295,0.395696
6232535430,-59.790398,-5.056855,-80.858414,0.903518,-0.124618,0.320937
6232555431,-47.329052,-0.509567,-82.547005,0.927008,-0.189353,0.304289
6232575431,-34.780960,-1.486698,-88.276604,0.835145,-0.151818,0.313643
6232595433,-34.319653,-11.602098,-93.879166,0.842445,-0.136380,0.304266
6232615434,-29.150358,-13.160226,-99.473625,0.934498,-0.141847,0.306371
6232635435,-20.814102,-6.355925,-103.630997,0.983895,-0.128659,0.341876
6232655436,-8.888043,1.357675,-106.851357,0.949580,-0.055940,0.366866
6232675436,-3.941477,2.532139,-110.344582,0.896740,0.088877,0.409443
6232695437,-10.627235,-1.237278,-113.298691,0.912744,0.229740,0.423859
6232715459,-17.681292,-3.984782,-114.811874,0.969880,0.276404,0.370721
6232735437,-20.517620,-3.161996,-119.917007,0.972795,0.288203,0.284825
6232755438,-10.237967,-6.646788,-123.550255,0.926322,0.326340,0.193832
6232775439,2.486806,-22.120749,-129.549286,0.862613,0.322315,0.104042
6232795439,19.689671,-47.475998,-134.346115,0.963963,0.441021,0.132246
6232815440,41.949093,-48.884472,-118.915970,1.154446,0.594771,0.301920
6232835441,-1.723158,-5.342829,-131.437561,1.098499,0.135807,0.538366
6232855441,-63.937828,-8.444076,-121.123390,1.272532,-0.352560,0.718835
6232875442,-74.494293,-29.435743,-47.783211,1.692888,-0.779341,0.536610
6232895443,-18.799280,12.534758,12.202035,1.601319,-0.539889,0.515590
6232915444,4.052759,13.973394,27.001022,1.090508,-0.134779,0.504132
6232935446,16.815239,-12.555157,31.128630,1.014072,0.025980,0.209181
6232955447,30.795851,-2.479916,41.703762,0.929697,-0.055455,0.142539
6232975448,66.207199,13.946342,47.113846,0.862329,-0.114641,0.226598
6232995449,104.383820,26.914440,46.812286,0.864522,0.006193,0.256598
6233015449,121.308571,40.256634,42.000900,0.853881,0.230211,0.261532
6233035450,106.970985,45.933723,40.786766,0.751524,0.409493,0.301440
6233055451,67.827049,41.302818,42.795204,0.693262,0.437368,0.352601
6233075450,29.003674,32.236538,40.619854,0.759071,0.419794,0.340034
6233095451,5.685026,28.373173,30.423988,0.860190,0.395397,0.309592
6233115452,6.362234,25.062695,27.312572,0.957505,0.329330,0.309215
6233135453,21.057005,20.617638,29.682188,0.982276,0.255395,0.337601
6233155454,29.156509,15.256084,31.029776,1.009033,0.218414,0.346739
6233175454,30.657267,6.240304,34.529087,0.987969,0.224825,0.357009
6233195454,27.933689,-6.387792,44.037151,0.917974,0.254322,0.377014
6233215455,19.594587,-10.113762,44.479698,0.760145,0.224120,0.351352
6233235456,21.906572,-14.147701,37.663216,0.798304,0.105211,0.344167
6233255457,37.975380,-7.456336,30.317314,0.837798,0.083924,0.312693
6233275457,43.957256,-4.298253,19.553015,0.833203,0.176036,0.345620
6233295459,25.055412,-8.456314,12.575624,0.850417,0.257139,0.365800
6233315460,5.045849,-12.017398,11.915636,0.863239,0.227538,0.349053
6233335461,0.993781,-9.385374,14.665575,0.893269,0.158025,0.344859
6233355462,6.125886,-4.932201,16.157011,0.909169,0.101075,0.352736
6233375464,10.114511,-3.120169,13.090843,0.910121,0.122573,0.344570
6233395463,7.609640,-7.963127,6.474820,0.937464,0.211265,0.357348
6233415464,-8.828412,-17.156265,0.420920,0.958632,0.253871,0.354899
6233435463,-23.366690,-23.320114,-2.402874,0.967102,0.214189,0.345105
6233455464,-22.962160,-23.158182,-3.400969,0.963568,0.154762,0.341695
6233475464,-12.968369,-19.207760,-7.021016,0.951345,0.115588,0.349471
6233495465,-5.529201,-13.253649,-12.530712,0.937232,0.117141,0.354504
6233515466,-5.413362,-9.048536,-18.166214,0.898237,0.157497,0.359786
6233535466,-15.934883,-9.628648,-18.100323,0.872152,0.162026,0.332727
6233555467,-25.065142,-9.893459,-15.002483,0.853696,0.150889,0.302155
6233575468,-28.842072,-11.474385,-17.812616,0.832870,0.182426,0.277106
6233595469,-28.476616,-14.923678,-32.830135,0.810314,0.218144,0.204998
6233615470,-19.301357,-15.165149,-47.932838,0.839624,0.278956,0.197244
6233635470,-16.189749,-17.190937,-45.544075,0.957005,0.365469,0.280104
6233655472,-35.566753,-14.293221,-31.090755,0.941306,0.311257,0.286434
6233675473,-45.840939,-12.518432,-31.135464,0.852460,0.202667,0.221350
6233695474,-43.679111,-18.413572,-46.324883,0.890685,0.207398,0.221115
6233715475,-52.035919,-19.876280,-41.302517,1.041090,0.169717,0.288245
6233735486,-78.894356,-16.942486,-9.002343,1.115321,0.013638,0.297137
6233755476,-93.363190,-11.956506,8.185248,1.043581,-0.172308,0.219731
6233775477,-84.816032,-11.652137,13.175586,1.054577,-0.297823,0.155273
6233795476,-72.148582,-14.692909,21.110807,1.182263,-0.429089,0.141427
6233815477,-55.189331,-13.164893,27.045088,1.241127,-0.532872,0.097459
6233835478,-22.529707,-7.291730,27.522820,1.186262,-0.529961,0.092574
6233855479,8.861232,-7.057373,29.650570,1.201187,-0.461038,0.141196
6233875480,32.672188,-5.458192,38.608162,1.237132,-0.478128,0.143645
6233895481,47.721916,5.078136,47.337280,1.189277,-0.438254,0.140270
6233915481,46.389782,13.954515,46.733177,1.109257,-0.296856,0.170495
6233935482,35.787853,13.325457,54.201412,1.016258,-0.270602,0.202997
6233955482,24.612112,8.760271,64.228279,0.946689,-0.334446,0.161500
6233975483,16.031166,6.855356,67.498230,0.942937,-0.299818,0.079200
6233995484,23.405746,10.546221,60.616016,0.930440,-0.205683,0.057560
6234015486,41.743427,14.867007,51.545448,0.948761,-0.122737,0.138292
6234035487,46.040092,12.545841,46.938744,0.928233,-0.111082,0.198109
6234055487,38.829506,5.921389,42.966465,0.910024,-0.123736,0.201677
6234075488,35.826237,1.863024,39.138115,0.954687,-0.082324,0.182335
6234095489,40.265579,1.952566,38.129517,0.970060,-0.011604,0.236498
6234115490,26.766645,2.259199,40.142822,1.028083,-0.018271,0.339348
6234135490,0.257993,-0.223345,44.447193,1.088937,-0.156626,0.347285
6234155490,-6.553640,-0.949862,51.290611,1.089274,-0.339455,0.276851
6234175490,-0.392400,2.910185,56.997669,1.067275,-0.385305,0.261006
6234195491,-9.166910,5.387196,59.633095,1.039125,-0.344200,0.277513
6234215492,-16.683226,4.249156,64.475365,1.015204,-0.343361,0.243510
6234235493,-10.109679,8.360188,68.667122,0.986103,-0.419625,0.219942
6234255493,5.869411,14.556334,69.485565,0.982328,-0.470898,0.233280
6234275494,26.469351,23.507338,71.927071,0.974810,-0.436840,0.258039
6234295495,38.215996,34.774357,73.516991,0.907074,-0.335149,0.314173
6234315495,31.037962,39.820290,72.083031,0.838030,-0.230407,0.359210
6234335496,8.941753,36.887215,72.387245,0.848437,-0.185599,0.342208
6234355497,-14.441722,30.826555,74.884926,0.925432,-0.223306,0.336904
6234375499,-26.192924,26.276720,78.082550,0.904029,-0.322737,0.351169
6234395500,-16.719461,28.216274,74.603180,0.826218,-0.435042,0.423989
6234415501,-6.233595,31.393768,70.680420,0.869085,-0.511490,0.424318
6234435501,6.864984,38.039562,72.976654,0.969592,-0.470860,0.394969
6234455502,10.927111,43.466152,76.527985,0.912857,-0.364426,0.487537
6234475503,-13.135833,42.993195,71.814468,0.817646,-0.291685,0.538184
6234495504,-35.257774,43.584282,64.275505,0.723148,-0.315198,0.425762
6234515503,-40.834473,30.703180,60.392525,0.674741,-0.454270,0.336104
6234535504,-33.522934,15.171720,60.026768,0.616402,-0.624406,0.284313
6234555505,9.324883,24.908602,49.892563,0.602861,-0.625462,0.279358
6234575506,23.486113,32.001648,37.629189,0.605048,-0.428823,0.422944
6234595506,-2.570025,12.659765,35.586487,0.489874,-0.435587,0.402186
6234615506,-12.572413,-3.801692,31.397972,0.533946,-0.558131,0.397489
6234635507,-6.447448,-3.864112,31.514666,0.638068,-0.496363,0.402240
6234655508,-3.871844,2.269024,30.373192,0.604672,-0.398659,0.478393
6234675509,-19.995153,-4.953282,25.274036,0.575902,-0.421987,0.501722
6234695510,-19.832781,-3.582019,16.976204,0.587385,-0.517217,0.464351
6234715510,-13.793976,-1.725092,10.078003,0.543498,-0.491078,0.453565
6234735512,-24.811098,-6.657814,5.233918,0.577016,-0.451905,0.445547
6234755513,-36.489273,-14.698661,3.857042,0.697263,-0.577121,0.455888
6234775514,-24.024384,-11.298847,4.628217,0.819545,-0.677356,0.467963
6234795515,-6.268502,4.564479,6.238246,0.733443,-0.610691,0.444180
6234815515,-9.555901,4.516853,7.119802,0.595384,-0.512008,0.420932
6234835516,-27.674702,-7.591795,7.599428,0.559593,-0.495829,0.431269
6234855517,-45.049232,-19.246883,12.564805,0.567942,-0.612357,0.425573
6234875516,-39.558010,-27.291681,9.255280,0.690658,-0.784220,0.349817
6234895517,-14.938568,-30.630848,2.994895,0.833964,-0.948133,0.256632
6234915518,30.862570,-19.484440,-2.348803,0.874638,-0.968893,0.238388
6234955519,111.098068,6.947783,-23.307741,0.637531,-0.379725,0.363682
6234975520,85.870239,-5.281354,-36.527096,0.588469,-0.183565,0.404141
6234995520,40.198818,-22.432762,-51.507786,0.616712,-0.134563,0.420821
6235015521,-5.224146,-39.582382,-57.826385,0.641418,-0.189307,0.437053
6235035522,-34.639503,-47.208881,-67.658173,0.660512,-0.263140,0.400707
6235055523,-46.645050,-43.987991,-80.688797,0.712517,-0.344827,0.359705
6235075523,-44.694401,-36.262302,-95.445030,0.820749,-0.399061,0.332074
6235095526,-31.717566,-27.954344,-107.875702,0.826125,-0.430845,0.342376
6235115526,-13.450465,-22.873514,-112.632957,0.773540,-0.423892,0.381875
6235135527,-0.873342,-22.757957,-116.224632,0.918770,-0.394364,0.341745
6235155528,-7.356958,-17.470171,-119.327118,1.145546,-0.377835,0.231943
6235175529,0.726481,-3.067007,-104.808205,0.972029,-0.451664,0.342432
6235195529,28.043026,-11.575111,-84.885361,0.841601,-0.449257,0.514302
6235215533,22.885193,-19.549669,-74.718536,0.990091,-0.396484,0.419939
6235235530,-3.100205,-7.582828,-73.339394,1.052069,-0.244571,0.378914
6235255530,-22.297970,-2.985210,-67.010696,1.009091,-0.163084,0.393922
6235275531,-24.776108,1.414836,-60.271118,0.956453,-0.169138,0.337569
6235295532,-6.887218,5.136339,-46.181736,0.970792,-0.211128,0.327687
6235315533,-6.402535,1.337270,-33.270657,1.032766,-0.187945,0.305241
6235335533,-10.600236,1.680656,-25.972876,1.055677,-0.115196,0.239226
6235355534,-2.289792,3.630231,-21.505671,0.950642,-0.126964,0.258599
6235375535,7.927691,-4.620182,-13.794016,0.870750,-0.193030,0.332422
6235395535,6.818583,-14.165229,-7.651014,0.895534,-0.211118,0.362959
6235415536,-2.542309,-14.774392,-4.953325,0.970500,-0.154302,0.359648
6235435538,-3.314077,-10.742818,0.655433,1.021285,-0.069011,0.321998
6235455539,-6.173140,-2.773423,5.723921,0.998863,-0.062187,0.320937
6235475540,-15.645902,-3.483781,14.418456,0.997187,-0.161936,0.348541
6235495540,-21.286051,-6.700302,22.681280,1.033717,-0.260659,0.345591
6235515541,-18.803396,-7.018495,32.740501,1.139781,-0.355394,0.305060
6235535542,-26.307739,-13.238770,62.759560,1.122936,-0.580746,0.274147
6235555543,-5.790648,-16.335068,102.591591,1.033934,-0.755751,0.255963
6235575543,50.101501,9.813993,109.102737,0.960990,-0.623826,0.276280
6235595543,79.241173,26.949928,89.726433,0.849658,-0.333642,0.340755
6235615544,74.425049,30.930017,62.410778,0.789662,-0.049909,0.201977
6235635545,49.005989,15.073936,51.245354,0.830399,0.191261,0.185728
6235655545,55.284462,2.012812,51.853436,0.773271,0.070055,0.359597
6235675546,30.174263,2.416718,49.762497,0.721108,-0.086913,0.424059
6235695546,-4.471211,-9.411204,38.408180,0.777548,-0.234169,0.368784
6235715547,-4.106403,-8.556570,12.739685,0.858163,-0.187751,0.257051
6235735548,7.075659,2.569711,0.236054,0.858799,-0.162948,0.320528
6235755549,1.009151,1.717379,3.459350,1.009554,-0.345628,0.400745
6235775550,6.824301,1.764604,23.525215,1.248335,-0.435435,0.297714
6235795552,32.325317,16.021915,30.388683,1.019221,-0.478714,0.300816
6235815552,70.137856,16.996759,23.539326,0.796421,-0.322255,0.358835
6235835553,66.922493,11.665824,34.392033,0.813743,-0.084433,0.372504
6235855554,30.254347,3.003680,36.764606,0.798693,0.033225,0.307422
6235875555,2.572941,-18.302006,21.469788,0.733254,-0.014236,0.349726
6235895555,3.142892,-35.093189,5.333920,0.925975,-0.167224,0.388041
6235915556,18.335690,-27.158607,4.043056,1.096549,-0.302797,0.428966
6235935555,30.681170,-12.608889,13.343884,1.134777,-0.353370,0.483581
6235955557,35.612068,-0.589799,15.128712,1.002820,-0.249041,0.451004
6235975557,24.681185,-0.768336,1.394259,0.810232,-0.013131,0.445714
6235995558,-0.349816,-12.923670,-15.481611,0.673430,0.050148,0.415088
6236015558,-21.349747,-25.036335,-25.719070,0.726363,-0.038027,0.366806
6236035559,-26.398266,-23.416801,-23.218367,0.884305,-0.221826,0.328622
6236055560,-14.265415,-9.949415,-17.209774,0.984584,-0.316876,0.340123
6236075560,-1.877271,-0.199985,-15.281532,1.021543,-0.231220,0.383692
6236095561,-4.510561,6.562380,-20.323322,1.018278,-0.017873,0.441588
6236115562,-23.473179,8.650597,-23.779860,0.979967,0.108230,0.474839
6236135563,-46.634865,4.848035,-25.792234,0.961703,0.046353,0.475332
6236155565,-64.114273,12.414858,-27.532536,1.012698,-0.031943,0.409366
6236175565,-67.302078,22.434586,-27.707783,1.054227,-0.008819,0.371574
6236195566,-74.561951,27.711279,-27.136187,1.054856,0.034660,0.367993
6236215567,-90.109818,26.356915,-34.217602,0.981019,0.070529,0.325742
6236235568,-106.621780,25.007744,-47.275311,0.924631,0.031022,0.301974
6236255568,-112.859909,30.239328,-62.218422,0.960735,-0.060165,0.291424
6236275569,-106.002289,44.990417,-76.686958,0.987314,-0.061579,0.263710
6236295569,-103.570633,50.253273,-83.014183,1.015857,0.005741,0.277649
6236315569,-112.451340,48.336205,-84.142815,1.050171,0.057900,0.282575
6236335570,-122.820190,46.343754,-85.978653,1.024143,0.087248,0.300105
6236355571,-142.001099,41.071976,-91.597046,0.973369,0.097221,0.267515
6236375571,-161.202423,38.426903,-101.315689,0.951676,0.099755,0.209153
6236395572,-168.350204,37.855015,-112.109497,0.974411,0.096456,0.132993
6236415573,-169.956345,38.362099,-125.266502,0.975178,0.091965,0.093481
6236435574,-163.979248,37.533310,-139.075226,1.017136,0.078914,0.082155
6236455574,-162.091095,30.945618,-146.014984,1.122172,0.106755,0.080596
6236475575,-160.483063,20.004152,-123.828270,1.251861,0.167055,0.058718
6236495576,-206.783585,34.945370,-108.470634,1.210010,-0.138381,0.029239
6236515578,-211.359955,40.040413,-109.255569,1.229620,-0.424185,0.033372
6236535579,-167.180481,48.755562,-86.060524,1.283823,-0.534514,0.160306
6236555580,-131.669815,61.757217,-33.633480,1.271742,-0.680791,0.211780
6236575580,-111.046402,62.858826,12.030519,1.194679,-0.775115,0.189102
6236595581,-95.275864,51.021534,22.400429,1.210979,-0.676443,0.196872
6236635583,-91.632988,37.620010,33.395184,0.892701,-0.289708,0.279307
6236655582,-95.841293,29.941044,63.269012,0.877434,-0.265840,0.222050
6236675583,-86.549629,26.495977,96.793251,0.866143,-0.360307,0.236066
6236695584,-61.709839,23.606251,114.969284,0.855703,-0.472548,0.235314
6236715585,-27.947931,27.576788,110.374252,0.890445,-0.511722,0.230063
6236735586,1.882997,36.745579,98.121078,0.897050,-0.424118,0.250493
6236755586,15.495977,40.160278,91.371208,0.800552,-0.275987,0.275797
6236775587,11.226590,34.284027,89.365524,0.729966,-0.109540,0.304363
6236795587,-7.980547,23.647415,81.149811,0.774937,0.020275,0.332923
6236815588,-27.346460,14.887644,58.434372,0.764414,-0.002378,0.328787
6236835589,-42.436623,16.989567,19.562378,0.603427,-0.067377,0.338016
6236855590,-55.565773,13.990603,-16.460899,0.533482,-0.004318,0.391073
6236875592,-73.945030,6.216663,-42.992573,0.572715,-0.094808,0.389392
6236895592,-107.524620,0.426859,-68.529091,0.597368,-0.227749,0.328196
6236915593,-112.056595,-4.427552,-101.573898,0.813586,-0.267063,0.423197
6236935594,-89.819550,-1.592134,-124.250748,1.150856,-0.408840,0.518893
6236955594,-65.696922,26.528648,-74.028824,1.287531,-0.877026,0.421651
6236975595,-34.779762,37.361069,-34.915394,0.978173,-0.792919,0.320372
6236995596,-18.028368,34.037071,-63.801125,0.818238,-0.378610,0.321791
6237015595,-21.469198,11.730071,-71.587593,0.747633,-0.107346,0.331416
6237035596,-41.744835,-9.621012,-57.970161,0.922544,-0.128678,0.402100
6237055597,-34.370106,4.958214,-43.729992,1.024069,-0.340750,0.407384
6237075598,-13.649069,17.868891,-34.216812,0.882148,-0.372954,0.367044
6237095598,-0.681792,19.932728,-38.366245,0.826807,-0.166708,0.340696
6237115599,-6.036016,17.520893,-45.329842,0.805313,-0.018229,0.387091
6237135600,-30.280003,1.353060,-37.713661,0.804912,-0.033031,0.400267
6237155600,-47.069027,-9.382154,-29.730597,0.838600,-0.161743,0.381148
6237175601,-46.102303,-11.239645,-31.763210,0.873281,-0.230794,0.365318
6237195602,-38.376564,-10.446308,-41.696430,0.927567,-0.250898,0.330417
6237215603,-20.407183,-5.271748,-47.782650,0.897635,-0.217657,0.322033
6237235605,-6.813941,-1.624258,-50.429848,0.881906,-0.189278,0.369784
6237255606,-0.466077,-0.722019,-55.850868,0.896739,-0.137996,0.373432
6237275606,4.961408,-0.622374,-63.870609,0.903838,-0.054910,0.377427
6237295607,0.764038,-2.305258,-67.537079,0.901563,0.003150,0.410079
6237315608,-4.615757,-4.073583,-70.620224,0.909999,0.044495,0.415002
6237335608,-12.314322,-3.917378,-76.072479,0.910732,0.080745,0.414544
6237355609,-17.808157,-3.362732,-84.667557,0.937601,0.113111,0.378378
6237375609,-25.961346,-2.118275,-94.097122,0.970304,0.119874,0.391191
6237395610,-32.177357,-2.426285,-104.972382,0.965715,0.145453,0.380444
6237415610,-24.705334,-1.533105,-119.783669,0.992240,0.145848,0.294870
6237435611,2.851474,4.573000,-136.108597,1.019720,0.163280,0.200652
6237455612,16.027695,0.302094,-136.536987,0.919203,0.263836,0.198734
6237475612,22.555454,-11.704662,-135.326889,0.834092,0.329315,0.207908
6237495613,34.728607,-27.893045,-139.534332,0.954425,0.327860,0.176486
6237515614,25.263134,-27.897448,-138.016815,1.155249,0.300373,0.338286
6237535614,-28.296997,-33.008766,-115.384148,1.193968,0.114020,0.504087
6237555615,-83.154999,-60.118267,-74.042656,1.323087,-0.310144,0.473502
6237575616,-54.964329,-42.124207,-16.665234,1.540735,-0.689239,0.490001
6237595618,26.069519,14.642213,-4.176260,1.381129,-0.351840,0.669566
6237615619,47.883656,19.027006,-2.388349,1.065060,0.175714,0.564963
6237635620,5.536685,5.630645,21.165379,0.954675,0.216308,0.322325
6237655620,-39.349270,7.255436,44.814598,0.899408,0.033305,0.182739
6237675621,-49.775719,16.646305,50.914322,0.877232,-0.092048,0.124968
6237695622,-16.582727,18.756329,39.468121,0.831665,-0.071472,0.116805
6237715623,33.447430,18.053104,28.436520,0.796300,-0.017813,0.180479
6237735622,65.818764,23.259058,23.044308,0.817263,0.004841,0.257238
6237755623,80.910118,28.927401,22.972473,0.853986,0.052365,0.291175
6237775624,88.370476,30.710110,22.238775,0.892481,0.148049,0.269112
6237795624,89.264954,29.795132,19.525875,0.961015,0.297745,0.279817
6237815625,74.151840,29.369797,18.950893,1.014788,0.395318,0.367977
6237835626,37.270611,19.255800,20.533092,0.974520,0.339187,0.438763
6237855626,-5.608808,2.671082,15.879772,0.924886,0.226078,0.420936
6237875627,-23.396410,-5.312199,14.986502,0.919991,0.135014,0.370931
6237895628,-8.449413,-3.253688,19.020134,0.893227,0.076464,0.349943
6237915629,24.902779,5.012910,24.621004,0.901511,0.072974,0.340685
6237935631,51.360390,13.438881,30.807400,0.891998,0.139408,0.331632
6237955632,58.938538,17.081030,34.799122,0.822486,0.254538,0.358627
6237975632,37.712933,12.412838,37.972168,0.842016,0.320564,0.427590
6237995633,1.502622,3.275803,45.041195,0.833716,0.244366,0.420376
6238015634,-11.976123,-2.135089,48.949760,0.855208,0.130939,0.371345
6238035634,-1.251157,1.708474,44.118561,0.924835,0.102229,0.342294
6238055635,6.291367,0.978437,32.794804,0.913508,0.120069,0.358781
6238075655,-3.443713,-9.348793,18.181374,0.862030,0.177513,0.351816
6238095635,-17.025221,-17.456682,9.495335,0.890638,0.197867,0.329991
6238115636,-21.384434,-19.314724,4.150939,0.962843,0.147585,0.334592
6238135637,-7.925313,-14.659061,-1.471561,1.007893,0.067033,0.324516
6238155637,17.943510,-8.697506,-5.727993,0.979538,0.058059,0.297003
6238175638,37.379959,-5.319469,-5.421725,0.856275,0.129236,0.323858
6238195639,20.336121,-15.160641,-11.819489,0.789100,0.233116,0.406691
6238215639,-21.551376,-31.211861,-20.811382,0.824225,0.251855,0.338891
6238235640,-44.862026,-32.048626,-27.859682,0.836986,0.237413,0.276029
6238255641,-45.108490,-19.963741,-37.914062,0.950066,0.229361,0.293801
6238275642,-20.531122,-3.069041,-41.545410,0.971687,0.142913,0.262600
6238295644,2.956533,1.367342,-34.255859,0.908514,0.080726,0.314640
6238315644,-7.831971,-5.806833,-34.022072,0.884363,0.123529,0.347763
6238335645,-36.291264,-15.381371,-35.930893,0.892930,0.215847,0.281210
6238355646,-52.412037,-21.306900,-32.783054,0.889490,0.266063,0.164285
6238375651,-53.476803,-17.061390,-35.388809,0.860143,0.269111,0.143237
6238395648,-51.879395,-15.480484,-43.648556,0.857423,0.214527,0.257066
6238415649,-56.545750,-18.656788,-40.861881,0.964816,0.118400,0.356313
6238435648,-60.888817,-17.620207,-25.663271,1.018032,0.009105,0.287288
6238455648,-50.974815,-14.378427,-14.590224,1.020200,-0.027711,0.195291
6238475649,-39.827663,-9.399042,-9.473368,1.060623,0.005507,0.219634
6238495650,-56.066910,-10.249464,-0.557307,1.104412,-0.018530,0.294603
6238515651,-90.457146,-14.182918,13.197627,1.130213,-0.197430,0.282287
6238535651,-105.690536,-17.116018,24.117159,1.252542,-0.451567,0.161271
6238555652,-69.871613,-8.216029,29.681095,1.270116,-0.657101,0.016196
6238575653,-6.745632,1.911604,22.347843,1.191548,-0.598000,0.091210
6238595654,16.625479,1.703031,22.773983,1.202592,-0.422517,0.211494
6238615655,19.414146,2.600338,38.563801,1.259211,-0.367720,0.198725
6238635655,26.818985,8.612753,55.228855,1.201005,-0.428723,0.131211
6238655657,34.922207,19.224417,53.091915,1.083544,-0.405829,0.153120
6238675658,36.409340,22.584492,51.816006,0.994719,-0.244731,0.219257
6238695659,25.985819,16.293009,56.763309,0.926882,-0.178943,0.231155
6238715660,7.576039,13.398483,60.994568,0.895327,-0.223363,0.161283
6238735661,7.431629,13.622791,59.960701,0.888599,-0.270428,0.121256
6238755661,31.421131,15.203014,60.102333,0.942552,-0.236056,0.163778
6238775662,52.331451,14.998842,66.497574,0.918279,-0.203295,0.244578
6238795661,48.113392,6.558117,68.872902,0.869862,-0.215449,0.295449
6238815662,32.881828,-2.561087,64.674980,0.954237,-0.166851,0.278130
6238835663,26.648518,-1.927528,56.204540,1.060267,-0.096261,0.247829
6238855664,28.453259,0.581088,57.286819,1.041624,-0.153958,0.330258
6238875664,18.038046,-2.469055,64.020447,0.936605,-0.282056,0.408976
6238895665,8.121496,-4.925020,70.931473,0.947047,-0.340974,0.353797
6238915666,11.961520,-1.430411,75.366501,0.988987,-0.334333,0.244749
6238935666,11.600271,2.485344,79.286865,0.923696,-0.328847,0.264622
6238955667,0.442201,-0.318732,77.883865,0.831216,-0.338071,0.302509
6238975668,1.612286,-5.888334,74.613251,0.855698,-0.350284,0.247665
6238995668,18.758324,-6.525043,77.569954,0.924636,-0.381410,0.207517
6239015671,24.564234,-5.220367,82.849457,0.884503,-0.386710,0.298593
6239035671,13.689901,-8.026389,84.454514,0.806207,-0.423254,0.360485
6239055672,13.265962,-5.757591,85.092102,0.903673,-0.519999,0.331939
6239075673,20.820488,2.818553,87.579697,0.964505,-0.589556,0.344931
6239095674,19.745886,4.542380,88.686295,0.920083,-0.632232,0.365207
6239115674,20.880728,6.412093,83.201111,0.818942,-0.601232,0.380588
6239135675,32.232525,9.094233,76.601677,0.811639,-0.602942,0.332834
6239155675,50.475784,18.843969,72.347702,0.825735,-0.553718,0.344078
6239175675,51.985546,20.489075,71.223846,0.767457,-0.458925,0.383173
6239195676,39.405613,21.995335,69.443047,0.792241,-0.384608,0.372338
6239215677,22.335003,25.040804,72.881325,0.767259,-0.354853,0.419883
6239235677,1.704586,20.964987,71.025803,0.702414,-0.434663,0.419545
6239255678,-1.023225,23.756735,66.352020,0.723300,-0.474960,0.391549
6239275679,0.720028,20.697210,57.231125,0.784817,-0.502670,0.401260
6239295680,6.114077,21.803745,49.275364,0.707926,-0.427404,0.350529
6239315680,5.922807,5.783746,44.295300,0.595456,-0.458264,0.352425
6239335681,-1.874578,-2.948840,45.700386,0.663424,-0.479604,0.391200
6239355682,-10.396336,-1.298836,42.859283,0.653683,-0.426356,0.400592
6239375684,-18.126213,-0.477292,29.675621,0.526176,-0.408560,0.356254
6239395684,-13.283055,-3.813209,13.877203,0.522591,-0.430149,0.328820
6239415686,-19.027485,-13.414031,10.223291,0.703147,-0.550570,0.388768
6239435686,-24.042593,-2.459969,8.197918,0.670382,-0.610777,0.420925
6239455686,-20.563175,2.025540,-0.668737,0.518559,-0.593433,0.366224
6239475687,-19.189934,-2.215068,-6.590868,0.672516,-0.607695,0.423544
6239495689,-21.073189,-2.392588,-3.298548,0.804525,-0.719078,0.477757
6239515688,-15.204173,4.236519,2.488482,0.827529,-0.740770,0.482518
6239535689,-0.789680,18.246719,5.292471,0.719527,-0.596408,0.398850
6239555689,-7.297277,11.017338,9.329422,0.574906,-0.512805,0.373032
6239575690,-14.697032,-7.793381,14.669238,0.604267,-0.608842,0.362945
6239595691,-4.733272,-17.408161,15.830006,0.614233,-0.743395,0.383265
6239615691,20.330330,-18.715675,-5.701081,0.677908,-0.678056,0.368034
6239635692,45.770763,-4.344186,-44.456665,0.734402,-0.495271,0.316355
6239655693,55.420269,4.416985,-79.315018,0.684198,-0.291153,0.314081
6239675693,45.600948,-2.370811,-96.923042,0.642587,-0.123528,0.340915
6239695694,6.981719,-16.182365,-104.397362,0.632347,-0.073428,0.370964
6239715695,-20.546970,-25.160065,-111.807449,0.675153,-0.188536,0.407553
6239735697,-29.088833,-22.790810,-115.753624,0.750847,-0.309082,0.436802
6239755698,-40.667885,-13.735153,-123.295517,0.856458,-0.354972,0.416678
6239775698,-55.279449,-9.949337,-136.119202,0.912940,-0.381330,0.399044
6239795699,-58.988930,-9.022287,-134.145828,0.893610,-0.442573,0.397783
6239815700,-38.771877,-2.848696,-124.212250,0.859854,-0.456591,0.384615
6239835701,-22.034491,1.675359,-116.907471,1.057941,-0.390575,0.323568
6239855701,-23.643700,-4.098945,-108.583069,1.197451,-0.366214,0.256915
6239875701,-24.322737,-9.234121,-91.860947,0.925418,-0.420947,0.342585
6239895702,-8.802034,-27.273609,-66.035126,0.822294,-0.527725,0.408408
6239915702,0.236072,-29.871912,-43.965759,0.970373,-0.484275,0.284538
6239935703,-6.132314,-11.948234,-25.574333,1.071112,-0.335078,0.225428
6239955704,-4.168449,-1.264106,-11.056211,0.962151,-0.301109,0.328708
6239975705,5.698800,-9.624729,-1.039861,0.943932,-0.286664,0.402736
6239995705,2.927454,-19.766222,11.876846,0.974366,-0.369616,0.393827
6240015706,-10.994114,-39.397316,39.994980,1.050074,-0.670718,0.364918
6240035707,-3.066036,-44.233261,89.923523,1.152642,-0.940726,0.274413
6240055708,69.245552,12.902493,76.749718,1.096855,-0.636062,0.232410
6240075710,86.377144,36.291611,56.829956,1.055232,-0.331716,0.239903
6240095711,73.536377,27.979448,66.820625,0.957145,-0.063413,0.230597
6240115712,60.723343,16.268366,72.335373,0.811453,0.020304,0.306472
6240135712,39.525787,-3.104702,69.807053,0.758422,-0.033333,0.259512
6240155713,22.480364,-18.624180,67.151108,0.792553,-0.071403,0.184366
6240175714,18.417459,-29.802294,69.614136,0.854038,-0.103342,0.152638
6240215736,48.525673,-25.010006,57.577118,0.806444,-0.282324,0.343545
6240235715,40.139454,-21.626915,50.411118,0.829361,-0.290984,0.369449
6240255716,31.385399,-17.327448,46.571152,0.973078,-0.313321,0.342780
6240275716,37.207825,-13.429100,45.607365,1.239063,-0.342157,0.303576
6240295717,53.496494,-1.668683,49.446507,1.184534,-0.270101,0.328464
6240315718,55.744194,7.969561,31.336523,0.866291,-0.346639,0.391017
6240335718,56.470932,8.293265,32.509632,0.881301,-0.094613,0.364675
6240355719,35.237755,-2.681803,48.470592,0.957843,0.027629,0.374513
6240375719,0.552278,-16.390097,50.743000,0.900708,-0.104230,0.394754
6240395720,-17.921726,-23.478827,41.823902,0.866186,-0.224388,0.427631
6240415721,-15.514540,-18.485832,34.844482,0.868186,-0.219251,0.383059
6240435723,-12.692297,-0.261767,33.365902,0.791022,-0.227014,0.444064
6240455724,-36.302208,1.310365,30.890446,0.721439,-0.328099,0.436525
6240475725,-48.246559,0.449495,25.515381,0.759152,-0.402233,0.311343
6240495725,-40.497475,6.494478,13.552026,0.766424,-0.499004,0.261731
6240515726,-28.500601,9.423173,-1.874309,0.783130,-0.608723,0.286845
6240535727,-15.974582,7.055006,-8.319431,0.836222,-0.605706,0.277755
6240555728,-7.866052,6.103312,-14.538015,0.863536,-0.525073,0.273690
6240575727,-0.441103,4.161332,-20.961771,0.863546,-0.458950,0.314178
6240595728,1.401183,2.213678,-25.437366,0.878196,-0.423221,0.336033
6240615729,2.159271,3.019833,-27.055542,0.888916,-0.396541,0.348684
6240635729,4.107104,4.018299,-30.853434,0.895419,-0.371863,0.348553
6240655730,5.191551,2.942803,-33.536076,0.886229,-0.354200,0.324108
6240675731,6.447171,1.933376,-30.155535,0.845308,-0.297366,0.315525
6240695731,5.700916,-1.303061,-28.085632,0.865383,-0.258216,0.362194
6240715732,-0.612050,-3.669214,-30.759033,0.955671,-0.276492,0.394032
6240735733,-3.081831,-2.982647,-33.798195,1.015768,-0.332210,0.420122
6240755734,1.363124,1.934454,-37.853237,1.025786,-0.259237,0.420470
6240775734,-0.119144,8.277364,-40.595779,1.056449,-0.040315,0.448155
6240795736,-20.333067,11.157682,-36.861225,1.091851,0.081308,0.480849
6240815737,-45.928036,14.857909,-32.239479,1.097826,0.029907,0.480604
6240835738,-65.516693,21.371784,-32.141533,1.090995,-0.114127,0.448816
6240855739,-69.637779,32.951256,-36.848789,0.994943,-0.207645,0.378137
6240875739,-65.044670,45.156723,-41.051537,0.884378,-0.105989,0.349282
6240895740,-73.113411,47.475143,-44.171314,0.874918,-0.016660,0.345717
6240915741,-88.780090,41.392200,-46.678745,0.849308,-0.127606,0.298636
6240935740,-93.287285,36.800613,-48.043221,0.842152,-0.237869,0.244069
6240955741,-87.462540,34.921566,-51.762188,0.901096,-0.149491,0.218220
6240975742,-88.092186,35.780106,-52.796711,0.932693,-0.033418,0.257620
6240995742,-98.999550,32.710556,-53.751286,0.944135,-0.036034,0.288697
6241015743,-108.264854,37.382553,-61.382671,0.961453,-0.054586,0.237619
6241035744,-112.246750,43.348564,-71.202271,1.018492,0.013074,0.215901
6241055744,-126.158783,45.100212,-84.871056,0.995313,0.027663,0.203676
6241075745,-130.960968,44.181206,-99.990440,0.988154,0.007821,0.172348
6241095746,-137.119995,44.650623,-110.899872,1.018956,0.025275,0.141741
6241115747,-138.421768,47.383991,-115.785095,1.055542,0.041468,0.101452
6241135747,-143.404984,45.745522,-120.208115,1.058755,0.051002,0.099057
6241155750,-156.039124,37.933632,-128.618637,1.106402,0.009201,0.100909
6241175750,-162.631607,37.412453,-142.903320,1.097944,-0.028372,0.073671
6241195751,-165.296570,34.385612,-150.947906,1.175884,-0.035144,0.027218
6241215752,-170.290085,36.840405,-137.774170,1.284150,-0.140292,-0.077073
6241235753,-173.620621,48.602470,-119.323112,1.187673,-0.263679,-0.158335
6241255753,-145.628769,46.078037,-101.033936,1.060198,-0.286026,-0.066508
6241275754,-124.332565,33.246922,-60.249424,1.201509,-0.418372,0.035827
6241295754,-130.017380,32.059452,-7.927042,1.185114,-0.623366,0.138603
6241315754,-132.701630,30.129274,11.381083,1.098458,-0.629417,0.184526
6241335755,-120.589203,27.925102,15.272202,1.059126,-0.576884,0.182685
6241355756,-109.297142,32.092529,27.816628,0.955143,-0.488193,0.197789
6241375756,-106.125740,27.862812,48.065945,0.912640,-0.434750,0.184955
6241395757,-101.854118,19.962914,60.294373,0.936974,-0.477311,0.175364
6241415758,-74.308907,16.580927,62.919647,0.998481,-0.552674,0.145672
6241435759,-21.014074,21.512875,60.419640,1.106263,-0.544086,0.162223
6241455760,-5.307052,33.006905,47.749283,1.029486,-0.257727,0.347237
6241475760,-42.904835,28.889832,25.293665,0.753382,0.109369,0.339455
6241495761,-56.986187,9.445951,7.048140,0.597957,0.273719,0.146638
6241515763,-67.684013,-13.490730,-15.794610,0.742068,0.169926,0.139376
6241535764,-95.207542,-21.710649,-50.231400,0.790934,-0.157280,0.228541
6241555765,-78.898682,-4.994431,-82.253281,0.708528,-0.319287,0.226370
6241575765,-37.156696,12.864650,-91.081764,0.900216,-0.339295,0.192120
6241595766,-23.691685,35.629818,-85.273392,1.033105,-0.142522,0.297250
6241615766,-59.343269,41.851124,-64.506546,1.071501,-0.140175,0.384803
6241635768,-106.095177,34.875393,-46.760098,1.086332,-0.335455,0.348730
6241655767,-128.500549,30.688652,-27.800018,1.048340,-0.615162,0.229776
6241675768,-92.947044,27.105499,5.027335,1.007444,-0.900077,0.142890
6241695769,-34.797653,20.558920,38.965603,0.940667,-1.082647,0.137178
6241715769,14.392553,13.985811,65.125198,0.858391,-1.000427,0.164185
6241735770,53.371876,-0.205671,91.449562,0.856356,-0.776998,0.172498
6241755771,78.868561,-7.817836,109.469231,0.888339,-0.528412,0.165991
6241775771,88.005318,-16.197021,123.220276,0.810673,-0.336678,0.210608
6241795772,103.686226,-29.417711,119.826866,0.758537,-0.122242,0.272190
6241815773,81.030251,3.061428,90.913254,0.767606,0.421424,0.288740
6241835773,27.956022,3.632293,26.345966,0.213011,0.994762,0.362097
6241855774,-35.199787,-41.798244,-63.774082,0.652544,0.763795,0.926219
6241875776,-143.250656,-32.806641,-28.972281,1.696492,-0.530167,0.668913
6241895777,-111.705620,1.188713,58.942608,0.958842,-0.935027,-0.014685
6241915778,-9.893376,19.342623,-11.997396,0.627321,-0.536481,0.162027
6241935778,-36.460270,-7.525015,-50.108097,0.814457,-0.335637,0.403279
6241955779,-19.474169,-8.694932,-56.890598,0.939817,-0.323311,0.230676
6241975780,65.940117,26.059660,-49.595787,0.962963,-0.367802,0.402076
6241995781,54.114082,34.388523,-56.175755,0.930750,-0.133816,0.595185
6242015780,18.824694,23.851946,-70.587906,0.910840,0.213346,0.577701
6242035781,-32.240826,10.417229,-76.707581,0.921111,0.204017,0.601664
6242055782,-89.755661,-5.409025,-68.226631,1.044519,-0.058885,0.517645
6242075782,-98.051834,1.631640,-51.456520,1.071849,-0.263892,0.290474
6242095783,-66.690895,20.161457,-50.300690,0.964184,-0.295434,0.258222
6242115784,-39.428139,25.712000,-69.828690,0.829373,-0.204704,0.287579
6242135785,-25.741659,19.885656,-87.829620,0.818299,-0.065411,0.304574
6242155785,-16.893551,22.310478,-95.518372,0.827776,0.019546,0.334834
6242175786,-14.475235,22.883829,-100.258812,0.813741,0.088919,0.352965
6242195787,-21.383310,18.086840,-111.095345,0.810850,0.183640,0.361058
6242215787,-36.768677,9.570969,-123.312592,0.824109,0.250498,0.396378
6242235790,-53.192375,1.980069,-130.772079,0.887802,0.254029,0.394410
6242255790,-52.622879,2.615482,-126.635933,1.036729,0.268125,0.342240
6242275791,-29.141975,6.945056,-101.472237,1.121047,0.412283,0.345070
6242295792,-28.517199,8.493422,-71.715508,1.024720,0.507835,0.457109
6242315792,-95.085312,-3.004157,-70.781761,0.944663,0.371298,0.383330
6242335793,-143.760742,-23.436201,-83.089294,1.127669,0.113976,0.186807
6242355794,-155.514771,-23.406898,-82.260605,1.211412,-0.202108,0.139236
6242375793,-153.421082,-25.441221,-56.278824,1.314151,-0.668394,0.219770
6242395794,-134.303406,-28.270399,-10.726912,1.378655,-1.186698,0.331275
6242415795,-56.087097,-11.177923,-1.814495,1.353941,-1.279187,0.298424
6242435796,45.814003,10.529847,10.380913,1.137049,-0.871342,0.259234
6242455797,81.215408,13.183092,16.917385,1.003692,-0.446179,0.264403
6242475797,67.774361,20.899164,20.158325,0.946276,-0.207928,0.248123
6242495798,55.773682,22.056175,20.671457,0.914548,-0.130896,0.209860
6242515799,54.027687,16.057974,16.937351,0.896765,-0.096028,0.199750
6242535799,66.463608,16.769981,15.251062,0.872650,-0.087854,0.220726
6242555800,83.309830,24.413317,13.004049,0.835378,-0.052860,0.247726
6242575801,93.170509,31.225164,6.491491,0.819524,0.000708,0.283047
6242595803,97.764862,30.975788,-1.659654,0.835527,0.110995,0.288902
6242615804,89.595467,24.886112,-5.987148,0.894826,0.268730,0.314076
6242635805,67.690842,16.705482,-1.024428,0.958834,0.349246,0.387916
6242655805,34.140415,7.058851,6.285534,0.969294,0.279866,0.465709
6242675806,5.584770,-2.051798,5.682139,0.907018,0.146464,0.453085
6242695807,-1.451966,-8.361986,-4.341430,0.848082,0.100913,0.390708
6242715807,3.252248,-9.514858,-13.226117,0.858203,0.114717,0.353928
6242735806,13.608882,-6.581597,-14.023857,0.884809,0.115010,0.350269
6242755807,23.794067,-1.629166,-10.353958,0.894481,0.135084,0.363467
6242775808,27.959146,1.392427,-7.407743,0.865757,0.160071,0.377206
6242795809,23.557850,0.152110,-11.128487,0.838965,0.173428,0.381566
6242815810,13.024316,-4.060475,-16.585993,0.859546,0.172379,0.376864
6242835810,6.993266,-6.795664,-16.485250,0.889770,0.152750,0.371267
6242855811,9.506397,-6.354095,-13.496993,0.912140,0.143684,0.361689
6242875812,15.576523,-5.242888,-11.918697,0.903810,0.137320,0.374747
6242895813,17.786381,-4.126234,-11.493093,0.917305,0.137616,0.383635
6242915813,16.201195,-3.977765,-10.050251,0.931371,0.135775,0.383805
6242935814,17.584484,-3.702096,-7.344858,0.945085,0.149743,0.376522
6242955816,18.036488,-3.525049,-5.090722,0.941933,0.186779,0.374462
6242975817,14.719046,-3.641500,-2.643253,0.920034,0.214745,0.384119
6242995818,10.107879,-4.731187,-0.383045,0.896579,0.204413,0.389697
6243015818,6.609201,-5.929454,0.527491,0.896735,0.197947,0.376389
6243035819,4.088603,-8.126062,-1.115293,0.875686,0.197632,0.367699
6243055820,-0.349238,-10.684619,-4.670310,0.884123,0.185007,0.361866
6243075821,-1.851315,-8.823545,-5.447017,0.896816,0.158327,0.345803
6243095820,-0.434387,-6.215385,-2.881538,0.899811,0.145660,0.360804
6243115821,0.332815,-5.417916,-1.467582,0.902715,0.140404,0.359911
6243135821,-1.482156,-6.946074,-1.604350,0.915219,0.147718,0.362296
6243155822,-9.696361,-10.230339,0.423886,0.922002,0.146059,0.351718
6243175823,-15.319792,-12.754080,5.210598,0.901720,0.108891,0.347980
6243195824,-12.283075,-12.426085,3.804562,0.932844,0.083412,0.328799
6243215824,-2.302771,-9.624299,-0.866524,0.930423,0.083887,0.313899
6243235825,10.144020,-8.159781,-3.050233,0.900827,0.110628,0.315562
6243255826,11.486149,-8.064459,-4.683054,0.930853,0.166379,0.342738
6243275827,6.403356,-8.117970,-9.386380,0.924941,0.225226,0.342413
6243295827,-0.304045,-15.632741,-20.804276,0.818469,0.282561,0.316196
6243315829,-9.124753,-29.674171,-33.421619,0.737243,0.313438,0.263549
6243335830,-16.982807,-25.399010,-45.161274,0.826513,0.369983,0.268869
6243355831,-25.202303,-15.972234,-49.596874,0.910014,0.345317,0.314238
6243375832,-21.490465,-18.303619,-33.963825,0.906769,0.207663,0.282479
6243395832,-10.047621,-23.110237,-17.959713,0.811436,0.140007,0.209676
6243415833,-10.345794,-25.934170,-23.591856,0.799202,0.249458,0.216902
6243435834,-28.836363,-23.533493,-31.679960,1.000309,0.390800,0.323023
6243455833,-60.469685,-22.892178,-8.185612,1.118807,0.241197,0.354518
6243475834,-72.659073,-18.367407,25.841385,1.083449,-0.056305,0.260127
6243495835,-54.658813,-6.475700,34.315308,1.119908,-0.252829,0.270811
6243515835,-40.783791,1.432804,21.791159,1.143770,-0.270762,0.291760
6243535836,-23.805649,-0.163974,18.285944,1.096358,-0.244978,0.219190
6243555837,-10.755047,-6.242536,27.426283,1.152210,-0.206542,0.192709
6243575838,-12.806564,-8.655185,35.281506,1.199715,-0.175234,0.144908
6243595838,-11.384396,-3.052376,35.804363,1.174317,-0.206008,0.148409
6243615839,0.434231,-2.392136,35.716984,1.178131,-0.327172,0.186887
6243635840,13.454688,-3.110156,41.626247,1.199058,-0.396480,0.183511
6243655841,15.541519,5.501462,46.775620,1.146635,-0.385523,0.166396
6243675843,22.148392,13.720605,48.987984,1.061712,-0.331854,0.144557
6243695844,24.364483,14.481262,49.924328,1.018027,-0.264825,0.120101
6243715844,20.156853,13.581196,48.959713,0.950189,-0.258539,0.084112
6243735845,20.505045,9.889767,47.341003,0.895069,-0.288817,0.084569
6243755846,35.616970,10.384871,44.906334,0.871753,-0.304028,0.117862
6243775847,61.488983,9.765562,47.047962,0.895963,-0.211958,0.190577
6243795848,76.321106,10.794697,44.505760,0.925397,-0.074469,0.224153
6243815847,77.238335,8.735970,36.926769,0.965170,0.026270,0.284030
6243835847,53.686291,2.800529,36.757282,0.965570,0.019452,0.354558
6243855848,30.274752,-4.541521,40.780769,0.954231,-0.064064,0.333287
6243875849,16.677338,-5.970394,44.998592,1.009572,-0.143880,0.300956
6243895850,7.161807,-5.710996,50.709991,1.081858,-0.232572,0.289637
6243915850,9.364313,-3.844030,59.917053,1.078115,-0.332668,0.289861
6243935851,17.755892,-3.110809,70.088905,1.031553,-0.384756,0.303601
6243955852,16.877958,-4.262454,79.262939,0.976814,-0.393347,0.276455
6243975853,15.635241,-4.699358,84.536942,0.960184,-0.364043,0.209614
6243995853,24.654308,-1.126351,87.656067,0.948358,-0.296570,0.161756
6244015854,32.644592,1.206085,89.022461,0.901040,-0.270301,0.205754
6244035856,34.493332,1.942308,87.779594,0.845585,-0.264359,0.272058
6244055857,31.726934,-0.181201,82.064354,0.897886,-0.300421,0.275236
6244075858,34.824989,1.884044,80.429787,0.960346,-0.373339,0.246337
6244095859,41.545441,6.355841,85.219589,0.936889,-0.402864,0.295538
6244115859,32.613670,7.987265,86.301712,0.901648,-0.401798,0.394045
6244135860,25.907549,7.892280,84.790108,0.945697,-0.464991,0.382142
6244155861,32.846706,17.742161,80.480927,0.967992,-0.483257,0.358475
6244175860,37.052383,27.195311,74.483780,0.906983,-0.407102,0.361616
6244195861,36.405277,31.357265,68.943146,0.828192,-0.329806,0.361004
6244215861,32.920364,31.821703,66.707565,0.835047,-0.298680,0.367344
6244235862,24.210749,31.719135,70.509483,0.846286,-0.325777,0.396242
6244255863,13.796055,28.673588,78.223396,0.871547,-0.436596,0.395280
6244275864,6.072672,27.548103,80.741158,0.862722,-0.468278,0.429793
6244295865,1.256846,29.666908,71.147995,0.789936,-0.365913,0.423839
6244315865,10.518169,32.679707,60.635345,0.822778,-0.349912,0.396376
6244335866,11.015403,30.617966,52.161564,0.760748,-0.370645,0.443777
6244355867,3.625649,25.030209,46.391956,0.677010,-0.377316,0.406276
6244375868,6.117668,22.089314,38.627380,0.585494,-0.363346,0.357525
6244395869,-7.535987,5.072933,29.358910,0.572759,-0.344941,0.392415
6244415870,-8.988275,-4.407035,19.901749,0.619509,-0.455076,0.356723
6244435871,-5.382492,-4.085637,12.550463,0.616705,-0.450996,0.434439
6244455872,-9.148207,-3.234886,9.600066,0.655323,-0.369750,0.394630
6244475873,-16.495886,-3.620470,9.149020,0.690275,-0.372876,0.501115
6244495873,-31.454178,-3.638602,9.323821,0.712697,-0.468545,0.506460
6244515874,-33.391876,1.371078,8.177662,0.729641,-0.529888,0.463059
6244535873,-29.172455,8.951872,1.284621,0.734892,-0.533376,0.411263
6244555874,-26.149927,9.479471,0.158920,0.686457,-0.566068,0.411825
6244575875,-27.721657,5.616432,4.697616,0.686213,-0.554416,0.438005
6244595875,-30.956402,3.133133,11.411065,0.660909,-0.645890,0.494251
6244615876,-25.820635,-4.298712,8.518349,0.632928,-0.709760,0.487197
6244635877,0.834229,2.592273,-3.573202,0.739469,-0.684363,0.380609
6244655878,15.022242,10.326725,-14.000569,0.767835,-0.550789,0.354943
6244675878,15.108408,5.133350,-22.245499,0.719684,-0.452050,0.354492
6244695879,10.972404,-3.925745,-32.991795,0.682277,-0.414074,0.348333
6244715880,5.481376,-15.439146,-45.977776,0.620450,-0.382624,0.364467
6244735880,0.284312,-20.916311,-60.998692,0.598074,-0.329484,0.360233
6244755883,-9.309965,-23.901640,-75.729637,0.655689,-0.286845,0.363259
6244775883,-22.093945,-24.502102,-84.612946,0.719211,-0.313772,0.386204
6244795884,-27.922611,-20.733431,-90.948845,0.682080,-0.360499,0.394666
6244815885,-30.182938,-18.810171,-98.432587,0.691157,-0.334417,0.394813
6244835885,-43.488506,-18.716436,-104.307304,0.835405,-0.309579,0.374904
6244855886,-48.067123,-12.564677,-104.139503,0.982433,-0.400374,0.365465
6244875887,-41.191582,0.770203,-100.272102,0.953886,-0.502371,0.367657
6244895887,-26.529884,2.495100,-99.260193,0.888950,-0.484009,0.398464
6244915887,-12.364431,-1.249327,-94.140373,0.863613,-0.436422,0.421103
6244935888,-8.166624,-1.414037,-87.722168,0.938273,-0.415999,0.421541
6244955889,-14.260666,3.797215,-89.025040,1.004427,-0.408828,0.347299
6244975889,-9.408112,5.324892,-85.543236,1.083969,-0.279888,0.270592
6244995890,-6.679537,0.469169,-75.479767,0.913842,-0.275088,0.347616
6245015891,-2.933765,-16.368406,-55.692673,0.892940,-0.281419,0.420568
6245035891,-16.972572,-16.644438,-44.919830,0.927599,-0.291170,0.362232
6245055892,-16.242832,-6.992568,-48.021847,0.844870,-0.271228,0.299156
6245075893,3.717323,-6.655246,-55.181931,0.863429,-0.252889,0.242416
6245095894,20.401455,-7.898599,-55.039730,0.883429,-0.199177,0.220265
6245115896,24.697033,-8.361061,-48.643414,0.955900,-0.092834,0.313678
6245135897,27.735077,-5.487669,-40.577026,1.038652,0.049139,0.371074
6245155898,18.896156,-9.640431,-29.004835,1.041880,0.115823,0.385680
6245175898,0.205727,-21.090591,-18.524858,1.036272,0.092757,0.391816
6245195899,-29.414742,-26.935631,-12.807943,1.006622,-0.027140,0.361160
6245215900,-38.820171,-24.583500,-4.659553,1.090003,-0.175951,0.370580
6245235901,-59.281780,-29.501461,33.521278,1.428814,-0.550602,0.438855
6245255900,-39.405598,-19.778471,91.224953,1.194466,-0.731280,0.247261
6245275901,8.546523,28.668961,90.353134,1.240139,-0.654567,0.282299
6245295902,25.997326,22.503006,98.128693,1.054637,-0.523325,0.196138
6245315902,80.447899,34.641808,67.313606,0.741312,-0.217563,-0.049061
6245335903,81.111816,22.325665,29.916876,0.645559,0.138471,-0.003684
6245355903,57.869385,-11.286593,5.925934,0.517673,0.218922,0.137094
6245375904,59.823883,-31.164980,-4.305182,0.610720,0.103940,0.218791
6245395905,68.061935,-18.436890,-0.562846,0.810865,-0.002804,0.310653
6245415906,53.640820,-0.655753,8.617620,0.977014,-0.095581,0.445194
6245435907,34.076221,-1.737147,5.307389,1.086456,-0.103078,0.394691
6245455907,37.760891,-11.960875,9.432946,1.232106,-0.065201,0.322420
6245475909,35.049583,-8.695269,18.017775,1.105998,-0.078671,0.344161
6245495910,28.866474,-6.638513,20.392488,0.966039,-0.225281,0.328951
6245515911,62.426311,3.874216,23.801222,1.004849,-0.063295,0.239649
6245535912,86.620796,13.394420,24.574665,0.992536,0.142391,0.225237
6245555912,72.754189,3.030182,15.854563,0.935669,0.297066,0.353640
6245575913,37.406071,-19.540001,10.867201,0.921838,0.296919,0.468983
6245595914,11.669993,-29.326019,11.021523,0.946983,0.137780,0.451796
6245615913,4.432796,-22.601818,12.969530,1.055885,0.012859,0.389683
6245635914,8.113132,-0.687248,15.262368,1.022126,-0.009500,0.320909
6245655915,10.501359,6.396992,11.951631,0.892092,0.025844,0.330277
6245675915,2.677483,1.320689,2.792386,0.842550,0.049079,0.336810
6245695916,-4.810009,-5.323536,-5.563357,0.837844,0.023573,0.326208
6245715917,-9.690998,-9.497725,-10.826475,0.883271,-0.031700,0.298143
6245735917,-7.088611,-5.680682,-13.173463,0.946367,-0.102212,0.298493
6245755918,-2.586138,-1.993728,-12.853575,0.985762,-0.152430,0.309787
6245775919,0.641274,-0.216740,-12.466009,1.023365,-0.156710,0.307768
6245795920,4.513126,0.646331,-11.461697,1.009152,-0.115340,0.299966
6245815921,8.399146,-0.359179,-10.547771,0.971040,-0.053245,0.294706
6245835923,4.488225,-4.896906,-9.825396,0.931985,-0.033131,0.302031
6245855923,-2.771986,-11.173261,-9.513002,0.977080,-0.047387,0.293764
6245875925,-1.459219,-11.674269,-3.368866,1.084690,-0.061947,0.261595
6245895926,10.555395,-6.743060,13.135650,1.067158,-0.047458,0.225348
6245915926,7.237680,7.109608,7.487299,0.958273,-0.111727,0.299216
6245935927,2.654398,3.872148,-5.973510,0.945956,-0.177345,0.390131
6245955928,7.357759,2.706659,-1.285722,0.957287,-0.084637,0.354888
6245975926,2.393133,7.685326,0.523029,0.892814,-0.057138,0.338765
6245995927,-6.940824,7.073419,-3.854374,0.891215,-0.068929,0.338292
6246015928,-11.878870,6.835147,-7.220042,0.922767,-0.097498,0.326187
6246035929,-12.998950,7.082954,-7.079261,0.984663,-0.134568,0.298555
6246055930,-8.668255,8.028313,-4.511954,0.971306,-0.162798,0.281706
6246075930,-6.003991,6.576007,-2.047757,0.938917,-0.178692,0.298225
6246095931,-6.025808,3.299181,-0.026579,0.945470,-0.179105,0.285436
6246115932,-4.592103,2.941456,2.597864,0.942019,-0.146415,0.252426
6246135933,-4.431193,2.947484,3.980181,0.918146,-0.141523,0.292063
6246155933,-9.761216,-1.823128,6.222361,0.910930,-0.161072,0.338264
6246175934,-14.915928,-4.904665,7.787343,0.922969,-0.202836,0.309017
6246195936,-11.401180,-3.560289,7.149648,0.933433,-0.253888,0.282633
6246215937,-1.397915,-1.123350,5.991004,0.938604,-0.249536,0.295844
6246235938,6.111903,-0.333363,6.599061,0.931279,-0.207261,0.317013
6246255939,4.309859,-2.481698,7.551750,0.927250,-0.175868,0.319500
6246275939,-0.416918,-5.425917,9.387732,0.968211,-0.175251,0.296278
6246295940,-0.325318,-3.822580,9.889200,0.986877,-0.213501,0.312743
6246315941,4.954277,-3.578539,9.810782,0.985227,-0.238787,0.353797
6246335940,8.413421,-4.478017,10.315813,0.986404,-0.238217,0.344496
6246355941,11.885380,-2.471053,9.485327,0.987639,-0.223745,0.328506
6246375942,13.684327,0.602137,9.007217,0.986180,-0.202075,0.303348
6246395942,14.152695,4.762497,7.048388,0.903906,-0.129751,0.293198
6246415943,7.006011,7.063022,2.290622,0.786922,-0.061845,0.323086
6246435944,-10.002996,4.403217,-1.122919,0.764360,-0.067242,0.331789
6246455945,-23.231522,5.711855,-1.531984,0.832738,-0.167496,0.313494
6246475945,-22.164907,11.831733,0.099656,0.874187,-0.285086,0.308056
6246495946,-13.053307,15.917765,0.480274,0.893795,-0.325778,0.314078
6246515947,-3.512549,13.608428,3.167724,0.891844,-0.318908,0.302095
6246535948,3.410477,9.340124,6.050796,0.887962,-0.275480,0.281868
6246555950,3.031399,4.823248,6.832936,0.895046,-0.227035,0.291776
6246575950,-0.445313,-1.082650,3.858653,0.894172,-0.201763,0.328596
6246595951,-5.189606,-7.099508,-0.773591,0.925081,-0.199178,0.339083
6246615952,-8.590858,-8.269688,-3.572104,0.940208,-0.215267,0.329814
6246635953,-8.828560,-6.801344,-4.413601,0.906894,-0.250978,0.332308
6246655953,-5.035859,-6.599590,-3.018363,0.873384,-0.271872,0.328186
6246675954,-1.840312,-6.971178,-0.667882,0.886808,-0.267051,0.322866
6246695953,-2.060659,-6.816704,-0.378801,0.888619,-0.279768,0.326272
6246715954,-0.701256,-8.313735,1.521609,0.903914,-0.302360,0.313820
6246735955,8.649825,-7.071226,3.798659,0.914864,-0.273495,0.314308
6246755956,9.978177,-8.514510,4.133504,0.909396,-0.237120,0.338870
6246775956,7.289210,-10.774097,1.967422,0.917230,-0.226862,0.317720
6246795957,9.816505,-9.903759,-1.163796,0.926814,-0.199156,0.292306
6246815958,8.012255,-8.916936,-3.189050,0.933002,-0.162530,0.281772
6246835958,1.921265,-11.342615,-3.788576,0.923319,-0.170319,0.301223
6246855959,-2.098286,-14.388494,-5.321871,0.945663,-0.195616,0.288154
6246875960,-0.884379,-10.540295,-8.361795,0.937429,-0.169113,0.292043
6246895961,-1.449096,-6.976876,-11.407503,0.941522,-0.114775,0.315513
6246915963,-9.376471,-5.428782,-14.486439,0.940374,-0.089744,0.328708
6246935963,-20.009050,-6.309828,-20.125780,0.918490,-0.105646,0.328549
6246955964,-29.560179,-7.501389,-26.293007,0.958606,-0.110982,0.281876
6246975965,-36.101112,-1.142438,-31.900263,0.973214,-0.081425,0.247181
6246995966,-40.516857,7.629872,-35.407951,0.937812,-0.089438,0.308154
6247015967,-46.207478,5.806415,-34.172997,0.932624,-0.096655,0.336125
6247035967,-52.348167,3.983948,-32.996784,0.912813,-0.109383,0.300364
6247055967,-58.020401,3.248259,-35.558914,0.917187,-0.116646,0.269414
6247075967,-63.998642,2.556515,-40.316051,0.958885,-0.124476,0.235019
6247095968,-73.966034,1.914229,-45.047592,0.991356,-0.126039,0.186660
6247115969,-76.639061,-0.185818,-47.328461,0.944624,-0.159001,0.189888
6247135969,-64.630005,-6.225581,-46.801186,0.963483,-0.214079,0.231333
6247155970,-54.267139,-7.073531,-45.803570,0.971697,-0.221116,0.221855
6247175971,-50.379597,-11.848876,-37.417614,0.971866,-0.240240,0.232458
6247195972,-37.761929,-19.732014,-23.114769,1.030923,-0.349400,0.219588
6247215973,-9.873862,-14.545614,-9.343685,1.108701,-0.453955,0.175184
6247235973,22.016394,9.088971,-3.836199,1.106237,-0.396187,0.161774
6247255974,47.000366,29.253239,-2.673849,0.998956,-0.205782,0.196627
6247275976,53.782459,31.299109,-4.606338,0.930262,-0.023722,0.232818
6247295978,38.604252,23.555885,-6.401739,0.894670,0.084097,0.243847
6247315978,12.363618,12.165561,-8.829212,0.875425,0.111693,0.250709
6247335979,-11.527215,-0.859636,-10.515274,0.884927,0.066533,0.234441
6247355979,-23.743616,-10.157803,-8.791064,0.940853,-0.017083,0.210565
6247375984,-22.208504,-13.665256,-2.983885,0.983524,-0.104651,0.195830
6247395981,-11.933797,-12.558298,1.835338,0.975527,-0.184847,0.220972
6247415981,1.746886,-11.990484,4.293251,0.961109,-0.197842,0.250763
6247435981,12.932461,-11.510699,5.995428,0.972434,-0.140470,0.230110
6247455981,19.524826,-7.838037,6.146249,0.968756,-0.088955,0.216238
6247475982,21.066097,-5.877124,4.093698,0.958207,-0.052102,0.228518
6247495983,16.951693,-6.199535,1.165412,0.961043,-0.016707,0.247706
6247515984,8.454901,-7.488503,-0.750561,0.967416,0.000542,0.268211
6247535984,-1.866240,-9.339499,-0.033883,1.007103,-0.011523,0.258944
6247555985,-8.247652,-7.464750,4.060012,1.057685,-0.045706,0.219387
6247575986,-8.501348,1.639277,7.120430,1.005633,-0.101752,0.215164
6247595987,-9.010794,5.358171,6.368764,0.979900,-0.213963,0.238338
6247615988,2.196516,7.116368,9.159351,1.086586,-0.265694,0.205454
6247635990,34.049683,22.211876,19.713678,1.038971,-0.260861,0.243941
6247655990,60.198498,25.747936,33.355797,0.957740,-0.239208,0.353527
6247675991,55.861355,21.616737,47.346718,1.004001,-0.175891,0.349007
6247695992,52.135571,22.792704,60.117695,1.027032,-0.168954,0.296135
6247715993,57.754387,30.995188,69.569214,1.043016,-0.166821,0.259229
6247735993,56.577175,40.654663,81.583344,0.998226,-0.143451,0.333126
6247755994,49.159782,39.126831,89.542671,0.950202,-0.220575,0.399321
6247775993,48.401501,36.394379,93.388580,0.940111,-0.301660,0.352850
6247795994,51.927807,35.006329,95.438179,0.980521,-0.345315,0.309687
6247815995,52.092690,34.321873,95.919296,0.995920,-0.342452,0.291190
6247835996,56.164886,38.678894,99.034653,0.970902,-0.277392,0.341020
6247855997,51.375652,38.379837,103.936668,0.919350,-0.211740,0.399239
6247875997,43.400635,32.271397,107.108917,0.891864,-0.218597,0.393960
6247895998,32.708523,26.638697,102.783279,0.842512,-0.289166,0.414341
6247915999,24.904840,20.902399,94.356468,0.805043,-0.319244,0.404119
6247935999,28.810766,20.294216,85.700935,0.773232,-0.324903,0.361743
6247956000,29.971819,20.098497,75.551407,0.740250,-0.310429,0.346047
6247976002,19.235023,18.178635,69.461281,0.720592,-0.300256,0.360834
6247996003,5.116614,11.626984,55.732296,0.628067,-0.286348,0.382493
6248016004,-0.230896,-8.243330,41.218071,0.569944,-0.300966,0.342089
6248036005,2.091094,-21.157776,30.079784,0.604464,-0.364410,0.349431
6248056005,9.386209,-25.868298,18.554821,0.633620,-0.409611,0.391193
6248076006,10.423421,-29.102934,2.560545,0.647525,-0.359217,0.394937
6248096006,7.546954,-26.139381,-11.095755,0.656145,-0.284394,0.427260
6248116024,-3.241908,-29.219028,-19.011816,0.679827,-0.282743,0.463321
6248136006,-19.803196,-38.897560,-22.957937,0.742587,-0.306392,0.441056
6248156007,-37.787788,-49.431171,-27.987982,0.784569,-0.291519,0.405493
6248176008,-55.943192,-57.625622,-30.231300,0.866163,-0.320739,0.415612
6248196009,-58.585632,-57.922390,-18.674492,0.940259,-0.468112,0.429203
6248216009,-50.608124,-47.830540,-8.155606,0.921972,-0.576753,0.382526
6248236010,-40.476990,-35.923626,-9.289369,0.892228,-0.544687,0.324085
6248256011,-42.563946,-28.740244,-8.772845,1.055510,-0.511805,0.322761
6248276012,-44.026806,-21.510172,3.701969,1.027733,-0.594470,0.311163
6248296012,-23.617716,-11.536721,-3.579844,0.922841,-0.566070,0.310857
6248316013,-11.529776,1.151758,-18.990042,0.860533,-0.381986,0.269181
6248336015,-12.838293,4.748215,-30.072601,0.845906,-0.194217,0.225375
6248356016,-4.263370,9.771159,-28.591875,0.929994,-0.166941,0.305799
6248376017,-6.426476,15.318661,-12.739727,0.981081,-0.241136,0.412170
6248396018,-31.307005,12.986172,-3.101134,0.931422,-0.236633,0.443618
6248416023,-58.753342,9.960579,-7.848419,0.864063,-0.195277,0.413298
6248436019,-74.078079,8.864008,-13.480547,0.891464,-0.259161,0.341126
6248456020,-72.945251,16.659876,-17.009157,0.931142,-0.368479,0.269502
6248476019,-64.602913,28.062061,-21.156998,0.925728,-0.419020,0.261741
6248496020,-60.271183,35.148640,-27.683540,0.888227,-0.366881,0.292214
6248516021,-61.964180,38.163033,-39.544434,0.865234,-0.275447,0.314021
6248536022,-66.083031,43.927940,-46.801521,0.923718,-0.243808,0.305640
6248556022,-73.856842,55.292610,-47.471073,0.953063,-0.218187,0.284562
6248576023,-82.190865,54.903339,-52.553196,0.922647,-0.187127,0.262799
6248596024,-103.351196,42.131397,-57.133018,0.909737,-0.166444,0.221577
6248616024,-123.185905,39.955681,-56.568996,0.957533,-0.193794,0.229776
6248636025,-121.673798,47.731697,-64.104095,0.952798,-0.173845,0.200141
6248656026,-116.392975,51.110039,-75.474136,0.938338,-0.173681,0.164784
6248676026,-115.317947,53.158817,-80.207535,0.969929,-0.255795,0.184424
6248696029,-115.355507,55.753788,-87.833649,0.936467,-0.209423,0.160936
6248716030,-108.344543,56.069782,-104.053688,0.907485,-0.129102,0.140528
6248736030,-109.569153,49.497612,-127.439453,0.915695,-0.042807,0.173491
6248756031,-111.536339,45.071613,-145.633621,1.008774,-0.083991,0.196770
6248776032,-116.811050,52.128647,-157.716858,1.064989,-0.068394,0.239239
6248796032,-105.195572,60.213207,-160.063553,1.105379,-0.118948,0.215794
6248816033,-108.437386,61.313663,-154.977386,1.114824,-0.028689,0.229005
6248836032,-121.051735,53.814968,-142.111282,1.121853,-0.022634,0.160662
6248856033,-119.476395,51.614807,-129.045258,1.045105,-0.022144,0.132061
6248876034,-126.735611,47.030697,-127.213081,1.027697,0.001398,0.137818
6248896035,-137.485733,38.248108,-126.858185,0.997658,0.034911,0.097503
6248916036,-134.316925,28.475027,-121.250443,0.939506,0.085932,0.031917
6248936036,-138.527878,25.386757,-123.808586,0.964136,0.074512,0.064449
6248956037,-147.153427,16.237654,-127.170204,1.010241,-0.072671,0.189587
6248976038,-124.836891,5.161438,-121.309654,1.047538,-0.173069,0.293121
6248996038,-90.753281,-0.009885,-99.586205,1.107109,-0.235503,0.230190
6249016039,-49.393749,-2.677080,-72.831001,1.146272,-0.263150,0.166701
6249036040,-26.889725,1.217019,-59.819801,1.103229,-0.173807,0.279554
6249056042,-35.669762,4.012470,-55.947102,1.023609,-0.020620,0.416325
6249076043,-61.769543,0.690430,-49.930939,0.966494,0.093912,0.438984
6249096043,-89.348801,-4.293406,-43.079750,0.945199,0.091997,0.387991
6249116044,-103.356750,-8.607962,-39.842480,0.936094,0.047098,0.343346
6249136045,-92.759422,-11.888821,-35.567192,0.924386,-0.001886,0.295271
6249156045,-65.355080,-12.527435,-34.997936,0.894008,-0.025468,0.279456
6249176046,-37.380711,-11.612235,-37.698444,0.873960,0.029896,0.262532
6249196046,-24.581257,-8.142427,-39.687668,0.861400,0.166087,0.263870
6249216046,-23.847624,-10.972847,-41.205658,0.864295,0.227223,0.341315
6249236047,-32.468575,-16.436546,-39.142887,0.922323,0.253019,0.387659
6249256048,-44.204624,-16.441433,-32.584229,0.925416,0.253895,0.389957
6249276049,-47.292183,-16.775772,-26.055977,0.905156,0.203314,0.395456
6249296049,-49.057217,-16.422634,-20.099236,0.914350,0.185392,0.395459
6249316050,-51.201950,-17.261635,-14.933286,0.917340,0.191047,0.388469
6249336051,-52.803360,-17.574921,-11.155278,0.945830,0.236669,0.353575
6249356051,-60.184345,-18.964819,-7.908343,0.928121,0.294238,0.322685
6249376052,-78.908707,-23.952999,-3.179805,0.883994,0.251169,0.315970
6249396053,-92.017815,-30.249559,0.700688,0.875604,0.098572,0.286943
6249416056,-79.440231,-32.573551,5.334960,0.893435,-0.015396,0.239160
6249436056,-48.555080,-29.774010,9.467216,0.897348,-0.041138,0.231203
6249456057,-15.328738,-28.428102,10.707618,0.879420,0.003631,0.264815
6249476058,-2.544451,-36.317291,7.554056,0.900237,0.072769,0.305374
6249496059,-6.645288,-40.145870,3.288919,0.976496,0.129059,0.356176
6249516059,-7.403710,-30.657244,0.255233,1.053749,0.129802,0.370078
6249536060,-1.909639,-20.210360,-1.185101,1.027470,0.160358,0.376367
6249556059,-6.640656,-18.617302,-4.142052,0.977109,0.171438,0.351882
6249576060,-18.946207,-23.672007,-6.502315,0.923368,0.184257,0.310462
6249596060,-30.498077,-30.498407,-10.613434,0.948073,0.225159,0.270403
6249616061,-37.463886,-23.482019,-17.741598,1.056521,0.222484,0.231400
6249636062,-33.177532,-7.080868,-18.458672,1.048200,0.160625,0.228801
6249656063,-27.325108,-14.267086,-9.189239,0.931164,0.084495,0.255884
6249676063,-35.516296,-29.414446,-3.604037,0.882765,0.077598,0.248479
6249696064,-48.954723,-27.774954,-14.888293,0.867719,0.087490,0.231391
6249716065,-42.967945,-14.445775,-33.913605,0.904352,0.057595,0.229392
6249736066,-25.814674,-4.802905,-35.593536,1.033394,-0.050671,0.217577
6249756066,-14.937043,4.826910,-17.798040,1.017509,-0.129737,0.195646
6249776069,-2.968651,4.959823,-3.414577,0.974364,-0.078097,0.201989
6249796069,0.373075,1.290660,1.511161,0.974170,-0.017333,0.185273
6249816070,-3.303029,-1.988321,2.507932,0.999312,-0.020323,0.127923
6249836071,9.008678,-2.099334,4.101253,1.019007,-0.037268,0.091074
6249856072,31.164175,0.189524,6.292272,0.997162,-0.024225,0.125225
6249876072,44.999626,-3.842322,10.085014,0.950180,0.003958,0.189174
6249896073,48.220631,-8.985403,16.074291,0.963414,0.039926,0.206633
6249916072,47.181297,-8.376290,21.768179,0.972106,0.061150,0.197090
6249936073,47.141464,-5.770097,24.667091,0.964546,0.077876,0.217554
6249956074,43.687943,-3.716760,24.696360,0.967712,0.091274,0.231063
6249976075,38.813889,-0.167215,22.612715,0.980335,0.092949,0.227059
6249996075,38.712193,2.833757,20.228584,0.968367,0.115310,0.209173
6250016076,38.784519,2.103887,19.099260,0.962353,0.136131,0.194107
6250036077,37.563511,0.484687,17.789892,1.036882,0.138997,0.212600
6250056078,33.917019,1.977399,18.476126,1.061513,0.118722,0.210788
6250076078,45.940430,1.647256,25.201307,1.006041,0.118743,0.206307
6250096079,48.624069,-2.674709,31.987247,1.028879,0.159597,0.229990
6250116080,43.355270,-6.352299,39.710918,1.064089,0.126848,0.274267
6250136082,44.030952,8.616739,46.882137,0.992954,-0.015657,0.254031
6250156083,58.867592,26.103617,53.126137,0.911953,-0.049966,0.283844
6250176084,51.950901,20.817690,59.975506,0.951722,0.063446,0.295546
6250196085,19.148581,9.951215,64.513824,1.002048,0.132440,0.274560
6250216085,1.954784,-2.119901,68.674721,1.047572,0.019378,0.248478
6250236086,-0.193093,0.467538,66.309410,0.999122,-0.144797,0.157837
6250256086,13.679517,15.602082,58.144943,0.957033,-0.249924,0.149907
6250276086,38.731525,20.558867,61.898899,0.953072,-0.272029,0.238322
6250296087,47.560257,12.410301,67.731796,0.946386,-0.198041,0.259466
6250316087,38.644020,6.160729,66.258186,0.987121,-0.198718,0.215373
6250336088,32.514942,7.263201,63.537827,0.974437,-0.189889,0.184643
6250356089,37.963741,7.818916,63.358437,0.924463,-0.155048,0.194824
6250376089,41.625320,7.891135,63.067806,0.908515,-0.148064,0.227303
6250396090,32.309750,4.218028,62.815437,0.907044,-0.200857,0.233116
6250416091,28.544596,1.611993,62.548073,0.911548,-0.247995,0.210990
6250436092,30.516586,1.150274,59.577419,0.915452,-0.215908,0.178428
6250456092,32.171043,-0.164558,54.978226,0.903970,-0.161039,0.158770
6250476093,34.835930,-4.327591,53.366261,0.918211,-0.110333,0.178476
6250496095,27.791973,-9.674364,50.413338,0.865110,-0.135186,0.237067
6250516096,27.717356,-23.384663,43.735218,0.813870,-0.224352,0.276414
6250536097,25.823374,-23.365532,23.909517,0.878426,-0.238408,0.177580
6250556097,29.308971,-15.423790,10.619552,0.997723,-0.192676,0.132379
6250576098,42.474678,-12.801771,16.680191,1.021816,-0.251945,0.238067
