Timestamp (us),Gyroscope X (deg/s),Gyroscope Y (deg/s),Gyroscope Z (deg/s),Accelerometer X (g),Accelerometer Y (g),Accelerometer Z (g)
2311998628,-0.082287,0.262338,0.209788,-0.310252,-0.773605,-0.546840
2312018658,0.000706,0.048236,0.150536,-0.309783,-0.776725,-0.543392
2312038687,0.046777,0.261212,0.262023,-0.309740,-0.781285,-0.542429
2312058716,-0.150075,0.443981,0.252129,-0.310643,-0.781096,-0.542625
2312078744,-0.157427,0.305539,0.138992,-0.310387,-0.777436,-0.545782
2312098773,0.070410,0.189572,0.147336,-0.312249,-0.773592,-0.546872
2312118803,0.236150,-0.207612,-0.001137,-0.312760,-0.775882,-0.544254
2312138832,0.258926,-0.161960,-0.130238,-0.311006,-0.779640,-0.541978
2312158861,0.160066,-0.108198,-0.221258,-0.311368,-0.778365,-0.541516
2312178890,0.151206,-0.282605,-0.196506,-0.308315,-0.780759,-0.540393
2312198920,-0.138252,-0.234070,0.000345,-0.307049,-0.784073,-0.535747
2312218949,-0.501938,-0.033585,0.096958,-0.308699,-0.783887,-0.534676
2312238978,-0.675419,0.013381,0.171936,-0.310480,-0.779196,-0.540596
2312259007,-0.931194,0.090340,0.064679,-0.311366,-0.780636,-0.542632
2312279037,-1.073923,-0.076284,0.081077,-0.311557,-0.782398,-0.536991
2312299066,-1.434260,0.244772,-0.005314,-0.311807,-0.780571,-0.537618
2312319096,-1.666393,0.383145,0.250882,-0.310810,-0.777728,-0.542049
2312339126,-1.867165,0.757639,0.694159,-0.295464,-0.780763,-0.537810
2312359155,-1.981886,1.715856,1.282172,-0.325884,-0.775809,-0.558435
2312379184,-1.483350,1.167159,0.655226,-0.311695,-0.771799,-0.558258
2312399213,-0.934295,0.414746,0.190632,-0.306143,-0.767252,-0.562965
2312419242,-0.134615,0.317721,0.100350,-0.313780,-0.765392,-0.561428
2312439272,0.230273,0.299869,0.055075,-0.311762,-0.771221,-0.547938
2312459301,0.236840,0.268917,0.130915,-0.303992,-0.777404,-0.542482
2312479331,0.151537,-0.020369,0.132978,-0.306180,-0.774362,-0.546324
2312499358,0.226717,-0.173026,0.058171,-0.313450,-0.774195,-0.551645
2312519387,0.400926,-0.158214,0.035383,-0.310365,-0.779063,-0.547896
2312539417,0.430921,-0.143439,-0.108827,-0.315625,-0.775997,-0.552701
2312559446,0.786427,-0.426891,-0.333226,-0.314159,-0.768155,-0.555800
2312579475,1.027539,-0.519012,-0.498041,-0.312174,-0.776052,-0.546985
2312599504,0.925554,-0.791257,-0.623278,-0.309534,-0.778188,-0.542580
2312619534,0.794641,-0.644058,-0.615449,-0.310546,-0.779913,-0.542521
2312639563,0.670744,-0.778920,-0.650732,-0.309933,-0.777530,-0.545775
2312659592,0.729049,-1.036124,-0.737738,-0.307835,-0.777176,-0.546286
2312679622,0.558810,-1.290756,-0.635352,-0.311677,-0.779434,-0.545456
2312699651,0.778295,-1.419119,-1.003685,-0.316181,-0.777576,-0.546882
2312719681,0.806435,-1.682584,-1.256303,-0.308874,-0.779762,-0.539023
2312739711,0.363219,-1.522747,-0.883472,-0.300897,-0.778941,-0.532039
2312759741,-0.174918,-0.281057,0.062415,-0.309310,-0.782239,-0.535493
2312779770,-0.643624,0.743452,0.788136,-0.298734,-0.787227,-0.534819
2312799799,-1.020096,1.680921,1.459585,-0.310611,-0.783628,-0.545843
2312819828,-0.812148,1.629346,1.327405,-0.321946,-0.772187,-0.558976
2312839857,-0.157276,0.828112,0.490474,-0.316185,-0.764452,-0.563924
2312859887,0.890657,0.393602,0.107218,-0.310462,-0.767608,-0.559752
2312879916,1.419801,0.290624,0.009602,-0.311345,-0.773145,-0.546397
2312899954,1.279203,0.359627,0.152884,-0.310144,-0.784387,-0.541186
2312919973,0.836746,0.879102,0.420608,-0.306389,-0.787520,-0.538872
2312940002,0.720244,0.664219,0.368131,-0.303587,-0.777357,-0.550966
2312960032,1.256708,0.332527,0.286995,-0.308454,-0.769434,-0.561288
2312980060,2.247623,0.014060,0.130288,-0.313639,-0.770950,-0.561295
2313000090,2.818435,-0.362412,-0.139244,-0.313143,-0.775126,-0.548453
2313020119,2.962377,-0.636238,-0.227374,-0.316335,-0.777053,-0.542589
2313040149,3.013012,-0.743547,-0.559818,-0.312932,-0.779999,-0.540917
2313060178,3.020921,-0.736257,-0.643278,-0.310759,-0.783046,-0.536072
2313080207,2.633382,-0.657987,-0.613795,-0.306360,-0.788758,-0.529662
2313100236,1.933269,-0.584834,-0.334209,-0.303468,-0.795934,-0.520461
2313120266,0.914550,-0.212633,0.094353,-0.307684,-0.795741,-0.517789
2313140295,-0.011950,0.295657,0.392922,-0.309262,-0.793802,-0.520535
2313160326,-0.801690,0.688667,0.578793,-0.311536,-0.786455,-0.528538
2313180355,-1.204409,0.858713,0.713648,-0.311308,-0.786712,-0.531641
2313200384,-1.728102,1.212154,0.869652,-0.311737,-0.790913,-0.529313
2313220413,-2.236894,1.466464,0.996167,-0.314367,-0.788715,-0.528514
2313240443,-2.700581,1.583475,1.108691,-0.312272,-0.785239,-0.533195
2313260472,-3.026958,1.798660,1.205294,-0.308425,-0.784342,-0.534950
2313280501,-3.459016,2.487518,1.654228,-0.306989,-0.785448,-0.534389
2313300531,-4.028395,3.093504,2.141702,-0.306521,-0.791690,-0.526497
2313320559,-5.175610,3.870717,2.839757,-0.308172,-0.795354,-0.521262
2313340588,-6.633735,4.847479,3.535987,-0.309357,-0.793622,-0.520170
2313360617,-7.962005,6.014020,4.283761,-0.310126,-0.788751,-0.526893
2313380647,-9.184993,6.951886,5.101746,-0.310127,-0.784845,-0.525031
2313400676,-10.710771,8.203380,5.901786,-0.311267,-0.786855,-0.522695
2313420705,-12.260443,9.165657,6.673914,-0.312215,-0.785525,-0.531188
2313440735,-13.787395,10.020895,7.340803,-0.301710,-0.784170,-0.540500
2313480793,-17.268860,12.155861,9.739885,-0.305129,-0.783716,-0.536443
2313500822,-19.548964,13.367155,10.979662,-0.313237,-0.778192,-0.537984
2313520851,-21.698315,14.889604,12.148649,-0.316727,-0.773121,-0.544750
2313540880,-24.296724,16.583080,13.672340,-0.306434,-0.779838,-0.544188
2313560910,-27.564823,18.425970,15.565979,-0.303047,-0.780212,-0.546145
2313580941,-30.886383,20.460478,17.768848,-0.300850,-0.771521,-0.554976
2313600970,-34.102310,22.304159,19.980953,-0.303206,-0.762467,-0.574467
2313620999,-37.310997,24.369837,22.577885,-0.300164,-0.753045,-0.584738
2313641029,-40.603077,26.458639,25.129091,-0.303949,-0.751978,-0.591910
2313661058,-44.504478,28.628208,28.103924,-0.288631,-0.746234,-0.593526
2313681087,-48.909988,30.680519,31.632988,-0.288533,-0.743530,-0.604363
2313701116,-53.975574,33.659771,35.881836,-0.293957,-0.743454,-0.611663
2313721146,-59.424377,36.155003,40.460587,-0.290408,-0.731495,-0.635870
2313741173,-64.722389,38.467293,45.200176,-0.284989,-0.704049,-0.662368
2313761203,-69.620537,40.107998,50.051750,-0.279808,-0.674772,-0.690223
2313781232,-74.178734,41.175850,54.855217,-0.273458,-0.645234,-0.717235
2313801261,-78.008148,41.484291,59.066429,-0.280558,-0.614403,-0.748653
2313821290,-81.611710,41.067692,63.063957,-0.272133,-0.581216,-0.778975
2313841320,-84.577240,40.266174,66.776909,-0.265489,-0.541792,-0.814563
2313861349,-87.089661,38.433510,70.149948,-0.267445,-0.502647,-0.840160
2313881378,-88.316666,35.813896,72.408081,-0.262871,-0.417043,-0.873438
2313901408,-88.387924,32.974045,74.372910,-0.257321,-0.409068,-0.888064
2313921437,-89.652138,30.002199,75.951584,-0.259928,-0.387435,-0.908995
2313941466,-90.598343,27.007084,77.902130,-0.258566,-0.334425,-0.925737
2313961495,-91.448746,24.534319,81.417831,-0.264626,-0.294022,-0.943812
2313981525,-92.532135,21.731339,83.700302,-0.260156,-0.290341,-0.955117
2314001556,-94.926376,18.693945,86.643768,-0.247093,-0.260277,-0.969964
2314041614,-100.527634,11.606225,93.350090,-0.241564,-0.175954,-0.971925
2314061643,-102.583908,7.592932,96.354965,-0.236296,-0.101618,-0.979094
2314081673,-104.124611,3.180901,99.302811,-0.234336,-0.035884,-0.975989
2314101701,-104.507614,-1.568019,101.222855,-0.238012,0.033493,-0.982437
2314121731,-104.171791,-6.523708,101.636154,-0.230898,0.075807,-0.982843
2314141760,-104.012215,-11.232597,100.462631,-0.232245,0.115111,-0.989257
2314161788,-103.740875,-15.527102,98.193863,-0.223722,0.168846,-0.981683
2314181817,-102.721062,-19.767883,94.969650,-0.219896,0.250715,-0.951193
2314201846,-99.914886,-23.245913,90.496437,-0.225260,0.334632,-0.918551
2314221876,-95.965263,-26.167450,85.806808,-0.229191,0.390791,-0.891347
2314241905,-91.600998,-28.453306,80.664688,-0.239412,0.418362,-0.875464
2314261934,-87.734024,-29.716906,75.415184,-0.244247,0.450032,-0.865481
2314281964,-83.468910,-30.419840,70.017105,-0.255701,0.512807,-0.824461
2314301993,-76.987297,-29.869957,62.645813,-0.240510,0.628650,-0.727284
2314322022,-66.375099,-27.983742,53.991501,-0.247914,0.646984,-0.692452
2314342051,-59.377922,-29.055178,51.971874,-0.270171,0.578863,-0.780630
2314362080,-59.165207,-32.235565,52.711403,-0.256761,0.405529,-0.921512
2314382110,-69.937752,-37.399254,57.533859,-0.277718,0.289007,-1.068361
2314402140,-81.458801,-40.904739,60.825611,-0.270389,0.443163,-0.909608
2314422170,-86.421959,-45.618637,61.416286,-0.215742,0.553684,-0.800884
2314442199,-87.544518,-49.429260,60.507557,-0.216730,0.637413,-0.740328
2314462228,-87.383286,-53.444283,59.692154,-0.246580,0.636309,-0.753696
2314482258,-90.710289,-58.344196,59.602795,-0.255828,0.596667,-0.819032
2314502287,-97.977242,-64.444412,60.802971,-0.270786,0.583491,-0.855549
2314522316,-106.930077,-71.944016,61.968605,-0.250543,0.617193,-0.845870
2314542345,-115.797386,-79.789932,62.136345,-0.205616,0.671126,-0.785665
2314562381,-122.706902,-87.657784,61.129990,-0.188783,0.752033,-0.681573
2314582403,-126.772110,-95.105965,58.112221,-0.178915,0.804691,-0.615194
2314602432,-130.057877,-102.096024,54.476841,-0.174321,0.826035,-0.562428
2314622461,-133.778625,-108.638939,49.571274,-0.172172,0.866735,-0.530429
2314642490,-137.565872,-114.977104,44.330345,-0.168268,0.903551,-0.490495
2314662520,-141.625809,-120.214325,37.836578,-0.138316,0.934756,-0.406003
2314682549,-144.165421,-124.465790,30.342012,-0.111626,0.942138,-0.309460
2314702579,-145.517990,-127.203621,22.122595,-0.112468,0.983773,-0.184198
2314722608,-144.170151,-129.895950,13.570483,-0.100800,0.972212,-0.087709
2314742637,-142.983307,-132.991257,4.915531,-0.108349,1.007712,-0.012551
2314762666,-142.264038,-135.285355,-3.905600,-0.116563,1.016014,-0.006035
2314782695,-143.359863,-135.034363,-12.506351,-0.109641,1.022386,0.018695
2314802724,-144.982254,-135.451263,-21.351955,-0.081420,0.993710,0.111369
2314822755,-145.719452,-135.600967,-30.836277,-0.057419,0.975082,0.188091
2314842784,-145.933716,-134.452515,-40.528381,-0.077166,0.939582,0.268054
2314862814,-145.214706,-131.648529,-49.892738,-0.094199,0.911195,0.375150
2314882843,-143.697617,-128.351730,-58.578457,-0.079099,0.884114,0.442520
2314922902,-140.809967,-119.156624,-74.425041,-0.079916,0.820436,0.570733
2314942931,-138.588440,-113.201035,-81.328217,-0.084195,0.747107,0.654706
2314962960,-135.035812,-106.221283,-87.147499,-0.112836,0.677743,0.724900
2314982994,-130.283112,-98.474655,-91.645790,-0.115350,0.625946,0.769479
2315003017,-126.085457,-90.595100,-95.971062,-0.124423,0.591883,0.794396
2315023047,-122.561577,-83.074081,-99.323135,-0.119601,0.556803,0.806931
2315043076,-119.801674,-76.049706,-102.171013,-0.146063,0.503411,0.837869
2315063105,-116.533318,-68.400307,-103.962372,-0.153079,0.444909,0.865332
2315083134,-113.013153,-61.074078,-104.120750,-0.160239,0.385049,0.907296
2315103163,-108.871788,-53.274940,-103.009010,-0.185042,0.323207,0.932796
2315123193,-103.642303,-45.971569,-100.474716,-0.188798,0.227572,0.967273
2315143222,-97.435226,-38.914703,-97.270660,-0.219551,0.157163,0.968678
2315163251,-88.963409,-30.943901,-90.335197,-0.201962,0.001520,0.992813
2315183281,-77.173462,-25.692116,-87.712280,-0.258325,-0.029784,1.000828
2315203310,-71.698006,-23.009285,-89.377480,-0.241752,0.228265,0.951629
2315223339,-74.615280,-19.549307,-92.728905,-0.226072,0.414400,0.927130
2315243370,-85.300545,-17.540928,-98.596741,-0.198638,0.514744,0.919192
2315263399,-95.567139,-13.960745,-102.680618,-0.191402,0.288191,0.946337
2315283429,-98.384636,-9.875490,-105.544403,-0.196497,0.044857,0.958976
2315303458,-97.526878,-5.422859,-106.544296,-0.173867,-0.012472,0.972234
2315323487,-96.974419,-0.952118,-107.165390,-0.207519,0.001863,0.970906
2315343517,-98.980972,3.880529,-108.321510,-0.210029,0.031880,0.965026
2315363546,-102.434036,9.578761,-110.137665,-0.242794,-0.016254,0.960032
2315403604,-105.820679,22.126854,-109.812462,-0.220716,-0.224740,0.934361
2315423632,-104.533478,27.529013,-108.446938,-0.213414,-0.307032,0.917833
2315443661,-102.281944,32.919670,-106.716896,-0.205416,-0.375430,0.892134
2315463691,-99.654388,37.831020,-104.323013,-0.215851,-0.396986,0.881996
2315483720,-98.516457,43.169971,-103.882027,-0.231118,-0.433666,0.877940
2315503749,-97.659286,47.951984,-101.995911,-0.217584,-0.439051,0.880940
2315523778,-98.389397,52.908791,-100.430481,-0.195687,-0.444779,0.871383
2315543808,-100.409538,59.543701,-99.857849,-0.188634,-0.490722,0.869886
2315563837,-102.592545,65.563606,-99.075417,-0.176247,-0.523991,0.828971
2315583866,-104.346840,71.532532,-96.935150,-0.177370,-0.563869,0.795627
2315603895,-105.728348,77.323410,-95.088913,-0.185922,-0.639216,0.745127
2315623925,-106.027687,82.968475,-91.891319,-0.195475,-0.698718,0.696219
2315643954,-104.969673,87.127327,-87.118660,-0.201218,-0.753658,0.626234
2315663985,-102.783646,90.650703,-81.665321,-0.216566,-0.805998,0.573737
2315684014,-100.053986,93.448929,-75.955421,-0.231928,-0.834143,0.527306
2315704043,-97.030136,95.690025,-70.225540,-0.243504,-0.864287,0.475806
2315724072,-93.583908,97.145042,-64.435776,-0.251212,-0.882749,0.431963
2315744102,-90.473228,98.083138,-58.975452,-0.262103,-0.897718,0.401703
2315764131,-87.357788,98.412636,-53.403858,-0.256194,-0.911574,0.365792
2315784160,-84.170143,97.935455,-47.666229,-0.256234,-0.939153,0.315142
2315804190,-80.480453,97.126686,-42.410839,-0.270995,-0.962228,0.273150
2315824240,-76.141953,95.371841,-36.790825,-0.278759,-0.973002,0.207284
2315844247,-70.508369,92.071289,-31.543901,-0.294484,-0.985351,0.138901
2315864276,-64.196648,88.559265,-27.000002,-0.306350,-0.988007,0.106822
2315884305,-57.645378,82.848618,-21.724812,-0.310194,-1.009008,0.041107
2315904335,-50.994453,80.438217,-19.540455,-0.354414,-0.966511,0.095649
2315924364,-48.506435,75.463028,-17.002962,-0.299534,-0.927480,0.186187
2315944393,-51.798187,76.068787,-14.075366,-0.249958,-0.916088,0.336455
2315964423,-58.002991,80.543053,-12.971034,-0.298793,-0.910262,0.216303
2315984452,-62.768372,88.377823,-10.764489,-0.213883,-0.909437,0.250191
2316004481,-68.951935,95.421669,-8.316944,-0.307694,-0.949105,0.169878
2316024510,-71.754227,96.648651,-5.492893,-0.286239,-0.959773,0.070070
2316044540,-73.831604,96.906174,-2.349483,-0.257069,-0.976616,0.037432
2316064569,-75.891273,98.032387,1.105089,-0.262921,-0.975303,0.005761
2316084600,-78.308006,99.366592,4.732131,-0.258667,-0.972556,-0.032853
2316104629,-80.433945,101.079506,8.257566,-0.259877,-0.965749,-0.074440
2316124658,-81.683571,102.227905,12.796586,-0.257064,-0.965283,-0.126519
2316144687,-82.257515,103.289642,17.533794,-0.254375,-0.948375,-0.186481
2316184746,-82.839211,102.341713,26.746155,-0.263428,-0.926843,-0.277266
2316204775,-82.797012,101.290413,31.091970,-0.269628,-0.911737,-0.315297
2316224805,-82.867973,100.452835,35.435932,-0.273075,-0.906392,-0.353830
2316244851,-83.263519,100.547066,40.211685,-0.263138,-0.897128,-0.375493
2316264862,-83.469849,100.518906,45.102280,-0.263835,-0.886420,-0.430729
2316284891,-83.949165,100.560219,49.855686,-0.240862,-0.862160,-0.460715
2316304920,-83.942039,98.566078,54.452026,-0.251319,-0.860164,-0.511169
2316324950,-84.345345,96.382912,58.776802,-0.246940,-0.840573,-0.532736
2316344979,-85.401283,94.790489,63.452663,-0.245748,-0.819776,-0.570594
2316365008,-86.094749,92.419022,67.915344,-0.251079,-0.782762,-0.602017
2316385037,-86.399284,89.876144,71.818596,-0.254557,-0.753831,-0.639511
2316405066,-86.622658,86.555740,75.508522,-0.252233,-0.706860,-0.668252
2316425096,-86.314682,82.881783,79.027298,-0.257391,-0.670385,-0.716841
2316445125,-85.436668,78.761688,82.057243,-0.253606,-0.639807,-0.747719
2316465154,-84.238655,74.409897,84.596458,-0.258851,-0.593041,-0.780238
2316485183,-82.400963,69.633278,86.305519,-0.250914,-0.541511,-0.800082
2316505214,-80.212776,64.380157,87.199883,-0.267555,-0.508286,-0.841493
2316525243,-77.375519,59.365295,87.539070,-0.267123,-0.463636,-0.860609
2316545273,-74.386292,54.464367,88.044159,-0.269615,-0.434726,-0.879828
2316565302,-71.416527,49.766502,87.789352,-0.265165,-0.397304,-0.897851
2316585331,-67.957565,45.330914,87.070053,-0.266432,-0.358153,-0.909469
2316605361,-64.292496,40.816940,86.002747,-0.280637,-0.322686,-0.931465
2316625390,-60.417042,36.770542,83.968674,-0.280512,-0.299929,-0.929153
2316645419,-57.338757,32.696625,81.547760,-0.275728,-0.262439,-0.927815
2316665447,-52.883034,28.682873,78.816147,-0.297969,-0.208679,-0.938543
2316685476,-49.039700,24.890507,75.309006,-0.261671,-0.235869,-0.938114
2316705506,-47.454762,22.180508,73.217110,-0.301096,-0.244899,-0.940755
2316725535,-46.581154,19.669582,70.349838,-0.279283,-0.237371,-0.927185
2316745564,-46.484676,17.149151,67.959930,-0.294129,-0.223784,-0.929674
2316765593,-46.526333,15.020571,66.438622,-0.279908,-0.184106,-0.938662
2316785623,-44.901169,12.178164,63.513832,-0.283481,-0.120358,-0.948446
2316805652,-41.534595,9.914618,58.909378,-0.277109,-0.043843,-0.955578
2316825681,-36.797569,8.138794,56.636776,-0.297373,0.001337,-0.933944
2316845710,-28.409578,6.410842,53.978855,-0.313963,0.134103,-0.956813
2316865740,-19.192190,5.732494,50.114555,-0.287001,0.056011,-0.980469
2316885769,-13.877989,5.650880,45.523048,-0.287754,0.001612,-0.991757
2316905798,-9.154408,5.195528,42.041389,-0.301493,0.049472,-0.968166
2316925829,-2.971921,4.450635,40.776833,-0.271934,0.090759,-0.941194
2316945858,4.576811,4.044795,40.632248,-0.297712,0.114245,-0.942582
2316965887,13.000325,3.687375,40.419445,-0.301431,0.140841,-0.953991
2316985917,22.311697,4.694917,37.799660,-0.301214,0.116367,-0.990640
2317005946,31.165571,5.553361,35.393200,-0.318254,0.129555,-0.968976
2317025975,40.822906,5.790813,30.664640,-0.314863,0.143584,-0.941403
2317046004,51.248245,5.687788,25.491964,-0.291995,0.131355,-0.946257
2317066034,61.174271,4.965873,21.105202,-0.295950,0.102471,-0.956083
2317086062,69.503044,4.337137,17.012587,-0.315330,0.041869,-0.945912
2317106091,75.496811,4.149712,13.718842,-0.312864,-0.014090,-0.943103
2317126120,80.916260,3.640852,11.269130,-0.309949,-0.027335,-0.955594
2317146150,87.123695,3.138229,9.653780,-0.291498,-0.036311,-0.966788
2317166179,94.723038,3.392016,8.813710,-0.291890,-0.043065,-0.979638
2317186208,103.140541,3.162931,8.273791,-0.292992,-0.066933,-0.978051
2317206237,112.128494,3.014681,7.771381,-0.301399,-0.092792,-0.986278
2317226266,121.468681,2.923168,6.586274,-0.310361,-0.126442,-0.985731
2317246296,131.781509,3.010482,5.786823,-0.315452,-0.157847,-0.999524
2317266325,142.549927,3.417002,5.561154,-0.297644,-0.191394,-0.998085
2317286355,153.310532,4.221251,5.893217,-0.295508,-0.261578,-0.992217
2317306384,163.241318,4.778787,6.249697,-0.312209,-0.322678,-0.962014
2317326413,172.335968,4.507422,5.520908,-0.309904,-0.386495,-0.923310
2317346444,181.095352,3.726481,4.386802,-0.306850,-0.450068,-0.880210
2317366473,188.037338,2.649683,2.951017,-0.310483,-0.540285,-0.822036
2317386502,192.591614,1.853487,1.974230,-0.316995,-0.655148,-0.736019
2317406531,193.924423,-0.548195,0.630260,-0.307619,-0.740196,-0.624818
2317426560,191.362198,-3.874667,-1.177919,-0.336352,-0.877918,-0.515637
2317446590,183.583282,-8.808096,-4.673521,-0.353576,-0.945815,-0.286210
2317466619,169.837387,-13.909922,-6.525276,-0.261320,-1.006380,-0.087620
2317486649,153.732712,-5.186359,-4.604632,-0.166400,-0.984585,-0.429871
2317506676,157.572006,5.539911,4.087246,-0.420774,-0.899224,-0.473659
2317526706,162.913742,10.734822,2.264413,-0.295227,-0.835694,-0.537128
2317546735,172.513016,9.005772,1.191749,-0.302210,-0.882350,-0.494765
2317586793,186.634048,-1.076199,-2.636721,-0.365904,-0.878322,-0.256846
2317626852,189.931076,-9.414043,-0.563442,-0.298101,-0.964204,-0.032869
2317646881,187.186874,-8.773250,0.059166,-0.305014,-1.002203,0.166053
2317666910,180.978149,-9.538114,0.502349,-0.280886,-0.955657,0.281632
2317686940,172.533661,-8.601541,0.877089,-0.289050,-0.887144,0.382100
2317706969,160.064072,-6.845654,0.879063,-0.350908,-0.808322,0.600198
2317726998,148.807480,-7.347371,1.454073,-0.274421,-0.852130,0.234218
2317747027,160.623108,-5.132977,1.767224,-0.294508,-1.065867,-0.239436
2317767058,182.170731,-7.433731,3.434697,-0.341338,-1.138964,0.023149
2317787087,189.769455,-4.320900,1.698677,-0.267231,-0.914001,0.356370
2317807117,192.895462,-5.018836,2.797873,-0.337804,-0.869733,0.337647
2317827146,199.440323,-5.189766,3.022354,-0.344387,-0.959689,0.369665
2317847175,208.063019,-5.144648,2.859338,-0.296209,-0.940884,0.420925
2317867205,216.085999,-4.531747,3.093117,-0.317758,-0.901680,0.516340
2317887234,222.835266,-2.937477,1.149556,-0.282175,-0.837979,0.551468
2317927291,242.155273,0.436716,-1.735471,-0.301652,-0.810163,0.613672
2317947321,251.461838,1.319261,-3.050086,-0.341324,-0.735350,0.682372
2317967349,259.115051,1.388634,-4.320762,-0.358795,-0.486436,0.768563
2317987379,256.971039,1.346331,-6.702227,-0.338163,-0.137190,0.884602
2318007408,250.938690,0.112981,-2.683852,-0.339579,-0.148746,0.789709
2318027438,253.649689,-0.310679,0.103651,-0.295932,-0.343100,0.848601
2318047467,260.508636,0.477247,-1.514638,-0.313823,-0.242418,0.941083
2318067496,264.079468,-0.486850,-1.906668,-0.320993,0.010016,0.927325
2318087525,264.098175,-1.361699,-1.724925,-0.307003,0.108439,0.872408
2318107554,264.117737,-0.946006,-4.844653,-0.294659,0.157072,0.813170
2318127583,264.418152,-1.708173,-4.663720,-0.325780,0.255395,0.792485
2318147613,263.784363,-1.786103,-3.935489,-0.330658,0.395152,0.761106
2318167642,261.906982,-1.371506,-1.301304,-0.345395,0.493967,0.732110
2318187673,260.328369,0.246890,2.141786,-0.325587,0.527040,0.693664
2318207702,260.046936,2.342813,4.762627,-0.296904,0.603371,0.647181
2318227732,257.009888,4.204390,5.784276,-0.309797,0.766891,0.500223
2318247761,251.818771,6.095140,7.562851,-0.278715,0.827218,0.414922
2318267790,243.929840,7.440848,5.978240,-0.145321,0.851656,0.267229
2318287819,243.760040,11.471964,2.502033,-0.226226,0.590392,0.673407
2318307848,258.506805,3.463224,-1.768141,-0.259381,0.625092,0.568018
2318327878,264.548615,-1.343202,-4.575736,-0.361581,0.967919,0.320022
2318347906,263.425201,-6.314514,-2.047606,-0.400381,0.938431,0.058566
2318367935,259.042358,-5.011263,0.593071,-0.364110,0.935582,-0.038829
2318387964,256.256897,-4.114666,2.525216,-0.359354,0.971393,-0.030661
2318407993,255.737640,-5.271304,4.081427,-0.339652,0.971789,-0.088765
2318428023,255.009781,-6.866758,6.103731,-0.355207,0.937732,-0.183730
2318448052,255.055649,-9.802081,7.023088,-0.278201,0.871318,-0.185832
2318468081,257.165009,-12.514585,7.281929,-0.285862,0.861676,-0.211243
2318488111,262.052002,-9.244732,4.959457,-0.213168,0.804152,-0.218079
2318508140,269.206787,-9.833376,4.156574,-0.304263,0.855673,-0.303074
2318528169,276.104065,-8.136414,3.561838,-0.293601,0.851754,-0.534367
2318548199,277.684387,-9.993112,6.231931,-0.297184,0.736695,-0.653623
2318568228,279.430450,-9.510509,7.631413,-0.314064,0.700234,-0.693856
2318588258,281.064972,-10.344429,8.950911,-0.295786,0.588213,-0.810538
2318608288,278.912384,-8.811142,8.808100,-0.307280,0.439474,-0.909329
2318628317,275.013794,-7.531096,9.834216,-0.305212,0.363888,-0.977187
2318648346,271.872375,-5.564179,8.057132,-0.308701,0.323834,-0.946300
2318668376,271.558411,-2.778391,5.250956,-0.311401,0.288056,-0.946583
2318688405,272.600189,-0.414955,1.213096,-0.317121,0.173737,-0.986716
2318708434,271.263947,0.942848,-2.301886,-0.344978,0.009722,-1.009592
2318728463,264.897888,0.940600,-6.217314,-0.244750,-0.225029,-0.987768
2318748492,256.607788,-3.292207,3.193288,-0.238929,-0.115205,-0.816486
2318768520,269.766510,-1.418079,13.108898,-0.263781,0.378238,-1.077443
2318788550,284.382507,-0.229866,13.727720,-0.371601,-0.226759,-1.260805
2318808579,283.140930,0.260323,10.402040,-0.234088,-0.442705,-0.908539
2318828608,278.835205,2.211805,13.530149,-0.372297,-0.529433,-0.899445
2318848637,276.136993,6.658186,14.128408,-0.384161,-0.561361,-0.909975
2318868667,274.074554,11.662140,16.299372,-0.353246,-0.642508,-0.850791
2318888696,272.018616,17.133272,17.063725,-0.347545,-0.647519,-0.793686
2318908725,270.658417,21.351044,17.429504,-0.368450,-0.714892,-0.729557
2318928755,268.756287,15.767543,10.954851,-0.302400,-0.627120,-0.605520
2318948784,277.856445,12.440900,7.089979,-0.444228,-0.562841,-0.936162
2318968813,296.472992,9.563124,2.300922,-0.438489,-0.749747,-0.911505
2318988842,308.121796,9.729513,-0.045297,-0.291118,-0.928931,-0.563394
2319008873,309.748444,8.720038,-1.150605,-0.266920,-0.994078,-0.334182
2319028902,308.671051,10.794798,0.711817,-0.276351,-0.979230,-0.182650
2319048931,306.230255,10.960873,0.982198,-0.309993,-1.009702,-0.059410
2319068961,302.661621,11.563448,0.255113,-0.338103,-0.981584,0.038442
2319088990,299.718750,9.194969,-0.211678,-0.316512,-0.987975,0.112226
2319109019,297.818420,6.476007,-1.402905,-0.387549,-0.965187,0.154281
2319129049,297.208099,2.124838,-1.533473,-0.363321,-0.917209,0.258281
2319149078,296.416016,-2.608116,-0.038350,-0.327320,-0.805475,0.334852
2319169120,294.228058,-3.293694,0.891366,-0.317585,-0.739847,0.473836
2319189135,292.806366,-6.496135,3.821516,-0.336341,-0.854391,0.407927
2319209164,303.675659,-11.097970,10.628654,-0.310587,-0.944896,0.264086
2319229194,316.518097,-6.008199,7.460715,-0.143895,-0.899953,0.487867
2319249223,321.647156,4.690237,-1.452211,-0.250199,-0.625752,0.832671
2319269252,319.891815,5.684291,-5.146311,-0.295016,-0.300838,0.832300
2319289281,309.774658,6.568384,-9.442519,-0.338904,-0.070844,0.973759
2319309311,297.074707,5.102276,-12.726986,-0.327802,0.079457,0.976242
2319349369,283.143555,-0.561560,-19.032391,-0.490367,-0.140789,0.804222
2319369398,285.811737,-2.057486,-9.207290,-0.362860,-0.164108,0.761983
2319389428,294.195770,-2.023281,-6.193427,-0.350390,-0.258806,0.821747
2319409457,307.218689,-1.624915,-3.021152,-0.331394,-0.209306,0.935992
2319429488,320.410675,-2.505757,-1.976210,-0.338178,-0.022397,0.943362
2319449517,330.202209,-3.611316,-2.947867,-0.309850,0.176325,0.823783
2319469546,335.527832,-5.408788,-6.205671,-0.308186,0.352896,0.704022
2319489575,337.719147,-6.706137,-8.278799,-0.312199,0.518220,0.582239
2319509605,336.990601,-9.401672,-9.712283,-0.369164,0.699709,0.509957
2319529634,334.555695,-9.700021,-7.193695,-0.318940,0.767802,0.400024
2319549663,332.795410,-8.601279,-4.648601,-0.361123,0.765982,0.350480
2319569693,333.517151,-5.256719,-0.354531,-0.359213,0.786792,0.278216
2319589734,334.180908,-0.370916,2.667939,-0.338727,0.856784,0.108294
2319609750,330.276062,3.307684,3.931705,-0.349036,0.955805,-0.181181
2319629779,319.868774,8.490166,5.301013,-0.271142,0.986140,-0.469857
2319649808,302.086365,4.532520,2.330711,-0.080502,0.856665,-0.510043
2319669838,300.243347,1.411626,-0.593417,-0.343277,0.875896,0.100181
2319689867,317.100739,-5.213980,0.076934,-0.177526,0.914525,-0.031792
2319709896,320.423126,-20.738922,1.732899,-0.255636,0.860959,-0.560322
2319729925,315.744141,-21.520910,6.294051,-0.417674,0.772914,-0.770185
2319749955,306.071533,-22.660019,12.235731,-0.417532,0.621474,-0.871185
2319769984,295.550751,-18.364037,14.643596,-0.383150,0.578266,-0.918134
2319790013,289.814270,-13.797544,14.481166,-0.382031,0.587182,-0.665788
2319810042,296.522400,-5.886969,9.754990,-0.399229,0.695703,-0.590842
2319830072,308.035431,-4.956519,10.321402,-0.289802,0.672574,-0.725214
2319850103,315.938141,-3.679346,10.974144,-0.293565,0.475350,-0.969119
2319870132,316.672821,-3.901919,13.857571,-0.274698,0.239765,-0.999110
2319890161,314.758362,-4.940085,19.028778,-0.297084,0.122673,-0.967326
2319910190,313.197784,-3.775530,23.355213,-0.325712,0.074475,-0.981475
2319930220,314.707245,-2.434673,26.089409,-0.303396,0.065881,-0.984204
2319950249,320.054382,0.056887,26.199972,-0.356368,0.066227,-0.987162
2319970278,328.637268,2.480669,20.292469,-0.394272,-0.057176,-1.028541
2319990308,335.340088,3.273256,13.010229,-0.402210,-0.269561,-1.040767
2320010335,336.593994,3.037670,8.296740,-0.338720,-0.515128,-0.967694
2320030365,331.326904,2.811435,5.149518,-0.317403,-0.749968,-0.845907
2320050401,323.253204,2.440676,2.138628,-0.344783,-0.785174,-0.777021
2320070423,316.766052,0.512416,-2.033643,-0.332637,-0.796403,-0.722699
2320090452,314.800201,-4.441050,-6.860717,-0.285513,-0.757400,-0.682042
2320110481,312.407379,-6.830315,-5.848556,-0.236377,-0.886038,-0.526229
2320130511,303.353729,3.251841,3.767514,-0.055715,-1.042357,-0.229951
2320150540,288.895599,20.102406,12.103419,-0.497302,-1.056239,-0.190240
2320170569,276.583038,26.613884,9.548279,-0.176023,-1.027402,0.022029
2320190599,256.449249,32.752022,10.419605,-0.258470,-0.981827,0.136506
2320210628,219.702866,42.134552,6.001253,-0.189999,-0.866021,-0.021531
2320230657,171.421066,51.075470,1.482465,-0.219379,-0.841874,0.150030
2320250686,137.925583,61.598175,-0.547940,-0.398520,-0.904531,0.308859
2320270717,127.831886,67.594666,-3.355476,-0.470742,-0.935883,0.326659
2320290746,120.091331,71.060196,-8.127136,-0.460664,-0.885976,0.238638
2320310776,88.663162,73.203568,-11.049112,-0.268956,-0.758299,0.147623
2320330805,43.629547,82.958893,-10.455244,-0.168823,-0.738238,0.209508
2320350834,15.886572,96.916473,-9.630507,-0.211177,-0.918978,0.369194
2320370863,3.300442,107.143745,-12.254889,-0.244946,-0.974171,0.372974
2320390893,-9.631048,116.932816,-14.443580,-0.209148,-0.887566,0.259143
2320410922,-19.507917,126.210915,-12.099983,-0.271078,-0.918269,0.106397
2320430950,-35.626724,130.248367,-9.374207,-0.294825,-0.881227,-0.083081
2320450979,-64.183647,130.759308,-4.266799,-0.331886,-0.846823,-0.211725
2320471009,-91.629105,129.398148,2.714483,-0.320132,-0.860766,-0.191669
2320491038,-109.155907,129.722641,10.505275,-0.411858,-0.923389,-0.148275
2320511067,-126.012115,125.975838,15.123343,-0.443947,-0.874316,-0.251505
2320531097,-142.467163,121.502731,21.696306,-0.583026,-0.800520,-0.340816
2320551126,-156.070099,113.314087,23.403801,-0.735885,-0.770448,-0.509450
2320571155,-186.819290,101.488480,32.518520,-0.369671,-0.615394,-0.355995
2320591184,-189.257050,100.742622,46.853790,-0.463293,-1.050153,-0.097881
2320611213,-154.268036,100.442574,48.965893,-0.679984,-1.122778,-0.300912
2320631243,-130.165237,90.094910,49.769569,-0.490160,-0.737173,-0.416229
2320651272,-117.345581,87.037910,57.277397,-0.502543,-0.771410,-0.499277
2320671301,-93.522011,82.070450,61.773739,-0.463511,-0.819270,-0.503010
2320691332,-60.953880,79.310059,64.087296,-0.519625,-0.806593,-0.508461
2320711361,-30.004341,76.610794,63.912624,-0.580820,-0.729799,-0.601500
2320731390,-13.377736,72.327797,63.676090,-0.409353,-0.633393,-0.555735
2320751419,6.752993,71.030983,67.396782,-0.486686,-0.681810,-0.637048
2320771449,35.728531,68.400368,64.149826,-0.537736,-0.593274,-0.676680
2320791478,58.749157,64.702469,60.090092,-0.562564,-0.604822,-0.685042
2320811507,77.663162,59.284668,54.192768,-0.623547,-0.550207,-0.644537
2320831537,92.893364,61.724705,54.551170,-0.742805,-0.553465,-0.677545
2320851565,104.389099,60.861080,51.243011,-0.672697,-0.545527,-0.582117
2320871594,108.278419,61.256580,50.483360,-0.624412,-0.646955,-0.452542
2320891623,103.573410,60.897964,47.337517,-0.528729,-0.833654,-0.402776
2320911652,96.203468,68.062813,45.408596,-0.459123,-0.878225,-0.409452
2320931681,86.770966,76.486794,47.979465,-0.348788,-0.920406,-0.290645
2320951711,74.673492,85.548019,52.507458,-0.308792,-0.881789,-0.317026
2320971740,70.823853,90.065109,54.211552,-0.385244,-0.816061,-0.496231
2320991769,68.179672,92.813660,54.778599,-0.317409,-0.866727,-0.392161
2321011799,60.529732,94.514091,54.935009,-0.319851,-0.931062,-0.258959
2321031828,48.319363,92.323959,52.157284,-0.417600,-0.964620,-0.194670
2321051857,34.422104,83.522820,45.537041,-0.417252,-1.066422,-0.216513
2321071887,18.109541,96.690254,39.898815,-0.140913,-0.516353,-0.559511
2321091916,21.502850,97.022263,55.729118,-0.283144,-0.905669,-0.656626
2321111947,16.300955,108.423920,54.068954,-0.148076,-0.760736,-0.851198
2321131976,19.199085,114.987900,57.146652,-0.229899,-0.738233,-0.606830
2321152005,27.470467,116.076202,63.343674,-0.218817,-0.733295,-0.511841
2321172035,37.216377,118.716293,69.293335,-0.250075,-0.742359,-0.549133
2321192064,45.965775,115.415718,70.379204,-0.285267,-0.676341,-0.649427
2321212093,53.324692,113.718994,70.867088,-0.333769,-0.611590,-0.752595
2321232122,64.314804,106.564125,67.869308,-0.466870,-0.606215,-0.767307
2321252151,79.252884,99.753036,62.406368,-0.672377,-0.601586,-0.732718
2321272179,92.200272,91.514198,54.778381,-0.686526,-0.661247,-0.591902
2321292208,100.799652,80.584213,45.844013,-0.744956,-0.678431,-0.503178
2321312238,106.907372,69.328827,33.544724,-0.713952,-0.723323,-0.491495
2321332267,112.038315,55.697662,21.704670,-0.501272,-0.788212,-0.477775
2321352296,117.066010,44.570946,14.286654,-0.367323,-0.852461,-0.474275
2321372326,120.864151,37.644814,11.397204,-0.228670,-0.875405,-0.404402
2321392355,119.955383,43.791168,15.575975,-0.168471,-0.983002,-0.197456
2321412384,115.129128,54.209663,18.678232,-0.405257,-0.958066,-0.191396
2321432413,106.809113,59.025192,16.063440,-0.258385,-1.062870,0.053593
2321452443,94.902718,59.141811,13.873056,-0.387194,-0.927529,-0.026035
2321472472,95.013138,58.304035,11.635839,-0.379060,-0.831957,-0.463321
2321492501,111.369087,51.267849,9.382700,-0.430031,-0.826794,-0.592369
2321512531,125.246605,49.716881,4.618122,-0.508862,-0.870978,-0.459400
2321532561,136.004471,47.153183,1.627169,-0.385581,-0.937061,-0.285006
2321552590,142.228653,45.059185,-0.111288,-0.341785,-0.954209,-0.202015
2321572620,147.533447,45.017811,-1.799187,-0.295418,-1.000586,-0.186444
2321592649,155.231354,45.340115,-2.480561,-0.319584,-1.004147,-0.221927
2321612678,164.489075,42.045490,-3.358274,-0.355639,-0.995156,-0.147203
2321632707,172.487869,38.326252,-5.734289,-0.446280,-1.056447,-0.114643
2321652737,182.306381,32.508205,-9.160879,-0.498842,-0.929696,-0.098257
2321672766,186.360764,28.571468,-9.990226,-0.330789,-0.826377,0.204417
2321692794,182.695023,35.615738,-12.515330,-0.339461,-0.803086,0.328560
2321712823,183.478043,36.131233,-16.446814,-0.516032,-0.955864,0.223580
2321732852,189.268524,36.133808,-22.418739,-0.469872,-1.004807,0.210549
2321752882,197.150650,32.754189,-23.576941,-0.308932,-0.965168,0.271046
2321772911,205.143372,28.903711,-21.971249,-0.307169,-0.943324,0.319206
2321792940,210.352661,27.567944,-21.654232,-0.328514,-0.835025,0.421288
2321812970,214.885345,23.721205,-19.860687,-0.392132,-0.777474,0.492361
2321832999,216.776978,20.158754,-19.177803,-0.414765,-0.682776,0.600961
2321853028,215.658676,15.487935,-17.827419,-0.390685,-0.558075,0.731777
2321873057,212.335480,11.386783,-15.785333,-0.404935,-0.450515,0.733728
2321893087,207.821228,8.657371,-15.142864,-0.397618,-0.381721,0.784694
2321913116,202.794006,6.645022,-14.847860,-0.444591,-0.298589,0.824595
2321933145,196.470352,2.839784,-13.287382,-0.364708,-0.197291,0.894479
2321953176,188.704071,2.693570,-12.410385,-0.213973,-0.186180,0.874573
2321973205,192.750061,5.070845,-12.117522,-0.365290,-0.678016,0.795443
2321993234,204.552673,2.972408,-13.178438,-0.308402,-0.354946,0.862714
2322013264,204.730331,4.604319,-12.009245,-0.221775,-0.111286,0.989622
2322033293,203.159943,3.653826,-11.926203,-0.373159,-0.024404,0.950078
2322053322,201.042618,1.070046,-14.005775,-0.418552,-0.011885,0.897419
2322073351,201.834351,-1.228115,-14.842875,-0.391327,-0.041335,0.873213
2322093380,205.959488,-3.249213,-16.317587,-0.385175,-0.071472,0.895858
2322113408,212.961884,-5.105487,-18.573246,-0.399809,-0.070274,0.909143
2322133437,221.155136,-7.668413,-20.845146,-0.340251,0.014116,0.900757
2322153467,226.954819,-9.379395,-24.801003,-0.283472,0.183020,0.881880
2322173496,230.901489,-10.967949,-26.954239,-0.352585,0.187666,0.908735
2322193525,238.418060,-14.803626,-28.495478,-0.442700,0.202239,0.895446
2322213555,246.457275,-18.762234,-27.283125,-0.491734,0.290679,0.854568
2322233584,251.697205,-21.504465,-21.866688,-0.528210,0.495055,0.724676
2322253613,247.889587,-23.075390,-19.664106,-0.276768,0.772086,0.369892
2322273642,234.478790,-30.289394,-28.898102,-0.245406,0.821355,0.290701
2322293672,234.881119,-32.102249,-28.632481,-0.465044,0.500925,0.885886
2322313701,250.311386,-41.336521,-29.563484,-0.351841,0.502093,0.892940
2322333730,266.385651,-35.736481,-20.739246,-0.448917,0.575155,0.712190
2322353761,277.921967,-27.965763,-11.882353,-0.489279,0.616216,0.507141
2322373790,285.332031,-21.413620,-5.208452,-0.437916,0.693421,0.316699
2322393820,290.462646,-14.293045,-0.595179,-0.403266,0.831731,0.131115
2322413849,289.819977,-9.967219,1.347120,-0.324184,0.933836,-0.079005
2322433878,285.279266,-5.829446,2.341348,-0.303272,0.956940,-0.221782
2322453908,279.365479,-2.199644,1.769682,-0.322532,0.917151,-0.361230
2322473937,270.638519,5.335426,1.414074,-0.210579,0.897566,-0.638494
2322493966,253.205872,3.126116,-1.714799,-0.086432,0.739169,-0.677837
2322513995,259.561829,-1.202925,-4.670310,-0.432510,0.926526,0.308535
2322534023,280.821625,-7.783123,0.604129,-0.176680,1.054087,-0.366084
2322554052,285.197388,-1.428650,-1.979535,-0.308283,0.763129,-0.581985
2322574082,283.518341,-3.453922,-0.249784,-0.307954,0.711222,-0.678957
2322594111,287.077911,-5.537564,3.696965,-0.364406,0.754615,-0.561613
2322614140,295.897339,-5.637631,5.946375,-0.367574,0.710765,-0.646060
2322634170,302.045654,-6.133818,8.425282,-0.340280,0.548943,-0.839469
2322654199,302.899048,-5.307121,8.881262,-0.287768,0.421813,-0.963404
2322674228,302.651337,-0.776870,6.583635,-0.376266,0.490431,-1.015149
2322694257,302.279327,0.195310,7.629206,-0.311208,0.112658,-0.968561
2322714287,296.571747,0.177252,4.578589,-0.222397,0.059803,-0.918125
2322734316,300.402832,-0.736494,3.723753,-0.296242,0.371518,-0.920186
2322754345,317.604858,0.567251,11.098518,-0.293138,0.336598,-1.059316
2322774376,332.074646,1.329799,7.126086,-0.314758,0.039102,-1.129337
2322794405,339.253876,1.763600,7.095587,-0.298288,-0.115195,-0.974658
2322814435,346.091583,2.167999,6.837706,-0.342159,-0.223842,-1.104096
2322834464,355.440338,1.341682,4.453217,-0.293173,-0.323332,-0.995306
2322854493,360.599854,0.782234,4.665126,-0.294195,-0.576763,-0.910755
2322874522,361.244568,0.474566,2.461627,-0.336170,-0.736752,-0.748497
2322894551,356.557831,0.036380,0.582677,-0.349248,-0.949230,-0.629163
2322914581,346.067932,-0.544693,-0.865700,-0.299074,-1.066314,-0.377550
2322934618,331.069183,-0.023845,-0.892489,-0.341376,-1.120574,-0.163925
2322954638,307.415466,6.323761,0.134600,-0.300518,-1.097392,0.224678
2322974667,299.677216,-7.929367,-4.139509,-0.468203,-0.837966,-0.635544
2322994696,318.463806,-13.913617,-4.375880,-0.180888,-0.830491,-0.630167
2323014726,329.587250,-7.407257,1.322108,-0.177007,-1.107191,-0.323451
2323034755,335.558655,1.247932,-0.430906,-0.371021,-1.141407,-0.042266
2323054784,336.825104,-4.235445,0.715153,-0.250160,-0.902907,0.105144
2323074814,337.517670,1.431282,0.592086,-0.312600,-1.011394,0.188394
2323094843,339.500092,-0.419190,1.215151,-0.316137,-0.962911,0.250865
2323114872,341.645386,0.187166,-0.707177,-0.333698,-0.906574,0.371974
2323134902,341.894501,1.769653,-2.813006,-0.329148,-0.815948,0.493850
2323154930,337.576294,4.405935,-6.590374,-0.369702,-0.606667,0.732308
2323174960,329.466919,4.078942,-7.956329,-0.295399,-0.401844,0.642290
2323194991,330.421875,0.209992,-0.280615,-0.309385,-0.797515,0.498268
2323215020,343.668274,1.161670,-4.262809,-0.371192,-0.801097,0.664115
2323235049,354.033569,-1.799773,0.627202,-0.349214,-0.520175,0.843268
2323255078,358.362823,-2.192786,-0.777678,-0.343677,-0.335943,0.827898
2323275108,362.156067,-2.754925,-1.256379,-0.314931,-0.216514,0.826001
2323295137,365.108124,-1.198287,-2.261278,-0.217911,-0.050566,0.786935
2323315166,366.010742,1.191309,-3.258997,-0.274376,0.205574,0.815318
2323335195,361.643250,0.010105,-6.026244,-0.300661,0.413189,0.697124
2323355223,355.505310,-0.176653,-5.587881,-0.290505,0.521927,0.642423
2323375253,350.570831,-0.685396,-6.200147,-0.294491,0.548455,0.595679
2323395282,346.926208,-0.433785,-2.754161,-0.398928,0.639330,0.539863
2323415311,341.980286,0.758393,2.192137,-0.401178,0.785188,0.348637
2323435341,328.123413,3.129048,4.007985,-0.197677,0.998881,0.035305
2323455370,323.429077,2.140602,1.458843,-0.293374,0.456473,0.528932
2323475399,339.566559,-6.119430,-2.914698,-0.415830,0.689208,0.627418
2323495428,347.304962,-5.700355,-1.913636,-0.253086,1.006220,0.180086
2323515457,346.238251,-11.271700,-1.177401,-0.321024,0.823134,0.017433
2323535487,348.649719,-9.787737,0.259489,-0.371328,0.894348,0.026860
2323555516,354.238098,-10.084937,2.175378,-0.360463,0.925982,-0.020874
2323575545,361.817322,-10.146948,4.734735,-0.394267,0.871936,-0.136497
2323595575,367.275818,-5.589646,5.897082,-0.346306,0.884558,-0.306959
2323615605,369.240814,-5.045523,5.559851,-0.260824,0.718287,-0.612485
2323635635,363.287109,-3.148731,1.128258,-0.136955,0.605944,-0.566595
2323655664,370.065674,-3.693461,1.477304,-0.362049,0.801907,-0.551551
2323675693,379.971283,1.062389,-1.492115,-0.292049,0.733178,-0.885459
2323695723,381.884216,1.536757,-2.283712,-0.255232,0.476856,-0.987198
2323715752,382.376892,3.140560,-4.457842,-0.284759,0.407176,-0.924325
2323735781,387.334106,3.228795,-6.632252,-0.264769,0.335890,-0.951865
2323755810,393.044922,2.647116,-9.907660,-0.253104,0.185944,-1.040065
2323775838,397.602844,1.128668,-12.887640,-0.239676,0.014713,-1.087991
2323795867,400.439728,-1.203234,-13.746215,-0.226626,-0.125548,-1.056941
2323815897,402.195892,-4.506383,-10.859174,-0.222511,-0.325018,-1.125911
2323835926,402.361359,-5.200717,-6.554208,-0.236661,-0.458247,-1.053242
2323855955,401.510864,-5.732116,-2.933490,-0.235515,-0.605554,-0.972330
2323875984,399.825500,-4.158672,0.555418,-0.287304,-0.727462,-0.879537
2323896014,397.454193,-4.414454,-0.019821,-0.305908,-0.815466,-0.762793
2323916043,394.584747,-2.340131,1.151766,-0.349083,-0.919089,-0.643580
2323936072,390.983582,-4.677926,-2.553163,-0.347472,-0.956526,-0.519375
2323956102,388.026398,-4.303376,-2.216542,-0.317121,-1.011939,-0.389118
2323976131,384.862915,-5.142023,-3.075391,-0.307505,-1.012401,-0.272475
2323996160,382.601624,-3.391829,-2.264729,-0.320213,-1.068168,-0.129135
2324016191,379.421082,-2.485783,-0.408676,-0.234946,-1.003861,0.015355
2324036220,374.449738,0.520344,0.655504,-0.240268,-1.003666,0.176130
2324056250,370.459106,4.461405,0.605319,-0.281768,-0.914855,0.251959
2324076279,367.120911,5.465437,-0.344907,-0.318606,-0.894208,0.312262
2324096308,366.944214,6.201901,-1.185208,-0.280026,-0.835296,0.321833
2324116337,368.529114,7.435734,-3.006926,-0.387727,-0.842622,0.459786
2324136367,370.707062,4.401705,-3.185115,-0.398587,-0.719873,0.524833
2324156396,371.527161,1.173117,-2.240175,-0.357127,-0.600638,0.621555
2324176425,372.001251,0.235498,-1.898460,-0.378709,-0.507701,0.702767
2324196453,372.768646,-1.418963,-1.489928,-0.361788,-0.401410,0.748668
2324216482,372.829163,-2.045629,0.130353,-0.328297,-0.245372,0.837476
2324236512,371.114899,-2.094131,-1.151445,-0.305898,-0.069305,0.814180
2324256541,367.541870,-0.455337,-1.583949,-0.234102,0.094255,0.837036
2324276570,362.972504,0.180168,-5.420460,-0.259787,0.206674,0.782699
2324296599,359.834412,-0.233255,-6.548241,-0.332609,0.283125,0.777202
2324316629,358.069946,-0.827136,-7.112766,-0.310846,0.314101,0.705628
2324336658,357.384949,-3.276176,-7.608118,-0.406836,0.414137,0.694495
2324356687,359.240265,-3.683420,-3.547372,-0.388292,0.459548,0.603009
2324376717,360.345337,-3.003954,-1.202088,-0.355344,0.621098,0.542868
2324396745,359.216827,-2.558927,0.340380,-0.317844,0.698824,0.403239
2324416775,357.986847,-0.757962,2.030638,-0.314029,0.766337,0.317287
2324436804,357.588318,-1.318220,2.300524,-0.282055,0.798399,0.220236
2324456835,356.467010,-0.689555,1.870105,-0.318929,0.896795,0.114372
2324476864,355.535980,-1.529488,1.884289,-0.289446,0.877730,-0.038242
2324496893,353.067230,-1.465168,1.275987,-0.261604,0.897918,-0.172626
2324516923,350.249695,-3.005001,0.696149,-0.269785,0.863708,-0.280620
2324536952,348.736298,-3.034739,0.786652,-0.302546,0.884986,-0.364946
2324556981,347.573578,-2.990956,0.656826,-0.276445,0.834177,-0.443230
2324577011,347.336884,-3.019208,0.937487,-0.308815,0.798931,-0.566599
2324597040,346.791382,-2.659031,0.797721,-0.283304,0.719368,-0.649176
2324617068,346.430420,-1.850976,0.586045,-0.282568,0.660025,-0.752327
2324637097,346.086334,-2.420432,0.469346,-0.280971,0.569866,-0.819871
2324657126,345.604584,-1.658475,-0.060450,-0.291361,0.500706,-0.930140
2324677155,344.877838,-1.252737,-0.519135,-0.291699,0.385253,-0.937513
2324697185,344.508362,-0.887026,-1.000057,-0.301548,0.284657,-1.015199
2324717214,344.001312,-0.305833,-0.997600,-0.303949,0.162776,-1.027047
2324737243,343.239594,0.089324,-2.396395,-0.286656,0.042573,-1.066860
2324757273,342.806519,0.068426,-2.502578,-0.270206,-0.037930,-1.040405
2324777302,343.578400,-0.971501,-2.690608,-0.262723,-0.130728,-1.067435
2324797331,344.353973,-1.969168,-1.620361,-0.277041,-0.242857,-1.067609
2324817360,344.783081,-3.014282,-1.626543,-0.293010,-0.428781,-1.047678
2324837390,342.719879,-3.375002,-1.230242,-0.283047,-0.554824,-0.952001
2324857419,339.572540,-2.961184,-0.833386,-0.289642,-0.650629,-0.869461
2324877450,337.021301,-2.102683,-0.811500,-0.309399,-0.667646,-0.803751
2324897479,337.016602,-1.517048,-0.960479,-0.336996,-0.728655,-0.761764
2324917508,338.052582,-2.051983,-2.221699,-0.340423,-0.804123,-0.686836
2324937537,337.974640,-2.997393,-2.805204,-0.317250,-0.893753,-0.554273
2324957567,335.895813,-3.770381,-2.799718,-0.301340,-0.967803,-0.414654
2324977596,332.698273,-4.375794,-2.257852,-0.285801,-0.991207,-0.274847
2324997626,329.088165,-3.456091,-1.547019,-0.266488,-1.008930,-0.176557
2325017655,326.194366,-1.525242,-0.070954,-0.272589,-0.980604,-0.075240
2325037683,323.352814,1.208727,0.374807,-0.301937,-0.997684,0.011584
2325057712,320.637573,4.311868,-0.115070,-0.292411,-0.939673,0.160537
2325077741,315.467072,7.136987,-1.134548,-0.359438,-0.938650,0.354643
2325097770,307.957581,9.283854,-3.817526,-0.332706,-0.824375,0.427161
2325117800,301.954132,10.397975,-5.657071,-0.325939,-0.775317,0.457852
2325137829,296.994324,12.887789,-8.728384,-0.321076,-0.712400,0.535474
2325157858,291.055786,14.180835,-11.585403,-0.363422,-0.634914,0.648706
2325177888,283.555145,15.309766,-15.912730,-0.389772,-0.515279,0.733375
2325197917,273.857758,16.174709,-20.716576,-0.378127,-0.364204,0.806079
2325217946,262.618805,15.777184,-25.358923,-0.405408,-0.278516,0.871065
2325237975,250.949921,16.295565,-32.207977,-0.400641,-0.179551,0.889677
2325258005,238.063507,16.347557,-39.326668,-0.353278,-0.055043,0.918804
2325278034,222.829697,16.341263,-47.105648,-0.393161,0.014996,0.899906
2325298065,198.196884,13.994240,-55.005989,-0.393338,0.063316,0.892407
2325318094,158.134033,10.540387,-60.971069,-0.344463,0.105538,0.863009
2325338123,108.220108,9.612679,-66.901459,-0.385966,0.112796,0.849620
2325358153,73.980614,9.919532,-70.340126,-0.403609,0.042117,0.883554
2325378192,57.847206,10.211052,-74.717667,-0.415627,0.076873,0.918919
2325398211,45.370941,8.969792,-78.693886,-0.386491,0.067639,0.909357
2325418240,32.294537,9.932408,-82.408363,-0.340379,0.064988,0.908712
2325438270,22.583231,11.101811,-87.237518,-0.336548,0.094453,0.944195
2325458298,16.865961,12.025869,-93.093849,-0.360752,0.102066,0.945333
2325478327,12.317278,13.916652,-99.367157,-0.365558,0.125661,0.949855
2325498356,9.595143,16.124552,-105.793900,-0.353702,0.135634,0.945119
2325518386,8.429270,18.930317,-113.066528,-0.365527,0.122765,0.946542
2325538415,6.106930,21.536665,-120.345612,-0.333115,0.110085,0.946586
2325558444,3.204220,24.293913,-126.670898,-0.389935,0.109399,0.968663
2325578473,-6.172064,25.147663,-132.035553,-0.436012,0.063721,0.962653
2325598503,-22.636595,27.164875,-135.320755,-0.390683,0.025132,0.908621
2325618532,-41.708092,32.145271,-137.532700,-0.325017,-0.016487,0.899718
2325638562,-55.541904,38.887142,-139.612839,-0.329603,-0.050268,0.933931
2325658591,-62.516060,45.162830,-142.762405,-0.359924,-0.126378,0.928444
2325678620,-66.886147,51.994164,-144.072922,-0.332387,-0.167784,0.907876
2325698649,-72.513191,59.751766,-145.808838,-0.305223,-0.206704,0.883217
2325718680,-78.157616,69.078445,-147.254669,-0.295295,-0.270014,0.904886
2325738709,-82.252556,77.382027,-147.189896,-0.361850,-0.325906,0.891601
2325758738,-87.907539,86.146309,-146.128891,-0.308189,-0.345127,0.818622
2325778768,-97.526108,96.990044,-144.094025,-0.283943,-0.399919,0.816683
2325798797,-104.511772,106.969193,-141.497131,-0.301190,-0.504751,0.786493
2325818826,-109.537399,116.328148,-136.884811,-0.304799,-0.565952,0.757293
2325838856,-113.692993,125.113655,-131.668274,-0.276276,-0.601999,0.722549
2325858885,-114.754311,134.540222,-125.606430,-0.321910,-0.658470,0.723933
2325878913,-110.179054,141.580139,-118.680214,-0.399730,-0.724689,0.665727
2325898942,-103.328484,145.709351,-111.334175,-0.462488,-0.806659,0.542802
2325918971,-101.793831,150.059265,-103.310165,-0.328715,-0.724105,0.472796
2325939000,-105.743889,158.324005,-91.902161,-0.102047,-0.711426,0.509646
2325959030,-98.218369,169.605133,-84.433884,-0.373316,-0.948592,0.419144
2325979059,-87.686470,173.537628,-75.454254,-0.282508,-0.886197,0.353092
2325999088,-83.329979,180.722321,-66.565590,-0.313412,-0.900750,0.319681
2326019118,-80.219902,183.862427,-55.907257,-0.308234,-0.947303,0.205308
2326039147,-75.725220,184.800827,-45.912155,-0.333607,-0.934962,0.114721
2326059176,-73.113197,185.845581,-36.669491,-0.336745,-0.981116,0.050520
2326079206,-70.348167,184.358719,-28.527651,-0.303987,-0.946543,0.038134
2326099235,-69.131042,183.006836,-21.168646,-0.312204,-0.993899,0.013826
2326119265,-67.932816,180.871521,-13.659012,-0.228171,-0.991779,-0.017746
2326139295,-66.267235,177.920029,-5.930000,-0.246397,-0.997351,-0.074057
2326159324,-65.558372,176.745453,1.298373,-0.262627,-1.011153,-0.064223
2326179353,-65.658211,174.966553,8.622416,-0.230669,-0.985156,-0.104819
2326199383,-65.126442,171.410568,15.893447,-0.209455,-0.979263,-0.170060
2326219412,-64.426407,167.890900,22.906462,-0.251724,-0.978230,-0.224418
2326259471,-59.706993,154.997818,35.300014,-0.279207,-0.897449,-0.381509
2326279500,-47.303108,139.795761,38.633312,-0.328817,-0.746371,-0.747006
2326299528,-17.972595,119.258400,39.373425,-0.370940,-0.832723,-1.094766
2326319557,-3.550870,115.399513,32.740540,-0.531433,-0.788550,-0.418470
2326339586,-0.596991,101.592041,32.979218,-0.289630,-0.939948,-0.361165
2326359615,6.262150,91.320328,29.194324,-0.373226,-0.818445,-0.569276
2326379645,17.821775,85.730064,28.344578,-0.348801,-0.763162,-0.625883
2326399674,31.032133,77.783722,26.635891,-0.357260,-0.790436,-0.625633
2326419703,42.031479,69.090919,23.552458,-0.332198,-0.870172,-0.504908
2326439733,47.031937,64.534348,20.969725,-0.331673,-0.890249,-0.373074
2326459762,48.618340,60.301918,18.860292,-0.336994,-0.898117,-0.361456
2326479791,51.588207,55.733765,16.428316,-0.351472,-0.869840,-0.415750
2326499820,57.462276,50.989864,13.839996,-0.379777,-0.841612,-0.462509
2326519850,65.333275,45.787109,11.499122,-0.385949,-0.823020,-0.489095
2326539879,74.355911,39.512276,9.061656,-0.368445,-0.838862,-0.477636
2326559910,83.430702,33.085392,6.761971,-0.353037,-0.882628,-0.455059
2326579939,91.993515,25.891863,4.294086,-0.354033,-0.906090,-0.413479
2326599968,99.889191,19.594179,2.341523,-0.345206,-0.919851,-0.374481
2326619997,107.233177,14.916438,1.375930,-0.337982,-0.929025,-0.323780
2326640027,113.761208,11.636499,0.565012,-0.335212,-0.929873,-0.274718
2326660056,119.840256,8.275263,-0.230277,-0.356313,-0.954850,-0.248725
2326680085,126.477219,3.723507,-1.060791,-0.354843,-0.963140,-0.218651
2326700114,133.620789,-2.685315,-1.026273,-0.328823,-0.973510,-0.186098
2326720142,141.143951,-8.675220,-0.312697,-0.334192,-0.990342,-0.152197
2326740172,148.663315,-15.257385,0.830447,-0.331307,-0.997971,-0.096166
2326760201,155.697815,-20.738087,2.805722,-0.312192,-0.996021,-0.028645
2326780230,161.927658,-25.428551,5.365378,-0.290837,-1.007337,0.046458
2326800259,167.820938,-29.885857,8.825187,-0.290873,-0.997023,0.105803
2326820289,172.648239,-32.891434,12.234378,-0.277544,-0.966092,0.208190
2326840318,175.057053,-34.331924,15.485199,-0.261379,-0.926095,0.330791
2326860347,175.024155,-33.251492,17.568773,-0.238170,-0.849013,0.443442
2326880376,173.118469,-31.287390,19.173931,-0.237561,-0.800385,0.507899
2326900406,172.217804,-28.802689,20.987505,-0.243229,-0.812629,0.504863
2326920435,174.544769,-27.195070,22.847912,-0.261649,-0.874675,0.464460
2326940464,182.334229,-28.226091,27.318617,-0.272697,-0.935805,0.446643
2326960494,192.254517,-31.096975,33.542103,-0.299785,-0.901873,0.499010
2326980524,200.798615,-33.601295,40.216774,-0.278157,-0.804196,0.611826
2327000553,207.344421,-34.200890,46.533291,-0.240894,-0.694018,0.688312
2327020583,211.460068,-31.488707,51.471207,-0.191817,-0.599988,0.756715
2327040612,214.233582,-27.183397,54.962078,-0.164150,-0.479929,0.835875
2327060641,214.409698,-21.866009,56.532509,-0.149880,-0.341104,0.897736
2327080671,212.149155,-16.088837,55.171200,-0.156522,-0.194453,0.936049
2327100700,207.594421,-10.003377,53.593903,-0.150784,-0.064730,0.958705
2327120729,201.908432,-4.960670,50.250595,-0.185595,0.023887,0.966445
2327140757,196.331100,-1.365303,46.752682,-0.198939,0.081746,0.945949
2327160787,191.694000,2.204743,43.998486,-0.211090,0.123661,0.940752
2327180816,187.821045,5.178385,41.651516,-0.213539,0.154791,0.931415
2327200845,185.634186,7.418749,38.940002,-0.245775,0.199581,0.922997
2327220874,183.797943,9.656487,38.268261,-0.244189,0.255364,0.898981
2327240904,182.220520,11.800828,37.392719,-0.238596,0.312069,0.868830
