Timestamp (us),Gyroscope X (deg/s),Gyroscope Y (deg/s),Gyroscope Z (deg/s),Accelerometer X (g),Accelerometer Y (g),Accelerometer Z (g)
5234854725,-0.327823,-0.378576,-0.283941,0.713402,-0.053532,0.692615
5234874770,0.084166,1.247437,-0.684789,0.709179,-0.047392,0.700819
5234894814,0.189332,0.662068,-0.738370,0.704971,-0.046537,0.709430
5234914859,-0.268225,-0.029216,-0.772299,0.707894,-0.047447,0.703268
5234934904,-0.208529,0.198571,-1.176742,0.710470,-0.038711,0.706310
5234954949,-0.582085,0.031594,-1.364177,0.719052,-0.038595,0.702275
5234974994,-0.420318,0.601633,-1.084080,0.717340,-0.056251,0.702954
5234995037,0.141820,1.087432,-1.439291,0.703908,-0.051185,0.707549
5235015082,-0.096799,-0.462917,-1.466468,0.700813,-0.045047,0.705291
5235035127,0.197615,-1.192928,-1.666111,0.705748,-0.045155,0.700502
5235055172,0.350264,-0.737046,-1.728659,0.708077,-0.048675,0.697635
5235075216,0.625206,-0.911915,-1.319214,0.713165,-0.047773,0.706860
5235095261,0.854789,-0.706761,-1.024055,0.718186,-0.047870,0.703893
5235115306,0.825683,-0.182247,-0.932908,0.715874,-0.042978,0.707386
5235135351,0.865646,-0.227645,-0.399890,0.709667,-0.044085,0.705347
5235155395,0.446866,-0.706098,-0.335281,0.709942,-0.037240,0.706932
5235175440,0.073543,-0.538690,-0.622072,0.711031,-0.038189,0.704034
5235195485,-0.458800,-0.485054,-0.686606,0.704454,-0.039088,0.704722
5235215531,-1.699968,-0.886959,-0.996678,0.699637,-0.037350,0.708132
5235235576,-2.349388,-1.927845,-1.333538,0.706795,-0.041884,0.701211
5235255621,-1.734590,-2.019687,-1.559096,0.715615,-0.043855,0.699107
5235275666,-0.905608,-1.534030,-1.718277,0.721713,-0.046849,0.688615
5235295711,-1.298051,-1.031810,-1.197698,0.719893,-0.052738,0.689834
5235315755,0.710300,-1.063796,-0.862625,0.734680,-0.037429,0.694277
5235335800,0.814154,0.768080,-0.423292,0.726340,-0.053347,0.694620
5235355845,2.639283,1.131314,-0.475720,0.708734,-0.046752,0.700264
5235375888,2.387957,-0.578308,0.228706,0.711552,-0.036559,0.691005
5235395933,1.847941,-0.213113,-0.003666,0.718024,-0.049140,0.691884
5235415978,1.011161,1.314963,-0.859562,0.707187,-0.038469,0.707741
5235436023,-1.068325,0.001657,-1.261383,0.701490,-0.033492,0.715943
5235456067,-1.922894,-0.590693,-1.779933,0.711675,-0.036610,0.709306
5235476113,-2.288138,0.412661,-2.341836,0.710622,-0.039398,0.712508
5235496157,-2.241327,0.032809,-1.846646,0.701655,-0.048950,0.709335
5235516202,-2.487281,-1.418713,-1.851006,0.702803,-0.046738,0.702406
5235536247,-2.536008,-1.867384,-2.452054,0.715481,-0.034665,0.696390
5235556291,-2.528784,-1.533076,-2.711448,0.721694,-0.040518,0.694116
5235576336,-2.245264,-1.092314,-2.340742,0.723143,-0.041459,0.693042
5235596382,-1.893579,-0.522456,-2.100191,0.719870,-0.034860,0.691143
5235616427,-1.642529,-0.431466,-2.102202,0.716332,-0.033054,0.693924
5235636472,-1.612461,-0.507523,-2.155689,0.717425,-0.039451,0.694167
5235656517,-0.494436,-0.675618,-1.966026,0.717350,-0.044267,0.696118
5235676562,0.100649,-0.470713,-1.521303,0.718950,-0.047398,0.695154
5235696606,0.809988,-0.547046,-0.886733,0.719209,-0.047464,0.699072
5235716651,1.032634,-0.645769,-0.271264,0.721621,-0.038863,0.695923
5235736696,1.430467,-0.835795,0.472458,0.723468,-0.037159,0.695831
5235756740,2.427598,-0.258989,0.502359,0.729620,-0.039783,0.698629
5235776785,3.351503,1.967206,0.477934,0.715462,-0.028992,0.699074
5235796829,3.451793,3.106249,-1.679890,0.704683,-0.027757,0.683781
5235816874,4.802319,3.326028,-0.517235,0.746183,-0.057854,0.654834
5235836919,7.879768,11.981194,0.883227,0.782272,-0.094077,0.637278
5235856964,9.447542,20.325592,1.297560,0.716905,-0.018924,0.720033
5235877008,5.869544,13.950719,-0.870667,0.656023,0.007419,0.694333
5235897053,3.069957,3.965971,-0.542649,0.724411,-0.037246,0.685824
5235917098,6.009351,7.945897,-1.208885,0.777564,-0.094996,0.651728
5235937143,12.749551,21.020340,-2.392814,0.743659,-0.091269,0.668111
5235957188,14.568641,25.335270,-3.926882,0.674205,-0.037634,0.679451
5235977234,8.950128,19.442350,-3.116403,0.695086,0.045944,0.706865
5235997279,-2.631218,16.846498,-0.488260,0.747311,0.072616,0.683719
5236017323,-10.868340,22.750984,-2.190513,0.711572,-0.093234,0.745462
5236037369,1.449672,26.273188,-5.472735,0.591499,-0.174318,0.793872
5236057413,20.636349,24.140661,4.804003,0.650129,-0.054391,0.807696
5236077458,7.920603,17.771973,-1.149028,0.703188,0.031503,0.731079
5236097503,4.365133,20.652695,-7.820973,0.697979,0.043153,0.730216
5236117548,5.651549,20.745657,-1.477266,0.652211,-0.025994,0.767872
5236137591,6.887692,14.298424,-3.194764,0.667558,-0.048659,0.741768
5236157636,13.708867,21.299036,-6.156253,0.681833,-0.012325,0.715352
5236177681,13.889709,27.227753,-5.431888,0.635434,-0.021624,0.732570
5236197726,14.976336,23.368229,0.254297,0.613350,0.001034,0.756349
5236217770,19.729662,26.435226,1.197713,0.585033,0.035666,0.759225
5236237815,21.598537,25.545258,3.248784,0.573973,0.054231,0.794498
5236257860,12.174153,17.512157,3.907627,0.631598,0.039043,0.805423
5236277905,10.349620,18.341146,1.551542,0.651624,-0.001473,0.803901
5236297949,16.236742,24.589489,-2.758131,0.618995,-0.009304,0.825760
5236317994,18.527922,23.887823,-3.696848,0.553712,0.018228,0.841535
5236338040,18.000717,18.872591,-1.981565,0.529638,0.056539,0.845049
5236358086,15.236829,10.751107,0.835600,0.537381,0.068249,0.841458
5236378130,12.369310,6.323184,2.621599,0.547633,0.081340,0.857449
5236398175,12.495755,5.456451,2.301480,0.513211,0.103865,0.862747
5236418220,8.382926,-0.787288,3.367387,0.496517,0.118427,0.875160
5236478354,-9.896812,-13.070689,0.570873,0.560315,0.131032,0.846934
5236498399,-16.869116,-19.418444,1.468345,0.590334,0.075650,0.789980
5236518442,-13.807285,-18.625235,-3.446826,0.588316,0.071026,0.801839
5236538487,-8.211104,-12.623649,-16.149399,0.482294,0.047144,0.872185
5236558532,-3.532036,-34.058025,-24.948906,0.423824,0.064455,0.963297
5236578577,-3.064281,-47.167229,-19.622526,0.553475,0.170380,0.965646
5236598621,-16.350510,-45.800018,-13.396840,0.713233,0.333600,0.873055
5236618666,-56.356651,-24.582050,-29.626635,0.621854,0.330214,0.846013
5236638711,-79.503716,-28.730944,-54.669418,0.502459,0.335609,0.953166
5236658756,-96.074997,-44.513042,-76.300529,0.644915,0.410875,0.777778
5236678801,-136.869858,-40.519913,-97.726524,0.863559,0.437799,0.730900
5236698845,-177.177933,-19.131149,-123.438950,0.918794,0.480880,0.751341
5236718890,-210.483124,0.557967,-146.148514,0.914825,0.455976,0.628335
5236738937,-240.017090,10.752637,-164.246094,0.911442,0.508607,0.524995
5236758982,-279.161865,17.573414,-198.928024,0.862758,0.461419,0.291955
5236799072,-343.188965,68.878738,-286.377869,1.132824,0.053162,0.069413
5236819116,-346.539948,96.975555,-299.352692,1.112750,-0.234637,0.217860
5236839161,-317.786133,76.777443,-301.611023,1.050110,-0.280746,0.530339
5236859206,-294.082886,40.725502,-310.862549,0.926376,-0.184223,0.435409
5236879250,-309.951630,57.438122,-327.295959,0.831229,0.032382,0.626942
5236899293,-316.545258,20.108027,-329.891785,0.806822,0.377297,0.505831
5236919338,-309.976379,-56.028664,-335.317230,1.011878,0.949313,0.156365
5236939383,-365.326508,-57.291740,-343.188019,1.411464,1.204233,-0.246148
5236959428,-391.727264,2.420368,-340.893677,1.745410,0.346874,-0.414442
5236979473,-367.630859,60.569000,-337.971802,2.218781,-0.970839,-0.177776
5236999518,-350.575378,119.651207,-317.748993,1.936964,-1.701064,0.184180
5237019563,-332.335388,156.688766,-267.429810,0.844822,-1.069334,0.446398
5237039608,-303.415039,110.287079,-261.330231,0.631787,0.130362,0.839359
5237059652,-326.029663,16.665497,-279.382690,0.923068,0.496673,0.287006
5237079697,-338.681915,-10.237772,-262.835205,1.357042,0.168194,-0.073021
5237099742,-342.203094,44.351543,-233.415115,1.487941,-0.361462,-0.214001
5237119788,-303.425293,138.877228,-235.828262,1.186893,-0.638923,-0.225564
5237139833,-255.043610,176.740143,-252.583862,0.807707,-0.709099,-0.076074
5237159878,-211.400146,156.935837,-280.066620,0.601777,-0.690327,0.300557
5237179923,-228.017853,139.334396,-291.060486,0.550809,-0.486609,0.641195
5237199968,-225.929916,115.789505,-282.529358,0.516306,-0.311593,0.667085
5237220012,-208.442749,66.119980,-280.483368,0.725294,-0.017297,0.697866
5237240057,-218.030197,54.951809,-271.242096,0.993742,-0.012475,0.597726
5237260102,-199.183380,81.442383,-264.105682,0.942006,-0.250096,0.498159
5237280145,-200.003021,87.476013,-268.599915,0.887838,-0.347852,0.583515
5237300190,-211.716553,77.096703,-267.007111,0.816902,-0.378202,0.513871
5237320235,-200.862228,88.908066,-263.330444,0.662557,-0.421221,0.448275
5237340280,-174.076523,100.931381,-264.804199,0.577814,-0.503927,0.471737
5237360324,-144.607590,86.873642,-267.896576,0.562654,-0.674969,0.601502
5237380369,-148.420364,86.203766,-260.591217,0.635794,-0.701978,0.836608
5237400414,-133.895966,82.695625,-242.141129,0.681213,-0.481733,0.953207
5237420459,-140.637344,84.659973,-264.420502,0.565655,-0.077306,0.842320
5237440504,-159.530228,92.969063,-280.358093,0.426094,0.030766,0.873549
5237460548,-169.274307,85.330040,-266.029968,0.386682,0.118331,1.074202
5237480593,-182.662064,52.132015,-253.935211,0.578525,0.069372,1.230874
5237500640,-171.993958,42.592461,-235.038437,0.700184,0.029665,1.061018
5237520684,-166.275101,55.404716,-212.841354,0.661798,0.030949,0.958028
5237540729,-166.644226,56.455006,-210.454987,0.493401,-0.161881,0.885190
5237560774,-163.373428,71.072960,-217.030380,0.326278,-0.404855,0.902454
5237580819,-162.622131,51.361496,-221.916061,0.181009,-0.365859,1.013602
5237600864,-148.081757,-3.264205,-226.661163,0.317032,-0.240563,1.047612
5237640953,-132.496231,30.171654,-212.794617,0.774972,-0.427152,0.779182
5237660997,-127.371773,50.204254,-192.420578,0.606898,-0.551726,0.540354
5237681041,-118.751160,41.373798,-172.487900,0.558361,-0.546717,0.577560
5237701086,-143.443985,28.289570,-159.982651,0.467734,-0.556380,0.741768
5237721131,-110.581604,19.776928,-180.994064,0.386772,-0.219830,0.795575
5237741176,-93.047340,54.777100,-217.097076,0.297492,-0.370706,0.737626
5237761221,-60.617401,43.723755,-226.682938,0.348770,-0.453688,0.777835
5237781265,-56.981850,36.003345,-198.683411,0.465582,-0.375972,0.510467
5237801310,-36.211315,25.846142,-148.019012,0.619092,-0.061058,0.566802
5237821355,-105.534256,37.144096,-121.740723,0.540294,-0.066308,0.898218
5237841400,-83.589828,54.733295,-161.327438,0.651828,-0.030047,0.585996
5237861445,-85.256706,79.986267,-140.007309,0.856759,0.030016,0.755156
5237881491,-92.464211,65.383499,-141.012421,0.813763,-0.194011,0.775173
5237901536,-85.565575,83.063591,-142.727585,0.703311,-0.219324,0.714941
5237921581,-61.272564,81.378380,-91.503975,0.676834,-0.379511,0.897431
5237941625,-26.002075,71.127937,-34.429417,0.536481,-0.530233,0.680417
5237961671,-12.444011,82.647972,2.541611,0.408374,-0.362840,0.643776
5237981715,7.000913,59.676384,34.692963,0.403993,-0.075061,0.730319
5238001760,45.689400,48.274143,55.570744,0.577300,0.067609,0.697905
5238021805,56.244144,53.380840,73.616539,0.607411,0.038596,0.644193
5238041849,40.511787,53.636932,88.866844,0.415062,0.089830,0.711468
5238061893,26.305004,47.492096,104.507668,0.284824,0.260727,0.700912
5238081938,16.655138,9.077085,100.450768,0.464557,0.285673,0.727966
5238101983,2.291723,-10.874437,73.641457,0.808116,0.081065,0.604338
5238122028,8.460077,119.226738,51.903770,0.582053,-0.139220,0.486147
5238142072,10.553145,206.268875,36.766911,0.113052,-0.182127,0.852899
5238162117,5.485044,128.247299,42.981789,0.060957,0.059993,1.006115
5238182162,-22.646942,54.285202,73.946281,0.273735,0.057576,0.811397
5238202207,-24.804670,81.795815,61.160942,0.410665,-0.230871,0.855839
5238222252,0.030300,143.706772,48.608444,0.190373,-0.268140,0.830866
5238242296,-0.575159,135.178772,47.432693,0.029699,-0.182471,0.809411
5238262342,-13.517794,98.000275,48.565075,0.024033,-0.181337,0.790696
5238282387,-9.731969,118.253838,50.741440,-0.026760,-0.245947,0.965481
5238302432,-7.616067,126.176292,43.571770,-0.251845,-0.220919,1.147632
5238322477,-21.289621,75.230103,37.058758,-0.238144,-0.210009,1.271918
5238342522,-19.652372,59.614250,31.271067,-0.058448,-0.326143,1.280198
5238362567,-6.782139,64.077026,24.814508,-0.186765,-0.334079,1.353618
5238382611,4.235168,44.948795,18.249716,-0.259061,-0.338896,1.394737
5238402656,3.752817,10.304229,16.000681,-0.265014,-0.313612,1.486986
5238422699,-5.799785,-35.211674,24.900846,-0.381026,-0.319852,1.681026
5238442744,-1.095680,-88.966377,28.168615,-0.578933,-0.388036,1.813432
5238462790,11.859215,-152.304626,32.502071,-0.579357,-0.319395,1.711348
5238482834,60.649773,-195.991806,28.421089,-0.344006,-0.353707,1.752773
5238502879,112.884254,-213.029388,17.531076,-0.103380,-0.332451,1.986974
5238522924,95.544319,-152.233246,30.831907,-0.172958,-0.208929,2.544096
5238542968,72.166214,-67.740005,28.386761,-0.400458,-0.555992,1.575765
5238563013,182.988922,-47.477478,-47.895603,-0.485945,-0.567518,0.730524
5238583058,202.773239,-131.407791,-84.992859,0.650414,-0.436002,-0.204754
5238603103,-108.623169,-150.685928,3.492016,1.396083,1.011356,0.478135
5238623147,-164.855255,-194.921997,97.936661,-1.153066,1.050525,1.815027
5238643194,-25.809017,-122.774544,-36.548294,-0.997382,-0.009828,2.186273
5238663239,-14.906450,19.220089,-86.521225,-0.394271,-0.147807,0.753768
5238683284,-54.911419,-34.273804,-28.790539,-0.409745,-0.174316,0.799760
5238703328,-16.015739,-54.021057,10.545052,0.183699,0.072876,0.874435
5238723373,-22.879112,-45.164799,-33.071152,-0.604873,0.236343,0.942984
5238743418,91.367241,-86.500977,-41.343479,-0.952927,-0.129339,0.024274
5238763463,74.148727,-95.484375,11.279477,-0.333057,-0.541588,0.324093
5238783507,-172.756912,-238.904449,4.699462,-0.038859,0.137671,1.014213
5238803551,73.418716,-354.278961,-20.421387,0.624719,1.537178,-0.136376
5238823596,-63.241196,-51.575825,50.040012,0.771202,0.143950,0.062198
5238843641,-37.975098,-0.930598,-15.536097,0.024858,-2.132665,1.494104
5238863685,114.957314,-158.448456,-45.143574,0.356017,-0.450582,0.154754
5238883731,37.272476,-185.309387,75.480835,0.983504,0.496079,0.480194
5238903775,35.685413,-100.409355,39.332485,0.844302,0.049956,0.437974
5238923820,35.936806,-43.706673,26.280140,0.780950,-0.063972,0.700023
5238943865,33.177635,-59.921097,16.260475,0.789880,-0.054427,0.714577
5238963909,22.308619,-26.103172,0.846696,0.676784,0.225944,0.761966
5238983954,-2.592735,-14.462982,-5.319427,0.489876,0.144140,0.786769
5239003999,-3.167104,-28.761301,-9.537277,0.645358,-0.147324,0.830734
5239024045,-4.036607,-9.315797,-21.570671,0.794184,-0.208275,0.791718
5239044090,-1.220752,15.954761,-36.913685,0.554688,0.053642,0.836698
5239064135,-17.507057,3.071290,-35.039661,0.408729,0.076263,0.976291
5239084179,-21.895424,-7.611176,-34.325508,0.458503,-0.008943,1.020877
5239104224,-26.633230,-2.933817,-36.899059,0.614731,0.199885,0.924334
5239124269,-43.005142,17.900955,-31.742306,0.582054,0.459254,0.869603
5239144314,-69.382568,30.086313,-28.496649,0.341107,0.214124,0.989772
5239164358,-63.468964,4.707307,-34.650723,0.296860,-0.465149,1.025192
5239184402,-31.246021,8.148035,-45.642830,0.330382,-0.656493,1.033571
5239204447,-9.040589,-4.006197,-38.427082,0.228849,-0.101763,1.110191
5239224492,-12.336185,-18.183613,-32.583271,0.334075,0.103314,1.069662
5239244536,-24.109854,-21.733448,-22.113527,0.405018,0.181258,1.064894
5239264581,-33.364586,-12.854912,-20.946310,0.267141,0.041796,1.147433
5239284626,-30.226572,-27.562021,-14.412346,0.133593,-0.013023,1.194436
5239304671,-23.130955,-46.520828,-6.746727,0.130753,-0.086624,1.184552
5239324716,-16.061037,-59.384609,-0.762699,0.144190,-0.136279,1.066156
5239344761,-4.851812,-66.120026,1.184193,0.067552,-0.215894,0.992325
5239364806,8.365858,-88.658157,5.058055,0.143544,-0.207154,0.896665
5239384850,27.221151,-107.514252,10.203176,0.438369,-0.201178,0.733796
5239404897,38.791790,-98.305779,7.584101,0.686989,-0.224026,0.611525
5239424942,38.240726,-93.309555,12.207907,0.826874,-0.066868,0.634648
5239444986,22.612335,-107.156387,19.601059,1.183698,0.183531,0.612700
5239465031,14.062018,-77.794830,20.240702,1.552345,0.045948,0.580657
5239485076,9.329470,-19.723600,15.422559,1.427761,-0.011699,0.633302
5239505121,-3.279507,-4.215963,13.043864,1.178433,0.090742,0.591850
5239525165,-9.639549,9.785198,19.219734,1.057219,0.077265,0.444676
5239545209,-9.120610,24.101198,28.831745,0.915801,-0.010987,0.353600
5239565254,-4.186388,26.600628,35.617546,0.966082,-0.043179,0.192629
5239585298,-5.141351,34.149467,36.775711,1.145332,-0.034703,-0.014806
5239605343,-2.971691,93.319572,21.169428,1.139546,0.005664,0.120839
5239625388,13.994762,155.712494,0.502378,0.803824,-0.037133,0.338704
5239645433,7.491719,139.204147,5.710196,0.716649,-0.015222,0.476638
5239665478,-1.516755,129.600128,12.515301,0.791688,-0.101708,0.510130
5239685523,2.158953,156.371536,6.618574,0.770411,-0.040158,0.568281
5239705568,-1.482225,176.417938,7.137965,0.546562,-0.048775,0.614516
5239725612,12.165189,176.508606,15.184818,0.267094,0.050184,0.746677
5239745657,-2.474639,168.987854,29.573242,0.070575,0.229290,0.863213
5239765702,9.832518,148.394775,46.951866,-0.139393,0.115258,0.971965
5239785748,5.339642,101.135193,41.751518,-0.130370,-0.277667,0.903258
5239805793,5.901488,63.259537,39.741318,0.019897,-0.404455,1.115806
5239825838,-7.474033,47.504482,16.782946,0.184273,-0.256252,1.249073
5239845882,-12.803465,38.547112,15.118157,0.472270,-0.113408,1.038410
5239865927,-13.926238,47.056210,21.655220,0.567927,0.022468,0.889676
5239885972,-2.125901,88.408669,4.072133,0.343056,0.065049,0.828503
5239906017,-8.219234,96.896767,5.070731,0.182135,0.002008,0.791703
5239926060,-10.427857,64.573143,5.582941,0.161542,-0.198093,0.725558
5239946105,-7.746579,47.110500,-14.632448,0.182593,-0.327096,0.693454
5239966150,32.903725,60.098675,-7.345720,0.300674,-0.418426,0.500782
5239986194,46.918255,77.911171,-5.214996,0.241545,-0.319428,0.365242
5240006240,56.056519,50.640934,-2.204342,0.373343,-0.130388,0.493381
5240026284,20.588291,27.073246,18.712606,0.590120,-0.093069,0.280064
5240046329,5.489759,33.149498,13.962152,0.743202,-0.009684,0.152304
5240066374,-35.289833,99.471962,0.605835,0.763115,0.206945,0.446192
5240086418,-10.604074,180.504913,1.581737,0.287941,0.203926,1.094989
5240106463,-31.754490,190.574966,-7.095225,-0.255185,0.136470,1.756659
5240126508,-47.992195,128.151276,-2.660702,-0.514755,-0.246549,1.869818
5240146553,-92.967850,64.971565,6.268740,-0.083837,-0.496939,2.011508
5240166599,-112.044472,35.988495,-0.132185,0.299007,-0.449141,2.126897
5240186644,-5.524552,82.710899,-13.197574,-0.202382,-0.081978,1.375095
5240206689,62.602066,96.479935,-8.308702,-0.427062,-0.205118,1.342149
5240226734,34.272770,-7.333348,15.105326,0.293997,-0.741541,1.398550
5240246779,35.557636,-76.084503,28.073486,0.659113,-0.663247,0.644537
5240266823,33.543850,-55.025970,68.095543,0.349666,-0.207391,0.712169
5240286868,41.962963,-39.424049,45.420380,0.278575,-0.147488,1.117851
5240306911,53.694397,-40.442211,18.080748,0.550463,-0.097953,0.855126
5240326956,61.913330,-2.595676,6.036463,0.461661,-0.046697,0.637550
5240347001,37.845104,36.678074,-4.222726,0.156666,-0.201608,0.808857
5240367046,50.038643,23.629116,-28.232948,-0.086071,-0.379494,0.820024
5240387090,47.461960,0.912445,-29.151623,-0.031864,-0.367090,0.882137
5240407135,24.984814,-5.051297,-49.108803,0.007215,-0.316287,0.915780
5240427180,9.671536,2.078888,-76.789680,-0.006461,-0.182671,0.970570
5240447225,-7.185049,-2.639214,-104.767487,-0.025105,-0.087532,1.152284
5240467270,-45.684265,-19.587610,-142.197327,-0.022695,-0.000933,1.381474
5240487315,-86.898552,-0.065405,-179.366577,-0.051477,-0.091044,1.542428
5240507359,-97.995865,20.409555,-220.355835,-0.163248,-0.203328,1.705235
5240527404,-84.156189,18.663931,-238.774704,-0.404963,-0.336025,1.514009
5240547450,-90.728043,37.831360,-254.733215,-0.523260,-0.388654,1.504839
5240567495,-89.051598,59.404083,-264.053162,-0.403271,-0.409905,1.199526
5240587540,-88.036934,-19.493462,-267.246979,-0.080296,-0.266145,0.660440
5240607585,-95.535400,-77.953957,-255.775360,0.287421,-0.340910,0.176108
5240627630,-90.803238,-52.939781,-262.912659,0.666745,-0.630868,0.399233
5240647675,-12.444681,42.967930,-259.817841,0.749460,-0.804609,0.747969
5240667720,32.528728,83.882751,-206.827576,0.210576,-0.811087,0.815374
5240687763,20.363369,36.266373,-158.351196,-0.277885,-0.635505,0.861433
5240707807,14.758150,-18.561192,-160.541870,-0.172956,-0.234106,0.763198
5240727852,-6.086400,-3.300122,-169.248947,0.087510,0.110789,0.712271
5240747897,13.951550,39.594582,-172.612335,0.226673,0.249199,0.763403
5240767942,18.449032,53.453674,-174.145477,0.287253,0.153584,0.802964
5240787987,-12.753160,42.191975,-160.883560,0.383738,-0.033866,0.862210
5240808032,-15.235512,54.206066,-137.731506,0.331861,-0.119443,0.884661
5240828076,13.726643,66.290428,-100.802933,0.248964,-0.098036,0.937140
5240848121,26.424486,51.066399,-59.297607,0.221355,-0.058120,0.715371
5240868166,20.264074,10.865767,-38.627735,0.306028,0.066988,0.505099
5240888211,14.802914,-23.398834,-16.864182,0.342394,0.178600,0.432973
5240908257,18.770174,-4.318497,-20.378963,0.413988,0.397648,0.539303
5240928302,7.511330,22.143635,-32.819279,0.457079,0.045828,0.601792
5240948347,0.648371,26.748066,-66.314369,0.538270,-0.377506,0.687273
5240968392,9.377979,90.036438,-72.253906,0.438708,-0.410033,0.723050
5240988436,0.036676,176.338959,-47.100636,-0.051356,-0.079473,0.990513
5241008481,-13.826839,120.411568,-43.223740,-0.235706,0.169270,1.117671
5241028526,-51.298153,46.953293,-25.283966,0.045632,0.185105,1.054134
5241048571,-86.849701,52.659466,-30.265787,0.324512,-0.032962,1.115147
5241068614,-73.587868,117.427155,-50.617184,0.231955,-0.212734,1.126152
5241088659,-62.152538,130.262466,-50.579865,0.019280,-0.318759,1.177096
5241108703,-66.129333,88.262291,-38.594654,-0.115515,-0.471483,1.347807
5241128748,-67.355911,51.556904,-27.671619,-0.179855,-0.505471,1.393140
5241148793,-65.136490,27.385426,-26.225927,-0.195479,-0.495062,1.450845
5241168838,-61.603317,6.565615,-22.797480,-0.219442,-0.562311,1.518688
5241188883,-55.903004,-22.029457,-31.506626,-0.240958,-0.544208,1.544148
5241208928,-58.365726,-41.526539,-55.924042,-0.236417,-0.582500,1.690987
5241228972,-60.419277,-63.954659,-73.317749,-0.424501,-0.795297,1.727788
5241249017,-28.682795,-84.178749,-76.939720,-0.527053,-0.903661,1.846838
5241269062,15.791632,-89.946152,-72.658569,-0.531471,-0.828498,1.768342
5241309153,129.353485,-44.168121,-9.030345,-0.466756,-0.566559,0.889347
5241329198,-7.192981,-108.544067,-30.228930,-0.115251,0.068154,0.399405
5241349243,13.793524,-223.209167,-110.197357,0.957064,0.441401,0.240823
5241369288,19.573513,-100.226158,-90.801781,0.806574,-0.790559,0.679076
5241389332,132.521255,65.810547,-10.507050,-1.106114,-1.344017,2.054917
5241409377,68.963722,-143.277954,34.181213,-1.250589,-0.504402,0.538323
5241429445,41.998096,-117.724472,-17.562502,-0.398309,0.558868,0.889115
5241449466,60.868401,-119.742981,-58.417446,-0.016425,0.908231,0.712395
5241469511,51.049805,-111.333359,-19.466337,-0.260206,0.145404,0.355919
5241489555,112.432037,-113.493004,-39.049225,-0.846198,-0.529677,0.177853
5241509600,-18.327229,-169.575516,-29.925875,-0.325247,-0.119435,0.785630
5241529645,-77.534698,-313.326538,-40.108284,0.189501,0.464046,0.181404
5241549690,158.716934,-259.380829,32.574360,1.016171,0.413244,-0.124239
5241569734,-55.472466,-68.559372,73.780823,0.918342,-1.232267,0.783051
5241589779,101.618240,-100.058647,-34.209961,0.039871,-1.069843,0.573265
5241609824,113.156113,-163.852249,19.432785,0.870749,-0.146867,0.468107
5241629869,60.739265,-190.995911,33.550411,1.460684,-0.493475,0.844281
5241649914,102.722740,-63.167549,12.492557,1.058903,0.762467,0.434844
5241669960,9.187021,3.338592,18.868170,0.705162,1.298412,0.855837
5241690004,-86.111038,-48.460342,4.495018,0.689802,0.325646,1.009608
5241710050,-29.468874,-12.902107,-0.170565,0.550770,-0.174284,0.677037
5241730094,-32.732887,20.994507,4.903818,0.270603,-0.428754,0.735815
5241750139,-10.829229,-49.661308,-3.135585,0.412901,-0.943281,1.056207
5241770184,39.907101,-23.983662,15.275944,0.660944,-0.598230,0.788137
5241790229,37.465157,-6.088552,34.247307,0.360838,-0.119520,0.971275
5241810272,39.917110,-33.965343,44.615746,0.375602,0.091308,1.083904
5241830317,44.800388,-24.877218,48.843578,0.293179,0.206447,0.951156
5241850362,31.690470,-23.117142,33.324921,0.192058,-0.137085,1.028820
5241870407,34.543465,-47.478439,19.575050,0.294698,-0.150544,0.994173
5241890452,26.370071,-47.915779,11.699869,0.365529,0.050504,0.918101
5241910496,13.908586,-50.886608,6.998696,0.431994,-0.027382,0.963204
5241930541,18.668423,-50.619793,1.019678,0.494229,-0.192192,0.918587
5241950586,23.030478,-57.267162,-0.294974,0.537486,-0.199465,0.897658
5241970631,21.964901,-68.076736,-5.403697,0.627184,-0.059175,0.892239
5241990675,15.107141,-67.276512,-13.777710,0.752400,0.015570,0.860307
5242010720,2.512140,-62.478809,-17.334843,0.834333,0.124986,0.780611
5242030765,-18.719608,-59.192554,-18.173161,0.882030,0.231010,0.703061
5242050811,-28.598867,-56.608330,-20.263453,1.046649,0.011213,0.604290
5242070856,-23.623987,-45.194931,-17.051758,1.246356,-0.146321,0.527203
5242090901,-24.504322,-20.847012,-12.337063,1.357928,-0.096887,0.346431
5242110946,-18.640846,11.271633,-5.319751,1.450264,0.006660,0.208318
5242130991,-13.334736,50.011951,3.889642,1.536766,-0.068346,0.214304
5242151036,0.890481,77.672874,18.678665,1.533339,-0.253554,0.062761
5242171080,10.462857,113.134850,13.795074,1.465264,-0.003242,-0.219400
5242191124,3.752102,158.092545,16.858959,1.330076,0.073712,-0.070526
5242211169,16.117458,206.906296,28.244482,1.014184,-0.102723,-0.035596
5242231213,11.371084,223.531052,23.686560,0.730639,-0.045060,0.075935
5242251258,12.764350,237.110474,19.693905,0.401035,0.027607,0.037238
5242271303,9.708881,257.990509,15.903683,0.072025,0.217142,0.161553
5242291348,12.725906,275.929626,24.929361,-0.236612,0.161318,0.486609
5242311393,26.020266,260.592316,35.499928,-0.580704,-0.075406,0.860516
5242331437,35.827801,216.499405,34.658878,-0.787088,0.080936,0.685006
5242351482,42.711414,183.613159,35.261894,-0.987066,0.109693,0.842454
5242371527,11.581766,148.138489,21.310749,-1.093835,-0.251318,1.124889
5242391572,20.861286,97.613258,14.674690,-0.764569,-0.121602,1.399904
5242411617,3.125649,76.654472,23.142046,-0.404687,0.026796,1.448833
5242431663,11.904724,68.205383,12.668516,-0.079102,-0.149276,1.513755
5242451708,46.918900,97.917862,15.289771,-0.217908,-0.292053,1.502266
5242471753,36.656010,101.782646,3.693577,-0.521298,-0.190768,1.516421
5242491797,5.933552,13.680176,6.076984,-0.406295,0.098322,1.302377
5242511842,-9.220425,-24.888330,-11.787634,-0.285104,0.150326,1.344258
5242531887,3.025579,-15.979660,-20.582426,-0.284117,-0.042287,1.374261
5242551932,9.149593,-70.444229,12.462664,0.174702,0.380979,1.238736
5242571975,-12.570006,-128.444473,56.580650,0.945195,0.253700,0.944421
5242592020,-49.912922,-91.912354,59.536919,1.247751,-0.589742,0.707227
5242612065,-36.287971,79.205780,-24.164906,0.877147,-0.400035,0.757125
5242632110,-41.367786,149.586578,-88.071907,0.279224,0.324677,0.883069
5242652154,-32.791775,106.841705,-51.636086,-0.216712,0.471062,0.885431
5242672199,-5.771440,40.485531,45.954601,-0.298389,-0.500805,1.201406
5242692244,1.963017,2.553263,100.645760,-0.243893,-0.880771,0.626899
5242712289,-8.067677,3.861851,67.421860,-0.224462,-0.471266,0.226433
5242732334,-58.531029,-11.682676,2.092809,0.071909,0.617235,0.920292
5242752379,-70.572762,7.845318,-16.947632,0.151077,0.780571,1.003374
5242772424,-14.231867,93.550407,-10.969847,-0.215135,-0.123979,0.989228
5242792470,27.840603,93.876884,-15.452323,-0.546654,-0.512368,1.231099
5242812515,30.486500,22.525696,-1.204646,-0.388757,-0.333186,1.022918
5242832559,2.177350,-31.667389,11.717630,0.092464,-0.307453,0.889472
5242852604,-1.907096,-43.295620,-11.094948,0.344231,-0.449134,0.905591
5242872649,44.868805,47.527813,0.223196,0.215047,-0.569670,0.863307
5242892694,58.025219,59.628971,27.285343,0.135368,-0.298993,0.962733
5242912739,6.976992,-23.776646,40.447674,0.165203,0.308018,1.403240
5242932783,-106.163849,-17.701664,30.521893,0.551012,0.908423,1.656300
5242952827,5.036103,53.978294,2.655623,0.424402,0.368293,1.024343
5242972872,-34.698132,187.143280,-71.619232,-0.326895,-0.361839,1.271885
5242992916,64.801109,87.517860,-73.331627,-0.428485,-0.677098,1.450372
5243012961,37.591293,-76.548958,13.316930,0.091811,-0.694237,0.880551
5243033006,-23.289389,-119.629143,66.459251,0.588199,-0.568041,0.840617
5243053051,11.138209,-3.582058,47.390274,0.361465,-0.077627,1.329922
5243073096,50.345779,22.541740,4.989116,0.088444,0.195501,1.080036
5243093140,18.107103,-34.458668,-12.361407,0.002220,-0.142641,0.914402
5243113186,9.352616,-68.506104,-20.962189,0.307926,-0.416412,0.804907
5243133230,24.934027,-24.242479,2.592252,0.462628,-0.149335,0.817034
5243153275,-7.604015,-23.199392,28.499161,0.625962,0.135794,1.398285
5243173321,-72.578514,-23.802044,-33.342617,0.143814,0.407434,1.352826
5243193366,-70.731644,45.908112,-104.760406,0.160618,0.129115,0.988336
5243213411,-6.727659,20.590044,-83.659805,0.114179,-0.502619,1.037459
5243233455,11.743752,-46.812115,-80.187576,0.147244,-0.846637,0.823581
5243253500,-1.907998,-17.272263,-81.619255,0.178469,-0.479585,0.789733
5243273545,17.141945,-25.284527,-64.509918,0.183827,-0.088386,1.026628
5243293590,20.811712,-59.171764,-64.864075,0.254897,-0.200343,0.821582
5243313635,41.752522,-62.563492,-62.515011,0.434824,-0.203901,0.690547
5243333678,44.776112,-23.955086,-63.656487,0.333857,-0.039629,0.844595
5243353723,19.992321,-18.324135,-79.980644,0.290781,-0.169116,0.939671
5243373768,29.625048,-30.969276,-89.877762,0.285658,-0.211472,0.871427
5243393813,22.723976,-16.765417,-124.006332,0.210699,-0.139724,0.917539
5243413857,-3.960979,-8.439716,-151.715424,0.163729,-0.102003,0.980707
5243433902,-16.717918,-1.201939,-155.045074,0.156667,-0.164167,0.917619
5243453947,-20.113220,-0.924170,-152.360535,0.081652,-0.158922,1.083002
5243473992,-66.238991,2.153911,-173.706696,0.076400,-0.148159,1.148154
5243494037,-95.545036,13.049278,-188.195602,0.090560,-0.094483,1.149362
5243514081,-124.476898,23.638750,-206.100113,0.015230,-0.170563,1.250864
5243534126,-132.503891,27.747059,-229.598221,-0.099139,-0.323203,1.362454
5243554173,-122.984375,20.169777,-243.696960,-0.237096,-0.381693,1.346906
5243574218,-88.113548,-4.539327,-242.653473,-0.173329,-0.436757,1.340361
5243594263,-54.372162,-12.680619,-230.707565,-0.049553,-0.366936,1.054900
5243614307,-64.233376,-6.497222,-223.804184,0.236801,-0.154582,0.558227
5243634352,-117.360291,-27.790241,-215.270859,0.673577,-0.118071,0.235813
5243654396,-113.431252,-95.402603,-183.324005,1.073069,-0.319896,0.133784
5243674442,-71.773064,-19.767694,-186.945084,0.927477,-0.745500,0.242119
5243694504,4.263290,171.571854,-244.373856,0.515813,-0.836777,0.732325
5243714530,20.209248,133.703537,-217.499176,0.094144,-0.808772,0.668287
5243734574,-26.057924,15.925444,-166.234283,0.169463,-0.658753,0.529575
5243754619,-65.026878,22.321739,-130.653595,0.386137,-0.161787,0.740009
5243774664,-51.013008,101.126068,-120.002312,0.468029,0.091904,0.829922
5243794709,-14.929571,111.184334,-112.677811,0.354396,0.235755,0.694798
5243814754,-38.211254,86.401779,-99.341927,0.360378,-0.049363,0.689092
5243834799,-22.650888,74.181366,-66.233910,0.317773,-0.496986,0.815021
5243854844,-3.689382,107.339485,-38.184849,0.097111,-0.382522,0.755926
5243874888,-8.533340,95.808693,-14.977187,0.014281,-0.006422,0.828694
5243894933,-32.481670,39.624508,-9.910453,0.305568,0.064258,0.805474
5243914978,-43.469280,6.234565,-14.289436,0.627118,-0.012048,0.753462
5243935024,-9.248093,75.042374,-19.020247,0.400326,-0.345907,0.811828
5243955069,36.639282,142.090958,-25.971958,0.031573,-0.485757,0.979632
5243975114,27.175392,114.069107,-6.164371,-0.032723,-0.187110,0.982979
5243995159,2.882880,55.475273,31.422165,-0.050930,-0.023227,1.078547
5244015204,8.590056,20.163942,45.673244,-0.029201,-0.178490,1.172580
5244035248,31.519051,34.558533,36.532337,-0.013540,-0.296592,1.249236
5244055293,28.165369,26.212168,28.338181,-0.011805,-0.147925,1.311843
5244075337,3.122505,-13.502981,27.584974,-0.019424,-0.123187,1.551122
5244095381,11.383267,-31.657562,17.421705,-0.097262,-0.259513,1.712190
5244115426,35.483212,-51.984543,6.986684,-0.253828,-0.352899,1.886623
5244135471,45.159767,-101.026306,4.071524,-0.413687,-0.382257,1.895439
5244155516,61.765022,-144.903702,5.341749,-0.370107,-0.271462,2.013929
5244175560,84.235947,-130.133881,1.506333,-0.411034,-0.175245,2.072470
5244195605,97.855972,-84.750275,-23.301428,-0.503540,-0.210943,1.799775
5244215650,178.614990,-49.133274,-53.696121,-0.348372,-0.368112,1.092331
5244235695,192.012970,-110.494087,-45.764473,0.519369,-0.319086,-0.005468
5244255740,-65.307098,-75.365135,48.006165,0.863442,0.627755,0.249799
5244275785,-162.263702,-125.039543,22.345789,-0.164431,1.375147,1.755109
5244295830,81.915970,-86.503342,-81.495613,-0.365647,0.057177,0.442551
5244315876,47.729145,94.348114,-61.627377,-0.417717,-0.480166,0.422116
5244335920,-256.551483,-145.705719,-23.116722,-1.502362,0.220106,2.451180
5244355965,-56.264069,-219.381729,-15.791186,-0.277192,1.283247,0.532862
5244376010,7.090449,-31.235682,-15.959627,-0.203388,0.281909,-0.550322
5244396055,-56.043339,-94.743294,6.372801,0.440434,-1.087335,1.123878
5244416100,-86.089851,-269.601929,-27.673828,0.394972,-1.973143,1.075866
5244436145,112.853165,-59.837605,33.758202,0.235194,0.166970,-0.208121
5244456188,-33.989929,-104.599182,70.328613,0.446056,1.025051,1.055588
5244476233,-48.987885,-229.617905,53.009247,0.594757,0.147464,0.357140
5244496278,10.008744,-66.793213,70.549751,0.728021,-0.311121,0.503837
5244516323,14.666533,-21.367714,54.076519,0.398674,-0.563102,0.590459
5244536367,34.893501,-93.005035,57.402168,0.577842,-0.778563,0.804314
5244556412,65.546249,-47.176712,56.971447,0.773119,-0.630552,0.511355
5244576457,69.154160,-19.133419,56.612541,0.669159,-0.222251,0.693412
5244596502,78.291862,-33.980564,67.488770,0.786599,-0.197163,0.762164
5244616547,94.046326,8.749395,61.392933,0.704549,-0.210400,0.766226
5244636592,94.028831,31.433613,35.972221,0.487814,-0.389706,1.074218
5244656636,100.677513,9.578253,7.563752,0.381293,-0.201699,1.133434
5244676682,92.403152,9.170248,-2.878052,0.323704,0.279558,1.050924
5244696727,56.684238,11.581666,-16.281311,0.236627,0.579018,1.056466
5244716772,17.050262,15.127869,-32.123955,0.142433,0.699272,1.063707
5244736817,-23.771942,15.674108,-45.113022,0.002503,0.527764,1.160699
5244756862,-29.500816,3.815561,-42.475288,-0.049701,0.318083,1.103689
5244776906,-36.902821,-6.798460,-30.600142,0.042314,0.116206,1.100474
5244796951,-25.800009,-11.174478,-21.798199,0.074848,-0.121853,1.039036
5244816996,-8.671328,-12.912497,-17.075029,0.006970,-0.201506,1.103476
5244837040,-0.469136,-37.107109,-21.762203,0.023915,-0.133416,1.124160
5244857085,4.722610,-55.473724,-19.202042,0.276648,0.153029,1.093233
5244877129,5.363635,-53.052998,-9.762556,0.467684,0.342572,0.999014
5244897174,-6.110247,-31.864178,-2.297252,0.393888,0.126379,1.080015
5244917219,0.867201,-44.045910,-0.952702,0.352914,0.033721,1.166517
5244937263,-3.844331,-59.787724,5.162469,0.468755,0.107283,1.040478
5244957308,-16.145752,-52.307243,1.547221,0.524981,0.091366,0.973374
5244977353,-25.625324,-53.647560,-5.501937,0.557442,0.020847,0.883421
5244997398,-21.603081,-66.452293,-9.246017,0.683165,0.046063,0.786350
5245017442,-30.109047,-53.213921,-13.185305,0.940226,0.027215,0.579709
5245037487,-46.504734,-12.815273,-25.622271,1.087267,0.032836,0.427144
5245057534,-62.005650,20.124548,-25.138412,1.202149,0.166709,0.243333
5245077578,-54.339336,56.898670,-6.132890,1.254554,0.046448,0.136547
5245097623,-40.814232,115.469971,3.657530,1.079452,-0.244815,0.153878
5245117668,-29.331524,130.507385,-0.886193,0.940582,-0.384968,0.202092
5245137713,-18.953423,152.348022,10.677198,0.810607,-0.202561,0.132537
5245157758,-3.498372,177.917526,41.944763,0.611519,-0.192183,0.159039
5245177803,-0.028646,164.908386,38.951706,0.611076,-0.173461,0.237908
5245197848,-6.922922,204.725067,18.275627,0.310522,-0.095437,0.343685
5245217891,6.655337,230.224747,25.933311,-0.043046,0.009123,0.641870
5245237936,19.824812,219.739334,25.354681,-0.368845,-0.066319,0.803993
5245257981,32.723228,209.781540,31.199856,-0.712083,-0.270874,1.253025
5245278026,69.476028,134.493286,43.567055,-0.933669,-0.185518,1.238593
5245298071,66.637955,92.899948,32.977760,-0.784419,0.028473,0.897593
5245318115,31.237608,130.523712,16.483829,-0.973853,0.139982,1.373636
5245338160,-8.712830,64.775955,-13.300920,-0.955862,0.114287,1.475222
5245358204,-25.710386,42.800537,-16.151430,-0.632400,-0.124462,1.667289
5245378250,8.190720,39.869862,5.280706,-0.111307,-0.213975,1.576784
5245398294,24.567205,38.254135,10.070474,0.113893,-0.183184,1.435963
5245418339,30.871449,60.049660,-1.951575,-0.238981,-0.142111,1.605485
5245438385,16.931673,24.057318,-1.696394,-0.433330,0.011678,1.304351
5245458430,-9.258386,-45.791092,-13.733103,-0.289171,0.134832,1.123482
5245478475,-11.989853,-70.275429,-24.491756,-0.070086,0.210130,1.210407
5245498520,14.328012,-71.879898,7.411479,0.345006,0.471874,0.863033
5245518564,-10.849144,-74.577736,27.498436,0.751138,0.482817,0.772589
5245538609,-46.916664,-44.330956,17.019815,0.889733,-0.213550,0.589339
5245558654,-23.096083,41.514313,-31.764908,0.619610,-0.562286,0.593704
5245578698,-49.255440,93.848007,-92.240219,0.298694,0.126950,0.924903
5245598742,-64.534630,67.527657,-69.045227,-0.051089,0.446733,0.802170
5245618787,-30.421623,35.196541,18.052320,-0.076386,0.070094,0.933831
5245638832,24.122307,39.554993,62.257984,0.059004,-0.653703,1.171502
5245658877,3.876255,78.667923,73.483711,-0.399936,-0.999479,0.442283
5245678921,-18.272738,47.579170,10.039676,-0.543927,-0.138835,0.763981
5245698966,-125.436981,-38.300964,-9.497374,-0.176090,0.749073,1.388366
5245719012,-33.994484,-21.748730,-24.368919,0.184358,0.443302,0.865555
5245739056,8.128062,149.525345,-61.650181,-0.280669,-0.314231,1.081547
5245759101,16.982534,97.192894,-65.241577,-0.639235,-0.391862,1.276316
5245779145,-12.877396,-9.604880,-39.055161,-0.265366,-0.226087,0.710289
5245799190,-13.828841,-52.141098,-46.900208,0.313010,-0.431917,0.714209
5245819237,55.662170,-53.119984,-61.952557,0.514838,-0.704374,0.884726
5245839281,44.070866,51.457150,-35.466118,0.535335,-0.657849,1.093803
5245859326,-44.701988,30.105034,-24.000648,0.580703,0.276379,1.894717
5245879371,-37.284328,18.437366,-11.133474,0.457781,0.815480,1.270448
5245919461,-39.915787,109.226738,-68.785835,-0.633431,-0.365252,1.261753
5245939505,34.224701,-38.196751,-62.495564,-0.146471,-0.615081,0.956911
5245959549,-35.737103,-115.233765,-19.917126,0.734055,-0.375879,0.975662
5245979594,-68.955338,-56.795166,27.439564,0.934427,-0.285296,1.195249
5245999639,6.444625,95.157494,-14.535275,0.084786,0.077290,1.239766
5246019683,42.735607,64.179955,-22.867247,-0.131611,0.346572,1.079093
5246039728,5.426872,-43.788612,-11.569719,-0.162635,-0.175254,1.016802
5246059773,-3.833647,-70.949974,-4.639426,0.131837,-0.515386,1.073292
5246079818,24.667799,-24.830490,12.810986,0.308437,-0.153055,0.990653
5246099863,20.823368,-32.796974,3.340359,0.213715,-0.089962,1.021943
5246119908,14.059168,-56.150860,-2.832702,0.192676,-0.373199,0.981063
5246139952,30.436947,-37.593147,4.604386,0.186372,-0.183330,0.863550
5246159997,49.252068,-38.641270,8.635945,0.100237,-0.093005,0.896317
5246180043,67.702637,-68.046997,-3.567953,0.194616,-0.333851,0.892348
5246200088,78.394035,-60.715324,-6.582283,0.219064,-0.575941,0.861749
5246220133,77.641785,-48.705425,-6.237428,0.230527,-0.513387,0.862136
5246240178,82.031265,-69.475807,-9.550168,0.330594,-0.244978,0.694313
5246260223,41.137993,-60.498367,-1.344948,0.627872,0.290561,1.009263
5246280267,9.205401,-83.530029,1.458552,0.839790,0.413240,1.040480
5246300312,-0.196162,-41.310211,-37.888256,0.775795,0.255920,0.687785
5246320357,-15.648155,55.131157,-92.857445,0.379065,-0.029434,0.634892
5246340400,-16.467936,56.766216,-109.247276,0.045125,-0.377914,0.956444
5246360445,-18.871101,-21.885296,-129.609619,0.132887,-0.530139,0.852092
5246380490,-25.152992,-29.027718,-136.685425,0.311638,-0.353777,0.863141
5246400535,-50.474003,25.821375,-145.982208,0.166386,-0.067784,1.241014
5246420579,-83.516769,35.888527,-167.046768,0.079512,0.052267,1.210345
5246440624,-125.355293,-4.574860,-173.719421,0.173255,0.102863,1.165181
5246460669,-137.336243,0.521975,-203.808441,0.314294,-0.270512,0.972910
5246480714,-96.758194,47.191864,-223.620819,0.366956,-0.629617,0.918445
5246500759,-58.223854,77.921783,-233.430099,0.164697,-0.934009,1.017535
5246520804,-0.341393,64.517456,-216.377213,-0.058021,-1.067317,1.094579
5246540849,42.271210,74.039856,-171.330765,-0.173832,-0.740124,0.805607
5246560895,7.395564,73.157990,-137.458221,-0.189439,0.072932,0.815534
5246580940,-67.758682,-59.185040,-112.210724,0.193447,0.182769,0.824435
5246600984,-115.591103,-140.697784,-125.921707,0.940540,-0.029712,0.286926
5246641074,62.739006,186.969452,-169.255630,0.549733,-0.602585,0.349163
5246661119,57.432625,203.327347,-143.092041,-0.247938,-0.156302,0.701919
5246681164,22.227240,42.450333,-77.244080,-0.331952,0.048755,1.008163
5246701207,10.366280,-21.553930,-46.771812,0.067540,-0.018408,0.794494
5246721252,33.109295,66.537933,-54.221142,0.145653,-0.082704,0.764185
5246741297,32.012249,93.630638,-47.838978,-0.025278,0.149886,0.841591
5246761341,8.071130,45.634693,-20.869822,-0.003659,0.453059,1.017329
5246781386,-16.021685,7.274020,-16.367346,0.197620,0.452223,1.003693
5246801431,-40.874207,2.461194,-33.755276,0.586277,-0.094392,1.042454
5246821476,-14.065516,85.805222,-61.343597,0.305858,-0.564926,1.100829
5246841521,21.737061,160.331055,-74.792015,-0.170918,-0.380807,1.178950
5246861565,-9.181752,66.067993,-31.224398,-0.198913,0.057682,1.368778
5246881610,-55.846504,-30.354481,-2.732501,-0.073892,0.171922,1.289084
5246901655,-68.229172,0.979779,-17.141949,0.037217,-0.006850,1.430852
5246921701,-45.568913,26.985647,-32.531158,-0.088467,-0.194582,1.532634
5246941746,-50.221241,-10.087455,-34.578323,-0.157967,-0.326596,1.614336
5246961791,-48.005840,-57.252842,-37.140938,-0.223639,-0.418217,1.704838
5246981836,-43.984787,-97.316422,-30.140299,-0.243815,-0.429486,1.693312
5247001881,-56.606876,-116.748573,-31.198368,-0.331662,-0.531508,1.774633
5247021925,-50.697063,-129.711182,-44.289181,-0.504674,-0.559606,1.854267
5247041970,11.061116,-130.729980,-61.529598,-0.372538,-0.301857,1.615660
5247062035,82.925514,-60.093987,-52.685455,-0.328068,-0.121157,1.144613
5247082058,99.682167,-48.625370,-56.146347,-0.225311,-0.100194,0.716552
5247102103,110.441605,-150.034256,-86.971825,0.425320,-0.390454,-0.409895
5247122148,112.897995,-259.138336,-90.399551,1.581497,-0.171993,-0.180740
5247142193,-153.149216,-264.654541,-22.821924,1.213359,0.120176,-0.527986
5247162238,-75.773956,37.774475,18.344280,0.986705,-0.165806,0.321709
5247182282,72.926643,295.045288,-11.622911,0.301459,-0.609845,1.107814
5247202327,73.890640,37.614723,-32.382942,-0.214253,0.197245,0.721553
5247222372,-20.428856,-108.744354,5.907282,0.246776,0.287396,0.265949
5247242417,-46.787411,-115.471313,5.209160,0.929911,-0.054857,0.730808
5247262462,-6.098185,32.639011,5.884668,0.949312,-0.580988,1.095282
5247282507,7.232082,152.540680,32.927368,-0.128297,-0.394364,1.044900
5247302552,-6.876981,-24.739862,18.522696,-0.480623,0.214265,1.772761
5247322598,-28.067396,-95.195465,17.959473,-0.150403,-0.090412,1.074915
5247342642,3.670726,-40.453701,14.777042,-0.245999,-0.262924,1.325649
5247362687,28.248383,-16.359375,-5.287457,-0.387821,-0.378654,1.917540
5247382732,54.747532,-85.694817,-42.975658,-0.650030,-0.231889,1.062874
5247402777,-26.345005,-105.557373,-67.719292,-0.574320,-0.328880,0.756588
5247422822,48.267483,-242.999557,-40.118473,0.065292,-0.061999,0.224352
5247442865,-77.763687,-192.285812,-24.504425,0.737607,0.080727,0.563129
5247462910,-49.862930,-207.426300,12.282800,1.244628,0.654839,0.872738
5247482954,-13.320742,-37.366730,1.526671,0.649224,0.567951,0.021936
5247502999,-101.546906,123.265953,-50.377869,0.138592,-0.491013,1.517438
5247523044,72.231407,-42.331207,-56.414162,-0.463334,-1.430364,1.297007
5247543089,20.606855,-125.025742,-1.324603,-0.073307,-0.805313,0.661118
5247563134,27.009180,-241.134415,60.444283,0.802023,0.040828,1.101001
5247603223,32.658005,-3.015142,14.252757,0.445227,0.282196,0.686519
5247623268,10.119900,-35.219784,-13.122224,0.125650,-0.001337,0.967489
5247643313,25.214008,-100.741753,6.959150,0.283264,-0.276299,0.790369
5247663359,29.160629,-92.908150,25.350143,0.614511,-0.218481,0.698171
5247683404,20.223623,-82.067719,29.148998,0.826126,-0.215086,0.748488
5247703449,32.869133,-49.183388,27.916302,0.770210,-0.104201,0.687075
5247723494,35.341961,-17.292463,29.108971,0.615659,-0.061685,0.724107
5247743548,34.146080,-17.643051,24.699860,0.633667,-0.294910,0.921181
5247763583,50.563438,-30.677654,23.740679,0.742991,-0.280615,0.943257
5247783628,55.128685,-26.706867,22.780107,0.789187,-0.108089,0.918499
5247803678,50.847095,-11.799772,19.309662,0.650966,0.066921,0.942994
5247823717,32.541203,-9.493362,8.652711,0.516059,0.107915,0.986737
5247843761,20.603060,-21.309692,-8.096256,0.598485,0.103533,1.042731
5247863806,9.868307,-11.452907,-14.712135,0.534128,0.142057,1.017634
5247883851,-7.695222,-17.983358,-17.862402,0.411090,0.261914,1.036231
5247903895,-32.467907,-28.886646,-23.360645,0.415830,0.280039,0.918395
5247923940,-52.492218,-27.172401,-35.778923,0.421672,0.109471,0.868315
5247943985,-67.258873,-48.208874,-42.205170,0.535509,0.116592,0.816008
5247964030,-84.352966,-60.471447,-47.105824,0.868470,-0.022596,0.565120
5247984075,-83.258530,-27.396854,-53.064899,1.363792,-0.220783,0.496263
5248004120,-77.931137,9.597288,-39.427788,1.607285,-0.258593,0.399571
5248024164,-67.731400,66.644196,-11.737910,1.482997,-0.055893,0.324063
5248044211,-50.696903,86.297348,15.873975,1.262055,-0.136918,0.335773
5248064256,-10.074746,104.096909,23.445862,1.138751,-0.410125,0.084661
5248084301,11.429582,123.310196,11.225913,1.022646,-0.369509,-0.022771
5248104345,15.265351,136.574387,3.923727,0.883198,-0.270934,0.044317
5248124390,16.542511,149.530151,15.641479,0.830540,-0.096138,0.102761
5248144435,5.354498,170.687088,20.331562,0.675392,-0.026104,0.362075
5248164480,24.540459,193.360474,24.528307,0.407861,-0.046707,0.475371
5248184523,33.052536,200.676056,32.196320,0.221963,-0.150152,0.685362
5248204568,31.193008,229.231277,27.330721,-0.121640,-0.194430,0.683582
5248224613,14.982501,219.582626,5.660570,-0.599973,0.056964,1.033177
5248244658,1.351079,128.921906,-2.696929,-0.467510,0.060706,0.955725
5248264703,7.265960,92.978188,8.505835,-0.107075,-0.274508,0.646292
5248284747,20.960781,137.544968,9.691901,-0.088503,-0.423439,0.814633
5248304792,38.326324,143.584305,18.976877,-0.514758,-0.127369,1.096776
5248324837,52.004753,94.137589,18.987314,-0.635776,-0.082380,1.317033
5248344882,71.682938,59.054718,10.436157,-0.427355,-0.153217,1.295104
5248364926,80.239967,75.342865,9.646647,-0.600840,-0.168526,1.465036
5248384971,102.920746,38.031723,4.022853,-0.730347,-0.128283,1.441725
5248405017,99.688141,11.966391,-7.804642,-0.630482,-0.055373,1.518876
5248425062,78.912201,-25.226650,-3.321086,-0.178647,0.705990,1.538744
5248445107,3.483004,-44.925110,9.556559,0.168015,1.505156,1.638562
5248465151,-85.632042,-82.902863,-2.942021,0.585289,0.764524,1.696614
5248485197,-93.244781,-70.643394,-35.356804,0.923792,0.032496,1.233973
5248505241,-70.251289,57.002983,-91.762527,0.556142,-0.254248,0.749298
5248525286,-64.532494,71.347336,-144.096680,-0.008183,-0.323241,0.968167
5248545330,-42.409622,14.810424,-91.425682,-0.232055,-0.221027,0.747636
5248565374,-25.682774,-8.876087,1.868777,-0.230333,0.013493,0.656398
5248585419,-72.177994,-64.428528,-0.571459,0.173402,0.047049,0.561380
5248605464,-42.412403,-2.430257,-46.011936,0.246911,-0.131962,0.179641
5248625509,16.916451,87.559830,-71.981766,-0.003610,0.109930,0.757499
5248645554,-20.836279,14.546531,-62.260395,-0.061140,0.042181,1.000636
5248665599,-41.283886,-17.874819,-43.735725,0.372495,0.033335,1.141353
5248685643,-25.881084,26.306229,-35.081226,0.539186,0.059324,1.147091
5248705688,-28.052187,80.542542,-44.227341,0.083976,0.046506,1.355004
5248725733,-31.522720,64.789467,-77.531120,-0.267469,0.076956,1.345539
5248745778,-53.520412,-3.350592,-85.548660,-0.207917,0.153114,1.247290
5248765824,-53.972931,-41.468426,-70.333504,0.077479,0.212710,0.966736
5248785869,-62.406521,-20.294430,-73.046677,0.366823,0.015497,0.870784
5248805913,-43.547523,42.020416,-77.866875,0.288572,-0.203620,0.991835
5248825958,-52.477516,50.255192,-70.980209,-0.086996,0.025299,0.945231
5248846003,-42.957798,-16.687674,-60.598545,-0.123869,0.120320,0.985420
5248866048,-5.719866,-12.661088,-60.651695,0.042665,-0.064429,0.758365
5248886093,26.950457,8.890859,-56.694408,0.103800,-0.310608,0.780054
5248906159,42.775772,26.813726,-42.304588,0.101105,-0.415184,0.673101
5248926181,47.843185,23.535128,-21.748095,-0.027763,-0.073413,0.568917
5248946226,48.187962,-32.894131,-7.999689,0.022766,0.186391,0.745315
5248966271,24.092804,-76.773788,-5.457500,0.518865,0.386712,0.981179
5248986315,-119.899254,-48.865391,2.301370,1.145553,0.957096,1.049969
5249006360,-120.885010,21.759083,-52.754322,1.373320,0.539975,0.875354
5249026405,-197.598343,203.280365,-112.080444,1.000993,-0.120790,1.262752
5249046450,26.143803,275.973022,-89.021378,-0.554038,-1.399490,2.258431
5249066494,63.139263,64.832390,-87.566505,-0.414586,-0.643686,1.046779
5249086539,-41.619221,-61.472095,6.832599,-0.300152,-0.764733,0.383534
5249106585,-38.309196,-114.001099,28.729012,0.264781,-0.447865,1.354851
5249126629,-44.114540,-112.642166,30.905359,0.797727,-0.117783,1.082158
5249146675,-22.097578,-64.206985,13.526740,0.604865,0.259572,1.025557
5249166720,23.143299,-12.808537,-45.826717,0.378244,0.104672,1.171853
5249186765,39.849182,3.071468,-42.777752,0.309022,-0.115128,0.891834
5249206809,-0.972646,-31.022236,-13.163038,0.427449,-0.296478,0.957563
5249226854,-26.826080,-62.347885,-19.159348,0.552047,-0.250642,0.848022
5249246899,-17.288853,-26.453793,-43.439259,0.431546,0.017672,0.764170
5249266944,-3.857123,0.038031,-60.731316,0.233238,0.000746,0.823679
5249286988,-3.075300,-21.741282,-66.590424,0.259469,-0.267889,0.744512
5249307032,5.037380,-36.245022,-71.476524,0.393918,-0.331313,0.686930
5249327077,8.780967,-19.571074,-68.694603,0.412332,-0.162814,0.865759
5249347122,5.165323,-18.168436,-66.512238,0.413648,-0.055269,0.989430
5249367167,-5.666385,-20.561920,-68.765732,0.476003,0.033431,1.066997
5249387212,-21.929611,-5.920702,-78.002533,0.430808,-0.024980,1.002598
5249407256,-21.437622,-7.439897,-91.809235,0.422138,-0.126356,0.897305
5249427301,-10.339146,-6.674562,-92.588303,0.447006,-0.109428,0.806666
5249447346,-16.411861,0.207150,-97.378250,0.440532,-0.067831,0.821844
5249467391,-44.290131,-3.933428,-113.052368,0.465180,-0.117396,0.901733
5249487436,-50.716446,-2.617075,-122.176765,0.447685,-0.147253,0.909591
5249507482,-58.426605,2.348953,-130.784348,0.398851,0.035379,0.862659
5249527527,-69.957756,-3.699970,-133.280441,0.413595,0.100380,0.930423
5249547572,-63.677612,-4.311487,-128.932251,0.527872,-0.091298,0.908804
5249567617,-54.004341,12.804730,-128.481705,0.563902,-0.199603,0.845411
5249587661,-51.165894,26.773251,-126.505440,0.411188,-0.161365,0.774421
5249607706,-49.535248,28.144604,-116.234535,0.208437,-0.151669,0.774863
5249627751,-52.636307,9.278933,-106.974792,0.193107,-0.218212,0.882187
5249647794,-40.000702,-8.270620,-98.629227,0.379577,-0.158131,0.840444
5249667839,-31.596540,10.082304,-88.654877,0.530566,-0.094448,0.907484
5249687884,-47.245514,23.957598,-76.000671,0.535105,-0.044157,0.937420
5249707929,-70.297897,22.255627,-51.459003,0.463715,0.078415,1.034488
5249727974,-66.703537,7.185191,-40.715286,0.359181,0.118838,1.012177
5249748018,-71.610916,-3.586055,-52.452980,0.481452,-0.058112,1.063968
5249768063,-54.591049,-3.575179,-63.150059,0.578414,-0.439765,0.908772
5249788108,-29.990892,39.670101,-72.521515,0.454738,-0.480471,0.697983
5249808153,-24.518967,41.243538,-61.853630,0.232705,-0.383093,0.818831
5249828197,-20.675388,-8.820953,-34.798439,0.192520,-0.307684,0.838309
5249848242,-10.938645,-26.152790,-21.151388,0.402151,-0.292841,0.791465
5249868289,6.934310,-16.663246,-12.041163,0.526904,-0.294786,0.818613
5249888334,9.957564,-10.446543,-7.735412,0.512840,-0.292879,0.863743
5249928423,6.274230,-12.596519,4.316534,0.464067,-0.249949,0.887342
5249948469,11.202946,-16.589127,8.777313,0.490334,-0.254259,0.862805
5249968513,16.693987,-15.559281,10.760706,0.485326,-0.247082,0.836488
5250008603,17.227972,-22.336988,16.469122,0.485554,-0.279405,0.792509
5250028646,20.466124,-16.799246,15.646757,0.479170,-0.276283,0.807550
5250048691,23.824100,-16.544067,14.881797,0.468673,-0.244909,0.837714
5250068736,25.908304,-22.853861,16.182127,0.480755,-0.234029,0.841810
5250088780,28.235546,-25.295971,15.564748,0.503716,-0.168741,0.878312
5250108825,26.134035,-26.762947,11.453132,0.509904,-0.139050,0.899598
5250128870,18.137083,-28.757156,6.732041,0.508334,-0.147055,0.898742
5250148915,12.336227,-26.404930,3.627937,0.511368,-0.156086,0.879174
5250168960,6.074333,-27.229288,0.766538,0.514608,-0.174173,0.868421
5250189004,-0.800646,-28.599926,-1.114502,0.545059,-0.199460,0.838808
5250209049,-1.565919,-23.042248,0.897341,0.518717,-0.184144,0.822101
5250229094,-9.976341,-25.475391,-0.391931,0.495335,-0.213339,0.821078
5250249140,-14.550516,-30.929941,-3.056198,0.556893,-0.256265,0.761793
5250269185,-16.952236,-26.293257,-7.072246,0.590672,-0.239539,0.761993
5250289230,-11.282136,-26.672491,-11.290188,0.557823,-0.239766,0.800904
5250309274,-3.272516,-30.687246,-16.322552,0.611713,-0.285420,0.789474
5250329319,1.300160,-24.620945,-22.320854,0.646048,-0.334915,0.748526
5250349364,7.789634,-14.015060,-20.285606,0.606330,-0.290151,0.742131
5250369409,12.272188,-14.167679,-13.044356,0.535090,-0.239752,0.756126
5250389453,20.252731,-24.985605,-2.505884,0.463929,-0.226954,0.777260
5250409498,35.856045,-41.458344,6.013968,0.566180,-0.224196,0.765420
5250429542,38.619965,-41.949684,17.298790,0.704914,-0.182362,0.748790
5250449587,32.274235,-21.552935,14.197043,0.666527,-0.118298,0.753807
5250469632,28.946547,-9.289811,14.919464,0.524159,-0.077100,0.822714
5250489677,21.107821,-17.056908,18.567507,0.497877,-0.096231,0.833241
5250509722,11.422462,-24.932295,14.512477,0.569380,-0.124971,0.776824
5250529766,15.655596,-22.631826,16.976646,0.677556,-0.136930,0.784360
5250549811,20.598000,-16.438295,24.139803,0.690268,-0.204994,0.753057
5250569856,19.783958,-12.539342,22.131130,0.632970,-0.246425,0.729583
5250589901,12.509906,-12.025511,18.369648,0.602174,-0.270440,0.761239
5250609947,9.313435,-14.131679,10.534067,0.611986,-0.267645,0.726964
5250629992,11.912867,-14.189001,6.385075,0.627291,-0.165484,0.728418
5250650037,10.775930,-12.666898,8.563567,0.625728,-0.095682,0.758421
5250670081,3.567842,-13.889099,14.958408,0.656344,-0.081206,0.768722
5250690126,0.969444,-15.093996,17.988697,0.659929,-0.125272,0.734060
5250710171,2.841694,-16.427914,13.160843,0.658648,-0.166048,0.753051
5250730216,2.854412,-14.668839,3.689539,0.698350,-0.163396,0.748221
5250750259,-5.115852,-9.474805,-5.449545,0.733637,-0.144103,0.715908
5250770304,-9.705882,-4.402930,-9.334951,0.670336,-0.151844,0.724523
5250790349,-13.897269,-3.952134,-12.137249,0.604460,-0.131990,0.749006
5250810394,-19.559181,-10.933220,-14.212743,0.606165,-0.132542,0.726717
5250830438,-22.922010,-13.659561,-15.532820,0.666013,-0.177448,0.679908
5250850483,-17.226816,-9.765180,-15.214490,0.693893,-0.250215,0.672519
5250870528,-9.697926,-4.435991,-15.208688,0.682954,-0.250866,0.698392
5250890573,-10.141050,-6.129554,-12.971529,0.679029,-0.180880,0.698696
5250910617,-10.054897,-15.423873,-9.855137,0.692599,-0.170376,0.691698
5250930662,-5.253263,-16.088629,-8.413374,0.732693,-0.213405,0.674319
5250950707,-0.229408,-1.772937,-7.703598,0.749431,-0.243917,0.662584
5250970753,-4.686955,6.593196,-4.340517,0.702997,-0.193418,0.728928
5250990798,-5.048708,-2.601870,-1.098892,0.679186,-0.150212,0.729035
5251010843,-4.617317,-8.052796,-2.994002,0.709784,-0.154605,0.689417
5251030888,-6.202203,-4.183926,-5.766187,0.735233,-0.180852,0.680442
5251050933,-2.607122,1.833999,-2.934961,0.722763,-0.202550,0.692275
5251070978,-4.718369,1.365855,-0.107180,0.702543,-0.192709,0.675112
5251091022,-10.777191,0.671144,-1.614201,0.698916,-0.167055,0.697635
5251111067,-8.422812,3.130011,-5.436107,0.685529,-0.156065,0.714471
5251131111,-9.092342,3.494386,-7.732044,0.677996,-0.171046,0.694874
5251151155,-8.384918,2.666422,-5.245502,0.678316,-0.224564,0.670099
5251171200,-1.143662,1.332539,0.276832,0.690857,-0.243439,0.682911
5251191245,1.422804,3.763432,2.243231,0.699248,-0.204141,0.713421
5251231335,1.008858,5.588060,2.473229,0.692913,-0.210786,0.726813
5251251380,6.970408,3.707862,7.617359,0.676724,-0.243206,0.685810
5251271425,16.782715,0.935693,14.172665,0.664406,-0.244774,0.683002
5251291469,18.876884,0.622726,15.215848,0.664833,-0.205272,0.725105
5251311514,15.574967,1.401307,16.230804,0.656771,-0.212093,0.735937
5251331559,17.643410,-0.156428,21.092129,0.656333,-0.253239,0.718338
5251351605,15.756944,1.945124,25.812714,0.654740,-0.251818,0.709847
5251371650,16.346746,3.275868,28.320969,0.626960,-0.265445,0.671791
5251391695,21.389248,1.333976,29.739237,0.601382,-0.271721,0.633691
5251411740,27.933075,-2.714627,31.109898,0.595566,-0.300539,0.670486
5251431785,42.337936,-8.843688,35.408623,0.612637,-0.331216,0.724489
5251451829,55.238033,-13.809625,37.310402,0.631198,-0.324599,0.707454
5251471874,64.671593,-15.072689,35.532772,0.617889,-0.290177,0.662187
5251491917,75.288773,-24.575335,35.071819,0.637149,-0.225788,0.655150
5251511962,94.029175,-31.392723,38.218063,0.725065,-0.241894,0.652466
5251532007,131.428619,-23.002401,40.551697,0.829592,-0.280352,0.543929
5251552052,135.366196,2.098298,38.334179,0.759980,-0.080044,0.715753
5251572097,125.472733,8.393691,40.712425,0.590467,-0.024289,0.787437
5251592142,125.713615,-13.354795,68.438881,0.577592,0.034761,0.744793
5251612186,97.597397,-38.294449,78.079010,0.724164,0.026203,0.760046
5251632231,93.549156,-43.207066,81.489601,0.869097,-0.025096,0.698980
5251652276,99.681740,-22.868629,90.946220,0.862577,-0.059612,0.703042
5251672321,91.400162,-10.572262,88.484055,0.730046,-0.041204,0.729690
5251692369,85.733841,-15.304547,84.174309,0.652516,0.037269,0.755061
5251712412,84.785896,-30.207891,85.955498,0.724766,0.067909,0.729570
