Timestamp (us),Gyroscope X (deg/s),Gyroscope Y (deg/s),Gyroscope Z (deg/s),Accelerometer X (g),Accelerometer Y (g),Accelerometer Z (g)
869560192,-7.624588,-4.862720,-4.851541,0.926486,-0.159874,0.424101
869570214,-7.529065,-4.132785,-4.075897,0.929307,-0.144344,0.409244
869580235,-6.778029,-2.217766,-3.428292,0.922763,-0.145038,0.400644
869590257,-5.571220,-0.607149,-2.738184,0.915059,-0.160960,0.401629
869600279,-3.195940,-0.335254,-2.025296,0.917388,-0.187559,0.409514
869610300,-0.853677,-2.100185,-1.020735,0.918703,-0.208294,0.419163
869620322,1.093841,-3.925496,0.169750,0.922453,-0.229222,0.407345
869630346,5.890231,-4.156824,2.022531,0.914495,-0.226608,0.399436
869640365,10.668767,-5.300335,3.617290,0.912367,-0.213951,0.380379
869650387,17.348072,-5.032055,4.556204,0.926576,-0.216786,0.370855
869660409,25.551588,-2.956083,5.588378,0.934802,-0.187486,0.380142
869670430,26.456322,-4.052028,4.119764,0.923360,-0.146294,0.379536
869680452,21.533049,-3.988390,0.973004,0.914997,-0.119939,0.375980
869690472,16.412081,-1.141531,0.476295,0.908542,-0.110294,0.385140
869700494,12.653193,1.386031,2.437773,0.902054,-0.116535,0.391153
869710515,10.167770,2.483422,4.086107,0.892019,-0.138870,0.408198
869720537,8.131197,2.090144,4.528718,0.878961,-0.156624,0.422088
869730558,7.248384,0.662179,4.978698,0.861793,-0.159295,0.420528
869740580,7.605694,-2.561030,4.521908,0.857756,-0.147540,0.424043
869750601,7.098969,-7.411174,1.559243,0.878889,-0.136393,0.420828
869760623,5.775056,-9.585282,-1.658709,0.920849,-0.135614,0.413845
869770645,4.288658,-6.787104,-2.015636,0.954851,-0.131466,0.402405
869780667,1.857136,-1.554893,-0.173549,0.955155,-0.140373,0.381723
869790688,3.706594,5.452772,2.974857,0.946707,-0.171461,0.376819
869800710,6.855684,9.084383,5.628920,0.912085,-0.181079,0.387024
869810731,6.942197,6.940816,5.416971,0.878253,-0.184824,0.404107
869820753,5.455135,3.992232,3.648478,0.860444,-0.190092,0.420226
869830775,5.291300,1.285716,1.854375,0.864258,-0.188988,0.429349
869840796,5.535913,-2.409278,-0.018108,0.885514,-0.178460,0.441618
869850818,4.202656,-5.479373,-1.269620,0.907790,-0.165939,0.429113
869860839,1.356647,-5.310041,-2.025025,0.925844,-0.158372,0.403690
869870861,-0.722033,-2.724037,-2.087716,0.929303,-0.149987,0.385437
869880882,-2.203645,0.150695,-1.225825,0.916790,-0.147494,0.376585
869890904,-2.971398,2.340800,-0.246867,0.897260,-0.147510,0.384272
869900927,-3.592371,2.721580,0.214632,0.877218,-0.142701,0.402477
869910949,-4.112528,1.293032,0.067605,0.874436,-0.142359,0.418660
869920970,-4.575760,-0.743951,-0.810640,0.876932,-0.145846,0.420710
869930992,-5.144927,-2.218453,-1.825734,0.892442,-0.146687,0.412272
869941013,-5.966657,-2.354601,-1.925961,0.905188,-0.150620,0.399105
869951035,-6.051370,-0.529983,-1.089024,0.905084,-0.160361,0.388259
869961057,-5.481533,1.567720,-0.196417,0.898038,-0.168262,0.390458
869971078,-4.536341,2.448684,0.024052,0.894647,-0.173229,0.402492
869981100,-3.459885,1.763468,-0.471125,0.891879,-0.171413,0.420848
869991121,-3.101276,-0.076561,-1.249201,0.892009,-0.160226,0.430043
870001143,-4.508986,-2.219321,-2.531492,0.908630,-0.145535,0.428404
870011165,-6.994711,-3.129915,-3.989522,0.933107,-0.143771,0.420557
870021186,-9.589504,-1.060098,-3.575433,0.951172,-0.145600,0.406865
870031207,-11.627411,2.910124,-1.582805,0.941178,-0.159601,0.391612
870041228,-11.584908,6.072725,0.074668,0.913360,-0.194613,0.383868
870051250,-8.998708,6.389801,0.252615,0.888911,-0.220085,0.391183
870061271,-4.823248,4.242545,-0.310649,0.877243,-0.230779,0.401019
870071293,-0.834353,1.213474,-1.526823,0.877428,-0.227962,0.412651
870081314,1.467606,-1.327697,-2.745761,0.887994,-0.201643,0.417973
870091336,1.511538,-2.315811,-2.714691,0.898886,-0.168693,0.408130
870101358,-0.369236,-1.766497,-1.740885,0.905565,-0.148205,0.406007
870111379,-3.007779,-0.076374,-0.655691,0.910364,-0.145216,0.400737
870121401,-4.933364,1.871300,-0.139961,0.911369,-0.164380,0.400174
870131423,-5.914953,3.468750,0.871670,0.903439,-0.184342,0.396821
870141444,-5.032277,3.832832,0.895031,0.891198,-0.199299,0.395945
870151466,-3.271537,3.177425,0.394580,0.880765,-0.202432,0.394984
870161488,-1.359887,2.278584,-0.289637,0.884199,-0.191160,0.397465
870171509,-0.493336,2.201825,-0.296208,0.892491,-0.184713,0.398565
870181531,-0.565619,3.235802,0.190939,0.900549,-0.181157,0.402601
870191552,-0.986244,4.483017,0.939578,0.896228,-0.189457,0.405733
870201574,-0.709802,4.908650,1.455100,0.892854,-0.194839,0.410851
870211596,-0.026078,4.376063,1.572254,0.883546,-0.194292,0.416788
870221617,0.519838,3.569917,1.568831,0.882262,-0.194254,0.419327
870231639,1.005869,3.022301,1.687515,0.886279,-0.193391,0.420988
870241662,1.476736,2.976240,1.577292,0.888294,-0.193257,0.418453
870251683,2.405254,3.401102,1.630718,0.889471,-0.187815,0.416960
870261705,3.669423,3.430656,2.169514,0.887675,-0.186156,0.415840
870271726,4.581860,3.247503,2.284585,0.888798,-0.183981,0.416377
870281748,4.856935,3.369013,2.587092,0.888578,-0.186340,0.417487
870291770,5.208292,3.536082,2.934682,0.888123,-0.191584,0.422444
870301792,5.681700,3.353537,3.555925,0.877407,-0.188684,0.423070
870311813,5.694456,2.486943,3.328098,0.870654,-0.189500,0.422299
870321834,6.129461,1.361203,2.304975,0.875442,-0.185543,0.424668
870331856,6.307337,0.342232,1.588455,0.893983,-0.176337,0.425092
870341878,6.367352,0.250896,1.420479,0.902843,-0.169571,0.420913
870351899,5.580698,1.209534,2.019831,0.905214,-0.170365,0.416931
870361921,4.565500,2.517871,2.331110,0.897200,-0.170445,0.414506
870371968,4.491047,3.126046,2.452998,0.890533,-0.177446,0.415971
870381963,5.160122,2.547944,2.737910,0.878662,-0.177399,0.422986
870391984,5.674499,1.376936,2.613181,0.874799,-0.178765,0.427703
870402006,5.409708,0.084580,1.580344,0.877973,-0.172205,0.433681
870412027,4.933986,-0.812212,0.868720,0.884617,-0.167412,0.429502
870422049,4.172086,-0.918133,0.493747,0.892963,-0.157326,0.429662
870432071,3.078804,-0.293887,0.592958,0.894136,-0.152253,0.427626
870442092,1.452284,0.163517,0.498341,0.896842,-0.153926,0.428752
870452114,0.265359,0.802757,-0.041681,0.898750,-0.161076,0.427368
870462136,-0.296747,1.259244,-0.129222,0.893747,-0.166649,0.427924
870472157,-0.418819,1.213705,-0.219663,0.890618,-0.169543,0.424647
870482179,-0.375186,0.635904,-0.463236,0.885895,-0.168568,0.423694
870492200,-0.634937,0.164838,-0.567456,0.884397,-0.172220,0.419889
870502222,-0.667835,-0.276173,-1.008648,0.887177,-0.168036,0.424245
870512243,-0.837239,-0.944997,-1.250502,0.893777,-0.165211,0.425181
870522265,-1.128034,-1.157743,-1.644222,0.899017,-0.155249,0.426775
870532286,-1.493639,-0.990327,-1.900600,0.898905,-0.151266,0.422736
870542308,-2.829043,-0.335338,-1.510065,0.900559,-0.150946,0.420014
870552330,-3.679481,0.303844,-1.534622,0.905015,-0.158502,0.418106
870562351,-4.547081,0.410875,-1.817567,0.901493,-0.162268,0.419568
870572373,-5.792104,0.503356,-1.381484,0.888015,-0.162086,0.416737
870582396,-6.852516,-0.072786,-0.062462,0.871270,-0.161133,0.412965
870592417,-7.631679,-1.850728,-0.176700,0.860472,-0.163691,0.415092
870602439,-6.989276,-4.132352,-2.084042,0.875163,-0.168266,0.417968
870612461,-5.655242,-5.699389,-2.397521,0.897459,-0.165542,0.412282
870622482,-4.037925,-5.061810,-1.252543,0.908280,-0.162847,0.403963
870632504,-3.179497,-3.131573,-0.361990,0.907769,-0.161795,0.397213
870642526,-3.294871,-1.094185,0.307378,0.896425,-0.164913,0.396427
870652547,-3.243665,0.380649,1.067421,0.888938,-0.175644,0.409754
870662569,-2.769557,0.167790,1.886763,0.882544,-0.186389,0.423270
870672590,-1.967561,-1.353175,1.592557,0.886063,-0.194815,0.425187
870682612,-1.672210,-3.542994,0.342962,0.901187,-0.195035,0.426209
870692634,-1.571794,-4.774841,-0.647022,0.909573,-0.186172,0.408535
870702655,-1.704173,-3.725528,0.023411,0.906288,-0.179190,0.384053
870712677,-0.937078,-2.266365,1.113185,0.913750,-0.181915,0.375754
870722697,0.812841,-1.599007,1.129610,0.923918,-0.183864,0.379486
870732719,2.275344,-0.277707,1.223804,0.925150,-0.185288,0.386790
870742740,3.393386,1.728429,2.371316,0.912480,-0.178706,0.388100
870752762,4.583212,2.426964,3.031943,0.894332,-0.172399,0.390647
870762784,5.432935,1.331755,3.087410,0.884760,-0.164924,0.395978
870772805,6.692914,0.144968,3.109344,0.893213,-0.157487,0.407996
870782827,7.181526,-0.037591,3.730471,0.906457,-0.159241,0.419761
870792849,5.785445,0.313506,4.304597,0.910573,-0.165343,0.416564
870802870,3.643923,1.151543,4.548773,0.914791,-0.177100,0.413232
870812892,3.234421,1.592765,4.612442,0.928614,-0.194524,0.402552
870822913,4.821972,2.169654,5.955782,0.924568,-0.201539,0.382368
870832935,8.648401,3.261777,8.012824,0.915692,-0.201155,0.366641
870842957,13.410336,3.136388,8.753498,0.912912,-0.193517,0.358181
870852978,17.439566,2.783324,8.860069,0.909640,-0.179408,0.360954
870863000,19.282898,3.405265,9.470048,0.911222,-0.168417,0.371254
870873021,19.020765,6.051331,11.237001,0.908491,-0.163673,0.391225
870883043,16.370495,9.109705,12.580013,0.891740,-0.169439,0.416278
870893065,12.481219,10.724459,12.684490,0.872664,-0.186717,0.433034
870903086,9.915380,8.749582,10.664325,0.861812,-0.206245,0.433298
870913108,10.762328,4.415050,7.553665,0.876644,-0.205876,0.414284
870923129,14.928299,0.853255,5.178656,0.910843,-0.190888,0.389464
870933152,18.711945,0.287358,4.784503,0.936013,-0.154154,0.377873
870943174,19.099737,4.209041,4.914952,0.926276,-0.109559,0.372335
870953196,15.385872,10.140870,5.090184,0.893876,-0.064853,0.385568
870963217,9.340733,13.004124,5.469031,0.876035,-0.044709,0.410946
870973239,4.250288,11.671490,7.002506,0.886969,-0.064932,0.435593
870983260,0.099748,8.954679,8.453900,0.915570,-0.118266,0.431690
870993282,-2.486176,8.789618,8.275807,0.942522,-0.166515,0.396413
871003303,-3.181193,11.374421,8.202510,0.946127,-0.192238,0.351858
871013325,-0.966151,15.340426,8.989316,0.935697,-0.211340,0.336280
871023347,3.860481,18.270260,9.284744,0.916688,-0.209609,0.359616
871033368,7.443449,17.612993,8.145624,0.897937,-0.186629,0.396982
871043390,9.314905,14.053359,6.169120,0.897903,-0.157255,0.424417
871053411,8.389723,10.268307,4.610423,0.907485,-0.122511,0.432940
871063439,4.994182,9.130823,3.921413,0.929688,-0.110951,0.438652
871073453,-0.065740,11.400128,3.759987,0.952147,-0.109689,0.432796
871083475,-5.578393,15.676381,3.539188,0.945273,-0.108010,0.423810
871093496,-9.052444,19.449461,3.836516,0.923609,-0.105294,0.426725
871103518,-11.056819,20.165831,4.216885,0.891184,-0.113839,0.438576
871113540,-13.781533,18.359262,4.315666,0.871204,-0.145579,0.445612
871123561,-16.667406,15.123132,2.710537,0.872289,-0.187442,0.432855
871133583,-16.729610,11.884026,-0.089457,0.887523,-0.213256,0.399675
871143604,-13.957712,9.615847,-1.815063,0.904245,-0.211753,0.365006
871153626,-9.414994,8.942764,-2.473957,0.919337,-0.190707,0.356748
871163648,-6.755429,9.776196,-3.241729,0.930674,-0.156398,0.384225
871173669,-8.171456,10.841062,-4.252730,0.935264,-0.119716,0.423287
871183691,-13.189915,11.787602,-4.870322,0.936943,-0.100286,0.440802
871193712,-20.896885,13.405522,-5.056546,0.939375,-0.112668,0.423077
871203734,-27.369673,15.509016,-4.810831,0.935389,-0.144780,0.386895
871213755,-28.613516,17.303823,-4.879174,0.924407,-0.179452,0.360334
871223777,-25.572376,17.559568,-4.994153,0.908234,-0.190951,0.350478
871233799,-21.004848,15.533172,-6.474733,0.906764,-0.190149,0.357380
871243820,-17.779112,13.142738,-8.752221,0.917800,-0.165917,0.377655
871253842,-18.165230,12.883997,-10.196491,0.940160,-0.127080,0.398620
871263864,-22.616127,15.061682,-10.103478,0.956658,-0.105366,0.409668
871273886,-28.731836,18.655151,-8.642982,0.967918,-0.109023,0.406503
871283908,-34.771439,22.582924,-7.320517,0.959943,-0.145032,0.402736
871293930,-38.944969,25.915859,-6.819334,0.935784,-0.193459,0.388210
871303951,-39.448387,27.147146,-7.837490,0.911742,-0.220166,0.376966
871313973,-36.189857,26.383165,-10.269133,0.890617,-0.219321,0.374437
871323994,-32.204433,24.827904,-13.101753,0.885742,-0.199809,0.389718
871334016,-30.358725,23.989305,-15.156815,0.896221,-0.161279,0.419339
871344038,-32.809532,23.991100,-15.869382,0.909814,-0.123772,0.439887
871354062,-38.888695,24.711021,-15.412065,0.924316,-0.102803,0.444736
871364081,-46.633850,26.740204,-13.846177,0.931579,-0.118248,0.442003
871374102,-55.026829,30.244873,-11.408232,0.909433,-0.165595,0.429668
871384124,-61.350296,34.766209,-9.048061,0.885337,-0.243601,0.434688
871394146,-63.869747,35.817604,-8.328856,0.871363,-0.313133,0.447360
871404167,-61.637444,30.630981,-10.596082,0.861883,-0.351836,0.446154
871414187,-54.046272,22.125513,-13.556433,0.875466,-0.326552,0.415817
871424209,-43.755375,14.925735,-14.954112,0.917107,-0.265642,0.377744
871434231,-36.893032,14.616396,-13.589431,0.945618,-0.199428,0.365024
871444252,-35.714825,21.517994,-10.969059,0.953336,-0.153681,0.378359
871454274,-40.921947,30.112213,-8.895556,0.938868,-0.137711,0.413265
871464296,-49.632645,36.307407,-7.326205,0.908463,-0.167327,0.440237
871474317,-55.665573,38.258408,-7.297031,0.873073,-0.219087,0.445686
871484339,-55.917870,37.391266,-9.244560,0.851206,-0.269250,0.447761
871494360,-53.560791,34.910168,-11.987637,0.844106,-0.294309,0.447370
871504381,-50.196838,31.486311,-13.411958,0.845537,-0.298414,0.437399
871514403,-45.824665,28.943621,-14.037304,0.841484,-0.291895,0.422931
871524425,-42.813217,29.275467,-13.999760,0.827180,-0.288131,0.409503
871534447,-41.671860,32.010250,-15.062421,0.816962,-0.290210,0.403436
871544468,-41.641514,35.642563,-16.818298,0.796478,-0.292749,0.413323
871554490,-43.116158,39.321812,-18.501732,0.756775,-0.285814,0.432641
871564511,-46.448132,40.905060,-19.772793,0.706940,-0.271929,0.459112
871574533,-47.704567,38.336529,-21.055841,0.698541,-0.239647,0.493199
871584555,-44.025986,31.097122,-21.884741,0.746983,-0.218295,0.545454
871594576,-39.235973,21.789974,-21.348915,0.822711,-0.228970,0.587429
871604598,-39.115082,17.199953,-19.349506,0.864705,-0.253043,0.573003
871614619,-46.183201,20.886089,-16.480030,0.848057,-0.281798,0.521042
871624642,-53.691746,27.125952,-14.691386,0.796366,-0.312924,0.471939
871634664,-55.132652,29.696106,-14.972264,0.758932,-0.333999,0.455451
871644686,-50.021820,26.863255,-17.141895,0.745512,-0.326982,0.464946
871654707,-42.485172,20.668690,-19.555496,0.742430,-0.302910,0.509337
871664729,-37.684692,14.598168,-21.811106,0.755909,-0.267772,0.554850
871674750,-36.922981,10.872343,-23.641813,0.761823,-0.243044,0.582548
871684772,-40.944374,9.704719,-24.950697,0.767086,-0.258846,0.576708
871694794,-48.732929,9.802239,-25.866215,0.772609,-0.288916,0.540033
871704815,-55.076794,8.287534,-25.968510,0.776774,-0.327629,0.490490
871714837,-55.369644,4.685369,-25.277212,0.792769,-0.355038,0.440213
871724858,-51.300385,-0.683768,-24.236774,0.814371,-0.343765,0.405134
871734880,-45.949692,-6.995800,-21.651138,0.838573,-0.302412,0.374743
871744901,-36.159565,-8.326755,-21.603048,0.863165,-0.240071,0.372951
871754924,-26.440723,-1.921249,-24.014818,0.876131,-0.165023,0.414671
871764943,-26.959904,9.616104,-26.124395,0.887171,-0.118244,0.476458
871774965,-37.203598,22.469723,-27.017916,0.898373,-0.123976,0.538679
871784986,-51.989998,32.212097,-25.435806,0.914649,-0.174030,0.584188
871795008,-64.957085,37.850574,-19.308023,0.873542,-0.254512,0.539576
871805030,-65.892509,40.819481,-10.832113,0.774763,-0.354806,0.485055
871815052,-59.141792,32.621811,-7.051737,0.716159,-0.476841,0.482357
871825073,-51.838524,11.027534,-11.460217,0.719173,-0.577895,0.457721
871835095,-35.440071,-8.022841,-20.481346,0.717328,-0.582007,0.390004
871845116,-10.706758,-14.158161,-27.125494,0.704523,-0.473061,0.376447
871855138,0.730256,-16.038914,-29.573076,0.766433,-0.376751,0.484083
871865159,-9.688492,-18.461964,-29.186172,0.897958,-0.400289,0.577193
871875181,-28.451885,-13.153191,-23.684048,0.957309,-0.520087,0.523260
871885202,-37.196548,-1.375280,-13.754824,0.906130,-0.647120,0.400114
871895224,-29.946320,2.026101,-8.145616,0.824873,-0.771564,0.345375
871905246,-10.829907,-5.136756,-11.896484,0.778532,-0.878268,0.394899
871915268,17.519260,-16.748678,-20.711540,0.788440,-0.907955,0.470055
871925289,44.959579,-31.670794,-23.040943,0.785481,-0.734979,0.455860
871935311,63.974174,-45.746361,-18.282476,0.781847,-0.491949,0.395559
871945332,71.716934,-52.637417,-14.160501,0.807782,-0.319020,0.409434
871955354,69.163948,-48.712112,-11.645836,0.847496,-0.193975,0.461316
871965377,59.021919,-37.787510,-8.881527,0.863254,-0.099183,0.515821
871975398,45.865891,-28.046139,-6.412959,0.859461,-0.038549,0.546795
871985420,34.999146,-21.468754,-4.202738,0.837947,-0.011175,0.555880
871995442,27.607714,-18.451529,-2.061506,0.824072,-0.015056,0.545250
872005463,22.432510,-16.454937,-0.423872,0.798069,-0.037314,0.539963
872015485,18.488050,-13.562830,0.548305,0.747133,-0.055514,0.539923
872025506,12.246037,-12.904837,-1.796604,0.694704,-0.063860,0.537788
872035528,5.725205,-17.157997,-7.121103,0.698884,-0.076281,0.543384
872045553,2.427262,-23.268190,-11.737201,0.746259,-0.105317,0.534501
872055571,2.078455,-27.449060,-13.482782,0.804478,-0.147680,0.495580
872065593,0.214955,-30.197508,-10.388104,0.864422,-0.185368,0.451171
872075615,-0.822813,-30.269451,-3.371247,0.913698,-0.230018,0.405285
872085636,1.161554,-29.523752,2.265609,0.969495,-0.285360,0.381749
872095658,8.976998,-26.139547,4.579395,1.067684,-0.355437,0.375033
872105678,24.258905,-15.371846,11.476116,1.197923,-0.458242,0.346788
872115700,48.932487,3.038959,29.263947,1.251930,-0.542363,0.298713
872125721,68.841949,17.287231,43.801140,1.103017,-0.492439,0.287927
872135743,63.712212,20.617599,36.782776,0.881761,-0.415131,0.333380
872145765,48.854183,27.357533,21.013794,0.742561,-0.324268,0.431034
872155786,36.059669,26.771469,11.574343,0.723549,-0.195561,0.564396
872165808,24.152632,11.549515,10.598228,0.766782,-0.087750,0.635565
872175829,19.208530,-3.538211,17.217371,0.825328,-0.038857,0.559476
872185851,21.715820,-9.221062,27.488218,0.856842,-0.018952,0.428074
872195873,16.800505,-7.450701,33.588398,0.839855,-0.018896,0.325615
872205894,2.788815,6.046645,37.157009,0.835037,-0.074069,0.275779
872215915,-12.760176,24.606110,37.898613,0.865224,-0.188664,0.300617
872225937,-20.914097,36.163261,31.383232,0.900526,-0.323988,0.343690
872235959,-17.177837,37.128609,21.815569,0.916509,-0.432741,0.390227
872245980,-4.854231,27.004869,12.573462,0.935994,-0.481221,0.408250
872256002,5.597652,9.433702,2.529970,1.019146,-0.450127,0.367266
872266024,10.533449,-3.935806,-4.610722,1.151250,-0.386630,0.269561
872276046,14.684202,3.068695,-4.070179,1.167853,-0.293350,0.168217
872286067,19.190376,36.512070,5.249394,1.099849,-0.167665,0.161402
872296089,18.040251,73.807274,16.757051,1.074543,-0.096657,0.295741
872306110,15.996437,94.562714,25.117987,1.086830,-0.122726,0.497073
872316133,15.597555,102.319077,32.442513,1.059940,-0.254983,0.733409
872326155,3.332332,103.139435,41.510132,0.866731,-0.469790,0.909305
872336176,-12.580240,95.826790,43.025574,0.516114,-0.618706,0.895955
872346198,-8.529795,73.120605,27.489901,0.235969,-0.604609,0.777984
872356220,17.283937,34.371902,8.755214,0.249592,-0.470021,0.709417
872366241,43.236271,-4.584078,2.544137,0.474249,-0.344873,0.730237
872376263,48.389153,-17.250565,4.146920,0.654038,-0.270212,0.761525
872386284,31.971367,-2.110173,5.980218,0.699320,-0.204449,0.746382
872396306,10.781951,16.241486,7.039526,0.603641,-0.156353,0.669173
872406328,1.217573,18.879005,5.754307,0.479783,-0.151135,0.605040
872416349,2.150671,4.906396,1.935978,0.426038,-0.169353,0.571658
872426371,5.279585,-13.263849,-2.230422,0.469987,-0.182273,0.565530
872436392,6.572632,-24.393511,-4.728615,0.567271,-0.200926,0.557836
872446414,5.955606,-26.430567,-6.062778,0.646234,-0.208628,0.513865
872456434,4.881558,-23.434956,-6.042139,0.693285,-0.221837,0.449312
872466456,4.436549,-19.740112,-4.884240,0.718714,-0.240103,0.396843
872476477,5.953032,-16.791668,-3.374995,0.737551,-0.258574,0.352885
872486499,10.390421,-13.389638,-1.705735,0.762943,-0.271291,0.336423
872496521,17.008480,-9.472010,1.363321,0.807556,-0.280864,0.365598
872506542,23.402771,-5.644866,5.607396,0.851846,-0.279979,0.428007
872516564,29.234913,-0.874899,9.519684,0.874523,-0.281156,0.513400
872526585,33.727070,5.035858,12.389843,0.867812,-0.280091,0.620775
872536607,34.991505,11.389656,13.958748,0.819147,-0.288111,0.696416
872546629,32.411106,12.790648,14.480015,0.747006,-0.303018,0.729335
872556650,28.398897,4.965530,14.777196,0.686028,-0.320459,0.737774
872566672,26.521851,-9.838408,16.100693,0.689315,-0.320710,0.735068
872576693,26.096161,-23.259760,18.554501,0.734584,-0.302953,0.737802
872586715,24.241522,-30.097256,21.942471,0.799068,-0.285476,0.716460
872596737,18.030972,-32.249020,25.207045,0.827150,-0.276987,0.637933
872606758,12.390032,-30.418537,28.402538,0.768443,-0.270124,0.558238
872616780,16.948208,-24.326643,28.559906,0.666670,-0.264559,0.486980
872626801,30.569725,-14.946289,23.372814,0.602395,-0.285116,0.486316
872636823,39.944061,-16.826435,18.320351,0.576268,-0.348146,0.565673
872646845,46.561752,-34.647545,19.733936,0.554046,-0.386319,0.561091
872656866,57.111179,-62.989910,24.479376,0.616177,-0.375628,0.504463
872666889,71.009537,-95.639389,24.281790,0.744682,-0.347173,0.519916
872676911,86.337761,-117.696960,19.157043,0.935631,-0.259590,0.595972
872686932,98.119026,-132.122498,9.313701,1.152211,-0.108239,0.693177
872696954,101.024124,-144.337982,-4.562324,1.329311,0.061536,0.735131
872706975,91.817841,-144.944183,-18.051733,1.392854,0.218115,0.659282
872727019,40.502651,-80.685638,-43.895512,1.265605,0.399858,0.391367
872737040,3.417180,-31.434847,-51.291267,1.227960,0.426276,0.311119
872747062,-40.481449,8.843225,-46.696053,1.230644,0.360655,0.319328
872757084,-86.818008,35.725269,-21.058216,1.229965,0.210038,0.316560
872767105,-108.164917,60.528618,27.336294,1.177539,-0.028842,0.255510
872777127,-86.746857,86.967651,76.772667,1.015034,-0.249869,0.266345
872787148,-56.338142,96.999664,99.263031,0.730644,-0.412369,0.401811
872797176,-44.344471,80.155594,86.464439,0.368927,-0.703324,0.716039
872807190,-26.124893,38.145874,35.657082,0.007585,-0.936763,0.942027
872817212,7.737567,-12.285922,-20.046535,0.048753,-0.649126,0.639324
872827233,36.390888,-46.187534,-38.121933,0.354735,-0.313992,0.393155
872837255,56.029610,-60.126770,-33.246487,0.596198,-0.135362,0.356298
872847277,60.390499,-49.864975,-23.020161,0.710141,-0.036466,0.450454
872857298,40.347630,-23.485382,-16.217802,0.725469,0.043324,0.572271
872867320,4.511433,1.734615,-15.464075,0.678596,0.112300,0.658580
872877341,-27.540714,8.677567,-18.485523,0.633638,0.120374,0.673299
872887363,-46.275635,-3.573129,-17.050423,0.674635,0.011983,0.595648
872897385,-43.961235,-15.366686,-6.589477,0.796744,-0.248396,0.470317
872907406,-15.325646,-11.751448,8.561274,0.845128,-0.489410,0.398731
872917428,8.669435,-8.592075,15.215542,0.758191,-0.547062,0.365250
872927450,11.372407,-16.626637,2.159891,0.771280,-0.546476,0.322367
872937471,20.369999,-27.390751,-17.691254,0.998896,-0.424251,0.373642
872947493,44.451893,-36.536247,-26.247372,1.251785,-0.232047,0.471685
872957514,60.882118,-34.497715,-25.064928,1.378091,-0.020855,0.563183
872967536,51.798073,-12.261988,-17.428476,1.359313,0.166781,0.601739
872977557,18.081287,27.388872,-2.107988,1.180832,0.252662,0.535267
872987579,-18.196918,65.734100,12.029682,0.926938,0.225989,0.406352
872997601,-39.170021,81.504097,19.214882,0.729168,0.136430,0.345375
873007624,-47.198303,70.642609,20.490395,0.647413,0.000156,0.392700
873017645,-46.786415,42.015369,14.602505,0.703292,-0.158652,0.508407
873027667,-40.195568,13.108089,6.305833,0.837503,-0.305649,0.579248
873037688,-23.406160,-1.152141,1.817686,1.054459,-0.332391,0.508036
873047710,0.303253,-6.905431,-2.365882,1.221241,-0.251356,0.361275
873057732,22.611300,-1.120637,-8.728447,1.225484,-0.120057,0.247327
873067753,25.910450,28.535168,-7.090518,1.113637,-0.022628,0.201094
873077775,-5.140576,73.368652,10.992928,1.038944,-0.053649,0.219377
873087797,-46.991978,98.953140,33.138893,1.054316,-0.224596,0.237107
873097818,-53.506611,101.516655,42.130299,1.032639,-0.415168,0.237975
873107840,-7.911423,107.511986,41.607437,0.913520,-0.471050,0.356470
873117861,45.511589,107.344978,43.239700,0.677329,-0.349831,0.592281
873127883,70.564514,89.919022,46.065701,0.476108,-0.222303,0.865078
873137905,71.902588,64.484222,42.285576,0.409398,-0.109624,1.078161
873147925,54.246689,36.022350,31.386089,0.474100,-0.017873,1.091169
873157946,22.324600,13.803614,16.613331,0.592748,0.029551,0.911922
873167968,-14.318780,5.058982,5.368448,0.677463,0.032304,0.712949
873177989,-46.867710,8.552984,5.309971,0.701657,-0.033934,0.605511
873188011,-62.405182,21.340317,15.823601,0.736864,-0.225269,0.543434
873198033,-44.966255,39.892727,30.390902,0.730120,-0.461482,0.516929
873208055,-17.690676,41.696175,36.670860,0.581042,-0.588575,0.509788
873218076,7.558723,25.617142,26.573448,0.428871,-0.585372,0.511381
873228097,37.839104,6.264127,13.515135,0.433103,-0.463460,0.585791
873238119,56.849548,-13.393228,11.879541,0.554602,-0.307605,0.680078
873248141,56.617653,-24.898445,16.386990,0.654713,-0.180996,0.720370
873258162,42.200397,-26.708254,20.613119,0.705153,-0.086712,0.701387
873268184,24.648596,-22.375580,21.322586,0.728386,-0.053497,0.653211
873278206,11.457044,-15.022690,19.603622,0.718384,-0.073696,0.613063
873288227,1.378731,-6.546492,20.312817,0.696963,-0.172093,0.602611
873298249,-2.314997,0.618750,25.179600,0.688079,-0.326862,0.638785
873308270,1.545653,0.996984,28.577877,0.729050,-0.486521,0.681919
873318292,8.025323,-8.387394,29.634100,0.784639,-0.521979,0.584289
873328313,21.502064,-12.425982,32.779984,0.770111,-0.471305,0.452114
873338335,36.550064,-11.921089,35.086750,0.705006,-0.367995,0.408359
873348357,44.154099,-27.615555,34.951866,0.768592,-0.294778,0.402757
873358380,51.264362,-52.932648,33.549995,0.926226,-0.250205,0.388063
873368401,60.147484,-69.965431,34.534077,1.089896,-0.206149,0.364859
873378423,69.724739,-75.794838,36.736412,1.244283,-0.125343,0.386442
873388444,80.388107,-74.770065,37.369804,1.365034,0.004288,0.483671
873398466,89.752914,-62.390110,34.955101,1.391517,0.158512,0.584198
873408488,87.275894,-30.468174,28.041737,1.293620,0.283385,0.629613
873418509,63.253456,23.178970,18.926588,1.161214,0.331594,0.692889
873428531,14.008668,79.980934,13.247238,1.026136,0.268279,0.809327
873438553,-56.497387,114.214615,13.359301,0.832256,0.115793,0.903673
873448574,-126.065216,117.969330,14.909990,0.570011,-0.065293,0.986103
873458596,-162.777405,98.482353,14.691848,0.323453,-0.411424,1.071284
873468617,-135.177261,66.964676,22.341637,0.223276,-0.923761,1.043098
873478639,-60.448547,21.301455,34.503933,0.217030,-1.027688,0.654786
873488662,9.869644,-24.150696,34.358208,0.229149,-0.775385,0.272590
873498681,66.035980,-39.769608,25.105114,0.275291,-0.596677,0.320434
873508702,90.555054,-34.855881,12.814624,0.400910,-0.455358,0.655593
873518724,79.367218,-28.130045,6.509913,0.487184,-0.268901,0.898865
873528746,51.818733,-23.075214,5.131746,0.479731,-0.089407,0.894234
873538767,22.335194,-21.486147,0.389170,0.440184,0.003812,0.794119
873548788,-5.720163,-21.585440,-3.844717,0.447210,0.004603,0.767033
873558810,-26.809771,-19.908779,-0.530630,0.517481,-0.095730,0.804610
873568832,-32.963963,-17.254913,7.238999,0.568671,-0.268383,0.786925
873578854,-23.524548,-16.714516,10.122013,0.575711,-0.416678,0.718279
873588875,-8.249910,-20.560249,6.153678,0.596128,-0.501673,0.681437
873598897,5.995112,-25.622227,-0.075865,0.627304,-0.525052,0.689869
873608918,15.986315,-27.881836,-2.679607,0.677088,-0.502366,0.727738
873618940,20.597189,-29.374807,-1.022286,0.718679,-0.438463,0.775222
873628962,20.265537,-31.471519,0.734447,0.710990,-0.338805,0.773615
873638983,16.955675,-31.576263,-1.906480,0.684883,-0.244313,0.750976
873649005,9.206154,-28.897676,-9.772624,0.699349,-0.162462,0.753319
873659026,-0.322669,-26.354364,-17.640236,0.731050,-0.085961,0.757653
873669048,-3.659628,-23.905407,-20.633812,0.727715,-0.014861,0.749394
873679069,-4.228108,-21.502512,-19.336613,0.705335,0.015198,0.699819
873689091,-15.134234,-17.874588,-18.067972,0.656502,-0.045366,0.595261
873699114,-35.947956,-9.601929,-17.337219,0.616250,-0.163499,0.514912
873709136,-49.843502,-0.742556,-16.980034,0.598695,-0.301839,0.485881
873719157,-45.403122,3.737094,-19.029545,0.575424,-0.424349,0.490546
873729179,-30.680218,1.107173,-24.716536,0.559536,-0.502871,0.491625
873739200,-18.717030,-6.901385,-29.798290,0.609502,-0.508964,0.458718
873749222,-9.420432,-16.363724,-27.681787,0.755437,-0.488766,0.402805
873759244,2.172155,-25.702868,-17.659981,0.956088,-0.479795,0.344836
873769266,16.111137,-30.846998,-4.414732,1.078454,-0.472483,0.248616
873779287,31.929379,-19.302366,7.185248,1.075046,-0.431494,0.186524
873789309,44.967266,7.080087,16.263243,1.007930,-0.309816,0.282265
873799330,51.728592,27.767263,24.952883,0.953469,-0.163031,0.521924
873809352,50.554649,25.066246,33.405510,0.931881,-0.057207,0.787835
873819374,51.818130,5.685934,39.066925,0.911392,0.039119,0.953502
873829408,54.263466,-15.808429,44.645084,0.877210,0.119220,0.940938
873839415,35.823818,-26.962564,51.211617,0.833133,0.071070,0.773127
873849437,-4.684547,-22.913576,53.057270,0.817110,-0.083717,0.591834
873859459,-36.276764,-5.102130,49.808712,0.817493,-0.297620,0.488719
873869480,-35.873222,18.717527,48.533695,0.811048,-0.500485,0.460302
873879502,-12.231796,29.187029,50.658493,0.713785,-0.616992,0.486046
873889523,20.090837,16.449385,47.634422,0.575076,-0.628908,0.542489
873899545,53.350594,-8.620800,37.072704,0.525235,-0.553598,0.616160
873909567,75.768082,-29.409237,28.266096,0.588927,-0.436641,0.658268
873919588,81.361130,-34.370758,25.972889,0.651061,-0.332476,0.617985
873929610,72.980209,-25.013397,28.770885,0.684871,-0.278054,0.549135
873939632,56.662773,-10.419147,33.255096,0.677086,-0.284277,0.504882
873949653,44.599277,2.742382,37.479500,0.629601,-0.333439,0.541723
873959675,41.788979,8.111863,39.613861,0.538820,-0.379454,0.621195
873969696,44.503258,0.720550,37.192650,0.442581,-0.409869,0.653337
873979718,47.193993,-22.771927,28.326536,0.462823,-0.411051,0.532587
873989739,52.626030,-52.805054,15.743094,0.651711,-0.411379,0.350242
873999761,69.086296,-74.788582,8.385059,0.977784,-0.425230,0.245669
874009783,95.728645,-84.933273,13.827919,1.262471,-0.399525,0.204928
874019804,129.496750,-79.666687,26.362768,1.357972,-0.231233,0.275979
874029826,157.217987,-65.670593,36.010307,1.332850,0.038412,0.496265
874039849,166.723755,-56.632061,40.271309,1.303227,0.312516,0.718848
874049870,172.741943,-43.869427,37.302910,1.291920,0.531693,0.897589
874059892,170.827133,-18.787165,33.560913,1.264840,0.646881,0.985846
874069914,122.939728,16.309414,35.357601,1.134352,0.601498,0.945208
874079935,23.507568,46.921707,39.839226,0.889080,0.479627,0.831163
874089957,-76.101349,55.247200,40.534122,0.661103,0.329097,0.823457
874099978,-140.079773,41.665112,36.786484,0.495744,0.124076,0.998383
874110000,-161.375244,19.791916,33.267952,0.409451,-0.210481,1.124698
874120022,-123.138161,16.311951,41.632454,0.406907,-0.665341,0.977482
874130043,-51.339703,6.830475,53.584938,0.330676,-0.754324,0.594545
874140065,8.577067,-33.357849,42.726479,0.196815,-0.688164,0.340281
874150087,59.245262,-60.546028,20.712502,0.205996,-0.568654,0.395445
874160108,92.655212,-68.089539,9.249344,0.397094,-0.399805,0.614683
874170130,96.604904,-74.294220,11.236157,0.503612,-0.193721,0.715183
874180150,79.295135,-75.752380,14.387097,0.539571,-0.042559,0.690162
874190172,51.045296,-72.034607,13.152702,0.596017,0.015769,0.628365
874200193,21.614712,-63.269413,10.886498,0.666489,-0.009593,0.595585
874210215,3.805825,-48.417465,10.917583,0.724035,-0.088996,0.601759
874220236,0.563555,-35.888237,11.981920,0.733233,-0.178621,0.632064
874230258,7.445122,-35.226238,9.947775,0.716384,-0.243308,0.653233
874240279,18.523638,-43.355942,4.202508,0.744090,-0.278816,0.666657
874250301,29.485853,-50.436241,-0.643900,0.808022,-0.269372,0.667775
874260322,35.235336,-52.448952,-3.200117,0.860584,-0.243299,0.650645
874270344,34.018623,-49.362713,-4.747838,0.877679,-0.196566,0.643465
874280366,29.716208,-42.806725,-3.700198,0.868942,-0.157233,0.643440
874290388,22.684801,-38.785515,0.661867,0.826084,-0.148846,0.630312
874300409,19.381521,-39.556400,4.055210,0.803131,-0.154933,0.598511
874310431,21.382755,-45.090939,5.157370,0.818382,-0.183801,0.546601
874320452,24.040638,-51.051254,7.199566,0.859919,-0.224417,0.487879
874330474,26.086355,-52.556671,10.065021,0.918261,-0.261795,0.432712
874340495,27.468420,-51.689968,13.207579,0.972359,-0.274590,0.389329
874350517,28.451441,-49.318741,14.660514,0.977719,-0.275601,0.361699
874360538,27.629274,-42.965347,11.339232,0.940664,-0.228758,0.358310
874370560,24.728760,-34.058109,4.069959,0.929109,-0.165920,0.375370
874380582,17.556143,-28.718655,-1.319559,0.953827,-0.115837,0.393164
874390605,8.965219,-26.292913,1.562785,0.981657,-0.082362,0.390178
874400626,3.827451,-23.761787,8.776218,1.013649,-0.083258,0.358007
874410648,1.558765,-20.549791,14.412880,1.030614,-0.092216,0.314503
874420670,-2.474525,-14.083967,18.292547,1.033800,-0.107302,0.277505
874430691,-7.401805,1.290894,22.719166,0.966198,-0.115362,0.233376
874440713,-9.726337,22.758259,24.910759,0.846406,-0.109158,0.212966
874450734,-11.639318,36.090790,23.282507,0.754327,-0.135040,0.275146
874460756,-11.459715,35.892719,22.626144,0.750346,-0.218824,0.404546
874470778,-6.047354,25.749020,23.279884,0.831863,-0.329652,0.526417
874480799,0.184082,11.803036,21.234062,0.951925,-0.366817,0.552365
874490821,-0.311031,-1.104340,17.197124,1.122902,-0.306805,0.481739
874500842,-7.555729,-8.198213,14.806290,1.248793,-0.265550,0.346662
874510864,-2.860719,6.649470,14.756255,1.254661,-0.272599,0.191805
874520887,11.284321,45.190914,21.254517,1.158903,-0.240096,0.126560
874530906,13.464119,82.576218,36.682838,1.028806,-0.200070,0.172440
874540928,14.677982,102.054443,50.611832,0.964195,-0.204952,0.345722
874550949,27.903313,102.851715,57.289963,0.941227,-0.239440,0.645375
874560971,39.012245,91.518784,61.055126,0.833671,-0.293746,1.029246
874570992,33.382698,65.422668,60.665863,0.626066,-0.302497,1.153261
874581014,18.329166,27.579775,50.852325,0.400456,-0.274439,0.861314
874591036,9.834384,-0.269614,33.619781,0.363800,-0.311987,0.587130
874601057,9.832352,-5.596390,19.683350,0.542344,-0.422884,0.523433
874611079,19.240072,6.891397,20.498371,0.713500,-0.507301,0.550508
874621100,35.034042,13.752160,27.973850,0.699361,-0.503312,0.543453
874631122,48.045479,6.641074,26.204788,0.625736,-0.453619,0.530669
874641144,56.808750,4.060205,16.754297,0.604368,-0.373746,0.613432
874651165,54.291718,7.479193,8.999702,0.598346,-0.281943,0.738636
874661187,40.492210,8.310850,6.484025,0.547456,-0.204835,0.806640
874671208,26.884199,4.415000,4.611287,0.473683,-0.184087,0.824867
874681230,19.403076,-3.530749,0.440385,0.446780,-0.216484,0.827669
874691251,16.312716,-12.863749,-4.021892,0.478107,-0.264612,0.792970
874701273,19.248440,-20.649389,-4.006567,0.557002,-0.323440,0.713913
874711295,29.021568,-26.705357,1.820788,0.655874,-0.388057,0.632136
874721316,39.614586,-30.039907,10.016192,0.727179,-0.429826,0.551425
874731339,44.555965,-26.820427,12.352170,0.694845,-0.431523,0.452147
874741361,46.321766,-20.607492,5.902916,0.604944,-0.392430,0.352293
874751382,47.501179,-20.291933,0.027487,0.582842,-0.379081,0.312144
874761404,47.857559,-31.830420,-0.680457,0.688726,-0.403925,0.323319
874771426,53.380299,-53.328548,2.451499,0.907054,-0.409010,0.374666
874781447,71.348328,-75.322899,7.697810,1.151342,-0.326985,0.448245
874791469,93.572479,-91.393845,9.736678,1.293066,-0.150230,0.524663
874801490,104.795723,-94.824730,7.795007,1.332019,0.062729,0.578909
874811512,102.421158,-77.616913,2.890762,1.300670,0.270791,0.592258
874821534,88.619125,-36.488178,-3.624509,1.212944,0.432701,0.586821
874831555,63.028572,21.601540,-7.399026,1.097046,0.513290,0.648494
874841577,18.142595,74.436020,-4.560319,0.974183,0.455057,0.787011
874851599,-51.199654,96.754349,3.400932,0.804546,0.303328,0.884989
874861627,-122.410187,84.932358,12.277270,0.572590,0.096510,0.901389
874871640,-153.318176,59.440193,21.771721,0.436145,-0.255967,0.842302
874881662,-108.205765,44.267235,36.372044,0.405554,-0.711536,0.740410
874891684,-35.829002,8.892146,36.917126,0.323654,-0.878136,0.528871
874901705,15.822979,-43.030148,13.578175,0.307421,-0.798140,0.263334
874911727,60.248039,-62.050804,-10.681143,0.486253,-0.631056,0.264900
874921748,90.392586,-56.988220,-19.205761,0.673861,-0.404495,0.464881
874931770,93.063133,-50.832359,-15.651456,0.724893,-0.152319,0.621225
874941791,78.167259,-46.333595,-12.357051,0.707651,0.030072,0.668940
874951813,53.623360,-42.771496,-14.625328,0.707307,0.128737,0.646272
874961834,23.243902,-36.650673,-17.232201,0.763065,0.137865,0.637318
874971856,-3.472511,-24.450354,-15.164793,0.848860,0.045839,0.645805
874981877,-13.320537,-9.131344,-9.176735,0.887374,-0.081369,0.633116
874991899,-7.614323,-0.438864,-4.276811,0.839545,-0.213930,0.634225
875001921,4.285107,-1.848135,-5.311382,0.767032,-0.335812,0.648904
875011943,16.554382,-7.713791,-10.900316,0.708353,-0.397626,0.652992
875021964,27.374266,-15.159372,-17.009926,0.690449,-0.364810,0.640572
875031986,35.333580,-22.661705,-19.608372,0.707867,-0.267500,0.643720
875042007,37.063923,-29.170155,-21.291512,0.745000,-0.175220,0.672728
875052029,31.718254,-32.403748,-21.978825,0.771385,-0.096685,0.695034
875062051,23.035820,-33.216957,-21.606752,0.798134,-0.036191,0.694366
875072074,15.624983,-35.399761,-22.065914,0.842124,0.008766,0.648794
875082095,9.640913,-39.512466,-18.283178,0.905075,-0.002147,0.581606
875092117,6.291697,-39.231079,-7.500730,0.929880,-0.061385,0.485223
875102139,8.274690,-32.493889,2.884289,0.910272,-0.158515,0.427067
875112160,11.220997,-26.672380,7.137679,0.906330,-0.256380,0.425661
875122182,17.001295,-28.973827,4.825284,0.939181,-0.328090,0.435779
875132203,28.377386,-34.228523,3.965963,0.953147,-0.298709,0.417976
875142225,39.039871,-34.463501,8.958220,0.939197,-0.217034,0.412830
875152247,39.710754,-27.879477,14.264421,0.888016,-0.136564,0.416162
875162268,36.236092,-15.303164,18.164501,0.818895,-0.069155,0.441685
875172290,34.838058,-8.322323,23.029095,0.767409,-0.037370,0.494217
875182311,33.464497,-13.291517,24.080412,0.736079,0.001206,0.544109
875192333,29.037022,-22.015324,19.582100,0.772356,0.048160,0.581678
875202369,19.233889,-25.839853,14.602331,0.866937,0.074355,0.592714
875212375,4.460966,-22.423710,10.781327,0.980096,0.086548,0.546825
875222396,-13.061293,-12.923806,8.788805,1.019517,0.079941,0.446655
875232418,-23.610146,3.488110,9.905493,0.992500,0.028924,0.346001
875242440,-21.714235,22.078592,11.717009,0.944553,-0.046708,0.352466
875252461,-19.954220,33.129242,13.399566,0.891502,-0.131772,0.430351
875262483,-21.121078,30.680223,7.636158,0.901426,-0.211605,0.504828
875272504,-18.202360,17.279085,-6.086483,0.987900,-0.210655,0.487789
875282526,-12.139517,10.445807,-11.885939,1.071989,-0.160328,0.410782
875292548,-4.532761,21.875887,-0.360021,1.058584,-0.139126,0.365169
875302569,-2.845264,41.097393,18.273691,0.991509,-0.219906,0.401582
875312591,-8.826370,55.045795,26.153208,0.900110,-0.364827,0.518647
875322612,-13.298671,61.674011,18.501987,0.770582,-0.470613,0.648404
875332634,-12.237266,56.224621,4.374683,0.625526,-0.441207,0.707373
875342656,-3.633344,35.872837,-6.459551,0.540515,-0.318900,0.702465
875352677,8.993841,11.308771,-12.917274,0.539920,-0.193417,0.706524
875362699,13.542326,-4.354368,-16.853146,0.585697,-0.089253,0.707637
875372720,1.811986,-8.875887,-20.476660,0.641235,-0.025831,0.667459
875382742,-23.773676,-7.274366,-23.847368,0.703438,-0.040269,0.590463
875392764,-51.758026,0.564497,-21.232838,0.721203,-0.156401,0.503784
875402785,-65.640984,17.499144,-13.463161,0.653985,-0.356373,0.396965
875412808,-60.241982,33.184448,-8.735095,0.595167,-0.528677,0.351161
875422830,-41.470474,23.879530,-10.195805,0.634791,-0.653820,0.399098
875432852,-3.658616,-7.210569,-12.406605,0.746080,-0.652129,0.434676
875442873,41.129032,-32.406647,-10.394979,0.816158,-0.483342,0.421231
875452894,64.093658,-36.713642,-11.206917,0.832130,-0.267172,0.493673
875462916,57.825928,-27.956274,-20.187206,0.830564,-0.038395,0.633621
875472938,36.122673,-20.342663,-33.100998,0.820193,0.168276,0.749651
875482959,14.756479,-19.843557,-45.934467,0.810723,0.337750,0.817195
875492981,-5.006970,-23.524588,-55.149963,0.840401,0.444182,0.846213
875503003,-36.058674,-28.317608,-57.360443,0.902533,0.456568,0.797037
875513024,-82.943962,-32.501179,-53.096439,0.995124,0.377170,0.675640
875523046,-121.121750,-27.783201,-46.500240,1.180753,0.162945,0.558950
875533067,-120.494110,-2.513190,-33.562599,1.311048,-0.166985,0.414040
875543089,-105.725800,20.346851,-11.619621,1.212262,-0.348454,0.229268
875553109,-101.387085,11.773779,-2.182857,1.075377,-0.483509,0.080070
875563131,-80.639313,-2.736056,-13.237616,1.027972,-0.587161,0.020672
875573152,-47.537556,-6.894209,-35.367229,1.029832,-0.580636,0.094377
875583174,-33.941357,-11.580478,-52.425369,1.142803,-0.524153,0.246235
875593196,-37.646797,-10.391269,-51.758148,1.315179,-0.576152,0.320758
875603217,-42.470131,7.555288,-41.240124,1.301538,-0.650801,0.207287
875613239,-40.996368,36.013729,-35.229401,1.103257,-0.697298,0.099518
875623261,-29.224899,62.742722,-35.436340,0.860520,-0.675811,0.172042
875633282,-12.662594,73.384506,-35.634335,0.632051,-0.605352,0.389027
875643304,2.035417,60.709305,-35.064632,0.452573,-0.539312,0.600580
875653325,15.444546,34.154377,-38.875301,0.349928,-0.436480,0.664351
875663347,21.791485,9.335523,-49.291859,0.364028,-0.295945,0.587181
875673369,21.144672,2.019424,-59.899891,0.449164,-0.193345,0.529598
875683390,15.414278,11.371456,-63.826309,0.496333,-0.109721,0.517234
875693412,5.809128,20.774544,-63.091148,0.474378,-0.048773,0.528771
875703433,-1.960867,21.054825,-63.214676,0.438788,-0.032345,0.558238
875713455,-6.394128,13.228827,-65.672073,0.451354,-0.036795,0.598972
875723476,-11.029554,3.441916,-68.369873,0.528518,-0.066611,0.619448
875733498,-14.843435,-2.361946,-68.868423,0.663297,-0.108083,0.584903
875743519,-13.484961,-2.940034,-67.232735,0.804650,-0.162822,0.544871
875753541,-9.874877,0.478976,-63.210720,0.935121,-0.234382,0.526203
875763565,-5.887466,5.829288,-56.862228,1.031206,-0.310225,0.524617
875773586,1.508896,9.322830,-48.862076,1.076407,-0.354800,0.555724
875783608,12.248486,8.115235,-43.122902,1.057838,-0.348729,0.575022
875793630,19.073139,5.692531,-42.654892,1.008821,-0.307466,0.581971
875803651,18.560211,5.752448,-45.606911,0.968761,-0.254202,0.577779
875813673,14.880926,8.400150,-46.754425,0.937166,-0.195228,0.573966
875823694,12.029612,9.284969,-45.255447,0.900886,-0.145303,0.569647
875833716,10.988356,7.751798,-42.442486,0.846474,-0.087598,0.569866
875843737,10.497316,3.253054,-41.459324,0.805557,-0.040993,0.575919
875853759,8.596420,-2.461617,-42.764931,0.806881,-0.005806,0.603316
875863781,4.471414,-7.019797,-45.700130,0.835651,0.035878,0.627764
875873802,-0.408580,-6.834889,-49.517746,0.850746,0.084138,0.625838
875883824,-7.164650,-3.714012,-52.272430,0.855141,0.147082,0.615153
875893848,-15.046972,-1.564964,-54.834724,0.863665,0.189813,0.591555
875903866,-25.069366,-0.492672,-55.855927,0.894544,0.190485,0.572110
875913887,-38.108086,2.560912,-51.324997,0.935712,0.113531,0.580329
875923909,-51.654778,8.125490,-41.642578,0.953023,0.019796,0.563749
875933931,-53.528488,10.410017,-35.657623,0.938886,-0.022796,0.519749
875943952,-42.907642,10.447313,-33.743095,0.888032,-0.018817,0.535915
875953974,-35.699230,14.060154,-31.226799,0.852271,0.006444,0.601180
875963995,-35.761784,19.639509,-30.363108,0.786698,0.045297,0.643717
875974017,-42.671570,21.455086,-28.940552,0.672777,0.083442,0.639839
875984038,-53.923252,17.300570,-26.839125,0.592898,0.076095,0.618376
875994060,-64.300117,7.732130,-27.999918,0.614944,0.006317,0.596169
876004081,-68.797394,-0.382954,-31.157450,0.692709,-0.069646,0.565499
876014103,-66.513969,-2.588344,-29.420664,0.775222,-0.109486,0.522365
876024125,-57.862129,-3.445122,-25.052338,0.842370,-0.099987,0.487634
876034146,-47.107216,-6.083139,-22.587793,0.894654,-0.051741,0.485068
876044168,-38.157055,-9.085593,-22.699287,0.941814,0.024789,0.500259
876054190,-31.512749,-11.769858,-29.527977,1.054251,0.141575,0.518871
876064211,-32.235439,-9.220501,-40.830399,1.117898,0.268148,0.504270
876074233,-51.417854,13.994600,-38.145523,1.033212,0.308268,0.431031
876084255,-83.132507,51.334824,-19.044291,0.931685,0.231361,0.427647
876094276,-103.432007,71.804604,-4.936047,0.970348,0.058739,0.563918
876104298,-111.410881,64.695656,-8.448750,1.019895,-0.169686,0.696177
876114321,-112.552895,56.877419,-21.078976,0.971700,-0.369818,0.681817
876124342,-105.295670,61.442680,-30.143761,0.810725,-0.386183,0.556956
876134364,-86.378418,59.661751,-32.877338,0.684127,-0.258136,0.528571
876144385,-60.674725,40.287712,-33.909348,0.653592,-0.126336,0.687499
876154407,-47.888683,18.965111,-32.158825,0.681566,0.015829,0.837846
876164429,-54.557915,7.949352,-33.285728,0.669893,0.183067,0.844028
876174450,-75.899338,8.588150,-39.689678,0.629183,0.315319,0.768528
876184472,-104.758224,18.444593,-48.071175,0.613949,0.388931,0.730299
876194494,-138.339844,30.541767,-51.908543,0.617215,0.413121,0.728667
876204515,-168.388702,38.717178,-48.547146,0.609833,0.364609,0.711897
876214537,-181.409225,46.742680,-41.628906,0.614522,0.231944,0.706653
876224558,-179.751846,54.647865,-37.443787,0.627537,0.072633,0.714982
876234580,-177.796814,46.664600,-39.310089,0.678611,-0.049689,0.673028
876244600,-176.217621,21.043371,-51.548203,0.794342,-0.130548,0.548899
876254622,-167.972733,4.670901,-70.717850,0.894464,-0.135503,0.399812
876264643,-163.484467,12.092014,-89.530762,1.040206,-0.079439,0.336136
876274665,-176.421051,24.030495,-102.348251,1.210437,-0.079562,0.343936
876284687,-202.708710,49.382561,-93.821014,1.326327,-0.272683,0.352932
876294708,-230.549820,88.489174,-60.626839,1.328520,-0.641191,0.305551
876304730,-243.586914,119.208115,-25.039431,1.155108,-1.095472,0.237019
876314751,-235.799881,128.527023,-9.094284,0.796489,-1.618653,0.316288
876324773,-190.049789,97.102036,-30.837997,0.195045,-1.978433,0.501142
876334795,-99.045746,19.355377,-73.698067,-0.149482,-1.512391,0.242585
876344816,-8.565412,-54.351517,-92.331757,0.117348,-0.939906,0.185000
876354838,41.322117,-98.174355,-91.789101,0.511048,-0.664029,0.570535
876364859,33.001781,-106.828644,-84.418793,0.781131,-0.429651,0.836787
876374881,-16.780636,-89.743118,-80.487892,0.809117,-0.171012,0.706484
876384903,-62.118744,-65.853966,-82.676910,0.743222,-0.007511,0.438439
876394924,-84.346428,-47.393738,-78.806206,0.741139,-0.003485,0.310928
876404946,-93.816368,-38.378914,-62.362785,0.767934,-0.114237,0.330611
876414967,-96.190536,-35.801430,-48.192230,0.750315,-0.273427,0.342540
876424989,-94.890961,-36.593815,-49.938416,0.730556,-0.411694,0.318954
876435010,-87.417679,-41.242020,-61.738731,0.776414,-0.474383,0.292676
876445032,-68.865189,-45.655487,-71.140648,0.879695,-0.458568,0.273270
876455055,-47.248970,-47.620228,-71.792091,0.961242,-0.375115,0.283191
876465077,-34.440346,-45.364311,-67.428116,0.980302,-0.265965,0.338149
876475098,-34.989773,-37.442261,-63.774609,0.976843,-0.176536,0.392923
876485120,-45.759819,-25.438589,-62.728249,0.959580,-0.126805,0.426255
876495142,-61.126892,-14.540997,-62.453125,0.934629,-0.124399,0.429876
876505163,-73.979362,-7.490023,-58.841599,0.912376,-0.194995,0.404622
876515185,-78.819717,-5.961225,-48.917381,0.904882,-0.313649,0.395350
876525206,-73.101311,-12.727388,-41.397476,0.898065,-0.448344,0.388036
876535228,-62.639824,-26.539894,-42.744507,0.904192,-0.524520,0.355933
876545250,-50.530891,-38.609024,-51.526031,0.937217,-0.492090,0.320217
876555271,-39.966270,-41.889721,-58.780365,0.980163,-0.368916,0.322063
876565293,-38.481636,-39.216789,-61.506386,1.024092,-0.246250,0.356333
876575314,-43.683441,-34.073715,-60.374329,1.049149,-0.139787,0.405165
876585335,-50.368713,-28.670197,-57.616074,1.044917,-0.074121,0.425169
876595356,-58.871410,-24.193142,-56.503792,1.018596,-0.056878,0.410267
876605378,-69.669365,-21.370609,-54.397198,1.006310,-0.081902,0.378882
876615399,-77.709274,-20.966263,-49.597359,1.004302,-0.146291,0.321131
876625421,-74.090912,-21.151833,-49.655399,1.014373,-0.193318,0.268786
876635443,-65.780052,-19.715965,-52.066910,1.047674,-0.227888,0.247100
876645464,-58.938492,-14.644017,-50.752869,1.083064,-0.230945,0.225715
876655486,-55.474880,-7.394295,-47.099022,1.076874,-0.247022,0.208504
876665508,-58.355278,1.123757,-40.929405,1.007143,-0.237853,0.222486
876675529,-62.173168,7.863262,-36.518368,0.927182,-0.229607,0.238951
876685551,-64.266495,9.446268,-35.955296,0.854766,-0.186319,0.275575
876695572,-65.951965,7.259473,-34.294754,0.843144,-0.135899,0.314951
876705594,-69.949944,2.019706,-31.501324,0.899172,-0.117750,0.318488
876715616,-74.251160,-0.514432,-29.774691,0.952336,-0.103259,0.289441
876725637,-77.435760,3.776998,-25.594740,0.964479,-0.091702,0.249010
876735659,-75.390182,12.351515,-19.615313,0.948383,-0.086663,0.231735
876745680,-71.479126,19.404041,-14.166793,0.946272,-0.083747,0.277399
876755702,-69.021484,20.983652,-12.419684,0.985969,-0.109926,0.344550
876765724,-64.926636,19.897991,-18.681822,1.111666,-0.138662,0.412896
876775745,-67.246223,21.857765,-25.796616,1.189187,-0.157022,0.429820
876785767,-79.710602,34.973385,-23.001335,1.153898,-0.174498,0.386005
876795790,-88.237961,50.441174,-21.655468,1.108232,-0.202162,0.349118
876805812,-89.573662,52.838509,-34.141502,1.123022,-0.236779,0.358070
876815833,-92.332741,52.042580,-51.519779,1.157930,-0.242193,0.362558
876825855,-97.760452,63.521919,-56.837067,1.127730,-0.251425,0.359682
876835876,-105.085403,81.577896,-44.456329,1.010411,-0.312089,0.350950
876845898,-111.908905,90.468933,-27.774063,0.836888,-0.414365,0.346156
876855919,-108.541374,85.709854,-23.635792,0.682398,-0.512921,0.390817
876865941,-93.853676,69.975021,-32.281258,0.578558,-0.574424,0.494903
876875963,-78.016472,47.260738,-43.183952,0.526269,-0.549754,0.595195
876885984,-66.968376,26.482639,-50.852077,0.534049,-0.424188,0.602774
876896006,-63.644238,15.000902,-54.873932,0.556703,-0.290108,0.558131
876906028,-65.646835,15.383121,-53.868561,0.563869,-0.233275,0.565362
876916049,-75.801155,19.970470,-47.304253,0.544460,-0.246289,0.591184
876926081,-89.640190,19.028305,-39.396122,0.476587,-0.297889,0.551783
876936091,-93.126579,12.647599,-37.474022,0.409209,-0.352954,0.513143
876946112,-81.289810,2.556444,-42.811855,0.421540,-0.350733,0.543077
876956134,-61.344131,-16.665461,-54.602608,0.542232,-0.221012,0.602431
876966156,-42.424149,-47.017719,-74.846497,0.725826,-0.004274,0.646959
876976177,-31.433910,-82.517975,-98.620575,0.892195,0.221460,0.589317
876986199,-33.585541,-106.025902,-117.292389,0.999902,0.446653,0.461875
876996220,-56.698929,-105.205956,-129.899460,1.124809,0.639736,0.342108
877006242,-97.854095,-81.855782,-139.433594,1.321772,0.759577,0.278280
877016264,-153.510635,-52.016338,-146.851440,1.564521,0.802866,0.262215
877026285,-236.376541,-23.759781,-143.286926,1.777773,0.598771,0.216475
877036307,-307.933289,40.926430,-102.315811,1.999689,-0.063388,-0.017888
877046329,-292.638123,148.561630,-18.657408,1.843780,-0.568766,-0.256852
877056350,-281.815857,177.327423,46.262196,1.423491,-0.909464,-0.484357
877076394,-211.829819,202.620636,108.598358,0.600614,-1.972202,-0.538589
877086415,-98.254105,163.299286,33.135891,-0.628328,-2.955225,0.981174
877096437,44.603088,-1.763407,-110.920670,-0.807531,-1.789783,0.708219
877106458,95.783325,-126.976204,-179.043243,0.035604,-0.651609,0.296193
877116480,101.123344,-173.189117,-204.028503,0.613885,-0.254319,0.507633
877126501,102.661392,-162.387939,-216.575012,1.125025,0.050428,0.667268
877136524,72.409431,-132.229324,-209.210373,1.341804,0.355828,0.761746
877146546,11.872514,-104.092171,-191.723083,1.240212,0.555182,0.586373
877156567,-44.765350,-68.159203,-172.292297,1.056140,0.640059,0.270224
877166589,-78.191406,-24.902828,-150.242859,0.918556,0.723600,0.116668
877176611,-94.299942,8.111878,-119.723099,0.892281,0.746953,0.114644
877186632,-116.849464,19.050026,-77.019974,0.974208,0.637470,0.171683
877196654,-163.290009,14.139811,-31.528488,0.988315,0.496985,0.263809
877206676,-206.191589,19.283621,0.137255,1.032590,0.231119,0.226267
877216697,-201.579559,56.330589,11.570495,1.114532,-0.069507,0.225341
877226719,-177.958130,91.226501,8.720463,1.028961,-0.217524,0.329911
877256784,-155.774872,70.241562,-65.418671,0.665468,-0.391397,0.468535
877276825,-108.054535,-2.575752,-81.013245,0.791686,-0.232224,0.527322
877286847,-90.951775,-30.150505,-80.691681,0.899409,-0.121316,0.455268
877296869,-87.627647,-36.995018,-82.950470,1.070261,-0.067795,0.394528
877306890,-98.935516,-24.672386,-83.530594,1.187153,-0.002692,0.385922
877316912,-120.394302,2.376931,-77.525551,1.242242,0.057778,0.415324
877326934,-148.551193,29.098568,-69.381432,1.243023,0.060849,0.412937
877336955,-173.250168,48.777634,-64.197830,1.132976,0.030115,0.372874
877346977,-187.174683,62.671375,-57.902916,1.041366,-0.095904,0.355946
877356999,-189.082397,64.774933,-48.778793,0.990999,-0.296606,0.333928
877367020,-171.946213,52.510406,-43.032494,0.924972,-0.489944,0.339412
877377041,-144.574387,24.711046,-49.188820,0.873330,-0.600727,0.318644
877387063,-118.732056,-6.102674,-68.205482,0.877014,-0.571251,0.267625
877397085,-99.720245,-20.810684,-83.817719,0.922146,-0.428987,0.241288
877407106,-95.265305,-20.161045,-84.202934,0.994251,-0.296873,0.228706
877427150,-96.739288,-2.181099,-60.652866,0.927527,-0.173102,0.212084
877437171,-98.465012,5.104797,-54.140503,0.869089,-0.221869,0.255579
877447193,-103.520798,8.332067,-53.678165,0.825500,-0.266681,0.347039
877457214,-109.638344,4.263675,-53.017948,0.775151,-0.259598,0.389768
877467236,-111.343124,-7.758564,-51.713642,0.790847,-0.233796,0.384753
877477259,-106.486908,-21.185619,-51.783890,0.869614,-0.196581,0.374278
877487281,-101.656929,-27.818602,-54.008717,0.981692,-0.165234,0.352441
877497302,-100.807632,-22.135504,-57.311710,1.081940,-0.151410,0.303713
877507324,-103.107506,-6.172359,-57.979580,1.124102,-0.157460,0.260734
877517346,-108.302460,10.814445,-52.744892,1.113402,-0.179794,0.201297
877527367,-115.868126,22.544912,-44.637817,1.051250,-0.225428,0.166623
877537389,-122.431549,31.658480,-39.613747,0.997108,-0.286514,0.179842
877547410,-121.532555,42.450378,-40.301247,0.957060,-0.303587,0.256896
877557432,-116.897301,48.616520,-43.892746,0.883123,-0.235501,0.365594
877567454,-111.558060,44.978008,-45.591030,0.805854,-0.133665,0.469982
877577475,-104.979797,32.978546,-45.340630,0.807068,-0.070056,0.544123
877587497,-103.967865,17.609777,-43.764488,0.911051,-0.054704,0.587729
877597518,-110.277298,7.081237,-42.487228,1.038566,-0.087323,0.527201
877607559,-117.018723,15.739546,-36.074833,1.080893,-0.149898,0.409123
877617560,-117.626633,40.024082,-19.698555,0.988059,-0.201755,0.307995
877627582,-112.843117,55.228119,-4.680616,0.857907,-0.295864,0.287063
877637603,-108.308975,52.990425,-2.854400,0.828162,-0.487470,0.354708
877647625,-108.321785,46.936474,-11.289650,0.794057,-0.718460,0.413359
877657646,-99.550453,47.532959,-20.148981,0.689959,-0.923471,0.415202
877667668,-76.612122,37.763153,-33.221008,0.555304,-0.985330,0.406899
877677689,-43.712082,8.113871,-52.186234,0.554638,-0.844469,0.444334
877687711,-13.572370,-22.609459,-64.790855,0.713246,-0.608148,0.522751
877697733,-2.172182,-39.160713,-69.875450,0.859072,-0.389991,0.584290
877707754,-8.023516,-41.695213,-71.915604,0.913786,-0.210910,0.575745
877717776,-15.055622,-35.244190,-72.888641,0.878203,-0.077660,0.497544
877727798,-25.877243,-27.160488,-67.541451,0.818503,-0.019354,0.444185
877737819,-45.564957,-21.267609,-49.508324,0.750221,-0.035947,0.403764
877747841,-58.829353,-18.905460,-28.062389,0.696943,-0.140547,0.352342
877757863,-52.857956,-21.612799,-19.938799,0.657451,-0.280661,0.335002
877767884,-35.218857,-33.351097,-26.111870,0.657589,-0.315268,0.365333
877777906,-11.304994,-55.435524,-40.642448,0.732537,-0.215473,0.402385
877787927,10.786732,-76.741173,-50.893547,0.852917,-0.062982,0.432961
877797949,15.966928,-89.575226,-50.022171,0.980327,0.049742,0.425495
877807971,7.836182,-89.915466,-44.763832,1.040061,0.147987,0.368673
877817994,-3.238344,-76.724319,-40.394676,1.047238,0.252594,0.301035
877828015,-14.420578,-58.077118,-38.970512,1.131987,0.320544,0.266861
877838037,-25.237545,-46.088760,-38.258972,1.267780,0.365376,0.242718
877848058,-35.063477,-37.718094,-35.113758,1.240377,0.378983,0.151908
877858080,-48.062477,-18.743820,-19.810677,1.089561,0.313221,0.050107
877868102,-61.861061,-8.111875,1.143964,1.189011,0.255544,0.046211
877878123,-66.977669,-22.711931,10.140877,1.429877,0.134082,0.112340
877888145,-64.455605,-17.632786,19.136799,1.635363,-0.078769,0.175141
877898167,-65.313202,20.819447,35.029259,1.633936,-0.264746,0.247863
877908188,-81.815079,48.472397,40.721466,1.441759,-0.398333,0.236636
877918210,-87.966492,59.827908,29.101902,1.247725,-0.544390,0.236971
877928232,-69.627037,60.564964,13.205958,1.082124,-0.607092,0.324774
877938253,-44.709236,37.552628,-0.782923,0.921165,-0.577338,0.398920
877948282,-15.203599,-2.368071,-15.766138,0.830711,-0.485618,0.363998
877958295,13.503370,-39.004436,-30.426361,0.898592,-0.353981,0.302225
877968317,31.564648,-55.912674,-39.050873,1.048263,-0.216881,0.282703
877978338,34.385105,-50.670883,-39.610737,1.138176,-0.082133,0.242734
877988360,24.091660,-28.055122,-34.296570,1.103683,0.041735,0.180460
877998381,7.699827,6.803866,-27.118835,1.015927,0.121112,0.158770
878008403,-9.805960,45.115116,-18.640711,0.887031,0.139490,0.188814
878018425,-28.075163,75.630028,-7.254408,0.727375,0.105349,0.254938
878028446,-44.783264,94.241074,4.512094,0.574632,0.025173,0.348260
878038468,-54.879799,101.398300,13.039047,0.462571,-0.083822,0.473801
878048489,-54.593945,93.036926,12.252459,0.341545,-0.211156,0.641672
878058511,-46.808487,66.726700,0.973035,0.257196,-0.311029,0.749859
878068532,-29.884922,26.996609,-19.947582,0.298501,-0.312673,0.709204
878078554,-5.284554,-13.300880,-37.132610,0.525972,-0.224632,0.597608
878088576,15.132545,-39.009182,-37.828598,0.836730,-0.162936,0.545106
878098597,19.299358,-40.800701,-24.877274,1.058974,-0.113896,0.525566
878108619,11.566339,-20.145210,-13.090098,1.143278,-0.052155,0.489073
878118641,-0.404721,10.891157,-13.119078,1.173532,-0.017338,0.474985
878128662,-13.437250,44.541061,-17.621948,1.158320,-0.036782,0.527841
878138684,-33.697327,73.824966,-9.357954,1.054479,-0.109024,0.584490
878148705,-56.804874,87.701782,9.211898,0.873831,-0.210967,0.585833
878158729,-66.813171,79.039139,28.510164,0.690447,-0.320021,0.556442
878168750,-53.801720,53.403355,39.603065,0.535333,-0.429362,0.520886
878178772,-25.693727,21.149260,33.247231,0.468734,-0.461809,0.510106
878188793,-4.375527,-5.265659,17.978817,0.534612,-0.370407,0.552806
878198815,5.895920,-16.724991,9.530773,0.660094,-0.219826,0.632234
878208836,6.092770,-18.001898,9.926623,0.751064,-0.101443,0.700934
878218858,-3.489842,-16.046835,12.161842,0.836576,-0.047991,0.705487
878228879,-12.478085,-18.611361,4.950090,1.007371,-0.045572,0.662831
878238901,-23.788612,-25.631836,-11.000686,1.163153,-0.069287,0.581132
878248923,-51.369144,-18.375246,-17.850624,1.156754,-0.082428,0.415857
878258944,-71.283577,13.263586,-11.785578,1.067429,-0.057354,0.244926
878268966,-71.111435,42.162811,-8.385986,1.015549,-0.059170,0.214336
878278988,-76.491516,52.946838,-4.865753,0.989635,-0.144786,0.297339
878289018,-85.980324,64.391144,5.465642,0.930302,-0.256590,0.395975
878299030,-88.435272,75.583656,10.273409,0.819771,-0.319624,0.476353
878309051,-87.824867,72.416786,0.398412,0.722970,-0.351264,0.564585
878319073,-82.793015,57.127399,-16.523094,0.685252,-0.356273,0.650479
878329094,-73.591637,38.080864,-30.806614,0.673840,-0.288119,0.646737
878339116,-68.610245,21.960459,-36.634708,0.666077,-0.215229,0.549572
878349137,-73.113770,18.498863,-35.682709,0.672407,-0.189029,0.454715
878359159,-82.742706,26.246161,-32.416523,0.697620,-0.193885,0.415608
878369181,-89.408195,36.834549,-26.951202,0.706047,-0.218320,0.407678
878379202,-89.592117,46.885883,-20.179012,0.682595,-0.246593,0.432868
878389224,-85.421524,51.170452,-17.122011,0.658602,-0.249678,0.510834
878399245,-82.381744,46.606438,-19.274126,0.659814,-0.224867,0.640468
878409267,-83.141853,35.066353,-25.671993,0.683909,-0.163668,0.731183
878419289,-88.417000,22.935762,-35.508625,0.719349,-0.106186,0.735520
878429310,-97.967987,18.318161,-45.761444,0.768404,-0.077557,0.686478
878439332,-109.828362,24.071480,-52.517178,0.826287,-0.083955,0.628139
878449354,-123.315292,33.629379,-53.001801,0.877485,-0.149869,0.570606
878459375,-135.974472,41.167809,-46.786755,0.903339,-0.273019,0.488233
878469397,-140.139404,47.104229,-37.298512,0.811856,-0.355871,0.340028
878479418,-132.069214,48.270649,-30.916409,0.688448,-0.360796,0.261051
878489440,-117.790924,32.507713,-35.261990,0.727424,-0.331225,0.345763
878499463,-104.674637,9.537525,-45.808376,0.901963,-0.306768,0.483039
878509485,-101.529991,-1.170401,-53.410187,1.091282,-0.318079,0.571189
878519506,-120.090302,4.606378,-54.690346,1.187018,-0.437565,0.484744
878529528,-146.178131,31.996876,-42.585968,1.167408,-0.671455,0.274943
878539549,-152.704041,68.617233,-20.949831,1.066767,-0.923743,0.126249
878549571,-142.702835,94.748062,-2.614940,0.886458,-1.154197,0.133026
878559593,-118.132912,102.935364,-3.131030,0.588936,-1.355090,0.327528
878569614,-70.203568,75.200394,-29.359262,0.203588,-1.391719,0.614173
878579636,-10.386263,3.475908,-59.187172,0.106982,-1.060916,0.547552
878589657,38.255875,-58.440445,-69.542488,0.400872,-0.727429,0.426039
878599679,61.607079,-82.813896,-71.024071,0.728516,-0.539247,0.501171
878609701,55.175934,-77.319939,-69.456291,0.955178,-0.358322,0.598933
878619722,26.513779,-60.252674,-65.580650,1.044003,-0.198048,0.556743
878629756,-1.900967,-40.312706,-61.999130,1.015593,-0.084791,0.426863
878639764,-19.591858,-19.408833,-57.845562,0.962911,-0.033024,0.316251
878649786,-34.701763,0.247891,-50.145233,0.936813,-0.032031,0.273808
878659807,-54.678211,18.922649,-38.186127,0.919208,-0.102108,0.279174
878669829,-73.021324,39.737877,-29.578388,0.867438,-0.215226,0.288106
878679851,-84.464447,59.585674,-29.357052,0.784730,-0.309947,0.305946
878689872,-87.872726,68.479256,-34.199799,0.708978,-0.374797,0.333606
878699894,-79.705414,62.799934,-38.949921,0.685549,-0.421117,0.384620
878709915,-60.079834,44.586681,-39.464088,0.746347,-0.476247,0.450707
878719937,-37.229183,20.414974,-32.744732,0.898704,-0.539694,0.464361
878729959,-20.624409,4.292477,-20.957024,1.002481,-0.549905,0.402383
878739980,-7.615389,11.126771,-10.092879,0.942171,-0.454095,0.365098
878770045,-21.415970,34.164536,-19.531721,0.800291,-0.034975,0.765750
878780067,-35.199856,16.942680,-9.307893,0.887801,-0.161390,0.712442
878790088,-44.411884,14.948382,0.287493,0.898091,-0.380164,0.511658
878800110,-50.677555,24.133335,-4.366021,0.877036,-0.586416,0.363529
878810131,-45.876438,31.710789,-12.988197,0.882076,-0.773923,0.289365
878820153,-31.352070,34.616646,-13.574639,0.829156,-0.889013,0.250415
878830175,-7.580425,34.780933,-8.256646,0.684907,-0.783085,0.227911
878840198,22.477392,30.377506,-7.081174,0.589637,-0.521902,0.343781
878850220,37.190678,21.441042,-8.282570,0.626118,-0.298772,0.587844
878860241,32.181915,14.514300,-6.576829,0.684863,-0.138775,0.771409
878870263,17.938164,9.542076,-3.187052,0.704062,-0.024300,0.806840
878880284,6.631054,5.251463,0.392878,0.695125,0.016677,0.706651
878890306,-2.672490,3.939327,5.600182,0.735227,-0.044268,0.607481
878900328,-13.267593,8.010344,12.457850,0.811179,-0.172782,0.567762
878910349,-17.947947,15.921351,17.422913,0.865957,-0.295626,0.561892
878920371,-17.493847,19.570061,19.122478,0.888864,-0.366054,0.552444
878930393,-13.711119,15.765058,16.049753,0.890042,-0.365516,0.528595
878940414,-3.681665,11.511791,8.480476,0.905958,-0.312773,0.517896
878950436,7.988079,12.608418,1.838230,0.941558,-0.263104,0.551251
878960457,12.371901,21.300297,2.878199,0.938147,-0.245652,0.612264
878970493,11.887876,33.419304,9.711683,0.851857,-0.251270,0.664850
878980499,9.178427,38.455479,14.527222,0.741414,-0.292379,0.701529
878990521,3.356912,32.790073,13.830620,0.654593,-0.356045,0.718901
879000542,-0.691902,21.953232,9.956104,0.625636,-0.409724,0.699284
879010564,4.795086,9.390994,7.411873,0.657241,-0.428223,0.652689
879020585,17.468863,-5.060857,8.333980,0.709549,-0.403725,0.594054
879030607,29.760027,-16.577635,11.191293,0.746056,-0.371015,0.553809
879040629,37.783791,-19.106216,15.139386,0.758637,-0.333496,0.549039
879050650,39.272831,-13.100780,19.952291,0.732524,-0.307271,0.566112
879060672,37.274097,-4.294755,25.916800,0.660966,-0.294108,0.598985
879070693,30.167643,-2.097138,31.408669,0.598370,-0.314732,0.642764
879080715,19.568243,-9.778363,34.788303,0.634187,-0.394090,0.660433
879090737,15.595169,-23.394758,36.157223,0.708327,-0.468257,0.518282
879100758,31.062630,-28.470482,35.494911,0.708333,-0.487585,0.317780
879110780,53.574394,-30.238609,34.333603,0.715649,-0.442595,0.226235
879120802,71.763695,-36.211563,38.100361,0.728122,-0.366723,0.254834
879130823,87.249146,-46.878078,44.832947,0.806367,-0.277657,0.352817
879140845,102.752960,-67.882538,49.365860,0.943541,-0.159386,0.451171
879150866,122.494133,-91.841476,50.014214,1.115045,-0.033496,0.564644
879160888,144.181213,-103.552490,44.693802,1.222599,0.092129,0.610279
879170909,158.325531,-92.199745,32.111092,1.282968,0.242056,0.641166
879180933,156.612457,-60.845760,14.465847,1.362460,0.385373,0.705023
879190954,128.890335,-20.195761,-1.632716,1.376770,0.478092,0.747335
879200976,69.737595,26.657116,-8.933194,1.226349,0.516897,0.759027
879210997,-8.568008,78.137688,-4.877069,0.978532,0.473981,0.765583
879221019,-85.018059,113.613106,6.965861,0.749758,0.370198,0.815935
879231041,-149.665466,119.543373,21.808784,0.555098,0.200983,0.965041
879241062,-198.959991,103.690735,33.872948,0.370585,-0.032436,1.131867
879251084,-222.341919,72.291527,38.043423,0.185974,-0.361462,1.189500
879261105,-205.100067,27.201504,31.386885,0.076855,-0.792313,1.015269
879271127,-125.023170,-9.275578,30.076054,0.170019,-1.029316,0.584898
879281149,-22.800877,-39.718613,35.461426,0.225350,-0.870431,0.182666
879291170,52.108192,-67.925018,26.746943,0.230024,-0.699215,0.167994
879301192,95.275040,-74.035522,9.280587,0.349916,-0.559183,0.464884
879311213,104.218994,-65.991501,-1.735465,0.469262,-0.353827,0.767421
879321233,87.583527,-60.369102,-4.584369,0.513368,-0.130889,0.850574
879331255,61.554546,-60.925610,-7.538249,0.516594,0.028837,0.782271
879341277,33.912670,-64.702843,-9.242554,0.568444,0.096696,0.717994
879351298,6.709634,-63.051395,-6.125357,0.668517,0.078437,0.695022
879361320,-14.468451,-50.031151,4.446538,0.779125,-0.017036,0.681687
879371341,-22.402035,-29.117462,15.351283,0.826920,-0.163895,0.643735
879381363,-20.462681,-13.825263,18.171200,0.799372,-0.309077,0.630893
879391385,-14.053214,-11.553742,11.187261,0.744946,-0.426245,0.654042
879401406,-0.102921,-18.821678,0.497741,0.698741,-0.481654,0.661991
879411428,18.423468,-31.640968,-7.738051,0.664357,-0.437014,0.611843
879421450,33.790504,-44.850483,-10.905939,0.678015,-0.336464,0.551388
879431471,43.461533,-54.313820,-10.285494,0.737131,-0.244399,0.545961
879441493,48.017700,-58.695457,-9.630638,0.791597,-0.149787,0.580357
879451515,47.279106,-57.662384,-12.414248,0.824494,-0.056590,0.626443
879461536,37.972359,-54.084705,-18.364731,0.868819,0.014572,0.649669
879471558,20.945950,-51.335693,-22.670633,0.949320,0.056062,0.628792
879481579,3.878100,-48.310783,-22.024586,1.044150,0.057844,0.567742
879491601,-5.968518,-40.470879,-16.075178,1.126570,0.029805,0.492462
879501623,-11.762661,-27.175623,-6.703291,1.182356,-0.029090,0.456756
879511644,-18.286667,-8.285040,3.979247,1.146010,-0.108755,0.409076
879521667,-21.682755,15.465714,11.174501,0.986656,-0.171955,0.366189
879531689,-24.047359,34.530663,11.982146,0.801852,-0.235253,0.357532
879541710,-27.137903,39.274689,8.710253,0.700144,-0.330149,0.387435
879551732,-21.636414,27.122711,5.784609,0.686598,-0.460209,0.451959
879561754,-8.655905,2.043827,4.505105,0.756321,-0.528460,0.462136
879571775,4.176112,-17.620380,9.544806,0.862446,-0.430767,0.374884
879581797,16.911633,-19.148384,16.487911,0.972857,-0.292243,0.269664
879591818,17.567358,-14.099358,22.542271,1.035115,-0.195667,0.214149
879601843,10.955824,-6.747222,31.743204,1.035106,-0.147849,0.145470
879611862,17.937084,8.832235,40.740723,0.953823,-0.103308,0.110458
879621883,35.989944,31.574074,42.835823,0.971815,-0.044637,0.217174
879631905,40.936691,42.786587,38.764832,1.101799,-0.001648,0.403863
879641927,36.602673,39.262520,36.348301,1.202511,0.057907,0.526654
879651948,41.586399,41.541092,42.265446,1.151356,0.137422,0.574059
879661969,41.811028,58.346996,61.232635,0.994404,0.141362,0.592000
879671990,13.442127,75.512917,82.155678,0.847000,0.005546,0.592226
879682012,-35.518166,84.406075,90.278091,0.709780,-0.227239,0.567653
879692033,-70.467148,92.139114,80.848259,0.624932,-0.564525,0.572548
879702055,-50.766445,98.770996,60.228195,0.577106,-0.929357,0.676816
879712077,10.712490,74.707848,44.588688,0.482363,-0.937184,0.684019
879722098,61.909847,18.596848,35.625290,0.512556,-0.641281,0.542499
879732120,97.477341,-12.600582,27.078142,0.659078,-0.421223,0.566152
879742141,109.850533,-7.717963,23.657082,0.791166,-0.254454,0.703764
879752163,95.392960,9.320345,24.239391,0.781658,-0.084512,0.785325
879762185,72.666870,22.914413,23.349461,0.676764,0.039453,0.791911
879772207,51.685486,28.069763,21.478985,0.583272,0.094157,0.800427
879782228,25.895708,23.760431,23.234926,0.531168,0.062634,0.821247
879792250,-8.654133,11.829017,28.203976,0.511151,-0.037351,0.821016
879802271,-36.703331,-1.218341,31.783419,0.519485,-0.210102,0.751852
879812293,-33.980492,-2.482011,32.662697,0.578252,-0.434591,0.642332
879822314,-5.535421,2.601258,33.034023,0.603785,-0.591603,0.566426
879832336,22.132233,-3.261269,30.161032,0.608869,-0.668824,0.513931
879842358,43.446781,-16.794819,27.709682,0.689508,-0.705878,0.498984
879852379,64.888939,-28.789169,34.062645,0.824924,-0.706644,0.446992
879862401,88.476913,-31.845066,44.596004,0.812669,-0.643635,0.285779
879872424,108.529144,-23.426090,43.535343,0.815410,-0.564340,0.238530
879882445,116.416214,-17.371199,35.439465,0.815727,-0.477437,0.354898
879892467,124.787842,-15.033305,44.545494,0.752271,-0.343602,0.500094
879902489,140.319305,-31.137135,61.963722,0.759967,-0.195370,0.690666
879912510,158.037643,-66.918518,68.139183,0.838763,-0.031584,0.834833
879922532,169.296082,-98.168594,64.821770,0.974866,0.125690,0.928669
879932553,170.161484,-107.856094,57.145050,1.130731,0.258043,0.946014
879942575,155.373718,-90.624817,46.805073,1.191655,0.356045,0.858247
879952597,122.277794,-46.456558,35.361073,1.112693,0.442055,0.738784
879962618,79.472801,14.351273,25.834646,0.971748,0.483312,0.705913
879972640,37.496948,69.125694,21.305170,0.820226,0.467810,0.819468
879982661,-4.196986,100.720139,22.052073,0.639392,0.369416,1.007421
879992683,-54.997833,106.480392,23.517921,0.397219,0.217128,1.154766
880002703,-109.178017,87.280640,20.005203,0.147173,0.029056,1.154310
880012725,-146.172638,46.764881,7.619835,-0.047261,-0.171070,1.040007
880022746,-154.648468,-7.642377,-11.873235,-0.140739,-0.393312,0.950843
880032768,-140.059082,-63.923908,-30.886204,-0.068792,-0.541181,0.823852
880042790,-93.297234,-85.109680,-31.453257,0.279793,-0.713922,0.554508
880052811,-9.552169,-61.334206,-4.813845,0.565852,-0.710743,0.327503
880062833,46.281158,-55.659107,12.031003,0.514434,-0.556441,0.278329
880072854,65.420555,-58.250031,0.154532,0.472890,-0.460328,0.471703
880082876,66.075226,-53.029545,-18.078388,0.564326,-0.323394,0.760398
880092897,52.909294,-54.738922,-24.695164,0.643457,-0.163359,0.840685
880102919,34.687752,-62.049301,-22.583027,0.686161,-0.041457,0.742391
880112941,18.491798,-65.225349,-17.610611,0.747423,-0.016770,0.677993
880122962,5.009661,-59.069466,-11.220346,0.837817,-0.060362,0.661715
880132984,-4.433497,-45.651245,-5.812586,0.880565,-0.134422,0.644976
880143006,-8.434562,-33.181976,-4.330985,0.851271,-0.191740,0.600805
880153027,-6.569184,-28.062407,-8.067856,0.813486,-0.230315,0.558967
880163049,-0.251254,-29.499180,-13.356326,0.796373,-0.243807,0.548939
880173071,8.352853,-32.685081,-16.405657,0.797630,-0.218257,0.554746
880183092,16.366695,-37.177181,-18.108404,0.826338,-0.158437,0.565751
880193114,19.209936,-42.971939,-19.374126,0.858451,-0.091991,0.567258
880203135,14.790318,-47.103195,-20.021980,0.891357,-0.038467,0.548484
880213158,9.301165,-44.165215,-21.414913,0.941117,-0.018222,0.526465
880223180,-0.704664,-38.303570,-20.383833,1.010541,-0.038210,0.503466
880233201,-10.657955,-30.402805,-14.525084,1.063664,-0.097231,0.444980
880243223,-9.586881,-18.892569,-6.316416,1.059558,-0.164761,0.402352
880253245,-1.917351,-7.617895,-2.180580,1.009830,-0.215504,0.392757
880263267,2.967186,-0.037835,-4.876365,0.952505,-0.250254,0.435416
880273288,5.077890,3.149806,-11.142564,0.938264,-0.244093,0.526124
880283310,6.202769,0.760893,-14.074356,0.977567,-0.164569,0.560533
880293332,6.019632,-0.574662,-9.622604,1.007908,-0.064635,0.524969
880303353,1.210253,9.740482,0.232120,0.985627,0.000324,0.485667
880313375,-6.982677,30.213547,11.124035,0.895279,0.016023,0.477594
880323396,-15.544176,47.097946,18.792007,0.785310,-0.032458,0.504504
880333418,-23.827377,47.470303,19.616993,0.717463,-0.120851,0.520398
880343438,-26.740892,32.725964,16.270748,0.704623,-0.229584,0.460384
880353459,-20.601912,12.820458,12.768559,0.827763,-0.329526,0.384903
880363481,-9.467064,-3.363024,13.688865,1.099438,-0.402212,0.326851
880373503,5.260039,-7.886816,21.975588,1.333740,-0.445634,0.229318
880383525,24.826000,8.503622,33.130867,1.299875,-0.420910,0.099402
880393546,40.463367,46.740074,40.349327,1.087054,-0.269957,0.059455
880403568,48.118183,82.411392,40.912086,0.987423,-0.079285,0.198454
880413590,57.913559,98.425690,42.010300,0.984975,0.037122,0.454768
880423611,65.417984,101.888939,50.451504,0.978724,0.080582,0.776479
880433633,53.960564,98.242386,66.145073,0.869747,0.032281,1.005514
880443654,23.040234,86.187500,73.950897,0.664435,-0.055682,0.972875
880453676,-9.072490,65.626358,60.229347,0.488534,-0.152963,0.822898
880463697,-32.956829,43.229195,35.994156,0.425353,-0.241919,0.745965
880473719,-46.236443,31.604496,20.260906,0.462155,-0.329328,0.761886
880483741,-41.078960,36.374378,22.700417,0.583950,-0.489647,0.780487
880493762,-13.074574,47.346928,36.279682,0.640819,-0.602222,0.736856
880503784,14.863563,40.727478,40.901733,0.556244,-0.580354,0.661401
880513806,37.430859,27.053165,32.087250,0.490702,-0.484730,0.662864
880523827,52.292477,20.546028,24.757311,0.487391,-0.379449,0.741544
880533849,50.643013,17.902121,24.117283,0.443514,-0.286498,0.796176
880543871,41.205925,15.036685,22.958187,0.344776,-0.227848,0.809901
880563915,18.705357,0.609343,10.878886,0.256881,-0.207624,0.852430
880573936,4.788242,-13.989898,4.843810,0.300911,-0.231233,0.830731
880583958,-3.986886,-26.402956,2.408788,0.395789,-0.277221,0.770076
880604001,3.475795,-27.274277,5.963467,0.571269,-0.415938,0.685646
880614023,13.740636,-22.083456,7.753958,0.560093,-0.443419,0.694714
880624045,22.232613,-20.526321,4.929554,0.469539,-0.418993,0.732818
880634066,25.057266,-24.224125,1.772654,0.401765,-0.369007,0.772334
880644088,23.622828,-33.587326,0.924019,0.390092,-0.325626,0.796472
880654109,22.483625,-48.103996,0.215121,0.502035,-0.312001,0.794629
880664131,22.823345,-63.656731,-2.941990,0.660107,-0.259085,0.624365
880674152,23.673096,-72.781937,-11.000035,0.783805,-0.165043,0.271967
880684175,22.087296,-77.070557,-18.084074,0.916128,-0.110589,0.009548
880694194,22.942812,-72.067047,-11.452209,1.117789,-0.077232,-0.027675
880704216,40.982185,-55.869984,6.190506,1.370579,-0.014256,0.151734
880714238,67.369644,-34.632523,25.470947,1.442752,0.089688,0.502654
880724259,79.927422,4.627508,38.060101,1.230665,0.156657,0.824852
880734281,56.646290,63.020775,37.650116,0.868092,0.075715,1.032457
880744302,-0.373246,100.687279,23.942596,0.606267,-0.081202,1.204824
880754324,-64.142380,80.452209,-1.497261,0.420813,-0.237684,1.268492
880764345,-105.318153,16.873787,-26.673218,0.275566,-0.377415,1.261301
880774367,-111.847939,-52.155758,-39.234734,0.300917,-0.527266,1.217019
880784389,-69.586151,-80.689842,-28.104342,0.656592,-0.778957,0.887197
880794411,18.242386,-51.869331,2.308139,0.813554,-0.730843,0.530869
880804432,63.100639,-40.792629,9.465372,0.567300,-0.504605,0.620068
880814454,71.288094,-35.775505,-7.088139,0.431715,-0.319535,0.917451
880824475,61.461979,-39.741322,-22.017096,0.392047,-0.131510,0.991541
880834497,45.754047,-55.951416,-30.368118,0.370112,-0.010900,0.808114
880844518,28.525248,-75.745171,-33.097023,0.425429,0.041592,0.618530
880854540,4.750013,-94.497169,-30.459154,0.514966,0.049453,0.530077
880864561,-21.026079,-105.220291,-26.030848,0.610889,0.013497,0.472078
880874583,-31.872400,-99.797363,-21.899881,0.735624,-0.096159,0.367918
880884605,-14.913086,-77.827736,-15.118032,0.836137,-0.213170,0.280759
880894628,6.171081,-62.565350,-8.026260,0.843111,-0.259020,0.233299
880904649,19.174717,-60.098946,-8.448262,0.814066,-0.261632,0.240574
880914671,32.702370,-56.207138,-15.686387,0.843091,-0.232788,0.355264
880924693,43.092178,-50.290123,-21.348236,0.892509,-0.165916,0.475980
880934714,44.386009,-46.461155,-22.824488,0.904094,-0.068278,0.537169
880944736,38.718056,-42.215549,-23.882078,0.927807,-0.000487,0.605977
880954757,25.979654,-37.979019,-24.900688,0.978543,0.040880,0.657173
880964779,8.270899,-31.882011,-22.332821,0.993378,0.062104,0.672766
880974801,-8.742255,-22.165306,-14.532322,0.962248,0.049728,0.661897
880984822,-20.341560,-12.118842,-6.712697,0.903178,-0.003214,0.656622
880994844,-27.740383,-9.085486,-2.529721,0.837771,-0.090866,0.654136
881004865,-31.883282,-13.976527,-2.020998,0.792131,-0.203405,0.629968
881014887,-27.892731,-25.274975,-2.833215,0.792318,-0.293369,0.570076
881024914,-14.787169,-39.941063,-4.214942,0.823825,-0.325578,0.493366
881034929,2.750838,-49.868263,-5.863683,0.847299,-0.301500,0.442900
881044950,12.976690,-52.887199,-6.381092,0.887017,-0.250827,0.447324
881054972,13.232591,-52.872528,-7.068715,0.931924,-0.190073,0.469730
881064994,7.587442,-51.302711,-8.840072,0.983353,-0.147550,0.480862
881075015,-1.179480,-47.935570,-8.699854,1.022794,-0.133105,0.467374
881085037,-7.898153,-40.706810,-3.611864,1.025481,-0.145846,0.425801
881095059,-9.402355,-31.033978,4.024057,0.999668,-0.188235,0.385720
881105080,-7.281513,-23.037142,10.079637,0.935591,-0.232660,0.387986
881115102,-3.207703,-17.780464,11.216649,0.870858,-0.276065,0.428660
881125123,3.047642,-16.206367,8.013226,0.839373,-0.310922,0.484801
881135145,9.323602,-21.031853,5.303266,0.844330,-0.330954,0.498477
881145167,17.079857,-30.387018,6.166838,0.854754,-0.329170,0.439359
881155189,27.840956,-35.868156,7.628408,0.859980,-0.286398,0.364388
881165210,35.591454,-35.601795,6.365042,0.836920,-0.197105,0.335077
881175232,37.093697,-31.955914,3.805565,0.816481,-0.090302,0.362087
881185253,32.426884,-27.529079,2.024007,0.820621,-0.026949,0.432245
881195275,21.286930,-24.570351,2.106621,0.839785,0.002793,0.499695
881205296,6.133484,-22.687130,2.906671,0.867192,-0.015013,0.514609
881215318,-6.840056,-19.847660,4.694719,0.886823,-0.078483,0.477402
881225339,-11.723056,-14.064803,9.373850,0.900719,-0.177364,0.423147
881235362,-8.661917,-7.938438,15.683010,0.889491,-0.281345,0.392968
881245384,-0.854942,-5.161353,20.054375,0.842229,-0.361405,0.393647
881255406,6.661376,-6.460917,17.941034,0.769935,-0.399831,0.426577
881265427,10.134371,-12.107087,10.286214,0.729974,-0.389700,0.483741
881275449,9.369465,-22.355898,2.013062,0.768364,-0.333422,0.529080
881285471,7.477681,-34.821060,-1.647904,0.861239,-0.263534,0.527360
881295492,7.678604,-41.859375,-1.414242,0.946208,-0.195107,0.483897
881305514,9.421450,-38.896133,-0.363844,0.981686,-0.146380,0.437685
881315535,5.576421,-30.577415,0.160579,0.993514,-0.118402,0.398027
881325557,-5.875068,-20.991119,-0.888192,0.992692,-0.120481,0.361256
881335578,-17.405201,-11.663434,-2.499869,0.952857,-0.120443,0.334562
881345600,-20.736311,-1.354570,-3.733476,0.900618,-0.128434,0.331515
881365653,-21.635189,-0.455513,-0.634406,0.956733,-0.261517,0.374722
881375664,-19.291027,-2.645769,1.071427,0.956089,-0.324953,0.350477
881385685,-7.903790,2.741324,2.030351,0.952030,-0.343946,0.338040
881395707,6.418881,3.171388,5.561676,0.979959,-0.302035,0.341904
881405729,23.224674,-2.084238,13.025615,0.970304,-0.234320,0.356570
881415750,36.986980,-2.639501,21.605478,0.882856,-0.160607,0.383911
881425772,35.766899,1.802569,26.501579,0.781554,-0.133398,0.431564
881435793,19.962681,2.560254,24.656515,0.714162,-0.171098,0.474174
881445815,-0.133708,-5.041412,17.732771,0.717575,-0.249490,0.482676
881455837,-8.645082,-18.094193,12.995607,0.786276,-0.325430,0.436461
881465858,4.903748,-28.624704,14.227265,0.857352,-0.356775,0.359487
881475880,29.189032,-31.335501,16.054857,0.886144,-0.344107,0.305512
881485901,44.829063,-27.337469,12.441986,0.877945,-0.291997,0.308482
881495923,46.732166,-20.683855,5.899842,0.882111,-0.236053,0.337731
881505945,40.587547,-15.268209,2.894514,0.908039,-0.197652,0.381305
881515966,34.354187,-12.418875,5.758383,0.918832,-0.190183,0.402627
881525988,31.382069,-10.635363,11.036109,0.894032,-0.204615,0.397830
881536010,28.824917,-7.880808,13.018631,0.846096,-0.233179,0.382967
881546031,22.794659,-5.186584,9.405537,0.834648,-0.271750,0.370819
881556053,17.586834,-3.239420,2.510975,0.844327,-0.299727,0.354733
881566074,16.504452,-2.070360,-2.768929,0.867642,-0.330847,0.335677
881576097,20.646105,-2.637387,-4.978981,0.891389,-0.348802,0.297577
881586119,31.221848,-4.668733,-5.926631,0.915325,-0.340873,0.258720
881596141,47.192375,-8.012153,-7.082007,0.934601,-0.280642,0.256725
881606162,63.374043,-11.477545,-8.635038,0.973043,-0.196701,0.295097
881616184,73.971855,-12.383437,-8.319284,1.012800,-0.104771,0.356539
881626205,74.915955,-10.710501,-4.777980,1.046805,-0.033567,0.414468
881636227,67.035782,-7.235366,0.566251,1.067734,0.024022,0.453659
881646249,54.759682,-3.650229,5.456511,1.062153,0.070144,0.465984
881656270,43.380638,-0.278649,10.431515,1.035402,0.110811,0.461993
881666292,34.544899,2.544075,16.713120,0.991538,0.128993,0.464800
881676313,25.575642,3.969081,24.535965,0.942281,0.104886,0.483395
881686335,14.208514,3.555933,30.459126,0.892036,0.035717,0.496345
881696356,2.954034,1.817587,30.668951,0.841761,-0.050479,0.499603
881706378,-2.952681,-1.325945,26.359543,0.807941,-0.147169,0.497787
881716398,-0.047227,-6.955212,21.390697,0.792609,-0.215595,0.484219
881726420,9.508778,-13.926977,18.566196,0.787552,-0.256362,0.459208
881736442,20.878967,-21.401287,17.221451,0.792984,-0.254526,0.421904
881746463,28.390165,-26.151423,15.416146,0.811064,-0.233880,0.389818
881756485,30.921844,-25.364212,13.034320,0.827152,-0.204946,0.390061
881766507,31.259777,-20.105553,11.411677,0.827528,-0.173424,0.412929
881776528,30.504044,-16.092062,10.682321,0.817714,-0.151912,0.442360
881786550,28.766121,-17.565310,10.209468,0.813337,-0.147697,0.461413
881796571,27.078316,-22.808998,8.734180,0.835843,-0.155163,0.458907
881806593,27.457512,-28.480135,7.212976,0.875537,-0.165279,0.428326
881816615,30.398777,-31.310541,6.309378,0.912350,-0.174117,0.392067
881826636,34.640823,-31.025475,6.093744,0.934783,-0.167382,0.361585
881836658,38.733814,-28.521000,5.602898,0.950459,-0.147183,0.338225
881846679,42.294922,-25.377712,4.886976,0.970019,-0.116061,0.345577
881856701,44.385563,-21.746283,5.111299,0.977932,-0.082545,0.357376
881866722,44.050781,-17.564745,7.029723,0.976032,-0.057751,0.378098
881876744,40.614021,-14.064450,9.262069,0.965201,-0.046717,0.393769
881886766,35.560318,-12.143970,10.898843,0.954306,-0.054699,0.401949
881896787,31.035322,-12.002541,12.472301,0.950546,-0.074673,0.405546
881906809,29.426016,-13.855027,14.010049,0.959572,-0.108796,0.395333
881916831,30.777452,-16.607269,14.840302,0.967153,-0.143307,0.379103
881926854,33.680714,-18.190498,15.337584,0.971831,-0.165417,0.357105
881936875,37.741402,-17.206032,15.076970,0.964668,-0.171776,0.345451
881946897,42.730309,-14.778467,14.305067,0.944650,-0.157276,0.342454
881956919,46.653221,-13.824389,13.816991,0.923336,-0.127120,0.358437
881966940,48.382042,-15.148661,13.241234,0.918429,-0.109041,0.377190
881976962,47.509556,-17.245930,12.731862,0.922739,-0.097512,0.391875
881986984,44.874958,-18.262405,12.158794,0.920514,-0.098898,0.397333
881997005,41.650040,-17.743044,11.558330,0.919498,-0.107116,0.393388
882007027,38.833916,-17.832167,10.787703,0.924135,-0.118063,0.376942
882017048,39.435928,-18.517338,9.488625,0.931158,-0.127767,0.360867
882027070,43.386303,-17.715611,8.299597,0.934545,-0.123923,0.344836
882037092,46.688526,-15.301656,7.830135,0.928223,-0.107053,0.344833
882047113,47.317581,-11.562797,7.517045,0.906897,-0.092457,0.352387
882057156,45.801697,-7.457446,6.778193,0.885004,-0.077994,0.365400
882067155,45.102921,-6.332102,6.416809,0.869556,-0.070328,0.384889
882077176,46.180908,-8.187393,6.882632,0.876754,-0.068902,0.420255
882087198,46.652870,-10.087494,7.947371,0.889877,-0.060812,0.456520
882097220,44.079426,-12.259040,8.014865,0.906913,-0.051851,0.470227
882107241,39.401360,-14.520699,6.483502,0.918135,-0.046423,0.462435
882117263,33.403320,-16.127354,5.403502,0.931252,-0.053577,0.433455
882127284,27.946682,-16.213575,6.009173,0.940934,-0.074827,0.389636
882137306,25.455303,-14.309585,9.698494,0.957884,-0.119775,0.361543
882147328,25.889896,-11.085115,14.461166,0.961685,-0.164275,0.342818
882157349,31.040564,-9.386049,16.583664,0.946521,-0.193255,0.338212
882167371,39.799725,-12.328558,14.203327,0.936404,-0.198350,0.343825
882177393,49.170174,-18.191065,10.038382,0.951102,-0.172705,0.365208
882187414,56.300880,-21.512293,7.457575,0.961450,-0.122470,0.374337
882197436,58.492455,-20.298101,7.393915,0.947081,-0.070707,0.367068
882207457,56.251682,-17.620157,8.642727,0.916777,-0.036559,0.362012
882217479,51.377113,-15.517853,9.318050,0.906316,-0.028370,0.363325
882227501,45.557575,-15.223568,10.276587,0.920489,-0.041057,0.377918
882237522,42.489040,-16.375618,11.611550,0.948856,-0.057107,0.385541
882247544,44.149109,-17.440605,12.818756,0.960976,-0.065179,0.378595
882257565,47.923302,-17.717049,13.795695,0.957747,-0.063179,0.371271
882267587,49.232395,-17.079691,13.861239,0.960610,-0.054857,0.368128
882277610,47.562801,-15.512489,13.903032,0.977706,-0.057102,0.370457
882287632,43.952312,-12.727118,14.781330,0.995125,-0.062645,0.371176
882297653,41.473534,-8.619722,16.731497,0.996524,-0.069500,0.359225
882307675,42.113434,-4.286865,18.977509,0.966909,-0.063809,0.353681
882317696,43.857082,-1.232341,20.195415,0.922556,-0.051357,0.369824
882327718,44.325142,-1.734675,19.567602,0.907818,-0.041961,0.402961
882337740,43.131584,-4.865345,19.092144,0.921121,-0.036317,0.429233
882347761,40.331520,-7.735636,19.878155,0.933719,-0.046117,0.436325
882357783,36.462063,-7.351400,21.781561,0.935805,-0.069227,0.421964
882367804,33.046337,-6.192741,22.675140,0.935892,-0.094766,0.395408
882377826,32.909042,-6.694212,22.798557,0.939868,-0.128375,0.370404
882387848,35.919052,-7.502393,23.004793,0.955270,-0.161457,0.366056
882397869,40.408264,-7.095497,23.747055,0.973399,-0.193434,0.368819
882407890,46.159195,-5.610665,23.884396,0.970011,-0.200103,0.372491
882417911,52.149551,-4.840809,23.350170,0.933017,-0.172148,0.379456
882427933,55.357067,-5.482001,23.432838,0.902121,-0.137885,0.388962
882437955,55.536583,-7.959797,23.845196,0.895699,-0.111409,0.405995
882447976,53.344543,-9.781965,24.077036,0.900589,-0.110657,0.419135
882457998,50.486443,-9.688244,24.175043,0.906790,-0.123710,0.417103
882468019,49.272621,-8.395046,24.244072,0.904915,-0.130530,0.403125
882478041,50.673523,-8.396021,24.766613,0.901370,-0.139140,0.390242
882488062,53.319450,-9.446957,25.311077,0.894953,-0.143288,0.383310
882498084,55.309822,-9.980792,25.159189,0.883906,-0.138388,0.382460
882508106,56.540775,-9.480399,24.737892,0.878879,-0.118193,0.391179
882518127,57.197975,-8.994229,25.387566,0.877082,-0.101129,0.402133
882528149,55.909817,-8.308693,26.189098,0.877944,-0.088266,0.417693
882538170,52.780315,-8.168871,26.868134,0.892820,-0.090777,0.428929
882548192,48.859879,-8.560329,27.736574,0.908052,-0.109428,0.427920
882558214,46.172462,-8.785511,28.884899,0.915695,-0.139563,0.411837
882568235,45.613075,-8.845440,29.757732,0.920848,-0.167353,0.386975
882578257,47.604866,-8.634402,29.620369,0.918613,-0.188259,0.365827
882588279,51.204842,-8.683547,28.663380,0.917587,-0.197018,0.362796
882598300,54.151356,-8.792876,27.833353,0.917940,-0.197375,0.364623
882608322,56.232750,-8.582109,27.268677,0.924285,-0.184063,0.377852
882618345,57.919380,-8.568508,26.951004,0.924864,-0.165921,0.391545
882628366,58.542870,-9.161765,27.251514,0.929042,-0.152060,0.400748
882638388,56.979424,-8.612960,27.704845,0.932151,-0.149305,0.409852
882668453,52.877773,-7.301927,28.085495,0.954910,-0.178698,0.401521
882678474,54.113216,-5.357186,28.150364,0.944955,-0.188646,0.392061
882688496,55.104477,-2.378870,27.484776,0.926518,-0.189053,0.398303
882698518,56.123169,-1.255098,26.927387,0.913399,-0.185285,0.413108
882708539,57.474007,-2.138046,26.704552,0.906871,-0.179047,0.429943
882718561,59.428452,-4.268306,25.868805,0.910918,-0.174296,0.439766
882728583,59.346062,-5.560827,24.819334,0.908579,-0.160251,0.435627
882738604,56.685165,-4.479455,24.320667,0.895159,-0.145183,0.424115
882748626,54.654922,-2.957026,25.508011,0.877284,-0.134567,0.417888
882758646,54.663387,-3.062419,27.778301,0.856607,-0.138586,0.424325
882768668,54.758354,-3.593993,29.012238,0.844644,-0.155607,0.441130
882778689,52.762775,-3.653494,28.082926,0.865715,-0.177705,0.479523
882788711,49.651581,-5.217309,26.401760,0.899534,-0.191541,0.501917
882798732,48.195450,-8.454622,24.907562,0.930903,-0.192063,0.494867
882808754,48.403561,-10.491913,24.633633,0.951551,-0.196265,0.461002
882818775,48.667828,-8.789270,25.330881,0.945053,-0.201967,0.415844
882828797,49.489342,-3.803151,27.041605,0.915091,-0.214913,0.379132
882838819,51.360970,1.136577,29.018578,0.877869,-0.230783,0.376624
882848841,55.413677,3.155377,30.158815,0.844754,-0.246522,0.400730
882858862,59.758438,1.205791,30.035925,0.831302,-0.261186,0.437534
882868884,63.108177,-3.236214,29.359268,0.828687,-0.273196,0.460558
882878905,66.898544,-7.405073,28.465664,0.826409,-0.265838,0.464668
882888927,70.052185,-10.220524,27.423292,0.826622,-0.240578,0.453536
882898949,71.584724,-12.030804,27.443727,0.833351,-0.208010,0.432740
882908970,71.556992,-12.440812,28.343288,0.849884,-0.187887,0.425776
882918992,70.499977,-11.283970,29.721592,0.863331,-0.175987,0.435062
882929013,69.033501,-9.913873,31.285671,0.870817,-0.171609,0.450740
882939035,66.711105,-9.060293,31.942606,0.878013,-0.175455,0.463207
882949057,64.505478,-8.784920,31.593578,0.880510,-0.191517,0.466089
882959080,63.683594,-8.753908,31.371302,0.879608,-0.218182,0.458108
882969101,65.220337,-8.983089,31.740650,0.878633,-0.237562,0.448975
882979123,68.459763,-10.201658,32.494034,0.873654,-0.255391,0.444169
882989144,72.229790,-11.846424,33.030437,0.866471,-0.262641,0.435254
882999166,75.159294,-14.220469,32.812145,0.859166,-0.263816,0.434118
883009187,78.119553,-16.472916,32.623974,0.860430,-0.252930,0.429303
883019209,81.265091,-17.843699,32.753517,0.868597,-0.241528,0.434549
883029231,83.528763,-18.560196,32.584473,0.883252,-0.219740,0.451957
883039252,83.905563,-19.305624,32.064247,0.890725,-0.204642,0.462448
883049274,82.569809,-19.668947,32.851898,0.885461,-0.190910,0.459565
883059296,80.904800,-19.286659,34.662216,0.876656,-0.195731,0.455352
883069317,79.525307,-19.102591,35.678238,0.867008,-0.208563,0.451200
883079339,79.646164,-20.136259,35.967781,0.849790,-0.216958,0.439671
883089361,80.603333,-21.155453,36.250900,0.831370,-0.221174,0.423730
883099381,81.698624,-22.053028,36.807106,0.825876,-0.225175,0.413890
883109402,82.608383,-24.181854,37.152588,0.833661,-0.230822,0.405617
883119424,84.397148,-26.691738,36.912697,0.859037,-0.228667,0.403236
883129446,86.933990,-27.758089,36.772366,0.886716,-0.217394,0.405712
883139467,88.670624,-27.060097,37.276428,0.902674,-0.197009,0.408574
883149489,89.073349,-25.326986,38.383976,0.893194,-0.172277,0.405023
883159510,87.258156,-23.090176,39.797546,0.873047,-0.154319,0.400904
