Timestamp (us),Gyroscope X (deg/s),Gyroscope Y (deg/s),Gyroscope Z (deg/s),Accelerometer X (g),Accelerometer Y (g),Accelerometer Z (g)
901791414,-1.792644,4.828054,-6.742393,0.851671,0.044128,0.416499
901811457,-14.943916,-3.246703,-4.470330,0.887718,0.045914,0.410374
901831499,-15.683853,-1.923221,-3.757406,0.933249,0.013094,0.391312
901851543,-9.342920,6.129927,0.422135,0.941563,-0.024898,0.386770
901871587,-2.669027,9.446590,2.470479,0.921282,-0.045571,0.423119
901911672,-1.950040,4.238431,0.115837,0.917680,0.012026,0.438004
901931715,-8.385940,4.145632,1.117557,0.910764,0.029556,0.427339
901951758,-10.165663,3.045226,1.467448,0.917640,-0.001327,0.419541
901971800,-8.802638,2.389883,0.345346,0.918931,-0.007763,0.414687
901991842,-8.457078,3.643835,0.646243,0.910980,-0.005164,0.404775
902011884,-8.006921,3.218088,1.267894,0.895289,-0.010893,0.412082
902031927,-7.131933,0.808511,2.596665,0.889410,-0.024989,0.392217
902051970,-4.471699,-1.769952,3.637650,0.891354,-0.049107,0.389334
902072012,0.936033,-5.812164,0.156540,0.912404,-0.064446,0.379418
902092055,5.458310,-7.953365,-3.167213,0.953057,-0.049398,0.388695
902112098,4.129359,-5.489942,-3.944037,0.946376,-0.000348,0.387695
902132140,-0.741021,-6.632839,-2.610504,0.902331,0.053107,0.376553
902152184,-11.633348,-11.554930,0.387852,0.907715,-0.004139,0.375972
902172227,-7.225838,-5.448445,-1.091573,0.903859,-0.048990,0.356012
902192270,2.403208,-0.443617,-8.437986,0.907053,-0.020392,0.396223
902212313,-1.180851,-5.289992,-8.939206,0.928643,0.025852,0.406196
902232361,-7.174508,-9.673786,0.435688,0.955502,0.022089,0.370278
902252399,-8.529831,-5.559070,3.916132,0.970796,-0.030849,0.368278
902272441,-3.834880,2.295677,3.209917,0.964487,-0.072597,0.331157
902292483,9.977004,1.637552,2.906566,0.966970,-0.047773,0.377585
902312526,9.846165,-0.801820,3.656468,0.955456,-0.013195,0.369932
902332569,7.453152,4.694583,1.513642,0.919453,-0.015178,0.361582
902352611,6.768035,6.890299,-1.759049,0.901101,-0.022212,0.396922
902372654,6.260534,1.988670,-0.912511,0.908600,-0.035175,0.359938
902392696,9.466991,2.137656,-1.485754,0.929431,-0.015127,0.376586
902412739,6.107180,4.474440,-0.448969,0.935000,0.021851,0.395623
902432782,-0.386008,4.436202,3.448091,0.934094,-0.002165,0.400913
902452825,-0.263679,8.191010,3.824517,0.921883,-0.037277,0.386546
902472869,3.976931,8.520601,1.216709,0.902460,-0.022027,0.400117
902492911,4.810456,2.932448,-0.826102,0.902962,0.000298,0.399664
902512954,5.535054,1.327798,-1.439605,0.904783,0.002347,0.409402
902532997,3.678472,2.560270,-2.424532,0.908178,-0.001125,0.415282
902553040,4.555317,1.206280,-3.108003,0.908318,-0.007624,0.399495
902573082,8.292109,-0.134826,-3.455354,0.913252,-0.000499,0.399017
902593124,8.148987,0.800139,-3.554178,0.925238,0.013219,0.417109
902613167,5.236114,1.502547,-2.161216,0.936114,0.012133,0.402995
902633209,6.600087,3.592373,-0.360495,0.931349,-0.005984,0.359044
902653252,16.690561,5.948054,0.923588,0.924713,-0.019344,0.351094
902673295,29.890987,4.970914,-0.075657,0.943379,-0.016293,0.370324
902693337,34.749187,7.602694,-3.322697,0.939623,0.016377,0.379496
902713380,15.071446,18.774889,-9.132276,0.916431,0.079209,0.472128
902733423,-10.616727,15.124218,-12.946712,0.895369,0.022873,0.366828
902753466,-4.223175,-3.836090,-9.953342,0.916087,-0.134078,0.314376
902773510,28.130808,-17.864590,-10.119577,0.970567,-0.241039,0.273230
902793553,53.966599,-15.759876,-12.711800,0.987453,-0.116979,0.305470
902813595,40.290760,-4.692161,-19.595770,0.942826,0.071562,0.365043
902833638,24.271835,-5.362230,-19.243767,0.969756,0.167188,0.406968
902853681,17.497681,-10.106198,-1.040561,1.010332,0.162589,0.409761
902873724,14.006412,3.493634,13.966156,0.978284,0.112332,0.403022
902893765,0.966475,18.183025,16.596758,0.885018,0.058357,0.398416
902913808,13.159160,10.220033,11.863644,0.884235,0.048792,0.372724
902933850,24.954092,5.465697,8.951317,0.949211,0.087439,0.405200
902953893,18.419006,18.922956,5.370009,0.925497,0.204827,0.476985
902973936,-2.149020,30.248711,1.281226,0.757458,0.267521,0.603066
902993978,-21.808502,13.419136,-6.277082,0.647877,0.104115,0.510385
903014021,-5.212070,-14.379686,-15.017196,0.791139,-0.094376,0.401540
903034064,22.208279,-13.536510,-14.176905,1.018322,-0.046182,0.401254
903054107,20.399509,5.783330,-3.302375,1.017114,0.107863,0.382493
903074151,6.233070,14.184225,7.981958,0.924374,0.154287,0.432418
903094194,9.707834,7.577682,11.222193,0.875075,0.098562,0.465658
903114236,11.682615,5.861460,1.563911,0.897584,0.044040,0.423663
903134279,10.005531,8.050906,-0.657461,0.953724,0.090368,0.403570
903154322,9.259039,12.820489,6.657318,0.885830,0.115606,0.399497
903174365,4.512771,6.240855,3.264077,0.882036,0.058391,0.447012
903194406,7.757885,2.413778,0.774487,0.942622,0.041547,0.436941
903214449,6.498502,12.706101,0.538245,0.923682,0.084606,0.452016
903234492,0.665533,8.873421,1.942647,0.868076,0.076492,0.475257
903254535,-0.622329,0.391835,1.229184,0.881214,0.047436,0.455745
903274577,2.336223,3.316843,4.098688,0.894135,0.039938,0.429226
903294620,5.058347,6.886987,4.470592,0.853538,0.066743,0.446188
903314663,3.147928,4.227816,3.192643,0.837807,0.072742,0.461319
903334705,3.026855,1.369844,2.716321,0.870555,0.059032,0.448835
903354748,3.569659,1.406826,1.493197,0.899091,0.068790,0.432848
903374792,2.998642,2.676266,0.673599,0.918092,0.074803,0.446411
903394835,1.971887,2.259159,0.773285,0.923901,0.065940,0.443067
903414878,0.549240,4.023259,-0.314509,0.921160,0.072660,0.446269
903434921,-2.657216,4.991334,-0.275604,0.911449,0.076011,0.448356
903454963,-2.581116,4.741408,1.857172,0.893998,0.067549,0.452304
903475006,-1.597979,4.277298,2.703322,0.880358,0.055113,0.444113
903495047,-1.356576,3.516961,2.572679,0.879262,0.055795,0.447832
903515090,-0.377759,3.866343,3.890428,0.880849,0.047536,0.456288
903535133,0.193070,4.679022,3.664352,0.875137,0.055632,0.454541
903555176,0.017477,3.865088,1.868550,0.874346,0.066005,0.462735
903575218,-0.609992,3.629581,0.921296,0.878528,0.058361,0.460734
903595261,-1.237833,2.694917,0.210874,0.873571,0.062169,0.460120
903615304,-0.498083,-0.087605,0.146887,0.897512,0.045150,0.450876
903635347,2.599758,1.475541,0.319733,0.909540,0.050315,0.446187
903655390,2.516509,3.338326,1.522301,0.895037,0.064646,0.456433
903675434,2.346955,3.141526,3.009354,0.887493,0.053365,0.456653
903695477,2.733255,2.403913,2.984235,0.886094,0.056639,0.452610
903715519,0.663658,1.182058,3.138387,0.893356,0.059776,0.447629
903755605,0.704016,3.538007,2.625425,0.888923,0.047594,0.468365
903775647,0.677643,3.127259,1.887041,0.884031,0.054922,0.462988
903795689,0.697977,2.519025,1.529400,0.899631,0.048550,0.458875
903815732,1.979019,4.357337,1.639733,0.900580,0.050897,0.457588
903835774,1.547482,5.095033,1.764237,0.882137,0.064206,0.469544
903855817,0.246842,4.396976,1.950089,0.877404,0.063981,0.466506
903875860,-1.140225,3.820248,1.344188,0.887856,0.054964,0.464108
903895903,-0.151000,4.039868,1.465907,0.888742,0.045144,0.457003
903915945,0.664833,3.948251,2.122530,0.892038,0.054266,0.464508
903935988,1.308362,5.658063,2.588314,0.885799,0.048712,0.452582
903956031,2.298032,7.572325,2.015162,0.871351,0.048951,0.468316
903976075,3.669293,5.845582,1.572038,0.883153,0.040519,0.473844
903996118,6.489070,7.348559,2.623177,0.886542,0.049163,0.478622
904016160,3.910588,5.420491,3.246615,0.883298,0.065093,0.481107
904036203,2.198509,5.057043,3.039155,0.881489,0.044909,0.472429
904056246,2.063652,3.840646,2.149998,0.892504,0.035304,0.490616
904076289,2.860731,2.836740,2.312438,0.890935,0.023906,0.474493
904096330,5.970774,3.548425,2.105081,0.888750,0.028643,0.494559
904116373,6.970540,3.949862,0.916201,0.884021,0.041550,0.492050
904136415,6.224858,5.181480,0.166542,0.870439,0.054149,0.491665
904156459,2.869684,4.203821,0.017970,0.865595,0.053407,0.492455
904176501,3.014476,3.276652,0.551017,0.861294,0.047955,0.473623
904196544,4.519717,3.974452,0.188375,0.854411,0.054459,0.488723
904216586,3.351110,3.328905,-0.914326,0.872568,0.056110,0.489935
904236629,2.557029,5.883371,-1.032545,0.869743,0.058226,0.499183
904256672,2.138328,4.379055,-0.456541,0.863037,0.049056,0.503125
904276716,2.897564,3.420795,-0.270999,0.864040,0.056269,0.506714
904296759,1.715139,2.372674,-0.817077,0.855062,0.053783,0.509947
904316802,1.612555,2.083555,-1.661648,0.858999,0.060816,0.507277
904336844,0.254154,2.586560,-1.247939,0.856394,0.062368,0.502238
904356887,1.290268,2.053985,-0.432604,0.856395,0.041716,0.495580
904376930,3.612395,1.756005,0.570726,0.857326,0.050202,0.498612
904396971,3.681417,2.690700,0.279817,0.855073,0.065201,0.500475
904417014,2.821240,2.698916,-0.003090,0.858813,0.067867,0.511224
904437057,1.954263,2.015719,0.255606,0.868963,0.054400,0.498025
904457099,2.411806,2.966268,2.155774,0.877838,0.049970,0.496306
904477142,2.922076,5.018577,3.399321,0.861201,0.050694,0.486436
904497185,3.450483,6.089139,1.893454,0.846241,0.047681,0.505107
904517228,4.258179,4.575543,1.096389,0.866273,0.077816,0.503184
904537271,-3.475471,8.186680,4.923327,0.933767,0.136962,0.438820
904557313,-3.770027,28.100784,21.826992,0.936609,0.106503,0.355696
904577357,5.096987,56.909996,44.502857,0.813614,0.038711,0.408072
904597400,27.328526,43.960434,41.000214,0.790333,0.064920,0.366169
904617443,48.679096,25.349546,38.461967,0.908612,0.224049,0.427721
904637486,20.016075,46.682476,46.051311,0.911177,0.284197,0.718130
904657528,-37.656631,48.422993,19.804958,0.853087,0.413550,0.960091
904677571,-97.319427,15.669644,-31.328205,0.948505,0.553566,0.903822
904697612,-147.436539,-5.628880,-62.913036,1.065220,0.547636,0.692499
904717655,-196.121078,6.349905,-71.677803,1.067784,0.430113,0.508576
904737698,-238.448715,26.747063,-92.200981,1.022791,0.287234,0.375500
904757740,-286.262817,51.039497,-131.822937,0.918461,0.147071,0.255443
904777783,-320.595764,70.949707,-155.004776,0.767832,0.002744,0.144369
904797826,-334.643982,85.975075,-167.725266,0.700019,-0.039367,0.156239
904817869,-334.992645,76.131523,-186.659973,0.782144,-0.019495,0.299888
904837912,-339.159332,71.301582,-202.393326,0.852817,-0.062537,0.381243
904857954,-369.933044,68.783546,-232.483459,0.898403,0.098549,0.749887
904877998,-402.090332,35.064507,-265.557922,1.103108,0.333376,0.517463
904898041,-352.278595,-24.462393,-267.407196,1.248954,0.347953,-0.073109
904918084,-372.808350,-6.764136,-264.508728,1.268078,0.158049,-0.059293
904938127,-462.222107,31.739180,-254.367172,0.992803,-0.073491,0.053594
904958169,-413.973663,2.818961,-262.137604,0.725031,-0.059283,0.452481
904978212,-313.124573,-72.398560,-290.395081,0.832850,0.276997,0.244004
904998254,-263.969910,-59.127544,-280.073181,0.934957,0.960435,-0.390283
905018296,-164.807327,1.581615,-253.404068,1.042196,1.475416,-1.099164
905038339,-247.826035,-3.732305,-279.830353,1.324949,1.366184,-0.995046
905058382,-623.527527,-68.964264,-364.986084,1.869660,0.534391,-1.062227
905078424,-878.952148,-225.502426,-386.252625,2.400833,0.066436,-1.145893
905098468,-685.335938,-214.295044,-209.121506,3.689369,-1.681841,-1.671686
905118510,-227.981323,164.430084,20.941217,1.688546,-0.406113,-0.098817
905138553,-395.901093,183.477036,-99.141159,0.761987,0.178398,-0.008713
905158596,-350.609863,110.908356,-191.624054,0.345814,0.365729,-0.366552
905178640,-274.483368,35.165432,-302.967102,0.468004,0.683441,-0.704327
905198683,-371.972473,-63.983490,-366.850952,1.175696,0.926914,-0.291740
905218725,-561.877441,-172.793579,-373.336945,1.303797,0.821170,-0.602943
905238768,-593.707092,-260.603180,-330.469299,1.439243,0.675820,-0.879532
905258811,-520.849182,-256.893402,-206.495163,1.696463,0.379476,-1.146429
905278853,-430.717377,-141.912964,-107.731400,1.654134,0.107928,-0.977794
905298895,-428.752777,22.684029,-145.833572,1.431086,0.225952,-0.903465
905318938,-439.565430,94.008011,-202.307770,1.209271,0.335490,-0.739742
905338981,-432.961151,71.595894,-218.168045,1.129921,0.328328,-0.471681
905359023,-424.670044,-16.543411,-222.772598,1.180807,0.373727,-0.279489
905379066,-435.221222,-93.470642,-227.433716,1.330114,0.478691,-0.356289
905399109,-447.997864,-92.382317,-215.040848,1.472299,0.481358,-0.598998
905419151,-441.229431,-29.083216,-200.959702,1.490603,0.290758,-0.644908
905439194,-435.698700,17.847790,-214.515656,1.398192,0.065886,-0.454445
905459237,-448.268433,25.285738,-228.664886,1.278557,0.010179,-0.175170
905479281,-425.765594,1.404616,-235.541809,1.159258,0.060255,-0.041527
905499324,-373.732025,-43.168144,-242.069427,1.106499,0.200578,-0.047441
905519367,-364.078125,-69.589691,-243.817337,1.147403,0.340190,-0.046018
905539409,-401.650299,-72.411705,-236.289230,1.235107,0.418602,-0.102290
905559452,-421.318878,-67.636337,-218.681793,1.251126,0.367472,-0.179958
905579495,-405.671265,-73.842041,-213.425003,1.263388,0.195228,-0.221602
905599536,-382.679443,-80.502052,-223.925415,1.289242,0.114818,-0.256166
905619579,-379.013702,-69.028702,-225.129959,1.335864,0.159670,-0.185545
905639622,-384.190643,-57.393120,-220.575989,1.320400,0.180983,-0.157519
905659665,-373.742920,-50.233353,-217.623184,1.257642,0.151412,-0.216002
905679707,-361.928101,-49.865387,-221.759415,1.308936,0.161896,-0.248217
905699750,-364.890900,-42.795441,-224.546906,1.353119,0.190251,-0.257232
905719793,-376.589783,-22.259577,-215.951767,1.354952,0.118050,-0.240508
905739836,-368.857849,-10.862286,-209.470093,1.310208,0.005348,-0.260299
905759878,-342.353729,-17.141792,-212.227097,1.339937,-0.122895,-0.408154
905799965,-349.666290,-4.513294,-217.927170,1.342636,-0.319797,-0.249730
905820008,-367.280304,-9.711744,-217.010147,1.402346,-0.436354,-0.033012
905860094,-291.674561,0.985077,-201.205383,1.179251,-0.321335,-0.296433
905880136,-278.138824,43.949566,-197.113998,1.039696,-0.356580,-0.052525
905900178,-287.390869,69.606728,-187.315887,0.892772,-0.514916,0.123789
905920221,-262.170135,79.956635,-177.691452,0.854987,-0.523765,0.383518
905940263,-207.199219,80.465149,-175.187958,0.905064,-0.266622,0.631679
905960306,-150.526672,76.365181,-174.849167,1.023969,0.107369,0.742173
905980349,-119.228905,63.904369,-189.567368,0.998665,0.333732,0.827341
906000391,-134.091217,40.788914,-188.182144,0.950295,0.379931,0.824876
906020434,-168.636215,0.476100,-150.412384,0.896581,0.302630,0.690467
906040477,-185.563889,-31.338085,-110.279320,0.900700,0.088717,0.531114
906060520,-172.829651,-37.581158,-75.494484,0.993196,-0.041789,0.439546
906080564,-134.669418,-19.441740,-43.792145,1.176706,-0.021539,0.518198
906100607,-94.111885,10.893273,-15.296531,1.241424,0.080627,0.459104
906120650,-72.636307,40.034828,10.040171,0.952668,0.108524,0.415795
906140693,-72.358452,48.331047,19.126440,0.636118,-0.027727,0.521766
906160735,-71.386658,16.362127,20.109119,0.632813,-0.211331,0.565776
906180778,-48.609016,6.109202,30.929760,0.757407,-0.274694,0.483812
906200820,-4.083136,12.831291,38.741207,0.746990,-0.098505,0.507501
906220862,-10.640566,-4.598431,40.095459,0.815400,0.128366,0.504671
906240905,-43.240154,-26.547516,48.898651,1.140762,0.260617,0.418462
906260948,-69.556015,40.077202,76.135704,0.783388,0.141005,0.283914
906280990,-63.946507,71.776855,80.549904,0.646451,-0.089654,0.689875
906301033,-71.767441,-5.351118,74.207237,0.998892,-0.128531,0.720994
906321076,-64.981667,-8.607987,78.835922,1.090994,-0.101297,0.431192
906341119,-43.949623,62.984169,71.217232,0.829515,-0.294795,0.475764
906381205,-22.012186,16.041372,60.686825,0.510104,-0.369719,0.609524
906401248,-25.981840,4.529414,59.951077,0.662765,-0.408002,0.498788
906421291,-8.568120,23.616596,63.661995,0.749832,-0.458900,0.549008
906441334,30.429499,26.462420,61.090050,0.738287,-0.357887,0.788448
906461377,43.054817,23.863899,53.598343,0.692983,-0.306906,0.647670
906481420,39.948204,33.956669,45.544842,0.638144,-0.378839,0.659699
906501461,20.874186,20.877432,46.175789,0.614476,-0.364504,0.826929
906521504,28.266991,14.933832,43.801144,0.553267,-0.386515,0.745452
906541546,31.446077,9.638679,38.654659,0.451660,-0.445454,0.818214
906561589,40.333076,-14.022728,37.847061,0.413354,-0.533032,0.806548
906581632,68.345169,-41.714264,36.058632,0.400412,-0.477590,0.881836
906601675,60.724888,-65.151535,28.726608,0.384767,-0.433267,1.039683
906621717,26.452200,-102.697487,16.949883,0.392906,-0.521661,1.149270
906641760,18.216316,-143.409164,-3.990215,0.569127,-0.573336,1.163639
906661803,42.422943,-137.033112,-27.143383,0.632791,-0.541132,1.122413
906681847,50.901104,-118.440140,-57.699150,0.398033,-0.572323,1.201075
906701890,23.692921,-101.963524,-63.029385,0.138035,-0.634050,0.689927
906721932,68.713234,-100.319016,-88.615524,0.109611,-0.428799,0.122638
906741975,137.154297,-131.494919,-121.320961,0.120492,-0.062417,-0.445875
906762018,211.266617,-125.332146,-134.122391,0.576716,0.427101,-0.953702
906782060,202.667236,-146.823822,-110.038498,2.468788,1.767510,0.647069
906802102,-209.598450,-200.159073,7.843424,2.822702,1.397571,0.425642
906822145,-403.804199,-120.437950,85.219086,1.212456,0.173604,-0.266134
906842188,-279.348358,99.311035,99.270851,0.534505,-1.031058,0.068621
906862230,140.026123,49.092270,7.075511,-0.008727,-1.224417,0.291402
906882273,215.508392,-34.154522,-76.212547,0.621714,0.025482,0.475154
906902316,123.976479,-29.017365,-51.304665,1.130413,0.512563,0.529658
906922359,18.603630,-21.707790,11.425461,1.339974,0.412636,0.421212
906942402,-39.212505,14.340300,64.743736,1.151328,0.143581,0.355592
906962445,-21.543579,104.012894,97.617363,0.776998,-0.049553,0.292997
906982489,-9.679799,146.934601,87.947708,0.461787,-0.038116,0.551716
907002531,-32.171154,110.707863,40.860023,0.762845,0.040529,1.066939
907022574,-63.322895,37.815964,29.054693,1.310749,0.001546,0.884531
907042617,-11.926491,38.861248,68.869011,1.389608,-0.219168,0.270284
907062659,11.022697,126.477486,85.812332,0.890027,-0.091146,0.134474
907082702,-33.793156,209.098999,54.896141,0.488541,-0.083838,0.249566
907102744,-25.780708,197.040283,44.485222,0.184061,-0.152378,0.614635
907122786,-5.408378,92.774803,51.703075,0.130803,-0.191301,0.706158
907142829,-29.787176,10.911437,63.836700,0.638214,-0.157049,0.770035
907162872,-59.263424,15.554480,89.457710,0.876296,-0.364633,0.584024
907182915,26.921963,82.389374,73.504745,0.671350,-0.627868,0.482639
907202958,47.720711,105.841415,37.707569,0.524366,-0.442556,0.952739
907223000,54.493702,48.946602,42.722267,0.479079,-0.384410,0.781766
907243043,43.383789,21.829512,43.145439,0.347663,-0.368987,0.788964
907263086,24.792656,-5.999048,35.909302,0.101974,-0.331120,1.114526
907283130,2.530902,-71.319397,27.075974,0.026440,-0.418942,1.255727
907323215,33.296814,-138.461411,-43.146671,0.223034,-0.638605,1.191057
907343258,60.085304,-138.084518,-66.230156,0.270613,-0.450949,1.143605
907363301,16.957573,-130.477386,-67.140839,0.129039,-0.379052,0.847539
907383344,24.785606,-180.088104,-88.005234,0.293018,-0.184653,0.487962
907403385,60.717064,-162.317657,-120.248665,0.633781,0.197543,0.178382
907423428,53.630791,-156.267151,-99.341156,0.987586,0.104690,-0.339680
907443471,-61.285988,-168.128357,-42.035374,2.431146,0.493825,0.444809
907463513,-169.744431,-127.494904,36.951965,2.205215,-0.075356,0.213781
907483556,-11.198914,63.769947,22.444456,0.622210,-0.970437,0.499128
907503598,70.056641,-34.059990,-27.208826,0.008325,-0.427856,0.983172
907523641,44.240551,-73.694313,-69.285431,0.397512,0.067814,0.318482
907543684,-4.266857,-59.326218,-88.574692,0.591983,0.186216,0.314737
907563727,-37.749249,-79.133896,-69.063049,0.723452,0.053996,0.368411
907583771,-62.386505,-95.157333,-34.591908,0.963596,-0.164605,0.313974
907603814,-31.269318,-66.904152,-22.446995,1.136733,-0.431796,0.134262
907623857,20.999516,-20.542284,-28.750051,1.132193,-0.330963,0.150240
907643899,32.483990,14.156787,-36.260658,1.131225,-0.049991,0.335739
907663942,10.599221,30.430988,-25.153137,1.235707,0.101616,0.487750
907684007,-5.213445,35.658722,8.529369,1.240467,0.048252,0.443158
907704026,-4.084622,65.466263,39.079990,1.103161,-0.075972,0.415959
907724069,-4.712453,72.691689,48.425625,0.942368,-0.133375,0.477623
907744112,-3.839110,55.560745,52.381401,0.938153,-0.055906,0.515920
907764155,-10.537378,52.814747,51.643051,1.046870,0.029154,0.501991
907784197,-21.009527,74.656006,58.315376,1.053684,0.068023,0.482783
907804240,-33.012970,105.324310,67.916527,0.913400,-0.026204,0.437469
907824283,-28.272284,111.323059,64.141533,0.644253,-0.195894,0.393020
907844326,-12.020842,86.236168,51.356190,0.340055,-0.288793,0.393113
907864369,2.965343,28.912485,31.228889,0.380467,-0.263714,0.464853
907884413,-18.127251,-9.272342,26.916681,0.616945,-0.095639,0.570896
907904455,-29.128819,0.719174,32.012043,0.677338,-0.130729,0.483586
907924498,11.192809,-6.251792,22.468487,0.682720,-0.246772,0.308412
907944541,8.462712,4.597433,7.120677,0.671075,-0.216660,0.576296
907964583,-23.068903,18.470692,1.711780,0.665524,-0.211079,0.767949
907984644,-19.051464,-9.057976,11.732681,0.692483,-0.257602,0.794569
908024710,-23.042698,13.134736,1.168106,0.655972,-0.411990,0.863769
908044753,-0.686371,-7.668888,-7.721820,0.521653,-0.500539,0.859331
908064796,24.480787,-54.503357,-24.668846,0.606289,-0.452952,0.770150
908084839,43.072140,-93.005714,-33.482700,0.864242,-0.348384,0.549569
908104881,-3.623047,-28.826454,-24.043404,0.694942,-0.082067,0.892741
908124924,-37.866405,4.819573,-10.358751,0.080057,-0.347657,0.375494
908144967,37.121246,-68.222008,-32.835800,0.547432,-0.138416,0.287319
908165010,-6.017801,-117.343658,-27.506718,1.820251,0.023584,0.188848
908185054,-133.716278,-95.278404,49.078331,2.237607,-0.150333,-0.100468
908205097,-100.863159,126.415413,70.984161,1.207538,-0.843378,-0.040908
908225140,39.555191,108.049965,48.578453,0.192642,-0.646572,0.885628
908245182,76.895348,-22.815145,10.286312,0.248799,-0.159442,0.716863
908265225,-6.938256,-46.557137,-9.678823,0.716546,-0.058002,0.460694
908285280,-81.801483,-29.639336,12.477039,0.817788,-0.353526,0.574127
908305309,-27.937668,-15.929075,11.411159,0.791880,-0.800532,0.556141
908325352,36.511036,-11.456190,-8.681466,0.663067,-0.531411,0.566272
908345395,20.797171,-16.560259,-13.934676,0.667655,-0.323845,0.598005
908365438,1.070466,-31.007530,-14.341144,0.697041,-0.452600,0.554398
908385480,18.137808,-34.506340,-20.875681,0.720978,-0.515811,0.511484
908405523,35.105869,-35.459427,-28.745068,0.747120,-0.443605,0.553050
908425566,45.156105,-42.173248,-31.680256,0.848422,-0.355974,0.588938
908445608,33.197346,-36.172123,-28.463121,0.875569,-0.274915,0.583915
908465651,26.492817,-29.979668,-29.141306,0.823816,-0.218017,0.604008
908485695,21.954981,-29.523287,-37.068066,0.806892,-0.146334,0.572702
908505738,12.475436,-37.694248,-38.846523,0.824221,-0.084279,0.504124
908525781,-6.258718,-36.780594,-37.530533,0.860931,-0.083504,0.485721
908545824,-12.698946,-28.671822,-35.607101,0.872103,-0.130447,0.459787
908565866,-6.281632,-20.277639,-33.493023,0.855182,-0.152486,0.465673
908585921,10.574051,-20.745399,-27.199594,0.820326,-0.170741,0.453551
908605950,14.988610,-29.610022,-23.652079,0.860154,-0.137043,0.518478
908625993,13.531722,-38.042480,-16.875507,0.882485,-0.089097,0.475637
908646036,5.152532,-35.402481,-10.406772,0.883269,-0.037528,0.460468
908686121,-0.274593,-35.552727,-0.034609,0.813177,-0.009054,0.445609
908706164,-7.102016,-43.496361,1.739364,0.785427,-0.018984,0.414533
908726207,-9.784281,-52.842506,2.622015,0.796462,-0.079074,0.373047
908746250,-0.520899,-60.444275,1.118320,0.844483,-0.135711,0.381149
908766293,7.326805,-62.718971,-5.339067,0.871522,-0.145358,0.376418
908786337,18.810085,-68.210136,-7.882629,0.969305,-0.042972,0.352980
908806380,35.561871,-80.977676,10.947704,0.997571,-0.007035,0.225701
908826423,41.906799,-78.056519,28.601217,1.029575,-0.044364,0.198110
908846466,41.263954,-69.975967,29.611738,1.055838,-0.110428,0.156329
908866508,55.601948,-63.565449,30.310902,1.076134,-0.078227,0.138094
908886572,69.136436,-55.446369,42.784885,1.050799,-0.036823,0.150677
908906592,73.095856,-52.860905,53.082493,1.034199,-0.015300,0.192714
908926635,78.406738,-51.512367,53.528069,0.983492,-0.021697,0.173915
908946678,84.330444,-47.634232,51.970562,1.002089,-0.040096,0.289647
908966720,89.311501,-52.956421,40.883255,1.073716,-0.009434,0.315956
908986763,99.005684,-62.260159,41.518608,1.096454,0.034709,0.214971
909006806,96.704224,-40.248753,53.491398,1.008694,-0.000694,0.167825
909026849,85.785828,-36.651768,53.548862,0.937148,-0.050665,0.256939
909046892,87.744736,-57.486370,54.863888,0.976811,-0.085927,0.266078
909066934,92.790878,-65.661758,54.238701,1.032394,-0.099493,0.182653
909086978,98.476303,-50.883984,52.764133,1.028464,-0.072423,0.136059
909107021,101.190102,-36.108414,57.551735,0.970502,-0.119789,0.122552
909127064,93.172424,-38.652588,63.611217,0.998751,-0.206793,0.163900
909147107,88.782829,-43.465126,69.172684,1.015484,-0.327101,0.152633
909167149,126.086441,-43.576408,62.403603,1.054119,-0.276080,0.240170
909187192,153.545364,-45.856010,48.931778,1.096129,-0.110163,0.325873
909207233,146.977676,-49.465160,38.982723,1.137283,0.012403,0.315602
909247319,95.374847,-34.857944,55.187763,1.095893,-0.056468,0.212260
909267362,79.492088,-38.191879,64.614632,1.077866,-0.221276,0.240802
909287405,82.878937,-46.200680,59.423409,1.075337,-0.356425,0.229972
909307448,122.991356,-45.495987,47.169708,1.071144,-0.357111,0.227307
909327490,167.647079,-38.901821,41.236874,1.025572,-0.233377,0.236696
909347533,172.237473,-41.431568,36.023632,1.049284,-0.130310,0.292102
909367576,144.320618,-45.922142,36.318104,1.076286,-0.119595,0.304229
909387620,137.084137,-40.997345,38.311596,1.069185,-0.155601,0.340436
909407663,152.166168,-34.788765,30.853670,1.000714,-0.161321,0.378040
909427705,156.136749,-40.174789,27.963840,1.020159,-0.130305,0.420808
909447748,143.070496,-50.798740,23.838295,1.099543,-0.146833,0.405136
909467791,137.608002,-38.932339,17.187710,1.070868,-0.173127,0.390941
909487834,146.405472,-29.653763,13.028082,0.952509,-0.158220,0.416812
909507875,149.584473,-44.674812,14.503475,0.936797,-0.103994,0.469692
909527918,140.410202,-61.144077,17.004385,0.999864,-0.084546,0.415730
909547961,136.637665,-54.232563,15.282187,1.039538,-0.100620,0.393209
909568003,140.205536,-36.519295,13.348748,0.941571,-0.101302,0.385944
909588046,140.564362,-35.477451,15.241967,0.948101,-0.054207,0.519348
909608089,126.502991,-51.296394,17.817822,1.057836,-0.063999,0.477075
909628132,121.354668,-41.488411,14.793087,1.037213,-0.092305,0.415976
909648174,124.962921,-27.509636,7.293896,0.969243,-0.032512,0.474893
909668217,126.110062,-34.714634,10.514452,0.975806,0.030351,0.470052
909688261,111.283913,-43.447533,16.494850,1.027785,0.051078,0.468713
909708304,101.566322,-28.267075,18.870968,0.983487,0.029515,0.458643
909748390,102.753281,-33.707111,25.708241,0.908026,-0.002698,0.512074
909768433,100.304886,-39.112862,34.196049,0.950656,-0.016555,0.487099
909788475,101.208199,-28.729002,38.826466,0.948035,-0.042681,0.449512
909808517,101.634346,-18.943941,46.211315,0.961431,-0.081899,0.474788
909828559,104.233452,-19.862196,54.351452,0.958620,-0.173041,0.434823
909848602,121.893250,-9.485210,58.975296,0.962609,-0.195988,0.396530
909868645,137.798508,1.173760,61.921059,1.047097,-0.107175,0.422544
909888688,137.696075,13.846445,66.876999,1.139768,-0.000709,0.448199
909908731,120.029259,35.793304,74.846161,1.198495,0.062902,0.465583
909928773,100.617256,63.793633,86.814980,1.098138,0.067883,0.404811
909948816,97.345718,87.363144,96.851074,0.905520,0.058592,0.372616
909968859,97.516785,86.569153,106.205780,0.839952,0.155009,0.470580
909988903,95.279778,95.865913,121.229805,0.762380,0.266572,0.570516
910008946,104.939819,88.034683,134.137085,0.837789,0.265826,0.698444
910028988,58.530289,46.041927,165.630508,0.986006,-0.036864,0.825846
910049031,44.364952,-0.019473,203.272308,0.600125,-0.408770,0.389539
910069074,124.855637,34.971176,148.661697,0.437704,-0.305372,0.733741
910089117,168.407639,41.541039,120.461456,0.284496,-0.262134,0.810108
910109158,144.866333,14.408682,130.639938,0.091590,-0.266720,0.972890
910129201,85.861694,-12.347675,97.711426,0.133211,-0.380588,1.271395
910149244,79.781990,-31.808306,79.766785,0.198707,-0.498142,1.300521
910169286,87.937897,-56.309219,53.116699,0.191428,-0.539804,1.423449
910189329,82.755447,-97.984543,7.950777,0.331463,-0.660448,1.444405
910209372,121.774300,-133.092804,-36.691772,0.323346,-0.635282,1.415732
910229414,107.932640,-154.939072,-67.327667,0.289326,-0.304696,1.272728
910249457,70.584160,-143.995514,-91.468292,0.168518,-0.174555,0.842498
910269500,69.608543,-148.394928,-123.910599,0.289988,-0.070365,0.038511
910289544,87.989410,-126.918770,-146.850555,0.830190,0.019877,-0.604978
910309587,63.711155,-127.024506,-107.597679,2.098329,0.899224,0.583793
910329630,-28.912766,-123.288910,26.398668,1.891019,0.887778,0.576000
910349672,-89.511169,-37.219593,59.852932,0.220429,0.026945,0.388722
910369715,-78.200142,-39.842056,-3.204144,-0.236319,-0.370596,0.843890
910389758,-8.198702,-112.363060,-77.463104,0.476113,-0.291862,0.414344
910409799,16.845322,-98.392067,-78.041626,1.069362,0.032990,0.185926
910429842,8.005350,-57.518082,-33.255009,1.311076,0.069221,0.488295
910449885,3.008531,-63.501034,5.032809,1.222071,-0.055031,0.519170
910469928,27.654846,-43.545925,8.946474,0.961447,-0.163953,0.361478
910489970,60.013145,-17.326626,-3.370937,0.816715,-0.151458,0.415036
910510013,54.126244,-14.177614,-9.484362,0.839525,-0.000481,0.537777
910530056,25.017902,-9.609227,2.992335,0.888907,0.099131,0.559803
910550099,4.389266,6.678885,30.484779,1.026949,0.066574,0.541870
910570142,5.503294,30.874784,55.852768,1.215174,-0.035097,0.513220
910590186,8.230917,63.498161,63.701180,1.285875,-0.097777,0.414104
910610229,22.671213,98.005013,73.796829,1.011933,-0.061369,0.393230
910630271,30.309278,115.206848,74.819046,0.744685,-0.021219,0.574674
910650315,8.852721,89.655174,54.743038,0.685178,-0.022704,0.536286
910670357,-22.775696,54.556355,47.385193,0.694545,-0.001635,0.381405
910690400,-27.048023,46.819355,57.184296,0.468435,-0.101836,0.328139
910710441,-32.533958,43.648075,59.560562,0.459349,-0.245651,0.503701
910730484,-23.489937,14.046865,50.933384,0.851461,-0.358029,0.513320
910750527,-1.023950,22.196922,64.923462,1.208760,-0.425892,0.492454
910770569,66.713486,58.221550,70.746559,0.924613,-0.302707,0.373553
910790612,79.276268,78.313652,51.943562,0.680674,-0.016677,0.716290
910810655,22.883301,37.056614,60.886490,0.539303,-0.074425,0.745414
910830697,2.615250,1.146701,46.418236,0.437379,-0.346711,0.765126
910850740,3.522021,-2.903335,16.985632,0.474865,-0.531129,0.931622
910870783,2.118469,-27.450817,3.588547,0.426243,-0.551231,1.138468
910890827,26.983374,-56.498123,-27.367788,0.314512,-0.528364,0.981322
910910870,63.221691,-80.261436,-66.925957,0.250610,-0.452283,1.094488
910930912,35.974277,-93.096802,-80.478783,0.358276,-0.377313,1.107402
910950955,-29.477291,-96.349785,-70.755745,0.422864,-0.464302,0.987684
910970998,-26.289402,-147.375519,-69.650146,0.513300,-0.388248,0.412589
910991041,31.190577,-144.576141,-106.097580,0.567659,0.114672,0.192513
911011082,69.341568,-151.735275,-132.514069,1.004467,0.161033,-0.492612
911031125,8.320877,-170.860306,-67.737328,2.363836,0.769994,0.209510
911051168,-180.442230,-70.352364,51.287125,1.902268,0.432312,-0.064390
911071211,-159.675629,65.807159,58.800308,0.545927,-0.564908,0.169466
911091253,-2.986804,36.754951,-0.226924,-0.061967,-0.924062,0.802844
911111296,94.520348,-91.213028,-72.168411,0.265701,-0.373445,0.408655
911131339,78.722374,-122.829788,-80.808907,0.973417,0.188847,0.158629
911151381,-21.466042,-75.552841,-35.388905,1.379644,0.243419,0.288426
911171425,-70.708221,-30.638496,9.178009,1.311960,-0.132461,0.311792
911191469,14.993858,14.378118,16.492805,1.015886,-0.448928,0.224657
911211511,41.247391,3.154480,-11.733204,0.969081,-0.200303,0.405717
911231554,21.419413,-2.219721,-17.122217,1.122648,-0.014704,0.381453
911251597,23.041645,13.945202,15.768719,1.215225,-0.032279,0.311806
911271640,21.721544,39.593575,38.121910,1.104070,-0.108455,0.301335
911291683,10.622279,65.099480,46.060215,0.896927,-0.153138,0.349355
911311724,-3.333035,55.883980,45.375999,0.775658,-0.171352,0.453048
911331767,1.046980,26.309174,35.817039,0.764441,-0.136503,0.495833
911351810,8.349699,14.478722,24.596189,0.817553,-0.060081,0.445698
911371852,8.909271,14.285204,17.910837,0.938664,-0.006174,0.435758
911411938,-4.998822,29.050266,18.133024,0.989153,-0.100144,0.304706
911431980,-8.576199,42.345417,14.689177,0.831643,-0.041071,0.343310
911452023,-10.830021,48.623379,26.745047,0.624632,-0.109680,0.386156
911472066,-7.817392,25.935129,32.129536,0.619060,-0.246512,0.463540
911492110,-1.411433,-0.455192,25.980263,0.776408,-0.282175,0.522069
911512153,14.869137,5.973307,19.709011,0.865344,-0.245903,0.265036
911532196,41.608475,15.258205,13.370109,0.859877,-0.127383,0.279405
911552239,-3.333815,43.739597,15.089525,0.881183,-0.085692,0.640208
911572282,-30.886150,20.863453,34.048172,0.943138,-0.154221,0.683926
911592324,-41.777905,11.381100,37.386040,0.896328,-0.191403,0.677245
911612366,-14.915408,43.004585,14.767632,0.652096,-0.294420,0.663110
911652450,0.077852,-41.091221,-44.530544,0.343188,-0.397837,0.749019
911692536,-43.718094,-59.503876,-18.808418,0.778781,-0.069850,0.526798
911712579,-40.612915,9.437944,-5.093054,0.447998,-0.182225,-0.049455
911732622,-18.143206,-78.136139,-10.111575,1.462308,-0.006724,0.060205
911752665,-148.598083,-166.507660,30.495913,2.656502,-0.169777,-0.043441
911772708,-126.040253,106.537918,103.299500,2.068285,-1.346840,-0.817363
911792752,35.713997,256.015930,98.923988,0.203175,-0.812000,0.449238
911812794,127.891388,67.754440,39.833393,-0.463962,-0.193729,1.077301
911832837,81.505219,-61.541500,-16.361221,0.280682,-0.040165,0.486042
911852882,-71.210945,-50.781563,-11.338017,0.764053,-0.013720,0.367263
911872923,-133.062622,-7.613093,30.996023,0.960049,-0.572251,0.488932
911892965,4.920242,32.399780,31.812450,0.864289,-1.142611,0.501772
911913007,49.131355,12.731866,-12.358841,0.771281,-0.676004,0.513083
911933050,31.580860,14.756780,-22.168074,0.825856,-0.326470,0.537818
911953092,7.076548,19.338703,-4.569098,0.695503,-0.377041,0.573792
911973135,-17.465260,6.829049,1.405563,0.622263,-0.518272,0.558855
911993177,-23.085516,-9.493579,-1.225172,0.708838,-0.541106,0.518432
912013221,-10.827791,-1.775683,-4.381387,0.812227,-0.451110,0.482664
912033263,6.706079,4.229650,-2.776910,0.788237,-0.340849,0.551592
912053306,-0.503285,8.187154,-5.178468,0.668798,-0.386656,0.700866
912073349,4.382128,-7.398700,-22.479486,0.625298,-0.495164,0.596105
912093393,42.620583,-32.191254,-31.472176,0.804950,-0.357479,0.580895
912113435,53.164742,-23.616629,-25.839787,0.884758,-0.249989,0.557829
912133478,35.742695,-5.897573,-21.433861,0.745765,-0.260627,0.651497
912153521,10.270390,-15.675615,-27.514408,0.608286,-0.198517,0.710161
912173564,-0.628841,-35.402374,-21.233753,0.726136,-0.065231,0.677236
912193606,-5.582055,-38.013924,-7.023277,0.770301,-0.173974,0.632934
912213648,-2.178776,-30.587112,-15.291771,0.688142,-0.450091,0.555131
912233691,29.319416,-42.594032,-17.548388,0.679362,-0.560493,0.274104
912253733,64.326691,-38.879242,-22.238916,0.971961,-0.300203,0.201349
912273776,42.902332,22.060106,-19.435390,1.059714,0.033776,0.524717
912293833,-4.609153,66.269424,-1.171822,0.839536,0.046170,0.797324
912313862,-36.870113,31.024387,3.108455,0.712657,-0.167988,0.898314
912333904,-66.844490,25.781826,0.516842,0.739608,-0.429479,0.712389
912353947,-31.859432,45.152554,-7.525133,0.645097,-0.414350,0.692454
912373990,-26.714674,40.031876,-9.670005,0.583088,-0.252047,0.656156
912394035,-50.101624,33.882442,-4.944376,0.581552,-0.248076,0.697628
912414077,-58.321304,24.239515,1.382384,0.617138,-0.401159,0.743855
912434120,-40.869408,28.790092,-3.859983,0.610366,-0.459103,0.722524
912454162,-36.284374,31.916111,-7.204433,0.616163,-0.432901,0.764686
912474205,-38.467014,27.829630,-5.416390,0.653897,-0.375019,0.765940
912494248,-42.464714,28.484961,-9.363110,0.580471,-0.358522,0.714465
912534332,-52.770149,15.228174,2.003516,0.660902,-0.493917,0.640330
912554375,-45.866962,22.815453,2.324329,0.607814,-0.535734,0.722864
912574418,-37.150940,14.574936,-0.858208,0.613633,-0.491969,0.723001
912594461,-38.662300,15.350635,-2.805256,0.611204,-0.532013,0.677427
912614503,-32.131207,15.307036,-2.702924,0.578995,-0.600165,0.754505
912634546,-26.641411,8.475716,-5.260212,0.540640,-0.502222,0.729745
912654589,-36.681114,4.130548,-2.246084,0.516686,-0.479852,0.710175
912674632,-37.073040,-3.934905,-5.465611,0.529362,-0.543334,0.682021
912694676,-28.598049,-6.048309,-6.998924,0.604095,-0.583380,0.619713
912714718,-19.779081,-3.789637,-4.158486,0.653841,-0.545157,0.625132
912734761,-12.383917,-3.270164,-1.031230,0.668834,-0.513778,0.608413
912754804,-11.283997,0.759691,4.365518,0.690636,-0.521577,0.596345
912774847,-9.813989,4.279799,9.363758,0.680672,-0.449043,0.558437
912794890,-12.700961,10.927711,14.704796,0.635061,-0.368567,0.473769
912814947,-18.426615,25.012312,21.721355,0.609246,-0.466658,0.584099
912834974,-17.769817,33.479240,22.432055,0.683973,-0.730662,0.664758
912855017,3.824370,40.666569,23.585276,0.654439,-0.733398,0.766626
912875060,1.702971,40.465900,29.604948,0.602031,-0.571903,0.801874
912895102,0.775889,36.532242,35.596138,0.608346,-0.570578,0.771501
912915145,10.126137,48.987381,31.322609,0.486091,-0.609658,0.749444
912935188,28.106771,38.430580,16.453329,0.142006,-0.548122,0.629794
912955231,20.989449,15.447153,5.224076,0.182368,-0.620926,0.793205
912975273,22.235388,-29.896389,-21.170477,0.663800,-0.854114,0.609000
912995316,72.296753,-24.233068,-24.645071,1.005420,-0.736683,0.361428
913015360,69.474167,35.111652,0.278003,0.775346,-0.443690,0.561906
913035403,44.977772,34.255779,10.591345,0.509947,-0.440929,0.795841
913055446,38.829346,-4.760290,11.901920,0.699919,-0.417983,0.832365
913075489,28.438498,-16.718674,20.182562,0.969819,-0.276856,0.686590
913095531,18.211073,13.495397,37.183121,0.972461,-0.135169,0.606322
913115574,-6.319322,30.977449,41.765663,0.830860,-0.183130,0.438981
913135615,-22.009733,39.004200,46.350311,0.835460,-0.229618,0.361737
913155658,-10.943548,72.939316,63.100292,0.711516,-0.405356,-0.051970
913175701,28.543737,134.311279,63.234707,0.168879,-0.568603,0.175847
913195744,103.034576,128.973404,15.633257,-0.143342,-0.520125,0.632213
913215787,192.148575,-61.429535,5.569059,0.691147,-0.396305,0.510917
913235829,30.218910,-105.453812,47.061588,1.608368,0.357784,1.516615
913255872,-78.143303,28.914366,48.588158,1.191716,-0.058137,0.280438
913275915,-26.605066,85.117050,19.434130,0.850182,-0.425507,0.583789
913295958,-24.019773,76.402740,15.720055,0.620188,-0.434581,0.554598
913316002,3.666511,88.337189,21.179747,0.471630,-0.230971,0.717169
913336044,-10.289695,81.525078,7.146015,0.473774,-0.280844,0.708310
913356087,-31.738276,31.318117,6.946544,0.478513,-0.387656,0.660335
913376130,-44.481949,-1.412272,12.270873,0.636468,-0.499080,0.619618
913396173,-38.245598,6.428411,17.038029,0.846932,-0.531938,0.584189
913416216,-1.576048,34.635494,21.842085,0.877303,-0.454280,0.581949
913436257,13.764523,53.671558,26.208881,0.746040,-0.360943,0.660066
913456300,-8.475048,39.604645,38.543877,0.656334,-0.376015,0.684299
913476342,-18.635036,28.437593,49.168434,0.600949,-0.464848,0.677890
913496385,-0.303116,28.267277,43.695240,0.438417,-0.532621,0.639024
913516428,11.251928,13.826056,32.352837,0.486054,-0.510656,0.661132
913536471,-4.731931,10.917487,40.980156,0.575636,-0.551334,0.655112
913556514,-1.903541,16.212503,40.481129,0.487925,-0.668606,0.683117
913576556,17.046764,13.770740,38.761154,0.445698,-0.638715,0.682380
913596599,21.760212,25.397690,43.094543,0.446947,-0.534618,0.670331
913616643,3.883455,29.301727,36.546669,0.332788,-0.631379,0.793934
913636686,8.987160,3.850055,19.405674,0.403645,-0.742879,0.826601
913656729,20.601532,-3.970816,8.490802,0.512204,-0.648102,0.819692
913676771,18.953278,0.595122,0.728461,0.390496,-0.516736,0.844030
913696814,12.337196,-12.045588,-13.599823,0.375640,-0.435152,0.837148
913716856,-4.328160,-30.681585,-26.634081,0.389710,-0.502534,0.839628
913736898,-12.218490,-50.112595,-32.931725,0.434182,-0.621881,0.879723
913756941,2.489711,-65.383270,-40.412193,0.464066,-0.663946,0.923626
913776983,3.921138,-75.224625,-51.102329,0.450906,-0.607286,1.015472
913797026,-21.486555,-95.215004,-67.252716,0.403848,-0.621540,1.102103
913817069,-5.312160,-117.301231,-83.735191,0.411132,-0.691974,0.934396
913837112,32.358219,-97.460197,-105.556847,0.273225,-0.645322,0.972699
913857155,14.087623,-104.582359,-124.379585,-0.238032,-0.777336,0.934274
913877198,47.416893,-147.453156,-168.011276,-0.490050,-0.706572,0.342882
913897241,77.609756,-114.013733,-219.324585,0.086378,-0.094290,-0.097889
913917285,203.028656,-170.105637,-195.534637,0.451227,0.391197,-0.608626
913937327,257.507904,-242.048096,-179.642120,1.597007,0.869567,-0.727571
913957370,-77.321259,-326.993835,-113.823692,3.658188,1.514032,0.810895
913977413,-464.470459,-220.392441,58.314774,2.156822,0.424056,-0.662264
913997456,-280.289673,164.330612,138.321304,0.994229,-1.076517,-0.270611
914017498,134.546051,147.969177,45.892590,-0.348961,-1.314461,0.484313
914037555,289.122772,-19.173750,-104.194138,-0.130436,-0.097466,0.334654
914077625,58.315735,-38.627144,-81.440559,1.176489,0.628927,0.378901
914097668,-130.249161,-46.899582,6.046438,1.339705,0.473879,0.605798
914117711,-169.367630,-6.740560,75.985336,1.247896,-0.119339,0.479739
914137754,-3.288466,82.456116,96.195053,0.829384,-0.356282,0.244380
914157796,31.379778,73.738518,62.371269,0.565690,-0.053920,0.510725
914177839,-15.985186,49.615650,26.143698,0.814064,0.062722,0.826955
914197882,-57.857437,4.290307,24.915369,1.164023,-0.069764,0.705236
914217925,-31.361759,-7.192344,46.366653,1.373998,-0.178296,0.430071
914237969,4.925375,33.218479,60.684982,1.261587,-0.104534,0.199755
914258012,2.011234,106.011269,57.149323,0.967776,0.031638,0.054182
914278054,-5.327679,149.504013,29.761459,0.766333,0.084546,0.207505
914298097,-38.048557,162.762405,23.798506,0.552061,0.079198,0.209080
914318140,-50.576744,157.880966,46.388390,0.504696,-0.067488,0.399772
914338183,-35.242264,109.890869,77.254097,0.552120,-0.387365,0.701476
914358224,-13.191233,51.112190,80.248863,0.642733,-0.449059,0.678612
914378267,-11.367072,43.008564,64.053658,0.868943,-0.317402,0.557269
914398310,-0.956153,77.935944,71.978111,0.995737,-0.275946,0.652084
914418352,19.169746,97.670074,82.828827,0.759636,-0.395972,0.584978
914438395,49.808876,95.948532,65.690536,0.410626,-0.508851,0.628519
914458438,44.985798,74.702194,51.166183,0.309921,-0.465705,0.787848
914478481,43.846352,28.904190,57.389038,0.248490,-0.360468,0.715698
914498523,28.248903,-6.573618,49.352497,0.228146,-0.312869,0.875577
914518566,-19.421801,-33.613041,34.034630,0.237016,-0.335318,1.191478
914538610,-50.571838,-68.881325,22.612724,0.244491,-0.568997,1.204296
914558653,-20.844690,-98.983711,-12.752792,0.315385,-0.779671,1.126433
914578696,44.701286,-98.923027,-56.009281,0.398875,-0.799424,1.264775
914598738,43.548164,-108.102798,-70.900757,0.279131,-0.600393,1.120501
914618781,-9.471375,-142.319183,-83.854866,0.210596,-0.577835,0.709294
914638824,-2.395546,-165.622589,-103.229935,0.306213,-0.173411,0.544140
914658865,12.320829,-133.379807,-107.380478,0.453053,-0.093918,-0.294146
914678908,94.817520,-161.403183,-100.215836,1.081791,0.150710,-0.774655
914698951,31.488472,-165.107483,-75.965317,2.834636,0.923686,0.424998
914718994,-287.813110,-80.563202,41.035385,2.272309,0.239199,0.243450
914739037,-199.535507,76.074677,98.139984,0.542861,-1.029395,0.226721
914759079,55.119904,12.184277,15.181614,-0.432889,-1.165671,0.826074
914779122,120.180298,-82.833763,-99.958916,0.220267,-0.150338,0.305604
914819208,-37.452106,-44.214935,-31.768692,1.002778,0.148173,0.342451
914839252,-89.862251,-17.305126,10.081709,0.912271,-0.443945,0.382914
914859294,50.892971,20.864769,25.041033,0.927446,-0.862518,0.498009
914879337,79.480850,-13.203207,-8.125548,0.871969,-0.423637,0.647573
914899380,48.703365,0.045951,-30.802700,0.869656,-0.069731,0.667578
914919423,26.146713,10.332342,-17.574099,1.007025,-0.037556,0.748982
914939466,2.513966,11.578101,2.893442,1.078509,-0.173695,0.704468
914959507,-0.769075,22.888988,15.782839,1.036279,-0.204716,0.576589
914979549,-12.806479,34.476582,35.580326,0.918473,-0.118255,0.464214
914999592,-21.569309,50.221764,44.827911,0.796251,-0.106339,0.459399
915019635,-19.298513,60.239960,33.411678,0.754091,-0.099940,0.475244
915039678,-17.553650,56.052235,20.466391,0.770714,-0.042659,0.463239
915059721,-24.849384,45.678974,10.247436,0.818279,0.015147,0.411669
915079763,-35.637180,40.647476,6.815252,0.889653,-0.008817,0.360037
915099806,-44.028114,56.240280,15.968708,0.910915,-0.114887,0.222407
915119849,-57.015125,75.393837,24.361732,0.889068,-0.117440,0.202421
915139893,-75.274452,101.914612,44.238518,0.797077,-0.069518,0.309332
915159936,-55.895889,95.436378,59.066013,0.784556,-0.377728,0.399643
915179979,8.613246,53.605015,71.005936,0.913941,-0.620778,0.440560
915200021,59.413422,68.249542,79.538857,0.811817,-0.409893,0.282751
915220064,77.335495,116.270668,63.144310,0.711102,-0.246820,0.523121
915240107,54.732269,98.233009,67.745659,0.589080,-0.210569,0.818463
915260149,29.697001,39.247551,78.209511,0.494218,-0.162614,0.911423
915280191,-10.291173,13.676151,63.166557,0.350051,-0.312432,0.948571
915300234,-23.655403,-35.867970,31.425676,0.154319,-0.590612,1.004974
915320277,23.859772,-74.412445,1.447404,0.189110,-0.728392,0.997625
915340319,79.468864,-69.895454,-22.020960,0.251578,-0.648928,1.084100
915360362,84.503799,-75.847443,-30.639757,0.278485,-0.380155,1.078801
915380405,46.677284,-95.205681,-34.049156,0.314245,-0.316792,0.726834
915400447,3.104004,-75.835373,-41.793549,0.556674,-0.353103,0.458047
915420490,-25.996964,-43.037437,-44.884918,0.913580,-0.217554,-0.011985
915440534,47.889973,-134.010254,-38.394672,2.133489,0.361670,0.475956
915460577,-103.054298,-75.503128,19.669327,2.357866,0.230907,0.470207
915480620,-102.845970,71.008011,54.032475,0.438325,-0.822199,0.546636
915500663,26.713257,-22.036053,6.929745,-0.453216,-0.825539,1.170999
915520705,17.504431,-57.538902,-44.366730,0.255574,-0.078414,0.415068
915540748,-20.028318,-41.899582,-55.277405,0.659683,0.049426,0.536233
915560789,-59.004536,-46.605556,-48.193840,0.715184,-0.247329,0.611833
915580832,-39.292145,-51.988106,-30.086445,0.756476,-0.548223,0.552981
915600875,6.928634,-40.269558,-12.838407,0.715609,-0.626840,0.527110
915620918,28.112646,-40.352825,-22.066523,0.699199,-0.515107,0.513322
915640961,18.985455,-41.108006,-28.699928,0.790080,-0.414533,0.502412
915661003,28.477167,-38.232155,-21.195217,0.909484,-0.380033,0.540510
915681046,32.499992,-26.443077,-12.628531,0.964647,-0.286911,0.634740
915701089,18.408775,-17.188150,-11.935015,0.963063,-0.240417,0.681414
915721132,18.060675,-12.355960,0.138085,0.932437,-0.331516,0.590079
915741176,26.768988,-1.245691,-4.357799,0.920328,-0.335855,0.595307
915761219,13.039209,1.681600,-11.523152,0.976848,-0.195708,0.589646
915781261,-10.051254,13.244002,-1.323750,0.964957,0.000363,0.536228
915801304,-14.272564,33.614300,8.402685,0.857686,0.048323,0.491711
915821347,-13.128880,52.805809,10.044178,0.733556,0.028656,0.515184
915841390,-15.463537,48.639874,3.902816,0.608585,-0.035339,0.433770
915861433,-18.763359,26.666634,-1.589611,0.717538,-0.151285,0.447541
915881474,-7.264312,5.162513,-0.309007,0.902675,-0.180763,0.423553
915901517,5.538535,11.293767,18.632774,0.866255,-0.086433,0.319810
915921559,-11.889117,31.905201,32.147491,0.811390,-0.039230,0.329126
915941602,-35.885387,39.568142,39.942528,0.821116,-0.078122,0.391792
915961645,-42.927582,35.062843,47.550514,0.879542,-0.196530,0.376626
915981688,-37.723385,41.581497,51.435486,1.005582,-0.235186,0.322693
916001731,-26.874729,68.522415,64.331268,0.987450,-0.229011,0.206883
916021774,19.723085,93.037079,74.639290,0.830062,-0.252473,0.266836
916041817,68.342422,115.706429,75.646858,0.647105,-0.278480,0.500609
916061860,74.476372,120.957695,68.753632,0.460761,-0.299881,0.759084
916081903,17.850658,85.880531,61.549324,0.416136,-0.266962,1.006491
916101946,-43.146610,1.178124,62.158028,0.342450,-0.463282,0.999835
916121989,-19.216188,-39.296371,38.837959,0.512623,-0.771124,0.852849
916142032,72.298645,-17.278711,8.419365,0.340526,-0.710330,0.985199
916162074,86.128548,-14.624231,5.271119,0.244093,-0.458366,0.996800
916182116,42.279755,-44.656754,0.759998,0.465700,-0.634837,0.629961
916202159,58.710716,-14.787199,12.741726,0.575624,-0.557853,0.573590
916222201,78.722565,55.857185,25.145018,0.703215,-0.185774,0.101114
916242244,110.567444,-17.602642,37.548119,1.583079,0.412783,0.641311
916262287,-88.268097,22.992990,61.942459,1.615497,0.148778,1.010546
916282329,-124.304512,27.176878,68.111366,0.492600,-0.858123,0.883284
916322415,49.864788,3.635187,8.883946,0.096723,-0.226067,0.719398
916342458,-1.382052,-10.318511,14.478115,0.079554,-0.031013,0.715750
916362502,-45.597698,2.687501,16.777966,0.278527,-0.140061,0.797950
916382545,-44.930275,12.222645,9.793093,0.505915,-0.385996,0.932290
916402587,-3.122801,0.622065,1.339557,0.596411,-0.523589,0.977697
916422630,23.284119,-11.951880,-3.955279,0.429034,-0.497086,0.992734
916442673,22.876923,-25.135990,-14.711962,0.433053,-0.485631,0.984111
916462716,17.272486,-33.839409,-26.811947,0.488657,-0.459379,0.985302
916482757,13.988200,-39.883209,-35.854443,0.401015,-0.353118,0.962298
916502799,-12.179933,-40.015221,-41.611187,0.419754,-0.309408,0.968994
916522842,-38.675491,-41.634624,-42.800659,0.578452,-0.372935,0.909495
916542885,-41.871456,-43.509163,-42.637257,0.556741,-0.420147,0.791368
916562928,-36.588745,-43.242104,-47.073772,0.442177,-0.425403,0.710183
916582971,-34.722672,-55.514481,-54.268147,0.459044,-0.392947,0.682360
916603013,-32.090855,-65.998398,-54.903111,0.589809,-0.343461,0.598509
916623056,-27.974598,-59.570080,-51.169693,0.616788,-0.343078,0.543712
916643099,-34.752575,-43.847149,-53.738052,0.582962,-0.410556,0.559772
916663143,-43.916084,-48.319836,-62.135109,0.574192,-0.441551,0.542028
916683186,-48.482712,-60.067314,-63.795483,0.669961,-0.433157,0.502053
916703237,-46.381367,-65.813660,-60.263657,0.794431,-0.404631,0.468858
916723271,-47.238483,-62.223236,-55.476192,0.872490,-0.481801,0.398140
916743314,-33.659710,-60.059807,-52.466461,0.872598,-0.530395,0.348012
916763357,-23.879129,-53.149105,-46.902828,0.795286,-0.560068,0.308088
916783398,-15.232773,-61.766064,-42.252869,0.782652,-0.544554,0.309324
916803441,-6.926024,-69.006996,-37.601604,0.800671,-0.481100,0.259040
916823484,-6.071884,-66.747803,-32.010841,0.855763,-0.409266,0.196302
916843527,-7.444750,-56.049873,-26.311945,0.924145,-0.380450,0.175259
916863569,-2.718816,-41.776985,-19.969919,0.953307,-0.373757,0.177784
916883612,-1.943216,-28.200331,-14.473057,0.952559,-0.388111,0.233252
916903655,-5.165056,-21.083727,-15.430225,0.885561,-0.359627,0.276320
916923698,-13.129358,-24.639503,-10.840531,0.902349,-0.349235,0.260515
916943741,-17.165070,-26.714401,-1.513306,0.925342,-0.412946,0.197204
916963785,-11.649599,-20.576017,2.438208,0.967942,-0.388161,0.182926
916983828,-10.230440,-14.252432,4.722075,0.962368,-0.336711,0.188378
917003870,-9.808644,-8.665261,6.991429,0.954201,-0.349644,0.148275
917023913,-4.819784,-6.653849,10.394746,0.986031,-0.358495,0.187639
917043956,1.003898,-0.759318,13.544208,0.966392,-0.355313,0.158608
917063999,8.694319,-1.500791,18.940643,0.947939,-0.369883,0.135377
917084040,18.021568,-5.929855,24.693697,0.916751,-0.382947,0.167669
917104083,24.669506,-7.607019,26.312719,0.897393,-0.371614,0.257022
917124126,21.103365,-6.557122,21.707142,0.930317,-0.282809,0.388544
917144169,3.713865,4.879040,15.719786,0.920406,-0.319184,0.418361
917164212,17.793406,5.982049,10.994105,0.779727,-0.472344,0.291590
917184254,38.769547,0.736199,-2.425216,0.783443,-0.405427,0.424537
917204296,19.569021,-2.327055,-5.870942,0.887080,-0.330987,0.469200
917224339,12.425487,2.838335,-9.531165,0.920916,-0.318704,0.460241
917244382,17.791349,11.002483,-13.884361,0.802287,-0.303496,0.401618
917264426,15.672031,3.212803,-15.651048,0.735202,-0.332286,0.416388
917284469,20.189018,-16.121679,-20.108868,0.756895,-0.341455,0.403876
917304512,29.587532,-24.478781,-27.684668,0.839043,-0.287807,0.378267
917324554,28.518187,-24.235271,-29.101320,0.912367,-0.230716,0.419302
917364640,15.229456,-42.552612,-20.091564,0.926248,-0.197089,0.333362
917384681,11.938473,-40.243534,-12.953026,0.946620,-0.184090,0.319929
917404724,11.339047,-36.866196,-8.273987,0.917313,-0.208814,0.282226
917424767,21.790575,-37.862469,-6.402896,0.854673,-0.230606,0.278034
917444810,30.992840,-42.188137,-7.558778,0.869072,-0.196845,0.286691
917464853,37.244991,-46.066933,-1.013221,0.924894,-0.148829,0.259936
917484895,34.147388,-46.797256,8.450289,0.986535,-0.120389,0.235842
917504938,30.565577,-37.107677,15.538368,0.977398,-0.086713,0.222023
917524981,21.867682,-23.115242,14.738580,0.934408,-0.053221,0.275877
917545024,15.534328,-25.414116,11.787703,0.938039,-0.034333,0.335746
917565068,9.230301,-33.639503,13.382710,1.016997,-0.075130,0.316721
917585111,15.559070,-26.437080,18.766838,1.092772,-0.157407,0.253585
917605154,41.716408,-13.629315,19.613121,1.053890,-0.170597,0.240208
917625197,55.729221,-12.303875,19.214933,1.016112,-0.126227,0.308851
917645239,57.554676,-20.019297,21.120424,0.967261,-0.106712,0.309244
917665282,60.423992,-25.972370,22.780081,0.969005,-0.097490,0.289697
917685323,61.993431,-26.969715,22.121433,0.973651,-0.079730,0.284395
917705366,65.750343,-29.739780,21.752424,0.979989,-0.069795,0.284632
917725408,72.675278,-30.831667,23.955376,0.989056,-0.051742,0.265976
917745451,76.124245,-27.595066,27.681694,0.948958,-0.055562,0.247324
917765494,78.422470,-28.066135,32.471661,0.920181,-0.063862,0.287788
917785537,80.516052,-37.544529,35.755676,0.928371,-0.063956,0.291672
917805580,80.186920,-42.596977,39.587360,1.048840,-0.047468,0.287318
917825622,78.868782,-37.318832,44.285347,1.073269,-0.057932,0.240148
917845665,86.296669,-34.252533,48.796474,1.000815,-0.058377,0.292884
917865709,92.846428,-38.173958,45.679794,1.004715,-0.070307,0.302753
917885752,96.062492,-45.536209,41.251099,1.019170,-0.070965,0.254610
917905795,98.112846,-45.536461,44.610287,1.016262,-0.102468,0.254212
917925838,105.370163,-50.232635,43.987713,1.028091,-0.101310,0.237263
917945880,110.736481,-51.286983,42.172501,1.093108,-0.061394,0.206180
917965923,110.383232,-46.992733,41.188385,1.102959,-0.060999,0.205521
918006007,111.881607,-39.527180,47.752052,1.055578,-0.105603,0.230125
918026050,118.139320,-39.161053,45.745819,1.016429,-0.117578,0.220196
918046093,124.297874,-39.807362,40.153099,0.992413,-0.080980,0.226365
918066136,124.159805,-40.522594,38.181690,1.018505,-0.070068,0.238665
918086179,112.203094,-44.146130,36.570290,1.097632,-0.077491,0.258424
918106221,110.826721,-40.491627,30.764629,1.178686,-0.087449,0.234607
918126264,125.905693,-19.258671,35.260868,1.098014,-0.059456,0.219493
918166351,139.180954,-42.805214,44.749928,0.873268,-0.032893,0.275081
918186393,106.459579,-57.979450,42.295418,1.013309,-0.027173,0.372200
918206436,103.024315,-55.360470,45.343746,1.118916,-0.109744,0.242366
918226479,123.024437,-43.970989,41.157177,1.126476,-0.122328,0.244984
918246522,128.533630,-35.559925,28.414900,1.102340,-0.078855,0.318741
918266564,124.506516,-44.777420,25.468117,1.079324,-0.061953,0.351573
918286606,123.716614,-49.369175,21.890297,1.071309,-0.032761,0.337526
918306648,125.360214,-48.398647,19.796988,1.096649,0.014925,0.378015
918326691,124.144943,-49.325447,18.557779,1.087107,-0.021985,0.347567
918346734,127.013695,-47.020214,12.126617,1.082580,-0.015581,0.366419
918366777,126.044418,-44.162571,9.784912,1.043535,0.015788,0.374706
918386819,126.914734,-41.663708,7.536098,0.954582,0.010373,0.349519
918406862,128.695923,-45.222252,7.807683,0.891965,0.008636,0.370289
918426905,124.517105,-56.968258,10.151553,0.945684,0.006711,0.379165
918446948,118.029907,-63.498981,10.748365,1.043503,0.002134,0.352513
918466992,118.863968,-56.188782,8.655264,1.073177,-0.002472,0.344391
918487035,120.677406,-54.898041,9.082001,1.062284,0.012522,0.340364
918507078,122.292641,-58.333794,11.632612,1.064710,0.024079,0.317434
918527121,123.403633,-55.658875,12.604326,1.080376,0.025627,0.299327
918547163,125.670609,-49.913986,14.196591,1.073685,0.044302,0.308684
918567206,122.613625,-46.512848,16.380409,1.052844,0.066805,0.313808
918587247,118.637794,-47.625523,19.017403,1.045113,0.072985,0.307783
918607290,117.466171,-48.900352,21.412117,1.044914,0.084212,0.334274
918627333,117.286354,-47.979496,23.660023,1.046948,0.068713,0.313294
918647375,116.722290,-47.195576,24.897770,1.062278,0.072013,0.322301
918667418,113.038345,-43.649933,26.088266,1.079388,0.090787,0.356595
918687461,112.107735,-41.003223,28.005091,1.045834,0.055827,0.319128
918707504,113.784554,-39.751232,26.513096,1.019451,0.036908,0.333477
918727547,111.997368,-43.177826,26.019615,1.029828,0.032659,0.347244
918747589,112.738564,-41.180370,24.046522,1.038679,0.041868,0.328023
918767633,112.771149,-35.009708,21.663530,1.040562,0.064798,0.325935
918787676,108.215805,-33.478516,20.592358,1.030466,0.058360,0.347492
918807719,105.451775,-36.288284,20.829515,1.046800,0.029455,0.355316
918827762,110.374245,-35.205460,21.224995,1.034513,0.025458,0.332042
918847805,110.939354,-29.300282,21.047478,1.007066,0.046588,0.372820
918867847,108.786613,-29.777302,20.973015,0.974494,0.031135,0.399750
918887891,112.093552,-34.660580,19.253397,0.959091,0.004411,0.366353
