Timestamp (us),Gyroscope X (deg/s),Gyroscope Y (deg/s),Gyroscope Z (deg/s),Accelerometer X (g),Accelerometer Y (g),Accelerometer Z (g)
6383033398,2.548542,2.677392,1.874103,0.983501,0.152448,0.126933
6383053399,3.796687,2.122519,1.369361,0.972235,0.197823,0.136522
6383073400,-1.092014,0.707748,0.805357,0.972469,0.210792,0.128389
6383093403,-5.365931,0.230975,0.637057,0.974534,0.180314,0.123405
6383113404,-3.004688,1.132102,0.720978,0.991556,0.155879,0.118205
6383133404,1.140339,1.879351,-0.046078,0.971485,0.175923,0.129644
6383153405,0.545900,0.355824,-0.089652,0.976128,0.182550,0.123204
6383173406,0.436228,1.458312,-0.823685,0.980134,0.166161,0.127327
6383193407,-0.725116,0.998590,-0.367935,0.956955,0.176169,0.138069
6383213430,-4.827391,-1.824545,-1.605488,0.954389,0.190276,0.141748
6383233407,-6.979436,-2.054070,-1.435031,0.967554,0.167518,0.133656
6383253408,-4.305457,0.514936,-1.588080,0.960410,0.140519,0.116759
6383273409,2.311809,-0.384188,-0.740307,0.967282,0.126719,0.121784
6383293410,7.315226,-0.599313,0.286521,0.973636,0.164203,0.127018
6383313422,5.602398,-0.008421,1.689944,0.964612,0.184880,0.135549
6383333412,1.637125,0.166743,2.520392,0.960448,0.175727,0.144131
6383353413,0.244809,-2.170236,0.888290,0.979997,0.156104,0.142166
6383373413,0.584201,-2.907311,0.008558,0.980875,0.126133,0.139078
6383393414,4.290082,-1.340291,-1.816516,0.959469,0.115382,0.137477
6383413415,8.613704,-3.288989,-1.774237,0.947701,0.116829,0.144908
6383433418,11.508952,-5.638682,-1.921198,0.973314,0.142139,0.134743
6383453419,12.832472,-4.803488,-1.885434,1.001330,0.185510,0.119672
6383473420,10.056173,-5.064169,1.023777,0.995273,0.217392,0.115199
6383493421,7.473566,-2.891659,2.598788,0.985885,0.250693,0.109667
6383513421,3.520890,-1.583106,2.854090,0.983510,0.264667,0.123385
6383533422,-2.705195,-0.358792,3.294944,1.010688,0.260052,0.127013
6383553423,-8.289401,1.239387,2.545674,1.002619,0.255155,0.122264
6383573423,-15.954507,1.567979,1.355705,1.007807,0.243682,0.115925
6383593423,-18.193836,2.319522,0.929365,1.001292,0.188371,0.097189
6383613425,-12.817761,3.659943,0.564361,0.982864,0.154606,0.086211
6383633425,-7.755788,2.932935,1.410858,0.976645,0.139919,0.098871
6383653426,-6.931612,1.177464,3.162899,0.966496,0.157381,0.103426
6383673427,-8.380312,1.252506,3.663133,0.959034,0.149397,0.106210
6383693428,-7.282258,1.173219,3.673675,0.953220,0.114458,0.108148
6383713429,-0.808724,2.195171,4.346210,0.965676,0.096303,0.109373
6383733430,5.789911,3.945722,4.368927,0.960527,0.124720,0.130959
6383753431,2.580385,1.122730,3.697246,0.957796,0.171547,0.146631
6383773433,-4.911481,-0.749211,3.268795,0.981173,0.174404,0.120461
6383793434,-4.794864,1.523614,1.836884,0.972677,0.129304,0.113498
6383813435,-0.556731,1.017851,0.588724,0.977902,0.129949,0.121841
6383833436,2.188810,1.093699,-1.103614,0.980910,0.135928,0.124881
6383853437,1.579808,1.442532,-1.877545,0.963986,0.145202,0.125298
6383873438,0.642848,1.785309,-2.513163,0.964108,0.146368,0.124369
6383893439,-1.445620,3.517637,-0.201279,0.971922,0.151141,0.126472
6383913438,-5.950402,5.535007,2.910683,0.977134,0.151228,0.146591
6383933439,-9.548151,9.219926,4.445478,0.971060,0.137665,0.155404
6383953440,-14.548263,15.810767,11.817396,0.991659,0.145133,0.193260
6383973441,-22.619175,30.870422,23.314186,1.017940,0.095397,0.218735
6383993442,-22.940901,43.846333,37.376408,1.085472,-0.045538,0.284976
6384013443,-5.119049,47.597023,54.399292,1.194510,-0.175434,0.320178
6384033444,32.427429,61.994083,77.150513,1.331569,-0.131538,0.395316
6384053445,44.432915,95.999924,95.407906,1.512010,-0.092073,0.612618
6384073446,5.570843,130.628708,113.575661,1.243190,-0.027679,0.686730
6384093446,-32.786545,126.524818,127.630676,1.053957,-0.096031,0.553155
6384113449,-51.431297,127.261856,146.802032,1.031169,-0.229192,0.368160
6384133449,-30.490429,130.894699,163.332458,0.940648,-0.059712,0.382249
6384153450,-59.885258,96.880081,179.936691,0.640422,0.112075,0.177005
6384173451,-94.241158,49.672699,206.251755,0.459552,0.009859,-0.550971
6384193452,-48.581417,33.200714,174.641403,0.398592,0.288342,-0.441843
6384213453,-57.473579,-33.191746,108.739571,0.766138,0.255712,-0.341590
6384233480,5.340878,-61.256317,77.095818,1.405734,-0.653794,-0.129896
6384253454,119.824020,-37.958908,66.709709,2.795405,-0.647641,0.294293
6384273455,237.233887,97.258896,95.714600,1.553845,0.132940,0.415473
6384293455,186.704590,118.454178,32.432877,0.810131,1.064460,0.933493
6384313456,-9.250312,111.220490,-25.997639,0.873471,1.209591,0.979608
6384333457,-176.788773,97.976334,-69.438431,1.086395,0.853013,0.555228
6384353458,-217.211136,114.897621,-93.359596,1.066247,0.669216,0.240597
6384373459,-222.290741,137.516998,-103.743629,0.950590,0.350245,0.165979
6384393460,-229.654663,140.465271,-121.726173,0.899532,0.064715,0.027371
6384413461,-228.999969,128.692642,-152.164322,1.031086,0.044043,-0.091484
6384433462,-209.997208,120.977882,-198.959686,1.067091,0.446854,0.051008
6384453464,-238.682709,50.031147,-205.627609,0.703219,0.739140,-0.257887
6384473465,-278.756592,26.392546,-254.307510,0.856930,0.126370,-1.120598
6384493465,-140.284760,36.797325,-329.749481,0.831312,-0.113629,-1.311369
6384513466,0.920859,-40.583359,-362.713257,0.920513,-0.073244,-1.812965
6384533467,-31.674511,-139.043900,-382.104279,0.890145,0.351741,-1.400843
6384553468,-188.860596,-236.530441,-388.802032,1.573093,0.829030,-2.057786
6384573491,-372.268311,-260.419037,-401.094055,2.374172,0.605988,-2.424388
6384593469,-531.538574,-337.052551,-391.416687,2.144149,0.889760,-2.742477
6384613470,-580.554443,-432.207764,-421.485535,2.785498,0.447823,-3.942229
6384633471,-857.183044,-155.461243,-99.811768,7.948258,-5.662127,0.344313
6384653471,-569.805969,56.702583,-2.527351,1.211942,-2.009851,-0.556878
6384673473,-38.077301,-168.782349,-83.651123,1.406386,0.559109,-0.965644
6384693473,-213.203400,-141.741714,-100.300217,2.255998,-0.751584,-0.170732
6384713474,-419.066498,-82.062378,-77.637909,1.994856,-0.336859,-0.258453
6384733475,-275.679260,-139.224152,-54.529030,1.038538,-0.031946,-0.816782
6384753476,-233.156586,-162.049713,-77.060638,0.902913,-0.104851,-0.604584
6384773477,-266.323914,-160.209625,-96.417366,0.916839,-0.060714,-0.561611
6384793479,-268.279602,-145.002472,-75.814774,0.923451,-0.024790,-0.442694
6384813480,-277.144745,-138.368622,-33.939613,0.803259,-0.013630,-0.450734
6384833481,-273.504578,-133.698410,-13.071639,0.865110,0.149794,-0.538822
6384853482,-247.222641,-109.519714,14.056313,0.974552,0.240003,-0.628772
6384873483,-242.703857,-90.714340,28.617142,0.930625,0.344923,-0.699239
6384893484,-264.913025,-78.305595,41.945980,0.934544,0.502211,-0.749231
6384913485,-300.569031,-76.179901,46.233261,1.076945,0.585057,-0.733108
6384933484,-354.375854,-80.650879,42.661644,1.248433,0.697276,-0.730369
6384953485,-418.250366,-79.052361,46.069496,1.232719,0.696681,-0.839704
6384973486,-447.440094,-72.681145,52.268616,1.015590,0.503717,-0.949571
6384993487,-449.394745,-65.747032,45.231926,0.994793,0.326026,-1.073477
6385013488,-438.641937,-38.693775,48.396282,1.119128,0.153684,-1.078608
6385033489,-400.635620,-0.296780,51.164345,1.099680,0.025543,-1.015902
6385053490,-352.858612,35.951141,42.148941,1.060735,0.090051,-0.955349
6385073491,-343.014191,69.542328,29.215214,1.085212,0.228805,-0.936072
6385093492,-371.288055,95.391167,23.687273,1.097205,0.202714,-0.931081
6385113493,-405.821289,107.244690,16.913885,1.127444,0.097687,-0.913747
6385133495,-438.780762,113.201180,8.830158,1.180919,-0.044281,-0.902453
6385153496,-449.449280,119.797394,-0.688177,1.238477,-0.307833,-0.887973
6385173497,-418.816162,130.124908,-6.012073,1.295417,-0.565275,-0.860366
6385193498,-346.501831,152.218475,-8.957929,1.273741,-0.709804,-0.764593
6385213498,-269.970734,172.297562,-11.321168,1.260180,-0.743713,-0.619539
6385253500,-198.374252,222.806229,-20.259241,1.175344,-0.792984,-0.256047
6385273500,-208.180908,228.826492,-39.886017,1.025275,-0.793330,0.069186
6385293501,-214.671616,206.458832,-44.550156,0.952741,-0.633408,0.236117
6385313501,-219.084763,200.907791,-47.210197,1.079528,-0.615308,0.151463
6385333503,-222.636505,194.099670,-39.373791,1.062950,-0.648348,0.092240
6385353503,-205.039551,186.884186,-19.549202,0.975878,-0.762949,-0.097975
6385373504,-172.716705,182.832733,-5.596915,0.816257,-0.773223,-0.099515
6385393506,-153.184692,169.726685,3.135310,0.694129,-0.591981,-0.028185
6385413507,-162.426208,153.657562,6.647270,0.598966,-0.461837,0.012642
6385433507,-176.155945,138.745483,8.677418,0.478439,-0.520845,-0.039476
6385453508,-169.740753,122.224419,9.748917,0.383380,-0.524391,-0.110524
6385473511,-175.457764,101.245552,13.905377,0.227441,-0.442589,-0.043935
6385493512,-205.536362,79.952606,9.648089,0.161395,-0.375840,0.101233
6385513512,-234.952698,58.416607,-10.273354,0.329615,-0.509702,0.156612
6385533513,-264.088593,56.925980,-36.677982,0.712197,-0.768312,0.324522
6385553514,-277.874969,69.920860,-55.915436,0.781316,-1.287891,0.239431
6385573515,-224.171417,69.480469,-60.725952,0.753470,-1.485516,-0.011031
6385593516,-60.959763,96.275299,-24.523388,1.558878,-2.114452,-0.021536
6385613516,151.075531,179.337784,33.459541,0.926454,-1.951929,-0.057674
6385633516,292.658020,235.666962,16.636847,0.961841,-0.630202,0.302109
6385653517,299.133698,299.461731,3.543596,0.654772,0.043017,0.721315
6385673518,201.524155,302.691589,-47.525875,0.294829,0.210019,0.772956
6385693519,41.651543,239.269577,-113.579834,0.378759,0.495610,0.665974
6385713520,-61.975422,205.490173,-154.734482,0.559386,-0.072203,0.545347
6385733521,-78.892975,212.652481,-203.386215,0.684024,-0.024845,0.901254
6385753521,-198.848206,163.320724,-216.377045,0.652443,0.128248,0.645275
6385773522,-270.114563,117.042114,-181.606720,0.927741,-0.703082,-0.026041
6385793523,-127.098038,128.864716,-151.946640,0.692151,-1.725136,-0.266383
6385813526,64.978699,104.174232,-154.057190,0.220930,-1.597813,-0.236506
6385833527,163.584106,30.364473,-171.385513,0.117371,-1.208159,-0.165636
6385853527,215.474564,-55.981144,-182.652954,0.201376,-0.884258,-0.219024
6385873528,253.091476,-137.535995,-226.386841,-0.144076,-0.496490,-0.092000
6385893529,263.865479,-237.180954,-270.736816,0.011225,0.112413,0.126061
6385913530,227.292648,-313.968719,-314.730988,0.804217,0.581407,0.392917
6385933531,107.405151,-346.814972,-405.674866,1.913841,1.059236,0.316841
6385953530,-48.983349,-343.714355,-421.974243,2.873318,1.360204,0.008730
6385973532,-131.390976,-338.398895,-326.447845,2.377552,2.283171,-0.777209
6385993533,-504.569641,-356.961090,-350.785553,5.221804,-2.455184,2.272259
6386013534,-333.268738,144.578964,119.483032,2.948436,-5.179628,1.961939
6386033535,167.566299,0.771425,-34.116760,0.003232,0.156019,0.328176
6386053535,36.965683,59.485352,-51.895565,1.022193,-0.727703,-0.285318
6386073536,109.132034,87.032516,70.675552,0.333590,-1.016026,0.786894
6386093537,60.131874,73.656158,105.894165,0.888913,0.075798,0.665428
6386113538,-79.852936,68.981506,108.044273,1.467935,-0.144974,0.064958
6386133539,-114.383507,62.698906,198.016647,1.129168,-1.023647,-0.053568
6386153542,34.703102,76.119553,255.029724,0.942430,-1.003549,-0.012064
6386173543,139.298218,88.272652,267.088928,1.176287,-0.191178,0.190343
6386193544,105.149605,101.903442,265.564484,1.150323,0.304940,0.351575
6386213544,34.175671,110.733971,267.094971,0.807495,0.318066,0.436949
6386233545,-31.879507,99.541718,253.768631,0.583121,0.128935,0.355501
6386253546,-64.082413,81.760712,224.792084,0.786571,0.045604,0.214343
6386273567,-75.174843,63.386963,194.262726,1.001606,0.036456,0.096972
6386293546,-48.491447,63.473164,165.217377,0.942999,0.058651,0.061926
6386313547,-3.548808,68.374977,133.391815,0.701133,0.172729,0.052265
6386333548,14.770941,54.883106,101.383690,0.445238,0.478793,0.141950
6386353549,-40.867393,27.787687,62.312519,0.378097,0.386923,0.229250
6386373549,-154.185272,-6.121131,15.389215,0.685249,-0.228643,0.421314
6386393550,-170.707153,-44.045437,-13.544847,0.764504,-0.881024,0.339369
6386413551,-56.285988,-43.984951,-54.017494,1.214881,-1.000565,0.492142
6386433553,110.618660,59.500549,-25.634396,1.746861,-1.075016,0.797559
6386453553,174.148041,151.725388,-3.628242,1.072390,-0.430719,1.160695
6386493556,3.615932,163.899246,-61.031773,0.354701,0.755938,0.710898
6386513557,-139.934418,102.844238,-121.479118,0.345459,0.744528,0.306434
6386533558,-186.219910,115.213600,-158.636490,0.265160,-0.058938,0.305930
6386553559,-162.881134,113.651665,-194.810059,0.303210,-0.357385,0.629062
6386573560,-212.379898,6.639462,-195.930313,0.116931,-0.804202,-0.708566
6386593561,-55.312244,5.191734,-239.782639,0.631386,-1.833729,-0.442469
6386613584,210.304626,-42.417789,-228.355209,0.193866,-2.010883,-0.396628
6386633561,344.849487,-171.009964,-322.702240,-0.441929,-0.897326,0.112749
6386653562,387.881866,-295.279144,-382.545013,0.575874,0.444453,0.070272
6386673563,252.887344,-367.470001,-497.141418,1.685344,1.820464,-0.074245
6386693564,-72.742828,-387.081543,-489.113251,4.004954,3.475040,-0.278997
6386713565,-380.839874,-272.491943,-361.240417,1.895338,2.402868,-0.572372
6386733566,-817.639404,-329.871429,-324.218109,7.401958,-7.462302,1.869996
6386753567,367.610291,244.896103,205.331711,0.074234,-3.614229,1.622440
6386773568,309.976257,17.143202,-8.699776,-0.357625,0.964924,-0.929435
6386793569,148.218231,102.203362,-21.972075,0.811730,0.048650,0.019802
6386813570,44.962475,56.098450,90.844383,0.928628,-0.458087,0.915573
6386833572,-12.484638,64.491486,101.502640,1.479203,0.380267,0.321803
6386853573,-123.129181,66.065376,128.537796,1.252664,-0.073257,0.025019
6386873574,-114.342957,54.469215,187.779449,0.807190,-1.068663,0.147934
6386893575,65.494576,61.966583,229.358673,0.668972,-0.863943,0.184444
6386913576,167.722000,70.446945,238.907196,1.099616,0.016093,0.356506
6386933577,133.781784,96.754845,246.580322,1.342472,0.564838,0.534321
6386953594,26.754688,107.179146,241.162857,1.158530,0.507984,0.602212
6386973577,-55.130703,96.822327,230.648392,1.038222,0.246444,0.455697
6387013579,-49.835033,72.139549,204.389191,0.897518,-0.157934,0.258175
6387033580,41.740677,95.327858,178.142029,0.789848,-0.070343,0.241789
6387053581,76.253708,104.108551,136.330612,0.811119,0.405544,0.234509
6387073581,18.009398,79.897736,91.323174,0.732019,0.872946,0.228812
6387093582,-92.980995,36.388081,43.954006,0.639347,0.986406,0.130267
6387113583,-187.804779,4.814443,-1.225324,0.538644,0.429170,0.090564
6387133584,-216.629303,-9.523011,-48.319328,0.511696,-0.144237,-0.112246
6387153585,-197.872665,-27.501574,-95.386192,0.469143,-0.281017,-0.280874
6387173587,-122.867599,-43.748005,-142.611450,1.255967,-0.426718,0.066879
6387193588,34.183754,50.514301,-116.238953,1.699427,-1.417720,0.410663
6387213589,108.091782,97.156158,-164.648621,1.185091,-0.543142,1.399535
6387233590,-74.086357,-82.491722,-207.959747,-0.112441,0.399132,0.292171
6387253590,-297.314819,-229.917313,-269.559021,0.827703,-0.188534,-1.761320
6387273592,39.597027,-119.149826,-314.863129,1.271660,-1.235709,-0.895366
6387293591,330.073242,-176.840485,-361.912079,0.069596,-0.437296,-0.161998
6387313592,319.079956,-316.855255,-392.354034,0.694716,1.450345,-0.864728
6387333593,92.512413,-324.623596,-404.271118,1.347403,1.474205,-0.765117
6387353594,-119.826515,-328.828033,-413.518494,2.014564,1.752315,-0.664251
6387373595,-281.577728,-348.735474,-384.974579,2.310886,2.901499,-0.959872
6387393596,-579.815552,-246.837616,-162.553543,6.275154,-1.868528,0.569923
6387413597,-551.306091,228.975494,126.084694,1.985959,-4.302866,0.235216
6387433597,36.884369,30.761177,21.051853,-0.166155,0.516316,-0.238041
6387453598,21.352268,-43.281593,-11.948235,1.116788,1.621073,-1.299938
6387473599,-302.851898,4.462564,-34.667233,1.315051,-0.238682,-0.369971
6387493600,-310.147400,-10.013601,31.675119,0.692087,-1.037814,-0.503162
6387513603,-45.116009,-14.984207,93.189133,0.396775,-0.412492,-0.370708
6387533603,7.589888,-18.011406,54.836235,0.588420,0.169603,-0.168015
6387553605,-38.037666,-34.271229,43.020226,1.053671,0.280100,-0.288719
6387573605,-82.032990,-10.216229,113.846764,1.276595,0.000378,-0.041182
6387593606,-108.636154,-4.084645,184.333130,0.739471,-0.134243,0.154969
6387613607,-79.354462,-10.956941,183.531387,0.371227,-0.314437,0.027513
6387633607,-4.908939,17.733486,156.106430,1.936611,-0.285130,0.360622
6387653608,32.890499,79.373955,139.779327,2.198836,0.525358,0.549661
6387673608,-46.008457,87.347305,119.615784,0.890582,0.717927,0.277942
6387693609,-197.932617,36.290279,106.543213,0.810923,0.252927,0.089172
6387713610,-271.329987,6.775459,87.238808,0.992072,-0.611813,-0.127773
6387733611,-123.891525,9.321178,61.574780,1.069526,-1.089057,-0.157971
6387753612,49.168575,21.397596,38.151894,0.954427,-0.887632,-0.037988
6387773613,114.453522,8.802065,28.700375,0.540924,-0.609718,0.118955
6387793614,81.728920,-24.686146,17.351883,0.489476,-0.607351,0.233516
6387813615,38.074093,-49.701168,4.723021,0.749738,-0.750726,0.224201
6387833617,41.573643,-59.404087,-15.166840,1.119836,-0.840992,0.188357
6387853618,90.735329,-50.830269,-33.767467,1.368793,-0.931018,0.167709
6387873619,186.478622,-25.224417,-31.402742,1.272324,-0.875075,0.173359
6387893620,242.891281,4.730017,-26.096718,0.955426,-0.592910,0.090761
6387913621,238.529602,46.299191,-27.549517,0.249039,-0.006510,-0.113631
6387933622,247.805573,42.711361,6.416204,0.133319,0.551747,0.083323
6387953623,225.610825,27.091358,49.167477,0.779077,0.627084,0.142576
6387973622,171.079025,25.274424,81.060837,1.014508,0.742925,0.239035
6387993623,84.577621,1.757095,98.721878,0.691303,0.667885,0.392550
6388013624,14.476008,-22.395565,91.537041,0.538948,0.235890,0.414164
6388033624,9.213730,-36.677807,73.600189,0.724412,-0.116111,0.287989
6388053625,60.271187,-36.153637,61.509640,0.943351,-0.161857,0.217102
6388073626,125.201996,-31.141991,65.096375,1.096231,-0.114521,0.244823
6388093627,189.834366,-25.375502,75.003708,1.153809,-0.013970,0.400568
6388113628,218.340088,-27.038176,75.739761,1.018865,0.125781,0.583691
6388133629,187.834595,-43.550259,58.217117,0.735722,0.295051,0.710686
6388153630,114.221222,-72.998695,33.426670,0.541268,0.316433,0.741603
6388173632,46.199829,-100.070480,3.356369,0.607352,0.137935,0.664558
6388193633,16.596418,-115.419731,-20.939083,0.881520,0.003990,0.496247
6388213634,35.112026,-107.542336,-27.556805,1.072174,-0.023459,0.366142
6388233635,87.298691,-85.575790,-9.489171,1.056831,-0.116794,0.319806
6388253636,138.953949,-66.315895,8.304381,1.066349,-0.221615,0.276360
6388273637,184.311890,-46.938751,16.429415,1.139618,-0.167985,0.295612
6388293638,211.754593,-26.772900,22.656881,1.146285,-0.027641,0.431442
6388313637,199.602051,-22.798130,28.842237,1.084736,0.062862,0.597909
6388333638,153.822067,-27.716162,33.937225,1.025412,0.067373,0.666476
6388353639,103.828415,-33.164070,22.692493,0.928979,-0.028512,0.626752
6388373640,76.927879,-26.676590,14.403896,0.859807,-0.155309,0.512797
6388393641,70.176430,-13.402697,11.729996,0.878251,-0.177092,0.402763
6388413642,71.803719,2.535988,21.369862,0.961486,-0.178343,0.298903
6388433643,81.535736,16.789822,39.180027,1.074461,-0.240518,0.237965
6388453644,98.129707,21.351971,64.282944,1.149532,-0.330274,0.251685
6388473645,123.394234,18.485512,92.556442,1.181846,-0.391880,0.231703
6388493645,154.059250,20.815174,118.311951,1.195174,-0.354546,0.217672
6388513648,165.500946,18.582891,138.575241,1.091970,-0.316325,0.270867
6388533648,155.061295,6.714582,147.757919,1.020889,-0.260063,0.323743
6388553649,133.071533,-6.548809,151.702972,1.041259,-0.219589,0.336279
6388573650,113.176628,-17.236353,156.607086,1.057358,-0.238963,0.334003
6388593651,108.383163,-26.604038,160.965057,1.030025,-0.260163,0.330313
6388613652,107.670013,-39.318562,164.628036,1.054509,-0.207137,0.349448
6388633653,105.873459,-48.446175,165.065201,1.061913,-0.203090,0.401819
6388653653,106.869537,-64.412209,154.417953,0.992959,-0.213175,0.408029
6388673653,99.846313,-79.559311,131.485107,0.855798,-0.130547,0.356852
6388693654,86.056641,-95.930313,103.656761,0.762861,-0.148339,0.303557
6388713655,86.288910,-119.160538,67.041008,0.655058,-0.210539,0.256816
6388733656,93.109116,-153.445374,36.342365,0.706943,-0.330642,0.167420
6388753657,146.209763,-164.152557,4.383120,0.873532,-0.431547,0.109441
6388773658,233.684082,-142.215347,-35.837624,0.913253,-0.144355,0.201297
6388813659,149.969147,-137.708282,-59.861916,0.922927,0.612329,0.893687
6388833661,16.426903,-167.712250,-42.283371,1.063152,-0.011039,0.318610
6388853663,77.346237,-135.879807,-41.923214,1.376885,-0.734441,0.277514
6388873664,193.018692,-117.602760,-37.625275,1.376968,-0.293600,0.248303
6388893665,215.054550,-109.240433,-41.160740,1.262900,0.078547,0.338035
6388913665,213.299377,-111.512817,-52.001877,1.210310,0.024585,0.396075
6388933666,220.877396,-118.267197,-58.556499,1.333928,0.087352,0.296199
6388953667,220.191589,-125.184975,-69.138283,1.331857,0.277346,0.293076
6388973669,185.499451,-128.910553,-81.159859,1.161442,0.411158,0.319954
6388993668,159.440048,-123.625099,-104.630325,1.019131,0.371321,0.425400
6389013669,140.172028,-117.881622,-127.168755,0.884919,0.325944,0.377952
6389033670,140.752945,-104.466125,-142.408096,0.855472,0.194112,0.314096
6389053670,152.245407,-102.882179,-147.338959,0.986272,0.190559,0.196065
6389073671,142.542587,-99.336945,-149.985657,1.242465,0.275358,0.199622
6389093672,109.501144,-90.968559,-146.217377,1.128879,0.337586,0.326868
6389113673,109.401657,-94.430763,-130.113449,0.992580,0.413710,0.438712
6389133674,74.172363,-82.046677,-115.212769,1.174058,0.558740,0.354208
6389153675,11.491911,-58.728237,-106.984459,1.418279,0.511262,0.396620
6389173676,-3.267195,-8.259456,-70.486618,1.693626,-0.055990,0.544476
6389193678,50.496666,60.159027,0.702971,1.630426,-0.614014,0.524410
6389213679,106.526222,83.908524,59.834576,1.179589,-0.400727,0.461408
6389233680,87.667046,103.448380,70.668793,1.041369,0.009555,0.410476
6389253681,24.708279,139.953232,71.201271,1.071388,-0.005274,0.396959
6389273682,-12.918689,156.779419,85.598816,1.110197,-0.161961,0.418913
6389293683,-15.986269,146.028641,106.620529,1.141010,-0.255810,0.449489
6389313684,2.105433,145.177994,126.315224,1.181589,-0.375239,0.492142
6389333683,27.748085,154.847336,138.624756,1.172251,-0.554999,0.583655
6389353684,52.367283,150.760468,138.774017,1.141068,-0.620765,0.585446
6389373685,74.800529,136.934616,129.075470,1.178530,-0.475955,0.450057
6389393686,68.990486,119.755386,125.554993,1.322064,-0.179336,0.382546
6389413687,48.645668,104.497429,142.549622,1.109543,-0.151521,0.308921
6389433688,38.548801,84.404297,150.848511,0.626855,-0.359461,0.245594
6389453689,53.613159,55.839363,139.981339,0.222155,-0.477166,0.181027
6389473690,84.209435,26.262238,111.189377,0.236785,-0.446070,0.228494
6389493691,94.986328,9.558088,80.704536,0.636178,-0.379838,0.315599
6389513692,93.817429,9.299144,49.166206,0.983498,-0.456131,0.434745
6389533694,92.629601,6.732003,16.452929,0.795573,-0.661573,0.328374
6389553695,121.574753,-6.671509,-1.720147,0.389004,-0.381924,-0.056558
6389573695,170.911972,-22.345146,36.699764,0.574499,0.069245,0.014908
6389593696,190.126953,-27.196585,127.499237,1.118726,0.127405,0.178119
6389613697,206.896957,-20.193987,191.840866,1.120297,0.139716,0.380082
6389633698,228.652039,-10.370745,177.721786,0.929646,0.059935,0.582893
6389653699,220.297714,-21.852724,143.698563,0.727220,0.359389,0.810772
6389673699,134.786407,-41.892750,126.237984,0.517965,0.547464,0.824019
6389693699,27.611574,-60.902756,113.818855,0.319085,0.330029,0.714529
6389713700,-26.747471,-73.085266,99.584862,0.246706,-0.033005,0.636006
6389733701,-23.540689,-68.678757,80.209938,0.329749,-0.502328,0.621249
6389753702,43.800426,-56.918949,81.999626,0.675255,-0.778089,0.634802
6389773703,119.278343,-46.411446,106.175865,0.809605,-0.561731,0.789358
6389793704,120.407166,-53.353722,109.348312,0.701024,-0.279218,0.912631
6389813705,75.538994,-79.056923,102.085648,0.720046,-0.169422,0.926733
6389833706,49.463486,-91.531548,104.305527,0.641195,-0.272418,0.727393
6389853707,63.645950,-80.806343,100.757225,0.396650,-0.340133,0.651721
6389873709,83.587624,-80.765976,105.058357,0.295802,-0.404371,0.606267
6389893710,92.652344,-89.233749,112.882660,0.339089,-0.444276,0.530876
6389913711,101.193253,-97.531509,124.128281,0.365742,-0.397499,0.535807
6389933712,97.631615,-102.091743,121.885414,0.456356,-0.416182,0.571487
6389953713,126.073441,-88.563431,113.258911,0.692272,-0.556413,0.599642
6389973713,149.139481,-73.678612,111.011452,1.007054,-0.526537,0.638109
6390013714,105.129074,-109.441658,97.224640,1.096011,-0.468927,0.755424
6390033715,116.692932,-113.709747,106.188766,1.284211,-0.485756,0.779378
6390053716,126.180542,-97.682426,152.459137,1.230007,-0.627090,0.796145
6390073717,153.088745,-77.408028,171.759415,1.244070,-0.421333,0.806717
6390093717,153.487442,-51.335938,162.732971,1.050142,0.200666,0.882593
6390113719,76.702637,-55.920425,124.423882,0.737861,0.547586,0.783450
6390133719,-9.341363,-66.122437,79.381149,0.669982,0.506949,0.574778
6390153720,-55.744244,-71.380630,47.327374,0.926481,0.203821,0.392652
6390173721,-40.871830,-64.955589,29.622648,1.097361,-0.067448,0.302490
6390193722,9.222013,-53.975677,22.238672,1.036762,-0.248633,0.370978
6390213725,61.379200,-35.950878,2.958374,0.882790,-0.092484,0.458519
6390233725,70.223930,-21.080383,-35.267708,0.725385,0.301700,0.607314
6390253726,36.137550,-15.587363,-95.718803,0.683398,0.703394,0.759528
6390273727,-75.686249,-49.591652,-158.857880,0.488557,1.112150,0.823073
6390293728,-243.393417,-125.401802,-203.063004,0.517161,0.546819,-0.105295
6390313729,-157.054840,-79.282372,-267.630035,1.129787,-0.723993,-0.419293
6390333730,114.557503,-68.252678,-266.564941,1.182720,-0.981922,-0.380864
6390353729,246.018356,-132.131195,-310.602448,0.204595,-0.527787,0.086124
6390373730,227.868042,-251.087219,-342.383881,0.826099,0.631051,-0.202996
6390393731,124.335632,-303.766571,-369.972046,1.944701,1.153470,-0.554776
6390413732,-76.277153,-290.818268,-411.959412,2.643247,1.627188,-0.612306
6390433733,-293.646515,-339.546661,-351.402466,1.701301,2.119602,-1.037732
6390453734,-437.662689,-293.247345,-387.233704,2.571990,1.202170,-0.656389
6390473735,-718.411621,-1.120962,47.520496,5.739801,-5.506268,1.236686
6390493735,-97.761375,159.495071,34.974922,0.137797,-0.701979,0.729381
6390513737,-26.134413,-89.192780,-34.176819,0.417317,1.661767,-1.557083
6390533737,-56.787178,15.791127,-55.106903,1.008954,-0.419159,-0.590295
6390553740,-206.900848,32.483925,-81.314926,1.216391,-1.389880,-0.023894
6390573741,2.989886,6.825104,6.960038,1.033946,-0.656008,-0.289038
6390613743,0.006122,-6.930783,55.496994,1.276075,0.790690,-0.361734
6390633744,-80.235558,44.493465,43.471474,0.953906,0.419461,-0.125120
6390653744,-95.571503,30.638151,42.251656,0.933517,-0.155764,0.094679
6390673745,-79.003441,22.229809,90.021507,1.273814,-0.240205,0.345505
6390693745,-60.801426,41.169884,146.399155,1.239436,-0.094749,0.333073
6390713746,-39.652405,88.848457,170.389099,1.045926,-0.307327,0.316877
6390733747,-25.764820,107.631882,203.776382,1.177696,-0.480106,0.279446
6390753748,4.651555,129.296448,224.072647,1.432686,-0.305822,0.340724
6390773748,1.347708,156.323441,245.737305,1.408859,0.080189,0.376787
6390793749,-29.665138,193.485428,255.962021,1.157405,0.157900,0.428886
6390813750,-55.299522,212.726990,251.151108,0.842501,0.144828,0.344825
6390833751,-67.178131,205.164856,241.170547,0.665976,0.083789,0.245654
6390853752,-102.015823,163.336929,230.606644,0.974030,0.167157,0.130717
6390873753,-126.881027,115.263451,222.624481,1.290489,0.310243,0.002359
6390893755,-121.837585,78.958839,181.281235,0.990206,0.169521,-0.080323
6390933757,-61.413074,14.646539,85.066368,0.445382,0.003159,-0.131688
6390953758,-42.001278,4.970969,20.374006,0.656758,-0.053262,0.037595
6390973759,28.224518,22.582218,-29.118320,0.831112,-0.346159,0.283476
6390993760,106.746910,62.712299,-94.291260,1.258711,0.130868,0.830762
6391013761,80.119324,110.915787,-81.317291,1.439523,-0.050460,1.177066
6391033760,9.505890,136.921021,-67.487015,1.222287,-0.152276,1.001307
6391053761,-64.007019,95.215431,-97.914253,0.461448,0.252715,0.465027
6391073762,-149.581146,-18.230894,-182.182434,0.060883,1.195529,0.444775
6391093763,-405.493073,-136.425613,-190.881165,0.107499,0.258458,-1.328751
6391113764,-191.318008,-11.925362,-249.563263,1.410054,-2.353618,-0.870229
6391133765,230.165314,-13.009016,-276.781799,0.178822,-2.644178,-0.345363
6391153766,449.263550,-187.173203,-363.823120,-0.249123,-0.387048,-0.559579
6391173767,392.477722,-298.825714,-402.764160,0.496370,1.317154,-0.282807
6391193767,80.092552,-377.822784,-447.456635,2.440804,2.314901,-0.581583
6391213768,-279.843658,-334.965607,-340.201202,3.164515,3.715948,-0.520022
6391233770,-648.878540,-324.638275,-445.332977,3.788383,-1.078750,1.572714
6391253772,-541.175842,33.115208,38.325623,5.162185,-6.713150,-0.324530
6391273772,369.969208,109.233040,50.696678,-0.669601,-0.150963,1.383958
6391293773,211.675751,-40.529270,-143.485474,0.640942,1.281482,-1.100294
6391313774,-100.239426,-13.113326,-84.027229,1.388486,0.267818,0.276553
6391333775,-170.413300,-12.320612,-25.324585,0.653019,-0.108497,0.314062
6391353776,-172.402145,-34.086235,-17.602301,0.621476,0.110129,-0.056944
6391373775,-134.899551,-31.989202,-29.235312,0.790872,-0.105645,-0.082845
6391393777,-11.703421,-10.293602,-36.143059,0.829274,-0.293919,-0.089874
6391413778,104.292458,5.142421,-14.727618,0.889885,0.071574,-0.047538
6391433778,124.810226,14.089515,6.347847,0.824091,0.593823,0.165524
6391453779,1.936140,-14.218199,1.793904,0.756331,1.068740,0.079281
6391473781,-120.490891,-40.456623,17.647953,0.752733,0.924455,-0.155884
6391493781,-134.785126,-61.287460,28.720322,0.889463,0.386914,-0.379581
6391513782,-92.867393,-71.995049,11.114111,0.836107,0.013214,-0.324025
6391533783,-25.821602,-77.473114,24.579882,0.540906,-0.123706,-0.279558
6391553784,68.427597,-103.903419,23.706823,0.451554,-0.367339,-0.208849
6391573786,163.640533,-60.204197,2.836777,1.745516,0.078466,0.399358
6391593787,168.843719,-8.294308,-49.538548,1.158680,1.909827,0.428890
6391613788,-76.354568,-48.650467,-116.264824,0.484819,2.222965,0.596991
6391633789,-371.179504,-65.143616,-114.204979,1.150268,0.723772,-0.167681
6391653790,-272.859985,-42.138191,-61.570629,1.423831,-0.816661,-0.672139
6391673791,-25.493576,0.832587,-0.208447,1.333760,-1.059606,-0.230470
6391693792,100.460289,18.439556,23.461868,0.963313,0.072205,0.105341
6391713791,74.471779,14.187835,16.654060,0.834104,0.833585,0.234093
6391733792,-30.615234,8.794998,-4.491973,0.701622,0.806168,0.116606
6391753793,-85.509827,1.584069,-22.279753,0.732426,0.396758,-0.044997
6391773794,-59.863541,0.932375,-28.807789,0.749342,0.391292,-0.046203
6391793795,-50.696865,-2.630929,-30.338173,0.940420,0.560457,-0.005374
6391813796,-67.868080,-2.855220,-29.924353,1.009010,0.497282,-0.036825
6391833797,-85.487892,-9.396927,-28.993484,1.043931,0.368494,-0.027653
6391853798,-80.233650,-10.300494,-23.405079,1.132602,0.360909,0.005647
6391873799,-82.001617,-10.002751,-22.760010,1.071534,0.427958,0.039394
6391893799,-76.632996,-12.699934,-15.849310,1.031311,0.367329,0.012008
6391913801,-62.907734,-11.380458,-7.543519,1.032874,0.397482,0.005996
6391933802,-58.098808,-8.281698,0.863329,0.854597,0.501369,0.007348
6391953803,-73.185593,-14.562179,0.481956,0.829802,0.577127,-0.001727
6391973804,-98.207924,-22.937098,-3.712600,0.820971,0.608608,-0.082753
6391993805,-119.887680,-28.505329,-15.511685,0.910465,0.594337,0.037223
6392013806,-153.770645,-19.974037,-18.161743,0.994573,0.541359,0.175982
6392033807,-195.085342,-25.910513,-12.938149,0.975905,0.328264,-0.042953
6392053806,-176.457336,-30.032604,-19.015629,0.806931,0.036340,-0.072551
6392073807,-134.945114,-26.825233,-15.853285,0.956271,-0.179179,-0.046756
6392093808,-84.356758,-23.307964,-17.589783,0.912354,-0.122533,-0.022072
6392113809,-63.198975,-25.134239,-35.012230,0.941605,0.013970,0.043899
6392133810,-52.025002,-28.129763,-39.464909,1.099275,0.040823,0.127534
6392153811,-39.028347,-30.312746,-37.029396,1.011785,0.067068,0.142121
6392173812,-16.742344,-33.045120,-32.361629,0.945159,0.237928,0.199120
6392193813,-23.566992,-36.080486,-30.082493,0.991145,0.444085,0.189665
6392213814,-51.382126,-42.149834,-27.214960,0.989992,0.468318,0.109010
6392233815,-69.074234,-46.146500,-26.690462,0.961002,0.320031,0.083814
6392253817,-58.061089,-49.520069,-28.929285,0.924236,0.314463,0.046861
6392273818,-44.546783,-49.694126,-31.931168,0.859958,0.377812,0.039676
6392293819,-43.357830,-48.169010,-32.817432,0.860995,0.433500,0.038557
6392313820,-54.512085,-50.346973,-32.407043,0.996172,0.405246,0.087602
6392333821,-62.791634,-51.801205,-25.530830,1.071380,0.340813,0.009809
6392353822,-58.511223,-48.742565,-21.118635,1.016821,0.279366,-0.013422
6392373825,-53.399559,-46.808365,-21.849892,0.857639,0.333979,0.060485
6392393822,-66.322853,-53.331841,-25.598955,1.020610,0.383169,0.105701
6392413823,-70.104263,-51.510601,-23.226542,1.139606,0.196469,0.048470
6392433824,-46.724937,-45.623482,-17.204561,1.083034,0.146985,-0.012089
6392453825,-32.652279,-41.312744,-13.085952,1.018910,0.318304,0.017197
6392473826,-47.283325,-40.951065,-17.899532,0.859439,0.402311,0.029352
6392493826,-58.719196,-45.722126,-22.666445,0.956375,0.253810,0.016920
6392513828,-45.338257,-44.148090,-18.821045,0.920144,0.203923,-0.016246
6392533829,-29.922867,-41.025352,-18.457254,0.867368,0.295558,0.032714
6392553830,-29.276701,-39.765381,-19.301844,0.997307,0.391192,0.034650
6392573831,-36.321819,-35.848007,-19.044243,1.013463,0.344554,0.071104
6392613833,-35.147743,-36.112503,-17.832514,0.932789,0.306007,0.002198
6392633834,-29.585396,-35.886513,-16.711447,1.016246,0.291339,0.009284
6392653835,-31.379797,-35.011456,-13.295115,0.958809,0.356893,0.051939
6392673836,-41.885704,-35.581100,-12.613797,0.967692,0.362723,0.059601
6392693837,-37.927517,-34.294563,-10.684679,1.017117,0.257386,0.020122
6392713855,-27.699829,-33.213306,-8.122129,1.053454,0.275075,0.026875
6392733838,-27.994017,-31.156128,-5.379151,0.960148,0.349568,0.024882
6392753838,-30.889303,-31.661922,-9.284890,0.852734,0.329291,0.024203
6392773839,-23.503241,-31.281544,-8.294443,0.971352,0.273151,0.024892
6392793840,-15.845217,-28.435810,-4.983418,0.969513,0.327196,0.038090
6392813841,-16.121134,-27.238468,-3.475317,0.943657,0.356859,0.046222
6392833842,-15.142527,-23.678923,-1.542894,0.971115,0.348088,0.026657
6392853843,-13.614101,-21.623377,0.317842,0.930496,0.359477,0.025435
6392873844,-18.899965,-21.657932,1.162872,1.010162,0.389714,0.039363
6392893845,-22.008749,-19.431522,2.534861,0.970970,0.349197,0.059477
6392913846,-18.777489,-18.755405,5.564370,1.056827,0.300455,0.033086
6392933848,-9.271946,-14.136827,10.804349,0.996415,0.306261,0.069788
6392953849,-9.341958,-13.327867,15.793765,1.095651,0.336227,0.093769
6392973850,-14.713221,-7.884434,23.788126,1.040983,0.251445,0.059585
6392993851,-15.444462,-5.010735,29.660326,0.924526,0.182067,0.076536
6393013852,-16.298779,-2.189774,33.967861,0.827952,0.108254,0.041671
6393033853,-0.522098,5.427301,28.731716,0.853535,0.063717,0.041974
6393053852,26.635567,7.694546,27.685465,0.907418,0.176535,0.039415
6393073853,36.445271,6.768889,21.534985,0.883180,0.343026,0.006329
6393093854,37.317440,-2.031646,16.897303,0.921012,0.419302,-0.038884
6393113855,36.562996,-4.615279,11.828506,0.916911,0.501970,-0.023503
6393133856,21.125629,-9.795649,1.929379,0.945737,0.608242,0.019303
6393153856,-7.161124,-16.161304,-5.017933,0.924946,0.629135,0.031908
6393173857,-33.010151,-19.918877,-12.056597,0.925235,0.510131,0.038209
6393193858,-40.192722,-20.665255,-14.550983,0.982908,0.387869,0.028901
6393213859,-38.740570,-13.756620,-11.967163,1.027707,0.323401,0.068745
6393233860,-46.159744,-4.086593,-4.696945,1.022998,0.274709,0.114963
6393253862,-48.767757,2.904008,8.057763,0.968657,0.136850,0.088530
6393273864,-30.241241,8.666730,12.286233,0.919793,0.007416,0.023712
6393293865,6.036940,9.006860,9.003248,0.944990,-0.008358,-0.050224
6393313866,50.683990,9.078183,10.326449,0.961232,0.094979,-0.104098
6393333866,86.656387,10.643350,9.562287,0.899724,0.268121,-0.032489
6393353867,75.884750,4.682260,1.826396,0.872930,0.515931,0.073806
6393373868,35.145340,-10.796365,-4.695951,0.799705,0.659395,0.055176
6393393867,-4.579606,-26.029627,-13.572240,0.858872,0.599764,0.016005
6393413868,-19.131620,-28.206408,-19.826147,0.995918,0.445948,0.015643
6393433869,-9.765384,-21.761147,-20.255318,1.084301,0.381547,0.067600
6393453870,-9.342027,-11.759314,-13.949547,1.039160,0.374226,0.130745
6393473871,-20.481020,-8.007679,-7.585424,0.975149,0.256083,0.146419
6393493872,-22.860245,-6.874609,-1.530621,0.982888,0.149671,0.059014
6393513873,0.975696,2.090816,4.300535,0.999398,0.124766,-0.056009
6393533874,33.932888,10.665627,10.350174,0.952541,0.169503,-0.092925
6393553875,58.110058,10.617558,19.473145,0.853990,0.284400,-0.099787
6393573876,66.819572,6.855450,20.803095,0.867703,0.423793,0.005389
6393593877,48.322563,3.580680,21.943544,0.955810,0.500786,0.072046
6393613879,15.930651,2.500377,24.186218,0.965865,0.462961,0.073731
6393633880,-6.757496,-0.060470,27.090422,0.922042,0.371492,0.020330
6393653881,-7.919441,-0.905637,29.903717,0.913630,0.301384,-0.037968
6393673882,3.330652,2.246071,29.070507,0.979166,0.313279,-0.056190
6393693883,13.944737,11.507942,26.776232,1.107465,0.350276,-0.018707
6393713884,36.798000,27.550339,30.603968,1.086886,0.293759,0.035316
6393733885,58.920216,40.670158,33.521175,0.990612,0.264947,0.077297
6393753884,46.894714,46.129234,35.983147,0.947779,0.358785,0.117018
6393773885,6.802154,43.495796,29.232426,0.937071,0.384425,0.190402
6393793886,-38.666065,35.118713,18.823830,0.919760,0.293455,0.192082
6393813886,-67.754761,22.224466,9.424793,0.862757,0.231257,0.119125
6393833887,-80.579620,10.100938,-4.733220,0.808033,0.232927,0.046761
6393853888,-79.074478,0.659236,-18.892855,0.831957,0.259871,-0.010605
6393873889,-65.505852,-5.041644,-29.720047,0.829206,0.235988,-0.057425
6393893890,-42.419853,-12.383801,-45.006088,0.896315,0.295508,-0.061312
6393913891,-13.091584,-19.178261,-60.079948,1.101716,0.421804,-0.053705
6393933892,8.437941,-20.714314,-69.047348,1.127246,0.554879,0.002339
6393953894,4.602311,-21.017168,-79.021584,0.929220,0.632711,0.053058
6393973895,-16.618082,-27.597267,-93.318359,0.798004,0.719278,0.089083
6393993896,-43.084026,-38.321869,-110.019386,0.803006,0.751723,0.045033
6394013897,-67.784828,-45.196365,-125.765594,0.855146,0.755929,0.009646
6394033898,-82.213722,-51.895069,-133.641006,0.816174,0.687218,-0.047066
6394053899,-90.136230,-62.966797,-131.943573,0.773078,0.673740,-0.074476
6394073898,-86.110558,-68.417183,-130.842957,0.773682,0.583357,-0.081473
6394093899,-75.183212,-69.208084,-130.349731,0.802989,0.576594,-0.053253
6394113900,-65.609962,-74.457390,-126.942375,0.827818,0.617896,-0.027093
6394133901,-52.396206,-76.748344,-116.505272,0.776435,0.603634,-0.032591
6394153902,-31.798214,-75.842041,-104.383736,0.771434,0.555822,-0.039660
6394173903,-12.252976,-70.080994,-91.770241,0.827483,0.584172,-0.059143
6394193903,1.927660,-56.982479,-75.388634,0.849390,0.618337,-0.015116
6394213904,-6.759496,-52.138718,-57.421280,0.821859,0.660212,0.075180
6394233905,-30.812359,-62.307873,-43.647301,0.786530,0.665972,0.069628
6394253906,-56.052849,-65.163963,-32.059258,0.782770,0.656578,0.049210
6394273907,-65.759911,-55.870972,-20.384470,0.740249,0.589252,0.007766
6394293909,-51.955334,-39.103428,-12.057876,0.741272,0.525337,0.015143
6394313910,-24.605568,-26.100182,-3.221341,0.764385,0.550517,-0.001521
6394333912,1.051446,-10.428842,12.594622,0.791565,0.641787,0.038671
6394353912,-2.362079,-2.414838,21.966663,0.734951,0.775282,0.104007
6394373913,-19.855543,0.032070,24.338078,0.666781,0.802273,0.116771
6394393914,-35.019993,1.491418,25.639425,0.690101,0.733496,0.065157
6394413914,-24.222979,13.533616,27.739325,0.651213,0.649820,0.017341
6394433915,-4.855562,22.104879,24.883841,0.677728,0.694288,-0.012265
6394453916,10.130421,25.442616,18.804380,0.694955,0.761418,-0.041035
6394473917,16.550806,23.874884,13.538617,0.695350,0.817568,-0.017174
6394493918,16.523760,25.111895,9.019129,0.670711,0.779937,0.022835
6394513918,16.475513,21.715786,5.098288,0.643365,0.750880,0.035503
6394533919,20.789795,22.935900,2.831246,0.665190,0.711306,0.040345
6394553920,22.898371,24.964468,5.791358,0.645590,0.724799,0.033099
6394573921,20.101122,25.174269,8.204575,0.666654,0.770545,0.040270
6394593922,15.950531,27.563751,14.459354,0.662396,0.705243,0.044514
6394613923,18.614145,25.674408,19.661299,0.646288,0.633731,0.035508
