Timestamp (us),Gyroscope X (deg/s),Gyroscope Y (deg/s),Gyroscope Z (deg/s),Accelerometer X (g),Accelerometer Y (g),Accelerometer Z (g)
7691417314,-5.247436,-0.536097,1.051720,0.962132,0.069015,0.250126
7691437275,-6.139437,-0.890546,1.117607,0.963122,0.066529,0.254920
7691457236,-5.491794,-1.030143,0.801201,0.967589,0.058116,0.260877
7691477197,-3.145745,-0.833041,0.436778,0.971826,0.051591,0.265250
7691497158,-0.166598,-0.143439,0.172374,0.969273,0.052251,0.271294
7691517120,1.868311,0.587596,0.102112,0.968293,0.060696,0.263761
7691537081,2.373519,1.056999,-0.139782,0.966743,0.068343,0.257233
7691557042,1.393149,0.991035,-0.461678,0.963203,0.066549,0.250095
7691577003,1.925836,0.471238,-0.937274,0.952450,0.063838,0.243568
7691596964,1.306552,-0.790167,-1.415568,0.957666,0.066969,0.243794
7691616925,0.122879,-1.104465,-0.758731,0.962169,0.066232,0.246348
7691636886,0.647048,-0.854346,-0.347545,0.963972,0.060995,0.250018
7691656847,1.165906,-0.650944,-0.482743,0.970127,0.063793,0.259282
7691676810,1.470892,-0.080797,-0.110706,0.962798,0.066199,0.263206
7691696771,2.871192,0.143177,0.037785,0.960517,0.073856,0.256847
7691716732,3.055189,0.576239,0.121230,0.964361,0.077488,0.246841
7691736693,1.581219,1.166622,0.168602,0.964372,0.077111,0.245937
7691756655,0.460948,1.270023,0.642878,0.961931,0.070145,0.246461
7691776616,0.570635,0.441215,0.879751,0.961667,0.063712,0.247746
7691796576,0.744001,-0.046205,0.805159,0.963800,0.065753,0.252031
7691816538,0.387462,-0.060784,0.553551,0.962550,0.068861,0.252322
7691836499,0.579090,-0.267724,0.061182,0.963319,0.067889,0.254810
7691856460,0.969403,-0.163313,-0.339923,0.966623,0.065438,0.257370
7691876421,1.473676,0.237940,-0.437518,0.967920,0.066137,0.256380
7691896385,1.967647,0.274727,-0.268974,0.964019,0.066440,0.255666
7691916342,2.013122,0.137525,-0.352102,0.964073,0.064639,0.256881
7691936303,1.487951,0.337356,-0.141633,0.964060,0.067045,0.253563
7691956264,1.227044,0.186796,0.206843,0.962608,0.068339,0.253970
7691976225,1.173528,0.065180,0.153722,0.958037,0.070419,0.256220
7691996187,1.181690,-0.011278,-0.035872,0.959293,0.068039,0.256009
7692016148,0.899968,-0.185523,-0.150384,0.959489,0.067384,0.254839
7692036109,0.434574,-0.305380,0.015225,0.966929,0.068888,0.257319
7692056070,0.312504,0.106563,0.454391,0.969786,0.070295,0.256073
7692076031,0.556429,0.417954,0.636878,0.966707,0.069304,0.254485
7692095992,0.839420,0.606868,0.485743,0.960036,0.065269,0.253609
7692115953,0.915434,0.469523,0.379947,0.962526,0.065938,0.257560
7692135915,1.097648,0.286271,0.304929,0.966847,0.064299,0.254205
7692155876,2.552716,0.608444,0.210594,0.962606,0.064778,0.246653
7692175837,2.910278,0.424480,0.060262,0.966603,0.073177,0.251961
7692195798,1.426717,0.451993,0.040140,0.966627,0.075904,0.252008
7692215759,0.354165,0.341001,-0.130206,0.966281,0.069832,0.253012
7692235720,0.905529,0.619566,-0.652470,0.963923,0.062036,0.259015
7692255683,1.034793,0.581099,-0.667164,0.958482,0.058761,0.261245
7692275644,2.135594,0.494887,-0.192854,0.954839,0.066051,0.259875
7692295605,2.148851,0.259538,0.027635,0.960203,0.074823,0.254366
7692315566,1.007709,0.164051,-0.105014,0.962321,0.073956,0.252507
7692335527,0.514703,0.355392,-0.281485,0.966948,0.068046,0.255694
7692355488,0.734425,0.286539,-0.136457,0.968504,0.065079,0.259049
7692375449,0.620478,0.408719,-0.068712,0.966185,0.065232,0.261645
7692395410,0.652218,0.644216,-0.144853,0.961914,0.069954,0.258302
7692415372,1.109562,0.375743,-0.560358,0.961365,0.070053,0.258473
7692435332,1.177202,0.101629,-0.620440,0.958932,0.070423,0.257147
7692455300,0.979272,-0.126255,-0.802900,0.962681,0.075972,0.253847
7692475257,0.774231,0.133256,-0.659766,0.962538,0.071345,0.254375
7692495215,0.909628,0.004002,-0.431443,0.962558,0.068200,0.256886
7692515176,0.862987,0.050301,-0.173627,0.962211,0.069013,0.256320
7692535138,0.694952,0.020647,-0.060296,0.963401,0.074586,0.259073
7692555098,0.618190,0.059284,0.121538,0.962665,0.074600,0.259515
7692575060,0.802336,0.248482,-0.045103,0.961125,0.072409,0.257792
7692595021,0.443941,0.219497,0.097955,0.962623,0.073549,0.255980
7692614982,0.025431,0.197985,0.081425,0.962780,0.071095,0.256114
7692634943,-0.355430,-0.013937,-0.018179,0.964833,0.071386,0.258788
7692654904,-0.674488,-0.226471,-0.322493,0.966992,0.068821,0.258960
7692674865,-0.240133,-0.144339,-0.389485,0.969556,0.068140,0.257743
7692694827,0.460546,0.203590,-0.220722,0.962449,0.068492,0.258154
7692714788,0.712992,0.628828,-0.137040,0.959912,0.071360,0.253507
7692734748,0.400055,0.500742,-0.039220,0.955908,0.074423,0.255023
7692754709,-1.251556,0.231954,-0.180886,0.962529,0.072728,0.255718
7692774670,-0.308411,0.091968,-0.223096,0.959861,0.064074,0.252533
7692794632,0.978251,0.140855,-0.340348,0.959718,0.071189,0.254144
7692814593,0.140316,0.136335,-0.138196,0.967952,0.079043,0.256261
7692834555,-0.946988,0.436592,-0.043576,0.965457,0.080028,0.253467
7692854516,-1.646112,0.606036,-0.091676,0.965944,0.072825,0.258511
7692874478,-2.476645,0.304457,-0.109149,0.968268,0.061910,0.265926
7692894439,-1.162122,0.400112,0.380775,0.959423,0.062012,0.266673
7692914400,0.588090,0.600156,0.530458,0.952966,0.070893,0.260217
7692934361,0.483348,0.553987,0.097585,0.956265,0.074426,0.255484
7692974283,-0.633647,0.587353,-0.209733,0.964288,0.071848,0.258952
7692994244,-1.099766,0.246879,-0.081744,0.967274,0.071468,0.259924
7693014205,-1.434456,0.331708,-0.029851,0.963425,0.070441,0.255317
7693054126,-0.109270,0.387878,-0.245649,0.961465,0.067662,0.256601
7693074088,-0.034117,0.395673,-0.032908,0.961991,0.071077,0.254278
7693094049,-0.841039,0.261280,-0.073321,0.954742,0.073779,0.253646
7693114010,-1.702814,-0.085553,0.045780,0.956544,0.072493,0.254064
7693133971,-1.605303,-0.108096,0.334533,0.958308,0.071334,0.256847
7693153932,-1.659990,-0.160619,0.600060,0.962900,0.070965,0.259761
7693173893,-1.932779,0.083546,0.568436,0.964865,0.070430,0.261809
7693193854,-1.893201,0.273205,0.401317,0.967738,0.068052,0.262902
7693213816,-1.924147,0.258293,0.499899,0.961366,0.068850,0.263228
7693233777,-1.956116,0.144797,0.735235,0.964435,0.073711,0.262111
7693253738,-2.489542,0.177331,0.938338,0.965449,0.075156,0.262197
7693273699,-3.280517,0.255886,0.928017,0.964724,0.072410,0.260408
7693293660,-3.143233,0.445770,1.026849,0.959755,0.069026,0.261647
7693313621,-2.924628,0.034578,1.111669,0.955041,0.066111,0.264158
7693333582,-2.033619,0.069486,0.977952,0.954426,0.057849,0.258181
7693353544,0.769375,0.188761,0.455778,0.948375,0.061260,0.257104
7693373504,0.761465,-0.054878,0.304328,0.966122,0.069893,0.257105
7693393467,-1.331520,-0.040340,0.426410,0.975902,0.069657,0.260294
7693433389,-1.300457,0.241172,0.539933,0.960894,0.060897,0.259798
7693453351,-0.701058,-0.262815,0.466773,0.954260,0.054618,0.260872
7693473312,0.584400,-0.221007,0.607568,0.946881,0.063874,0.260767
7693493273,0.441142,-0.068760,0.455078,0.955591,0.071440,0.255976
7693513234,-0.965858,-0.095032,0.283501,0.959680,0.067557,0.254385
7693533195,-1.674476,-0.176135,0.425479,0.962054,0.063849,0.257403
7693553156,-0.923697,-0.748819,0.466763,0.961558,0.060683,0.258083
7693573117,-0.664200,-0.681432,0.353679,0.958444,0.062930,0.260357
7693593078,-0.608879,-0.583481,-0.010576,0.968447,0.059448,0.259323
7693613040,0.163018,-0.115097,-0.335070,0.967383,0.057681,0.262064
7693632999,1.129429,-0.087743,-0.324328,0.960086,0.064011,0.260825
7693652960,1.358229,-0.050617,-0.407111,0.956588,0.065191,0.258282
7693672921,1.045609,-0.194083,-0.392751,0.956006,0.065148,0.254903
7693692883,0.611427,-0.352478,-0.431896,0.959695,0.066627,0.252943
7693712844,0.223268,-0.488328,-0.531638,0.961384,0.063152,0.258950
7693732805,0.344365,-0.587471,-0.477964,0.962723,0.062704,0.260348
7693752766,0.693819,-0.512152,-0.287186,0.966408,0.064553,0.258837
7693772727,0.793176,-0.276487,-0.173369,0.967549,0.062012,0.259993
7693792688,0.649151,-0.032472,-0.075547,0.966592,0.068947,0.261136
7693832610,0.400340,0.256817,-0.319663,0.962528,0.068868,0.259060
7693852572,0.743299,0.384991,-0.326310,0.957893,0.063777,0.255689
7693872533,0.619697,0.157652,-0.121465,0.958856,0.068475,0.260638
7693892494,0.269850,0.112985,-0.198449,0.962807,0.063087,0.255517
7693912455,2.410735,0.386806,-0.556075,0.950649,0.066198,0.254515
7693932416,2.188718,-0.175663,-0.760882,0.966431,0.073433,0.256962
7693952377,0.362757,0.081502,-0.577565,0.975581,0.070814,0.258357
7693972339,-0.070072,0.577706,-0.329286,0.967888,0.066991,0.258824
7693992301,0.933497,0.582480,-0.143831,0.959995,0.065019,0.261353
7694012262,1.669708,0.321920,0.033548,0.953048,0.060900,0.260655
7694032224,1.957184,0.253173,0.338177,0.951967,0.069159,0.259043
7694052184,1.532425,0.200602,-0.004672,0.957099,0.078621,0.256979
7694072146,0.231400,0.242805,0.006144,0.962994,0.076106,0.257037
7694092107,-0.127783,0.054180,0.179796,0.961524,0.067598,0.258516
7694112068,0.334648,-0.281756,0.257720,0.966905,0.062758,0.260788
7694132029,1.173796,-0.140643,-0.088831,0.965579,0.061900,0.263328
7694151990,1.708760,0.229923,-0.269762,0.971891,0.067033,0.264543
7694171951,2.895323,1.380981,-0.813999,0.981732,0.072607,0.267273
7694191912,4.572858,4.711867,-1.959434,1.028658,0.089541,0.258750
7694211873,4.464793,16.716568,-7.609075,1.091225,0.112552,0.260431
7694231833,-6.194244,28.851170,-22.105085,1.020855,0.195863,0.338184
7694251794,-17.328983,22.152288,-39.185276,0.979208,0.332248,0.366966
7694271755,-32.737690,14.770226,-62.395638,1.051221,0.437573,0.372390
7694291716,-56.070358,5.913955,-86.275078,1.030736,0.485038,0.371328
7694311677,-75.272675,-1.302533,-105.050827,1.048320,0.468419,0.328850
7694331639,-71.695145,-5.219508,-122.192810,1.113126,0.449704,0.282174
7694351600,-61.045052,7.451326,-138.713867,1.048634,0.423070,0.273778
7694371561,-53.074059,7.123391,-141.624146,0.931823,0.396861,0.213876
7694391522,-40.716755,3.116959,-140.233994,0.854419,0.317211,0.163768
7694411483,-31.515396,3.119615,-135.665131,0.822866,0.278320,0.161095
7694431444,-39.722752,-2.459363,-124.557838,0.863203,0.203842,0.168974
7694451406,-55.678852,-9.509826,-112.494919,0.911493,0.103342,0.193269
7694471367,-68.619331,-10.147625,-98.579811,0.831403,0.016923,0.256686
7694491328,-61.175606,-7.619341,-70.053146,0.734929,-0.131675,0.295870
7694511289,-38.389084,-10.214717,-20.020466,0.700943,-0.463938,0.177027
7694531250,25.905653,-26.217585,27.877420,0.739277,-0.599205,0.129133
7694551212,90.133949,-25.581861,45.081413,0.953064,-0.040689,0.437614
7694571173,106.364609,-0.166453,29.227606,1.016554,0.644009,0.715045
7694591135,94.108665,10.759777,5.081986,0.961820,0.960472,0.548042
7694611097,60.067303,22.676968,15.387121,0.899506,0.651063,0.305918
7694631058,36.086700,26.193394,27.863091,0.980393,0.378984,0.256584
7694651019,22.479528,28.217909,33.491974,0.914070,0.255474,0.341987
7694670980,31.548922,21.684481,36.142471,0.827838,0.187964,0.320203
7694690941,58.845089,21.217611,40.187458,0.819085,0.205397,0.325130
7694710902,74.790710,25.254021,49.447662,0.833539,0.244070,0.331864
7694730864,80.692322,26.579027,59.642590,0.888579,0.277178,0.310021
7694750825,85.679855,29.356661,64.671516,0.916977,0.310597,0.296791
7694770786,89.014587,34.793308,65.752106,0.904242,0.317110,0.310474
7694790747,91.437241,39.164970,69.001846,0.912861,0.306865,0.312166
7694810707,94.104141,44.528458,77.980911,0.948361,0.262311,0.299159
7694830668,100.968597,52.023922,91.114494,0.990903,0.205699,0.299500
7694850629,106.220406,64.725342,103.779587,1.093038,0.244648,0.225519
7694870590,76.971184,80.265419,104.297218,0.973316,0.383286,0.328323
7694890551,54.847351,56.559433,87.426231,0.928937,0.379904,0.339129
7694930473,1.514754,47.966530,44.845612,0.765213,0.376132,0.188850
7694950434,54.126305,14.312957,29.268610,0.875808,0.245648,0.015445
7694970395,116.787842,13.147753,44.709373,0.988825,0.172858,0.165593
7694990357,84.123222,10.422738,52.073483,0.991452,0.429607,0.326075
7695010318,44.496582,14.717279,37.250603,1.102842,0.590005,0.371022
7695030279,26.863691,19.428286,18.667130,0.944539,0.387367,0.319715
7695050240,28.682884,7.163754,7.580572,0.889085,0.304801,0.147761
7695070201,34.101353,-1.335196,-8.539087,0.832576,0.537194,0.067519
7695090162,36.382122,-13.931046,-21.027664,0.872877,0.738291,-0.057878
7695110123,3.740459,-24.242674,-27.146114,0.929966,0.800965,0.010438
7695130084,-61.112938,-28.972189,-42.737099,0.986337,0.845861,0.242762
7695150045,-92.487946,-23.234322,-60.365719,0.985090,0.699617,0.274093
7695170008,-67.779617,-24.000660,-73.124207,0.900538,0.418054,0.086744
7695189969,-32.814335,-32.751167,-87.992256,0.861984,0.402537,-0.007230
7695209930,-22.827835,-39.311279,-104.623383,0.905478,0.625812,-0.005992
7695229891,-34.986996,-47.012970,-111.520477,0.938624,0.791201,0.026420
7695249852,-69.778702,-58.074299,-115.694427,0.974859,0.811818,0.038494
7695269814,-101.120407,-60.509293,-124.544952,0.991454,0.721413,0.046835
7695289775,-107.102371,-56.901165,-136.083252,1.009952,0.586582,0.101835
7695309736,-94.028778,-50.047768,-148.610764,1.021683,0.467426,0.123671
7695329697,-87.479408,-35.740467,-152.101624,1.017673,0.424114,0.279749
7695349658,-92.437378,-23.828161,-147.164749,0.976690,0.301703,0.271624
7695369619,-98.435951,-22.367903,-130.247192,0.949314,0.121662,0.092675
7695389580,-105.494934,-25.922909,-105.508545,0.902730,-0.001033,-0.082010
7695409540,-114.822815,-32.049419,-66.057693,0.789678,-0.181246,-0.109360
7695429501,-114.455597,-47.231430,-6.547990,0.712533,-0.338712,0.027213
7695449462,-115.507332,-57.240105,51.704636,0.706173,-0.383960,0.279350
7695469424,-118.015198,-52.934132,104.975159,0.733720,-0.398397,0.443184
7695489385,-94.291794,-50.658661,150.791534,0.851370,-0.412276,0.441380
7695509346,-50.190121,-48.021412,178.285599,1.152894,-0.279030,0.504737
7695529307,-12.360311,-41.512325,181.277252,1.243958,0.198658,0.525901
7695549268,24.127409,-35.562248,172.714233,1.091270,0.657312,0.496283
7695569229,17.962524,-40.440590,153.666901,1.101498,0.974894,0.420787
7695589191,-44.332218,-49.713886,95.157883,1.271793,1.537142,0.368896
7695609152,-140.194061,-47.650639,-17.591530,1.060225,2.143596,0.446599
7695629113,-183.837585,-59.365337,-152.096359,0.928248,2.245157,0.242635
7695649074,-142.169861,-54.650738,-218.168137,1.121527,1.210071,-0.080624
7695669035,-95.054779,-20.624115,-187.758774,1.513383,-0.056139,-0.148494
7695688996,-108.263191,-33.822784,-142.944458,1.259874,-0.486884,-0.095457
7695708957,-145.517075,-90.942719,-148.841232,0.864030,0.062698,-0.002992
7695728918,-110.501244,-98.173500,-171.778915,0.862910,0.152377,0.043235
7695748879,-43.246208,-102.046799,-168.257080,0.982226,0.306137,0.106102
7695768842,-16.109316,-85.566055,-162.560684,1.079530,0.740213,0.263777
7695788803,-72.726852,-61.431484,-174.729599,1.045443,1.006701,0.255964
7695808764,-148.114273,-40.186890,-171.466217,1.178157,0.738948,0.066545
7695828725,-172.490692,-24.242228,-151.200623,1.098663,0.278167,-0.027351
7695848686,-162.572922,-22.864300,-127.286041,0.859453,0.052832,-0.078040
7695868648,-140.646210,-37.350487,-99.566467,0.669189,-0.006197,-0.109429
7695888609,-134.804077,-61.569725,-59.021458,0.665836,-0.143669,-0.132554
7695908570,-141.974670,-80.144501,-23.195374,0.647987,-0.278716,-0.006006
7695928531,-132.451797,-95.145004,12.657766,0.671520,-0.345607,0.123555
7695948492,-104.251358,-109.692810,61.193142,0.754422,-0.409461,0.129672
7695968454,-77.678032,-110.892265,108.010750,0.870171,-0.375143,0.295964
7695988415,-74.914833,-95.440849,141.602692,1.019304,-0.159117,0.516805
7696008374,-82.827972,-73.765106,167.575836,1.172484,0.059806,0.627670
7696028335,-97.921730,-58.221596,180.882858,1.226685,0.163257,0.635348
7696048297,-92.851906,-49.943737,179.437668,1.158563,0.310354,0.663105
7696088219,-85.720917,-29.900322,155.281769,1.192631,0.681183,0.683973
7696108180,-102.969528,-36.859840,138.804092,1.360317,0.884283,0.331585
7696128141,-89.624687,-72.057693,60.927189,1.114141,1.027657,0.009192
7696148102,-61.232323,-112.535309,-84.445450,1.143215,1.915997,0.083322
7696168063,-86.063896,-49.624481,-216.328186,1.232135,2.138976,0.669196
7696188024,-154.981125,15.593638,-209.435852,1.222905,0.805280,0.357951
7696207985,-138.552338,-23.026035,-165.586044,1.482995,-0.446061,-0.335078
7696227947,-146.870422,-27.237381,-143.985031,1.313508,-0.405795,-0.088153
7696247908,-174.415756,-30.919279,-180.552856,0.972083,0.098500,0.128713
7696267869,-63.335659,-51.700142,-191.455353,0.663181,-0.055797,-0.099074
7696287830,25.470963,-72.838997,-188.921768,0.946230,0.195012,0.083768
7696307791,12.424942,-64.254898,-180.356125,1.007021,0.830160,0.271537
7696327752,-76.017227,-50.705097,-174.460480,1.149504,1.057211,0.165801
7696347714,-163.545532,-27.018126,-159.689819,1.220158,0.613912,0.099323
7696367676,-190.560913,-0.759251,-138.871567,0.958425,0.230906,0.016929
7696387637,-158.739807,-6.955262,-117.688950,0.726586,0.083937,-0.027897
7696407598,-135.623047,-26.024559,-98.064087,0.716392,-0.015582,-0.083732
7696427559,-138.346237,-51.221413,-80.655678,0.592125,-0.134722,-0.163465
7696447521,-134.627792,-79.676270,-47.070850,0.652954,-0.250974,-0.026220
7696467482,-132.440613,-90.356964,-3.894268,0.690121,-0.301566,0.195842
7696487443,-119.148026,-93.065956,38.882092,0.626296,-0.317132,0.229985
7696507404,-87.329002,-98.121704,89.934921,0.740291,-0.322014,0.250368
7696527365,-75.518288,-92.592690,131.297623,0.916670,-0.209954,0.417591
7696547326,-84.915344,-77.537849,156.402985,1.095281,0.031676,0.545215
7696567287,-95.641693,-64.752655,173.971024,1.192419,0.262681,0.572261
7696587258,-99.369568,-69.886147,179.286560,1.278353,0.424085,0.549703
7696607208,-85.350174,-70.378662,164.708832,1.215354,0.544703,0.566788
7696627170,-95.457664,-48.856991,141.078140,1.081694,0.691428,0.603457
7696647131,-132.506744,-69.311035,102.910194,1.004343,1.055158,0.382905
7696667091,-131.652481,-97.312340,44.053452,1.179029,1.135940,0.093934
7696687053,-107.466560,-85.414864,-51.518574,1.165510,1.227697,0.136712
7696707014,-132.051300,-83.810532,-162.028137,1.356176,1.613253,0.337143
7696726975,-158.335358,4.123178,-178.214539,1.346858,0.837819,0.451846
7696746936,-169.853363,-1.518584,-146.960617,1.144930,-0.069981,-0.025444
7696766897,-132.377731,-47.935196,-138.517715,1.296192,-0.413546,-0.239051
7696786858,-139.286621,-12.273689,-178.536926,1.163458,-0.057024,0.028410
7696806819,-131.930328,-43.562637,-209.445831,0.844021,0.035459,-0.008831
7696826781,-65.388351,-82.685440,-196.113663,1.107442,-0.032629,-0.121083
7696846742,-21.967445,-67.102791,-191.363922,1.091719,0.288645,0.230875
7696866703,-48.131672,-67.310883,-188.930405,1.133558,0.825695,0.304528
7696886664,-114.981850,-53.493881,-167.215790,1.279043,0.841597,0.152039
7696906625,-186.037079,-37.120022,-143.826477,1.075399,0.439724,0.032591
7696926587,-209.061310,-31.917641,-130.993149,0.843314,0.146946,-0.062485
7696946549,-193.401245,-42.088223,-115.155411,0.764184,-0.060079,-0.096605
7696966510,-167.424286,-67.233353,-90.761040,0.802244,-0.271843,-0.154361
7696986471,-133.751556,-90.207741,-60.075645,0.776489,-0.400500,-0.068949
7697006433,-116.448631,-101.528687,-20.058475,0.762285,-0.366930,0.184303
7697026394,-114.930519,-97.255386,19.647953,0.756257,-0.271995,0.325605
7697046355,-100.151825,-88.283096,57.304096,0.708760,-0.227760,0.364259
7697066316,-75.758575,-87.440483,95.102814,0.834113,-0.164175,0.418878
7697086277,-69.407028,-74.195862,122.403122,0.984478,-0.038446,0.526392
7697106238,-74.988052,-55.685051,136.374649,0.962981,0.168141,0.658387
7697126199,-67.601852,-53.322258,150.656036,1.043989,0.263618,0.643193
7697146160,-45.195110,-50.407490,172.051956,1.195363,0.170875,0.611974
7697166121,-23.432592,-43.906750,179.384842,1.305839,0.197639,0.506200
7697186081,-29.071285,-25.573185,165.768936,1.240846,0.474377,0.506121
7697206042,-42.135715,-20.299978,150.364502,1.276042,0.761638,0.494594
7697226004,-101.892181,-22.898476,113.536827,1.215940,1.155597,0.414189
7697245964,-184.350769,-68.750488,-2.716831,0.993301,1.590583,0.121053
7697265926,-177.374710,-68.549179,-144.206238,1.194189,1.772398,0.370176
7697285887,-183.794250,-5.049046,-199.983109,1.298750,1.096695,0.466848
7697305848,-173.054123,5.623337,-177.916321,1.102728,0.070884,-0.026431
7697325809,-107.868385,-11.050542,-155.833649,1.185722,-0.388179,-0.186309
7697345770,-111.224693,-3.822868,-170.943298,1.111783,-0.179073,0.006332
7697365731,-114.412773,-50.777611,-184.483887,0.833903,0.039912,-0.109440
7697385692,-68.592422,-84.800552,-182.824448,1.062686,0.040849,-0.088504
7697405653,-43.446011,-64.387817,-172.624802,1.133945,0.250712,0.227809
7697425615,-68.916695,-52.540817,-164.689484,1.026849,0.676548,0.323681
7697445576,-112.284866,-44.260052,-154.705734,1.077703,0.687228,0.163624
7697465537,-158.163452,-30.160990,-144.663071,1.100650,0.337354,0.012148
7697485498,-164.047211,-21.544048,-134.867111,0.992014,0.176737,0.003953
7697505459,-142.179779,-35.523640,-123.746536,0.830032,0.237517,-0.007298
7697525420,-143.316483,-68.161407,-105.464157,0.766714,0.264446,-0.050698
7697545383,-169.891479,-88.728790,-92.839340,0.811175,0.074311,-0.098036
7697565344,-179.774353,-95.201569,-78.852272,0.820072,-0.227468,-0.041024
7697585305,-160.547333,-103.073555,-48.897457,0.804829,-0.411427,0.136639
7697605266,-134.628357,-105.457733,-9.829027,0.812480,-0.460042,0.311322
7697625227,-108.990761,-96.304710,32.826199,0.800404,-0.387360,0.393414
7697645189,-80.697350,-88.337799,76.038414,0.833606,-0.244498,0.420822
7697665160,-61.726742,-84.845467,110.620117,0.955190,-0.125352,0.443046
7697685111,-56.302429,-75.929131,132.148300,1.035798,-0.009584,0.484972
7697705072,-59.574818,-67.589569,148.055176,1.093380,0.123022,0.480942
7697725033,-60.182716,-65.040833,155.160645,1.193677,0.319845,0.485112
7697744994,-68.436104,-67.174881,120.984215,1.171922,0.817571,0.609511
7697764954,-89.411041,-62.281326,59.501656,1.026807,1.130989,0.661634
7697784915,-89.548660,-68.912994,25.328405,1.082179,1.121019,0.410299
7697804876,-79.435318,-84.304916,-18.679289,1.342458,1.091011,0.158314
7697824837,-98.428162,-57.801758,-90.091766,1.190339,1.115428,0.141465
7697844798,-130.156219,-60.031269,-155.925186,1.003131,1.390571,0.200728
7697864760,-156.942871,-24.999046,-177.490967,1.077513,0.879536,0.216838
7697884721,-183.556381,1.237974,-148.034592,1.112867,0.103654,0.033684
7697904682,-194.675812,-11.874318,-132.440323,1.098511,-0.389886,-0.221846
7697924643,-144.917984,-33.223766,-145.312943,1.006271,-0.303062,-0.305004
7697944604,-80.474548,-51.100410,-170.148682,0.912142,0.084163,-0.123664
7697964565,-41.692535,-75.542793,-161.612869,0.788478,0.407637,0.034684
7697984527,-51.676739,-93.504913,-120.605858,0.870269,0.636369,0.019689
7698004488,-115.373512,-96.294670,-92.716171,0.946783,0.693842,0.007038
7698024449,-184.432327,-86.025063,-83.753784,1.004572,0.513907,-0.041953
7698044410,-205.411942,-73.925690,-79.310318,0.986576,0.176622,-0.013993
7698064371,-179.087143,-76.438347,-69.307793,0.931669,-0.076380,0.188206
7698084332,-134.094345,-84.192818,-49.612377,0.913781,-0.276096,0.280936
7698104293,-80.161156,-86.217789,-18.064089,0.826975,-0.354069,0.276796
7698124256,-41.475349,-78.500122,8.562035,0.837152,-0.254820,0.339010
7698144217,-20.614174,-53.226761,20.053211,0.876805,-0.010237,0.445824
7698184139,-2.947296,-74.269554,-8.461446,0.853886,0.958551,0.258976
7698204100,-48.975903,-53.083054,-2.588867,1.035824,0.933365,0.387571
7698224062,-92.058075,-40.362610,-7.994532,1.020786,0.981579,0.404263
7698244023,-103.208084,-45.575699,-53.802917,0.959231,1.237527,0.202976
7698263984,-101.738342,-26.061804,-81.748665,0.788367,0.722806,0.048096
7698283945,-95.169960,-38.627426,-49.923725,0.758008,0.159901,-0.051240
7698303906,-110.675308,-56.619728,-36.332672,0.856949,0.037573,0.014410
7698323868,-93.512909,-67.393356,-41.815304,0.816055,0.035728,0.139173
7698343827,-63.045662,-82.467758,-47.057808,0.824059,0.327954,0.373753
7698363788,-68.812607,-62.199169,-44.154877,0.955342,0.509375,0.558955
7698383749,-73.586250,-36.247009,-27.057369,0.996701,0.404966,0.472547
7698403710,-61.988682,-29.902863,-11.675143,1.037000,0.296038,0.387105
7698423672,-48.937698,-28.612011,-10.844645,0.965988,0.317531,0.370608
7698443632,-40.833733,-30.690893,-14.442495,0.922661,0.360432,0.420560
7698463594,-35.567581,-26.212191,-13.938475,0.924174,0.318898,0.459514
7698483555,-20.947491,-23.944283,-12.595761,0.908461,0.379283,0.468891
7698503516,-11.301768,-16.792143,-10.662043,0.969436,0.415867,0.458938
7698523477,-12.314720,2.103319,-13.630732,0.836882,0.383100,0.449212
7698543439,-1.281069,8.949995,-17.657248,0.758434,0.414083,0.436157
7698563400,13.040354,12.862812,-19.437229,0.782419,0.459817,0.323204
7698603322,12.978800,22.613491,-3.901298,0.769464,0.339869,0.279491
7698623283,12.529405,28.175869,19.540184,0.764198,0.125184,0.333359
7698643245,21.878685,25.195881,57.461872,0.729534,0.012322,0.361162
7698663206,42.786613,18.219538,81.683311,0.812872,0.063805,0.329156
7698683167,85.097176,-10.601124,36.648487,0.979374,1.064206,0.268926
7698703129,100.107246,49.580395,-39.354259,0.948616,1.256200,0.391065
7698723090,88.613914,57.831577,28.953251,0.695604,0.308189,0.223927
7698743052,29.475639,10.076712,61.653389,0.648893,0.327660,0.048914
7698763013,49.617992,-8.643044,61.383636,0.643516,0.498747,0.182788
7698782974,54.916962,19.945126,47.811325,0.881330,0.664707,0.436764
7698802935,28.266045,34.022629,51.238884,0.866722,0.553776,0.218854
7698822896,32.338383,30.098814,69.123672,0.826092,0.381503,0.145440
7698842858,38.786640,26.146254,76.542984,0.863854,0.280820,0.249316
7698862819,36.262817,28.046082,79.385414,0.843186,0.283666,0.217929
7698882780,34.145695,28.967901,80.606529,0.857810,0.371458,0.214574
7698902741,26.275436,29.510557,88.320908,0.888067,0.412754,0.225380
7698922700,18.418972,27.456654,105.723297,0.938414,0.302583,0.186493
7698942662,23.313004,24.806795,123.092834,1.027277,0.144991,0.214198
7698962623,27.512367,21.093578,124.971664,1.064282,0.092513,0.319456
7698982584,26.156216,23.431715,120.759155,1.112561,0.106020,0.369840
7699002545,21.345943,32.005180,122.028229,1.101533,0.029309,0.387558
7699022507,25.794746,43.414135,126.078629,1.062630,-0.096182,0.356755
7699042468,37.577530,57.047638,132.366028,1.026354,-0.181545,0.349202
7699062429,40.365520,69.530281,134.481644,1.120336,-0.167017,0.302698
7699082390,25.311089,78.021637,127.846756,1.364629,0.006842,0.292948
7699102351,-0.472369,102.276672,103.606163,1.237499,0.440837,0.447874
7699122312,-41.167213,62.648479,28.501993,0.692204,1.154992,0.474529
7699142273,-44.992886,-16.675583,-92.792320,0.808603,1.390921,0.441565
7699162234,-28.415901,-17.978180,-176.788330,1.211316,1.186694,0.343022
7699182195,-24.959396,-20.015682,-242.520905,1.348639,0.797186,0.278798
7699202156,5.069337,-28.216957,-275.651031,1.441428,0.546713,0.117686
7699222118,37.420650,-29.436815,-286.243378,1.274917,0.427241,0.228049
7699242079,29.919880,-33.614033,-280.334534,1.153633,0.203952,0.413518
7699262040,-23.669519,-21.662962,-246.528976,1.012712,-0.090491,0.437156
7699282002,-71.287254,7.222812,-173.901535,0.802203,-0.736251,0.238255
7699301963,-57.641136,27.886770,-72.614220,0.528589,-1.830894,0.454326
7699321925,16.493172,39.520172,84.911514,0.144887,-2.436124,0.424421
7699341886,232.753265,-41.660030,232.207947,-0.040713,-1.157374,-0.127542
7699361847,413.903778,-110.901573,131.561081,0.658668,1.670071,-0.966289
7699381808,289.893005,64.469795,15.514948,2.712723,2.398019,0.310285
7699401769,117.508171,137.245331,147.696747,1.196951,1.066401,-0.036547
7699421730,-105.551743,61.196026,190.196304,0.460689,0.388639,0.468448
7699441691,-177.092926,46.537598,195.681442,0.898237,0.278984,0.228850
7699461652,-88.502693,63.076965,210.870270,1.200785,0.020420,0.241366
7699481614,-56.248215,89.174492,219.195129,1.412023,-0.111617,0.213528
7699501573,-46.454803,81.898483,179.166275,1.356975,-0.058082,0.491566
7699521535,30.912973,77.572144,113.726883,0.958662,0.319882,0.576234
7699541496,73.617538,53.527050,61.628075,0.792715,0.835907,0.450911
7699561457,66.715454,46.164543,5.090337,0.818070,1.128096,0.371555
7699581418,25.219057,12.822933,-68.841927,0.889854,1.295666,0.250836
7699601379,-14.037605,-8.600443,-131.051376,1.320079,1.246199,0.199891
7699621340,-46.324955,-17.336300,-158.421371,1.442621,0.837593,0.230322
7699641301,-53.447479,-26.346476,-176.387985,1.240180,0.461060,0.353070
7699661262,-45.343075,-22.339872,-198.034973,0.984078,0.290095,0.428120
7699681223,-27.198997,-20.407017,-213.915649,0.802740,0.186707,0.415560
7699701184,-12.083735,-18.697153,-198.165771,0.810636,-0.038196,0.395349
7699721146,-0.151066,-19.280510,-155.624756,0.814923,-0.614878,0.329566
7699741107,31.628096,-7.860381,-87.793732,0.684841,-1.181701,0.102891
7699761068,59.746624,-5.775595,13.614716,0.376205,-1.388910,0.260711
7699781029,108.473320,-23.199228,120.364693,0.252866,-1.151897,0.362293
7699800990,228.731064,-40.777283,177.215652,0.555463,-0.489394,0.111033
7699820952,272.251923,-52.819016,165.424149,1.472954,0.692981,-0.320045
7699840913,206.051407,23.900543,129.078964,2.336037,1.626767,-0.047145
7699860875,132.469269,110.188393,168.262848,1.413105,1.431228,0.169335
7699880836,11.756815,98.425636,196.736465,1.121702,0.870107,0.592249
7699900797,-138.981476,104.496445,177.764206,1.070257,0.325715,0.500783
7699920759,-180.483810,100.763618,131.564911,1.008262,0.060974,0.242635
7699940719,-100.477356,53.248543,81.392799,0.924514,0.326522,-0.020409
7699960681,-2.335938,-22.800014,-11.534164,0.845498,1.026606,-0.035329
7699980642,48.321686,-32.249229,-102.736740,0.802972,1.338148,0.160216
7700000603,32.865257,-32.146130,-128.834839,0.869086,1.057238,0.205369
7700020564,14.580214,-40.124268,-124.155128,1.026184,0.566441,0.252988
7700040525,-4.853251,-32.892971,-102.676224,1.033520,0.100160,0.273508
7700080450,-93.136024,-2.120381,-26.193939,0.727696,-0.725952,0.255752
7700100408,-51.332355,11.827742,36.467697,0.719536,-1.097866,0.384355
7700120369,26.615217,22.500572,101.014412,0.671788,-1.194642,0.583124
7700140329,120.938202,17.163767,164.470398,0.696067,-0.735135,0.388819
7700160291,226.559189,-27.166172,191.759796,1.419802,0.009282,-0.005036
7700180252,206.297333,-17.942184,87.848328,2.140382,1.529479,-0.087932
7700200213,68.544228,96.707367,49.638988,0.997397,1.393819,0.873517
7700220174,9.809155,37.300716,33.535198,0.694590,0.606601,0.265644
7700240135,17.874329,11.741530,24.174000,0.932501,0.319410,0.151869
7700260096,16.886635,37.128601,34.818687,1.184434,0.161612,0.312241
7700280057,-19.976896,43.195717,39.727165,0.842207,0.132751,0.290592
7700300019,-9.044489,13.801653,48.960049,0.786901,0.175951,0.059941
7700319980,34.071533,5.787959,42.784943,0.837812,0.213943,0.108151
7700339941,38.230247,-3.052921,2.238909,0.883222,0.566820,0.165125
7700359902,-4.892501,-25.769831,-47.610645,0.876290,1.068034,0.090768
7700379863,-39.972950,-43.459389,-99.550995,1.044892,1.155473,0.153713
7700399824,-84.287415,-55.877613,-124.139557,1.207694,0.759256,0.108734
7700419785,-128.458572,-69.862663,-144.839493,1.259152,0.550181,0.008108
7700439748,-148.005661,-79.532738,-170.298996,1.163474,0.528711,0.119622
7700459709,-160.409073,-78.745232,-187.827164,1.136268,0.491956,0.316054
7700479670,-180.056839,-61.097038,-190.180115,1.090533,0.314958,0.513078
7700499631,-183.851410,-32.322922,-175.034088,1.090687,-0.090739,0.462995
7700519592,-143.769928,-11.494295,-157.454330,0.991657,-0.520050,0.182185
7700539553,-50.661247,-15.198984,-119.952988,0.812644,-0.720871,0.041410
7700559515,19.752314,-34.438736,-68.516144,0.717377,-0.709096,0.157759
7700579476,37.435299,-38.751545,-22.155859,0.589678,-0.436306,0.234999
7700599437,60.951584,-47.114567,16.200163,0.536422,0.105370,0.116057
7700619398,45.836380,-74.623894,17.496702,0.714212,1.015672,0.131271
7700639359,34.575256,-26.791739,13.365617,1.433596,1.150916,0.509410
7700659320,-37.487740,-13.425010,14.769578,0.959458,1.053991,0.856351
7700679280,-42.627884,5.981098,9.593149,0.798802,0.517350,0.464983
7700699241,1.488563,19.034140,13.073950,1.025992,0.421653,0.391038
7700719202,-4.456913,16.774723,18.355085,1.000346,0.487115,0.218117
7700739164,-9.430415,24.202387,9.334100,0.808732,0.460644,0.192999
7700759125,-11.030989,25.852657,3.042311,0.804280,0.492734,0.177549
7700779086,-25.462568,25.606382,8.891960,0.740791,0.731699,0.000818
7700799047,-71.636955,2.112018,13.563401,0.512236,0.959328,-0.135408
7700819008,-142.919769,-28.519999,-8.499065,0.545990,0.918557,-0.008911
7700838969,-186.128891,-48.163456,-46.665810,0.860627,0.633671,0.257592
7700858930,-182.770554,-56.912281,-76.794365,1.255965,0.220789,0.419035
7700878891,-125.909866,-46.697338,-83.998634,1.227043,-0.176122,0.582725
7700898853,-51.731956,-51.542881,-57.661453,0.955505,-0.477151,0.604348
7700918814,-1.221487,-44.716469,-16.840673,0.846808,-0.735199,0.267194
7700938775,30.122923,-34.133316,23.744190,0.513241,-0.579795,0.451491
7700958736,70.231232,-43.170082,37.171707,0.558821,0.217485,0.495270
7700978697,81.492172,-1.006882,33.146286,0.942123,0.889170,0.531638
7700998659,22.613422,14.774389,42.209976,0.913825,1.003964,0.348754
7701018621,-22.679987,4.048578,36.930714,0.877762,0.833336,0.204460
7701038582,-33.699646,16.531849,40.108727,0.800504,0.407435,0.378029
7701058543,-33.130608,10.868301,72.161568,1.040733,0.044475,0.355871
7701078504,-16.089350,10.905597,106.263924,1.088621,-0.176609,0.276958
7701098466,8.688852,14.218635,95.169250,0.785071,0.156684,0.426200
7701118427,25.135164,24.258593,61.678566,0.795226,0.354336,0.522771
7701138388,-13.370226,37.665310,64.415260,1.032258,0.216372,0.381220
7701158349,-44.834915,29.205677,77.187981,0.943497,-0.054128,0.332209
7701178310,-40.892101,4.617150,74.991287,0.884659,-0.059311,0.477187
7701198272,-22.696600,6.476145,67.800751,1.017657,0.024817,0.499830
7701238194,20.099588,47.450863,63.653641,0.973837,0.193917,0.420584
7701258153,8.728866,45.522919,47.514214,0.793428,0.360570,0.213845
7701278114,-16.228540,-15.345798,-10.225121,0.783830,0.886594,0.236742
7701298075,-53.010929,-38.175198,-105.719040,1.274454,1.681921,0.350274
7701318037,-57.801834,-8.901867,-153.698151,1.119487,1.474937,0.358562
7701337998,-100.699661,-28.491055,-168.283661,1.179752,0.888334,0.207095
7701357959,-98.377449,-20.084661,-189.493347,1.331558,0.468409,0.223951
7701377920,-90.833908,-4.760148,-199.850876,1.442922,0.087060,0.251819
7701397881,-94.645401,17.674309,-168.271927,1.042687,-0.368848,0.046328
7701437804,-90.036896,-20.499969,-13.026549,0.328897,-1.196149,0.218167
7701457765,-27.107977,-3.264946,38.649803,0.345260,-1.230796,0.353351
7701477726,51.751911,-7.173435,92.019356,0.358074,-0.833684,0.434682
7701497687,142.869171,-46.683968,155.546173,0.647316,-0.438739,0.059436
7701517648,208.731689,-100.277397,164.807037,1.867361,0.095856,-0.320241
7701537609,146.811996,-24.392040,79.935364,1.526040,1.602876,0.269856
7701557570,71.562317,-30.576933,-9.942599,0.676052,2.606516,0.850036
7701577531,-47.325623,-28.456640,-40.544506,1.027982,1.419040,0.599204
7701597492,-95.577477,-3.078937,-18.929920,1.276999,0.180363,0.429371
7701617455,-107.741859,16.904587,-16.670033,1.324768,-0.011109,0.641460
7701637416,-12.299683,32.060871,-20.255474,0.923814,-0.094112,0.250638
7701657377,77.072945,6.390893,-27.420103,0.771554,0.104715,0.044890
7701677338,74.532791,-1.915180,-43.467690,0.924242,0.741844,0.003926
7701697299,13.875085,-1.319674,-51.645496,0.807074,1.147919,0.015614
7701717260,-73.906944,-23.676291,-54.012032,0.710681,1.059265,0.001548
7701737221,-128.255753,-44.058697,-72.785583,0.820581,0.737655,-0.051360
7701757182,-139.575867,-57.015736,-104.868896,1.070171,0.472560,-0.094163
7701777144,-129.415939,-61.599895,-129.410568,1.014269,0.311631,0.000786
7701797105,-119.379440,-72.973755,-134.589493,0.964366,0.223270,0.207846
7701817066,-118.010513,-68.735092,-127.313087,0.997884,0.254835,0.388793
7701837026,-108.918381,-53.644211,-115.359856,0.905517,0.298988,0.414969
7701856987,-89.565392,-46.513008,-104.681381,0.842451,0.250746,0.303598
7701876948,-63.287426,-41.200626,-87.435226,0.777742,0.125739,0.275137
7701896909,-43.830746,-37.523178,-65.852859,0.704282,0.101324,0.368803
7701916870,-35.827232,-28.312796,-33.979828,0.678215,0.091502,0.468289
7701936832,-21.420176,-17.017033,8.824821,0.664816,-0.041569,0.422052
7701956793,17.483475,-8.437934,51.873863,0.674327,-0.083703,0.319743
7701976754,63.237335,-9.352529,89.335976,0.693177,0.008743,0.245907
7701996715,84.306084,-24.141502,101.343071,0.662756,0.355970,0.254414
7702016676,84.719948,-34.030609,81.839249,0.879032,0.903416,0.254786
7702036637,64.857109,-38.472366,35.150913,1.211244,1.635410,0.183051
7702056598,-21.152004,4.544631,32.677357,1.074100,1.168699,0.277148
7702076560,-104.560791,18.801231,50.063744,1.092676,0.666153,0.100500
7702096520,-182.253891,2.571962,24.915216,0.995048,0.879775,0.187183
7702116481,-177.283768,-9.017166,-45.875423,0.656301,1.243259,0.268719
7702136442,-150.729187,-30.709045,-76.712463,0.642251,0.970773,0.030882
7702156404,-152.143524,-42.387741,-89.017296,0.965287,0.526391,0.038076
7702176365,-155.629456,-44.211349,-108.804108,1.128326,0.282398,0.140222
7702196327,-143.192810,-53.527977,-119.548813,1.038409,0.159841,0.243025
7702216288,-127.169113,-55.309124,-117.588242,1.023062,-0.079979,0.286648
7702236250,-108.100929,-49.044083,-106.962547,0.914048,-0.364496,0.346587
7702256211,-70.006691,-46.527256,-77.051979,0.840271,-0.415803,0.378766
7702276172,-20.379944,-39.941338,-36.210995,0.735562,-0.391791,0.380186
7702296133,22.753595,-34.444057,-2.432809,0.588266,-0.400850,0.333923
7702316094,73.725945,-49.663185,35.910351,0.626829,-0.409892,0.364555
7702336055,135.636810,-112.039825,27.867399,0.762286,0.660666,0.119209
7702356017,133.066513,-36.512398,-23.649462,1.360160,1.447773,0.748157
7702375978,35.373638,24.902870,42.935234,1.254365,0.955940,0.488646
7702395939,-39.890697,45.778954,97.359787,0.896100,0.319660,0.423291
7702415900,-59.117874,15.032660,104.795006,0.674227,0.109025,0.215050
7702435861,-2.458171,3.502596,77.199463,0.713140,0.030720,0.289714
7702455821,37.028713,22.843811,65.294601,0.789109,0.079252,0.342946
7702495743,44.742851,26.972639,126.089920,0.782661,0.152658,0.055418
7702515705,46.254116,4.685293,133.565857,1.127259,0.455017,0.251385
7702535666,24.804443,42.563660,128.907471,1.480250,0.656285,0.209942
7702555627,-54.001526,96.426407,123.329865,1.511039,0.609462,0.417893
7702575588,-123.063683,71.681313,90.079155,0.749872,0.442930,0.506920
7702595549,-113.906662,14.340413,33.145496,0.823946,0.519426,0.438273
7702615510,-71.924057,-1.748846,-27.080662,0.962202,0.810685,0.337873
7702635471,-29.123087,-33.439713,-95.477371,0.928287,0.972198,0.293901
7702655432,-9.479383,-38.633602,-154.609680,1.189607,0.926121,0.199736
7702675393,-10.893559,-37.708485,-180.753693,1.131149,0.845870,0.209084
7702695354,-21.786367,-45.700104,-193.634186,1.109919,0.790566,0.266241
7702715315,-58.528748,-37.744492,-198.601959,1.093771,0.516270,0.382262
7702735276,-101.175728,-32.662651,-171.064316,1.141153,-0.133016,0.367541
7702755238,-103.542030,-15.420962,-113.934456,1.000072,-0.890515,0.147885
7702775199,-35.058395,16.478222,-37.497410,0.522933,-1.382093,0.339782
7702795160,67.680420,41.834515,61.663872,0.283762,-1.785882,0.487254
7702815123,184.331650,15.519833,177.493256,0.043254,-1.618086,0.073503
7702835084,320.056183,-104.445740,193.588318,0.545997,0.840881,-0.871178
7702855045,288.249847,43.615646,53.593990,2.539687,1.973546,0.575958
7702875006,103.453079,120.992050,98.366180,1.063843,1.056300,0.136016
7702894967,-37.462250,66.296906,168.874939,0.951541,0.304087,0.317474
7702914928,-147.024979,42.674858,194.564682,1.552275,0.254117,0.209746
7702934895,-122.166656,60.946495,145.827194,1.396523,0.268495,0.224866
7702954851,-35.680283,53.221313,95.078163,0.989092,0.206660,0.326679
7702974812,14.489159,23.272257,30.938105,0.783103,0.879438,0.194411
7702994773,51.757267,-13.754588,-63.697914,0.739318,1.717405,0.240802
7703014734,67.984642,-18.205357,-125.536873,1.007844,1.413006,0.165479
7703034694,21.721338,-30.581377,-154.898071,1.224335,0.960310,-0.061353
7703054655,-9.817413,-33.446075,-181.006943,1.062569,0.775559,-0.091617
7703074616,-35.059948,-41.879780,-194.488251,0.926662,0.632998,-0.065366
7703094577,-69.730560,-49.364670,-193.658142,0.854826,0.421632,0.050333
7703114538,-98.259216,-55.957325,-185.667419,0.961572,0.165193,0.250088
7703134499,-108.159004,-34.044689,-150.980972,1.048782,-0.345320,0.441810
7703154460,-64.680038,-13.911060,-88.095360,0.944569,-1.351506,0.324249
7703174422,63.086842,-2.967271,1.121797,0.760471,-1.959968,0.102456
7703194383,186.795059,2.258119,129.328476,0.702892,-1.556665,0.383551
7703214344,278.903137,-18.047962,202.954163,0.736595,-0.176786,0.170883
7703234305,327.276978,42.947792,134.778870,2.332647,1.423774,0.260993
7703254266,147.166580,153.677887,95.911751,1.734389,1.567425,-0.005666
7703274227,-2.791262,158.671585,143.518005,1.148065,0.996946,-0.550988
7703294188,-33.227985,58.859409,183.152969,0.984144,0.419412,-0.283915
7703314150,-72.347649,44.654541,185.845398,1.022197,0.248701,0.172703
7703334111,-79.624641,56.863194,115.494804,1.070511,0.640308,0.082760
7703354072,-23.743378,31.570694,27.680107,0.638337,1.497843,0.210311
7703374033,36.307266,-28.599733,-69.471970,0.768425,1.658921,0.084757
7703393996,24.404699,-33.705719,-138.734268,1.037313,1.257192,0.042543
7703413957,-15.090685,-38.578514,-173.852295,1.076115,0.979276,0.105267
7703433918,-57.327049,-34.593975,-195.673172,1.060537,0.578093,0.290944
7703453879,-95.869797,-38.519939,-193.525452,1.255005,-0.066956,0.185057
7703473840,-36.863033,-4.339529,-151.009842,1.157940,-0.622335,-0.043749
7703493801,39.960491,-9.495616,-101.052811,0.477581,-0.519626,0.313623
7703513763,39.320137,-4.614641,-61.354424,0.360641,-0.150742,0.449131
7703533724,0.505847,17.732477,7.152906,1.294852,-0.179331,0.523101
7703553685,11.772356,52.626499,63.906784,1.096027,-0.393571,0.295946
7703573646,95.668747,34.106663,52.599915,0.702056,-0.075605,-0.338622
7703593607,168.981735,-4.692719,29.699339,0.548999,0.789613,-0.321180
7703613567,132.443024,-32.600674,33.194908,0.998086,1.774205,0.062312
7703633528,26.321180,3.197292,28.062513,1.093119,1.684398,0.522110
7703653489,-51.011997,31.139761,23.469589,0.997158,0.758578,0.429701
7703673450,-8.559891,50.412415,8.667884,1.019252,0.217220,0.118801
7703693411,47.197979,44.137974,-20.046545,0.848002,0.476272,-0.028637
7703713372,61.737659,23.562286,-63.204624,0.533389,0.992568,-0.222073
7703733333,18.536983,-7.391938,-94.948967,0.519412,1.406021,-0.266984
7703753294,-64.262665,-31.988384,-129.042206,0.769524,1.733617,0.027824
7703773255,-118.722000,-37.722946,-173.953171,0.792709,1.380415,0.345831
7703793217,-102.502304,-41.869877,-187.060989,0.903132,0.424490,0.355045
7703813178,-57.334709,-36.977013,-144.334869,1.026163,-0.493418,0.001078
7703833139,22.213535,-12.195717,-57.779472,0.559333,-1.056045,0.103175
7703853100,92.700424,-5.098537,54.523277,0.217062,-0.825614,0.414298
7703873062,146.370499,5.068227,131.330902,0.494029,-0.190822,0.400966
7703893023,195.608292,39.824707,127.358574,1.070435,0.526972,0.438755
7703912984,148.183731,76.840446,106.366730,1.121546,0.996393,-0.010011
7703932945,87.266968,65.437584,72.523422,0.898561,1.683913,-0.190640
7703952906,51.390789,105.064285,101.109505,0.609326,0.988077,-0.158321
7703972868,7.288410,84.511368,164.684814,0.492825,0.388690,-0.065588
7703992829,-14.695438,53.793415,204.365875,0.852532,0.153197,0.228980
7704012791,-13.812099,79.239998,228.601700,1.340444,0.198970,0.397812
7704032752,-25.463892,111.543442,227.885010,1.418755,0.242573,0.395256
7704052713,-43.489918,116.947067,197.672211,1.375831,0.297349,0.362246
7704072674,-59.496117,95.658798,126.174057,1.167958,1.094456,0.401289
7704092639,-29.195509,14.437024,-18.463509,0.546110,1.594870,0.421299
7704112596,72.686180,-1.415003,-88.646706,0.767402,0.880693,-0.091832
7704132557,103.099640,11.167651,-87.456963,1.003042,0.214918,-0.193528
7704172480,-81.588203,8.027574,-51.618240,1.027434,0.204153,0.499712
7704192439,12.230412,-8.401876,-32.666824,0.606140,-0.220435,0.307619
7704212400,28.984804,-18.741215,-38.394310,0.654778,-0.000513,0.462537
7704232362,106.128403,-12.604111,-51.961281,0.721623,0.494196,0.050981
7704252323,85.935814,-8.923968,-54.090244,1.033773,1.084671,0.065610
7704272284,26.545973,-18.818735,-84.371315,1.011545,1.374932,-0.148448
7704292245,-20.286924,-43.107288,-131.286087,0.932163,1.567712,-0.162623
7704312206,-37.572601,-53.564907,-162.793289,0.843771,1.448781,0.009083
7704332167,-71.745010,-58.129059,-183.534988,0.842902,1.029326,0.192688
7704352128,-115.480530,-55.079311,-196.130722,0.980096,0.517831,0.302749
7704372089,-133.667053,-34.778740,-189.504547,1.085144,-0.017515,0.350325
7704392051,-98.173874,-1.523789,-149.129578,0.931252,-0.583292,0.334096
7704412012,-4.920331,13.527180,-76.577538,0.638415,-1.109138,0.202294
7704431973,92.661285,-2.476988,12.003349,0.360272,-1.030178,0.307905
7704451934,164.875076,-25.926640,75.405762,0.334783,-0.225196,0.243621
7704471895,224.713058,-76.036659,33.921448,0.639756,1.522106,-0.106683
7704491857,162.139862,19.943272,1.877845,1.230684,1.682633,0.255939
7704511818,51.572304,49.579136,60.172264,1.008988,1.086306,0.029251
7704531779,-49.154037,32.416374,86.116814,0.772657,0.987249,-0.030739
7704551742,-33.445564,39.207016,88.093880,0.674477,0.608213,-0.017953
7704571702,-11.089723,29.545042,87.719246,0.556675,0.272476,0.207121
7704591664,-25.825594,36.066753,107.947296,0.701358,0.149680,0.210875
7704611625,-5.521927,30.930700,131.162186,0.827630,0.123164,0.034598
7704631586,36.341171,12.659168,138.651611,0.814489,0.249757,0.216046
7704651547,54.419308,20.655529,142.661087,0.982308,0.372355,0.389132
7704671515,47.592129,38.043705,148.570221,1.321590,0.463378,0.463708
7704691469,6.976366,77.522774,126.724403,1.201200,0.623141,0.618332
7704711431,-15.442433,76.573112,103.048668,1.026110,0.584554,0.447562
7704731392,23.035770,88.854355,110.837952,1.015543,0.248788,0.211281
7704751353,60.104385,91.241760,120.238739,1.012114,0.094437,0.046921
7704771313,79.179916,89.713844,120.622803,1.182619,0.234796,-0.018362
7704791274,63.573574,82.058052,97.123810,1.221598,0.836658,0.071843
7704811235,38.446007,45.784245,31.879175,0.805705,1.437005,0.171669
7704831196,17.227415,6.527599,-50.606400,0.824710,1.408137,0.249984
7704851157,-4.783407,-5.983786,-97.327728,0.919115,0.906704,0.097566
7704871118,-4.990981,-33.282379,-126.241211,0.921419,0.668499,0.033942
7704891079,-4.643304,-44.403912,-172.404999,0.998552,0.780780,0.233034
7704911040,-30.526506,-37.260555,-208.399139,1.079000,0.761414,0.476505
7704931001,-63.939674,-31.821421,-211.492737,1.008231,0.469877,0.456306
7704950962,-65.874977,-38.199402,-198.238480,0.977041,0.082951,0.281314
7704970923,-33.441700,-29.945448,-168.256531,1.073663,-0.373853,0.173737
7704990885,-2.236603,-14.446808,-107.734520,1.000701,-1.009960,0.316315
7705010846,53.972790,1.680664,-5.100638,0.622078,-1.521150,0.231053
7705030807,155.280731,-2.608629,136.160736,0.313078,-1.294212,0.451053
7705050768,270.382477,-36.928360,190.780792,0.310782,0.364549,-0.160868
7705070729,277.911346,51.980827,82.296013,1.901631,1.869314,0.493023
7705090690,116.628471,116.883949,77.089615,1.263394,1.299251,-0.166356
7705110653,24.636921,85.913750,110.840057,0.746444,0.747894,-0.274259
7705130614,-4.449373,55.659306,146.626343,0.704415,0.533508,0.160024
7705150575,-18.685596,65.106934,181.719330,0.791584,0.423218,0.331985
7705170536,-24.437292,81.483948,204.527573,1.019948,0.329720,0.347175
7705190497,-23.312479,92.184349,202.678650,1.120927,0.279520,0.292754
7705210458,-9.244921,102.143410,181.846970,1.369671,0.271927,0.291521
7705230420,-24.631123,115.485977,140.459427,1.483231,0.240709,0.437811
7705250381,-33.710861,106.275551,69.231750,0.862573,0.990679,0.367519
7705270342,-14.586409,20.674160,-36.221725,0.400517,1.586443,0.164249
7705290303,-0.285302,-2.612587,-107.935486,0.746924,1.425035,0.287619
7705310264,-33.440166,-30.661469,-157.539215,1.242513,0.839419,0.418945
7705330225,-59.049126,-43.143959,-214.465057,1.533722,0.399371,0.420293
7705350185,-43.549934,-39.064007,-225.758514,1.644963,-0.110615,0.640220
7705370146,-36.327106,-29.637527,-170.975967,1.401863,-1.107178,0.392286
7705390107,-21.717842,-7.556404,-89.435234,0.668374,-2.118053,0.266904
7705410069,59.950783,-18.307602,29.435272,-0.169042,-2.569708,0.198387
7705430030,199.250854,-86.603653,138.579376,-0.410085,-0.855949,0.357398
7705449991,315.692657,-61.659580,115.627403,1.516336,1.765313,0.107113
7705469952,242.036102,117.811195,90.639938,1.996775,1.414161,0.491296
7705489913,28.282677,135.191101,122.868393,0.682255,0.593998,0.053724
7705509874,-42.255577,47.873234,143.993362,0.606427,0.231180,0.122292
7705529835,-34.654438,50.969318,145.152252,0.902808,0.022616,0.112021
7705549796,6.298689,74.822121,162.836639,0.998617,-0.156259,0.311945
7705569758,37.532776,94.567551,187.378586,1.127315,-0.312947,0.436072
7705589719,35.377605,112.311539,188.582031,1.184365,-0.311417,0.319806
7705609680,31.029570,122.303200,169.822052,1.311075,-0.174009,0.257866
7705629641,31.601171,111.207367,148.020966,1.358629,0.124485,0.576208
7705649602,73.723770,35.052284,101.993752,1.257219,1.179448,0.240445
7705669563,75.879234,-33.558937,-14.841814,1.249583,2.524350,0.198970
7705689525,-34.315971,-13.631545,-108.760071,1.247728,2.137809,0.612770
7705709487,-99.705826,-51.428600,-144.680954,1.183194,1.316389,0.365241
7705729448,-84.517105,-61.025448,-191.898468,1.408401,0.717327,0.292949
7705749409,-23.823202,-52.172962,-235.016312,1.362329,0.209645,0.391118
7705769370,-9.618743,-61.608856,-283.170776,1.327390,0.128819,0.415112
7705789331,-13.375424,-65.523872,-322.224823,1.341719,0.401094,0.352363
7705809292,-15.807981,-57.656296,-339.100739,1.301222,0.248981,0.358574
7705829253,-41.419289,-58.121582,-316.295044,1.275449,-0.216729,0.251538
7705849214,-61.055157,-66.230049,-254.053894,1.267009,-1.076344,-0.131657
7705869175,-40.817612,-56.713795,-183.199646,0.733502,-2.008951,-0.115056
7705889137,41.508698,-59.155754,-60.977280,0.050683,-1.968589,0.453098
7705909098,156.936890,-43.802650,98.288315,-0.016583,-1.416852,0.589892
7705929058,273.851959,-38.412312,199.537476,0.214336,-0.365644,0.201369
7705949019,302.767517,-64.737251,164.085632,1.137021,1.240312,-0.588323
7705968980,229.866943,18.559557,37.622166,2.383923,2.574801,-0.030106
7705988941,106.593544,126.811165,119.049004,1.271471,1.363418,0.454967
7706008902,-80.466858,91.449234,177.582428,0.841956,0.279144,0.480057
7706028863,-168.317657,114.851593,182.721527,0.895834,0.010055,0.168193
7706048825,-66.828186,103.130089,198.989410,0.919101,-0.360901,0.247728
7706068786,49.877838,85.973320,214.086243,1.076978,-0.587215,0.243403
7706088747,103.306969,98.479660,228.944794,1.130382,-0.225387,0.333889
7706108708,106.103775,108.611778,242.061020,1.437786,0.154187,0.313275
7706128669,68.223038,138.860291,232.950287,1.918856,0.440433,0.087752
7706148630,13.802738,160.526184,180.545685,1.600654,0.430069,0.191997
7706168592,6.670013,99.221016,108.112083,0.775832,0.881951,0.118564
7706188552,-0.054231,-37.810619,0.342880,0.745504,2.003234,0.073324
7706208513,-31.854229,-23.287331,-99.888245,1.339769,2.249990,0.267769
7706228474,-49.266876,-26.518057,-115.446114,1.215196,1.022062,0.264198
7706248436,-22.310751,-61.606632,-147.840408,1.494569,0.201441,0.003933
7706268397,11.357707,-58.292774,-189.635239,1.290676,0.057116,0.141335
7706288359,43.955612,-67.546577,-201.398697,1.048614,0.061450,0.247829
7706308320,25.402857,-71.752007,-193.044647,0.830360,0.066712,0.254212
7706328282,-62.070972,-57.235233,-185.052612,0.632384,-0.159377,0.324311
7706348243,-138.164490,-32.736790,-160.849655,0.599200,-0.445612,0.357713
7706368204,-112.904015,-4.219102,-94.955467,0.757643,-1.087985,0.540243
7706388165,-15.599499,18.597019,10.604701,0.709881,-1.621488,0.425172
7706408126,148.030991,-14.908083,119.799980,0.420091,-1.763096,-0.214983
7706428088,271.099487,-57.081207,210.826569,0.546013,-1.075956,-0.392120
7706448049,290.663361,-75.350456,244.410583,1.634777,0.331828,-0.068572
7706468010,277.604156,67.008545,179.849594,3.206168,1.650317,0.190437
7706487971,85.982811,161.028870,170.833740,1.170338,1.634259,0.598108
7706507950,-91.253639,97.278633,173.811676,1.081206,0.887877,0.354910
7706527892,-177.484924,106.688507,151.685486,1.043147,0.283726,0.562987
7706547853,-135.469452,133.141556,125.563393,0.835388,-0.030753,0.362352
7706567814,8.856777,127.766663,106.217255,0.774145,-0.107065,0.016990
7706587775,126.050323,71.319412,112.843903,1.107159,-0.131147,0.004552
7706607736,114.860634,20.002293,73.008850,1.344195,0.546486,-0.047732
7706627697,60.706268,-46.686165,-43.150486,0.775623,1.949796,-0.402503
7706647658,-12.848468,-53.287109,-117.957245,0.826838,1.717231,0.191325
7706667619,-115.979485,-67.364944,-100.904846,1.035429,0.716277,0.492017
7706687581,-238.141937,-83.594070,-117.244827,1.345778,-0.028058,0.448070
7706707542,-284.863586,-52.938347,-149.555847,1.321386,-0.595252,0.239822
7706727503,-207.833374,-38.852417,-151.181747,1.023170,-0.810647,0.292609
7706747464,-117.156082,-47.240562,-131.994690,0.840954,-0.806723,0.376167
7706767425,-53.538109,-44.753414,-102.766258,0.743993,-0.530219,0.430688
7706787386,-3.063443,-32.507553,-85.996948,0.855290,-0.173273,0.383537
7706807348,26.938080,-2.377330,-68.912201,0.817752,-0.020182,0.382800
7706827309,42.543869,9.930294,-27.774771,0.695437,-0.090690,0.316876
7706847270,38.673370,-2.651387,17.236448,0.754582,-0.076110,0.267911
7706867233,35.682739,-3.166606,43.562592,1.047181,0.086313,0.200226
7706887194,53.768421,18.203081,49.502575,1.010655,0.180139,0.362203
7706907155,55.316044,22.111122,43.984344,0.831885,0.235262,0.524301
7706927116,47.255314,-0.731420,32.547012,1.013976,0.390283,0.400529
7706947077,20.035614,-2.993259,14.291393,1.140941,0.681976,0.191187
7706967038,-10.127039,7.621506,-7.886565,0.851890,0.671975,0.278659
7706986999,-40.702209,9.657096,-12.309022,0.815603,0.374222,0.398792
7707006960,-69.297401,8.631321,6.905476,0.901680,0.234647,0.450738
7707026922,-62.608932,1.256962,18.671829,1.044883,0.211363,0.227639
7707046882,-39.888790,-4.279788,5.481306,1.161059,0.281495,0.170068
7707066843,-57.937569,2.587475,-11.748260,0.922789,0.458298,0.331085
7707086805,-78.698433,-16.815327,-38.350807,0.778976,0.721706,0.320945
7707106764,-82.775276,-26.231445,-75.507965,0.884107,0.801302,0.281138
7707126726,-103.484459,-27.559669,-95.648407,0.996654,0.421315,0.222587
7707146687,-124.295670,-24.042467,-89.066528,1.045593,0.013575,0.216595
7707166648,-139.940170,-14.799109,-70.727715,0.900326,-0.135882,0.286861
7707186609,-139.888290,-13.623714,-61.022453,0.768968,-0.111106,0.303078
7707206570,-117.040527,-21.976475,-71.331955,0.825231,0.130340,0.362441
7707226531,-95.554413,-23.296366,-92.152626,0.853441,0.383788,0.439579
7707246492,-83.965889,-24.341618,-98.085632,0.784389,0.363245,0.440470
7707266453,-78.079201,-37.933216,-89.576080,0.850842,0.310598,0.418056
7707286414,-77.195992,-35.436558,-75.779343,1.004154,0.314104,0.542742
7707306376,-77.185074,-10.637600,-61.047379,0.987113,0.184741,0.673128
7707326337,-68.731308,-3.556532,-39.718956,0.862971,-0.049094,0.489188
7707346298,-38.948219,-1.753727,-15.003182,0.818675,-0.276049,0.266533
7707366260,2.101930,3.865551,11.876751,0.758009,-0.268192,0.419186
7707386221,30.271652,11.164978,48.236313,0.744681,-0.306410,0.525291
7707406182,54.649792,-0.190782,93.498428,0.645701,-0.178702,0.274060
7707426143,74.648659,-28.197718,84.696411,1.064566,0.497254,0.173598
7707446104,58.003120,12.505053,40.182518,1.342623,1.018059,0.478775
7707466067,-18.156708,38.803345,40.460743,1.124131,0.723793,0.534225
7707486028,-105.820946,28.746346,43.259781,1.292585,0.299624,0.353215
7707505988,-144.931412,19.226294,19.716251,0.890282,0.326778,0.377536
7707525950,-123.366829,-9.338432,-14.253838,0.633194,0.401011,0.435713
7707545911,-118.785233,-10.167778,-48.609901,0.886575,0.387627,0.508056
7707565872,-111.564156,-3.126632,-79.090813,0.931781,0.412649,0.585331
7707585833,-88.693214,-1.882601,-100.958084,1.003420,0.254420,0.569750
7707605794,-64.515503,2.090667,-109.930695,0.951135,0.025950,0.443043
7707625755,-34.741730,-1.250864,-94.443573,0.762342,-0.108376,0.248730
7707645717,-14.793339,-15.268518,-71.322845,0.586993,-0.074692,0.264814
7707665678,-18.273792,-23.895639,-48.272408,0.478058,0.004501,0.332000
7707685643,-26.203226,-22.144743,-29.828606,0.506055,0.025872,0.396089
7707705598,-37.757198,-13.273684,-16.143209,0.705175,0.056447,0.421186
7707725560,-37.226227,-15.937831,-1.451962,0.929081,0.176459,0.413401
7707745521,-23.204632,-13.017390,13.260342,1.126900,0.210394,0.474662
7707765482,-17.830355,-7.836296,19.053488,1.195838,0.212310,0.530259
7707785443,-17.789249,-11.781691,4.836966,1.014204,0.382773,0.502736
7707805404,-7.309980,-26.129700,-15.006397,0.823355,0.563004,0.421613
7707825365,8.226871,-24.759417,-23.624210,0.753403,0.404908,0.339598
7707845327,-4.714983,-26.899153,-19.102543,0.789037,0.292277,0.258775
7707865288,-43.159283,-33.013496,-12.124351,0.972961,0.240780,0.199157
7707885249,-69.007729,-41.295845,-19.407331,0.862148,0.505054,0.296607
7707905210,-64.049156,-43.899185,-42.891460,0.829239,0.606511,0.622619
7707925171,-49.600883,-26.345682,-41.966805,0.958397,0.344483,0.524012
7707945132,-44.711395,-6.140006,-23.242592,1.027971,0.342821,0.179372
7707965093,-52.552734,6.464434,-7.766997,0.805415,0.465784,0.050889
7707985055,-89.147728,-11.077192,-7.717515,0.716022,0.345554,0.101758
7708005016,-106.214806,-29.081387,-13.773002,0.919697,-0.012049,0.352118
7708024977,-91.403290,-26.978849,-11.169564,1.127490,-0.019261,0.447565
7708044939,-53.895027,-7.762453,-1.413013,1.133154,0.215887,0.463122
7708064900,-46.721596,-2.999186,-0.083458,0.967729,0.445131,0.326570
7708084861,-68.351379,-17.256802,-18.424109,0.861947,0.513800,0.204396
7708104822,-85.057404,-19.667334,-44.719898,0.733860,0.443034,0.353276
7708124784,-104.720970,-17.165607,-57.128998,0.687660,0.264675,0.550131
7708144745,-93.310883,-13.580030,-44.809399,0.806172,0.101239,0.566001
7708164706,-61.401260,-2.905616,-29.670097,0.900803,0.021813,0.553648
7708184667,-28.407772,1.627421,-22.426205,0.947678,0.047510,0.504003
7708204628,-2.186146,-3.217715,-15.243801,0.986404,0.158113,0.411566
7708224589,1.827907,-12.118302,-14.063643,0.893886,0.378613,0.381489
7708244550,-9.758767,-10.657381,-13.178206,0.765399,0.510963,0.252938
7708264512,-38.749538,-5.241556,-13.289695,0.775584,0.555069,0.354847
7708284471,-63.632820,1.960606,-14.839855,0.898815,0.421498,0.377416
7708304432,-79.506813,0.125180,-11.132811,1.021684,0.275680,0.245739
7708324394,-91.253868,-1.066986,-2.464795,0.936998,0.176881,0.217575
7708344355,-98.793533,-16.746216,1.715487,0.776771,0.171396,0.282385
7708364316,-102.248459,-33.726315,-6.672031,0.853211,0.190218,0.405410
7708384277,-117.652435,-31.019140,-23.583065,0.889874,0.122087,0.571474
7708404238,-125.708282,-28.640108,-36.963017,0.878940,0.084599,0.610953
7708424199,-107.127411,-19.359711,-40.277588,0.844222,0.029659,0.608849
7708444160,-75.323151,-12.801225,-37.419746,0.896505,0.033924,0.496002
7708464121,-49.598953,-11.204027,-30.544600,0.888862,0.091584,0.380452
7708484083,-43.071758,-12.411146,-22.969763,0.795981,0.205890,0.323787
7708504044,-53.474266,-12.401152,-19.414362,0.783366,0.239883,0.389292
7708524005,-73.005539,-8.327508,-17.701483,0.830059,0.156778,0.551688
7708543966,-79.789421,-11.870310,-16.595375,0.876429,0.050774,0.677026
7708563927,-57.560822,-14.911338,-14.862880,0.963846,-0.032583,0.570902
7708583888,-20.145506,-11.842957,-14.151846,0.947334,0.100431,0.461332
7708603849,5.407922,-10.009206,-14.677295,0.907641,0.330615,0.403562
7708623810,1.539716,-12.673111,-18.108923,0.836921,0.484860,0.340002
7708643773,-21.320608,-17.367165,-25.038279,0.747065,0.522375,0.299312
7708663734,-51.263371,-17.472298,-26.548702,0.828456,0.434813,0.311800
7708683695,-82.919968,-13.986991,-22.787924,1.001501,0.278027,0.305066
7708703656,-104.700989,-13.009784,-17.715742,1.108407,0.234735,0.248546
7708723617,-111.814651,-22.767206,-21.587679,0.929040,0.306400,0.248271
7708743579,-99.855545,-30.445116,-31.273897,0.684042,0.154047,0.410549
7708763540,-97.046173,-33.884090,-31.365726,0.791384,-0.157525,0.489196
7708783501,-99.204636,-32.750736,-30.904011,1.015421,-0.259221,0.431683
7708803462,-67.870148,-26.494661,-35.431763,0.986311,0.035827,0.490788
7708823423,-35.792679,-19.069021,-43.336094,0.967263,0.368968,0.513848
7708843384,-43.962814,-7.706290,-52.001648,0.929553,0.432318,0.467863
7708863345,-60.090637,-4.790702,-53.478523,0.840924,0.340458,0.445159
7708883305,-65.536453,-4.387435,-46.932281,0.813132,0.167939,0.426257
7708903266,-55.895733,-1.498693,-36.013935,0.818225,0.017431,0.419073
7708923227,-35.650757,0.708898,-21.758131,0.823428,0.000791,0.490924
7708943188,-12.660576,-6.525171,-8.883186,0.857550,0.191347,0.429785
7708963150,-3.019958,-6.144594,-8.533141,0.832792,0.433472,0.422269
7708983111,-15.243258,-6.374921,-21.406885,0.801543,0.575495,0.414998
7709003072,-34.341045,-10.994603,-30.744942,0.916019,0.587904,0.356156
7709023033,-53.219795,-11.599227,-36.141781,1.044112,0.401267,0.308838
7709042994,-63.956688,-8.939578,-35.323635,1.022869,0.213577,0.276555
7709062955,-73.095703,-11.161015,-23.822201,0.952532,0.234422,0.241048
7709082916,-89.925484,-16.132771,-11.871528,0.797020,0.265358,0.294694
7709102878,-108.805099,-19.967361,-4.930750,0.761588,0.086980,0.392035
7709122839,-114.682327,-28.454723,-6.827251,0.878714,-0.013679,0.460486
7709142800,-95.252747,-28.739431,-22.920475,0.895686,0.045756,0.546241
7709162761,-65.876549,-22.827148,-38.845886,0.893166,0.263188,0.556657
7709182722,-53.077324,-13.977445,-46.155781,0.880296,0.383668,0.500174
7709202683,-49.302036,-7.852799,-42.623375,0.897594,0.318534,0.409495
7709222646,-48.156292,-6.786747,-32.610752,0.874992,0.154851,0.351934
7709242607,-51.965370,-8.280214,-21.252172,0.786601,0.021264,0.379000
7709262568,-53.523674,-8.453710,-11.724763,0.748798,-0.025941,0.462401
7709282529,-48.761314,-6.276085,-2.900973,0.858555,0.085495,0.496009
7709302490,-39.052143,-5.696000,5.964320,0.901101,0.277067,0.454495
7709322452,-29.436602,-9.212574,8.338890,0.856696,0.402163,0.467658
7709362374,-27.970913,-16.598440,-12.660307,0.809052,0.316010,0.404179
7709382335,-35.733734,-9.519680,-14.343442,0.940708,0.288914,0.297854
7709402296,-54.346237,-6.817811,-5.081600,1.290431,0.170383,0.241010
7709422257,-74.233376,-6.465951,-5.405887,1.234831,0.192886,0.180158
7709442218,-92.386192,-32.320850,-25.668196,0.704184,0.794510,0.292246
7709462178,-115.042542,-60.413464,-76.550140,0.700299,1.157111,0.301716
7709482139,-149.225891,-73.201683,-113.923172,1.022072,0.878268,0.302350
7709502100,-175.835999,-78.698669,-155.304459,1.442995,0.521460,0.331669
7709522061,-166.476135,-69.386635,-198.934158,1.291676,0.267282,0.378770
7709542023,-127.553375,-67.230850,-225.948486,1.143270,0.199080,0.327810
7709561984,-85.270248,-57.550594,-227.250031,0.994772,0.089228,0.275527
7709581945,-57.101917,-52.328697,-214.156509,0.842832,-0.017923,0.299992
7709601916,-47.227280,-48.799896,-187.201904,0.735328,-0.054004,0.298976
7709621867,-30.684473,-44.983856,-135.514587,0.706840,-0.168429,0.261444
7709641828,-14.226014,-44.651543,-76.771790,0.687774,-0.601658,0.136242
7709661790,19.033480,-62.158535,-5.614005,0.400038,-0.840878,-0.059351
7709681751,66.971535,-108.494537,78.074417,0.259047,-0.187835,0.115227
7709701712,127.592300,-94.334732,90.829231,1.140358,1.051610,0.497828
7709721673,72.136986,-6.346547,59.253693,1.357096,1.297541,0.542395
7709741634,-26.935635,5.679143,50.559967,0.947323,1.136465,0.183469
7709761595,-54.930496,9.940895,52.950413,0.913747,0.645378,0.038733
7709781556,-91.523232,9.053517,64.032784,0.896868,0.420029,0.051312
7709801519,-108.541298,-16.288280,62.382698,0.804224,0.317979,0.143439
7709821480,-91.157394,-14.070528,28.223766,0.621277,0.328184,0.432498
7709841441,-52.070942,-13.220654,2.524898,0.825202,0.556472,0.230888
7709861402,-19.729616,-21.608624,1.088481,1.265979,0.887901,0.076735
7709881363,-80.560707,-11.841230,-10.951444,1.026367,1.019191,0.101788
7709901324,-150.647903,-37.454296,-23.743200,0.821724,0.519968,0.206107
7709921286,-156.128860,-70.130775,-39.012730,1.093625,-0.015532,0.230702
7709961208,-49.398262,-57.021206,-70.403358,1.255055,0.489185,0.372369
7709981169,-83.202011,-40.849197,-76.724602,1.100763,0.634840,0.389646
7710001130,-138.413528,-33.089268,-79.764679,0.929351,0.509030,0.299049
7710021091,-143.728271,-26.736973,-83.320824,0.734653,0.191542,0.138133
7710041051,-101.328003,-27.848202,-73.198959,0.568206,-0.155471,0.035861
7710061012,-53.884876,-40.920002,-46.603905,0.366907,-0.166312,0.059574
7710080973,-28.947823,-58.870052,-19.681280,0.413837,0.085594,0.274675
7710100935,-13.965733,-60.476379,-19.416866,0.761000,0.456616,0.611712
7710120896,-5.927360,-42.766392,-22.687805,0.951620,0.618887,0.592061
7710140857,-6.859923,-29.089392,-11.213370,0.973384,0.576772,0.350379
7710160818,-2.336866,-7.968586,-3.101729,0.946077,0.538346,0.251796
7710180779,0.791139,1.735752,2.070083,0.887153,0.559312,0.350996
7710200740,-10.285720,0.404897,7.143140,0.911195,0.545923,0.447180
7710220702,-7.399209,1.077582,17.177286,0.867054,0.454162,0.350710
7710240662,16.986633,-5.201571,26.860271,0.752077,0.344703,0.112632
7710280585,-14.006060,-14.563534,45.456974,0.739544,0.386629,0.117634
7710300546,-31.054113,-8.547010,71.704132,0.724141,0.348389,0.102498
7710320507,-37.369972,-19.916622,91.698341,0.679727,0.412397,0.065667
7710340468,-37.946617,-34.236923,86.906158,0.998513,0.504450,0.059352
7710360429,-45.986290,-21.821207,83.946701,1.379038,0.548426,0.141009
7710380392,-83.380730,4.135835,89.529510,1.339724,0.447832,0.208776
7710400353,-126.818634,8.155234,64.243843,1.005827,0.205959,0.502200
7710420314,-135.151749,-16.232735,2.649496,0.867147,0.225748,0.632374
7710440275,-126.512787,-34.453972,-62.647141,1.086748,0.406540,0.507229
7710460236,-80.444260,-25.447662,-105.456833,1.064116,0.368130,0.406819
7710480197,-27.417923,-16.770649,-130.870895,1.034956,0.362378,0.371957
7710500158,-16.428806,-6.520499,-125.423462,1.004316,0.496751,0.171135
7710520120,-57.099373,-1.222315,-100.604210,0.979097,0.238164,0.173815
7710540080,-79.907745,-4.120588,-65.551453,0.880829,-0.267990,0.115468
7710560042,-26.277765,-21.142057,-34.285332,0.528444,-0.260618,-0.003031
7710580003,26.875977,-43.830826,-12.104425,0.358371,0.240325,0.143181
7710599964,18.365873,-47.615746,-13.113514,0.552763,0.735494,0.388874
7710619924,-25.456079,-37.049110,-16.727306,0.812523,0.845466,0.497104
7710639885,-52.416882,-21.728880,-0.954659,0.915023,0.620388,0.401228
7710659846,-47.805969,-7.186000,18.748545,0.971261,0.383113,0.358612
7710679807,-45.262039,1.914955,33.003853,0.899132,0.305832,0.337519
7710699768,-37.686588,8.087765,47.560974,0.804113,0.266027,0.295724
7710719729,-20.569191,4.002279,66.278412,0.741333,0.341793,0.241881
7710739691,-9.503248,-10.362374,57.942562,0.886559,0.660017,0.131788
7710759652,-0.578400,-8.784778,36.089424,1.082249,0.571620,0.099581
7710779613,-10.898873,-12.366934,38.474113,1.005679,0.242395,0.083991
7710799574,-36.991379,-21.002161,59.400688,0.907763,0.109987,0.191271
7710819535,-57.653835,-20.035351,76.149094,0.873172,0.156138,0.270743
7710839497,-67.869621,-2.885742,79.072342,1.152231,0.286154,0.221462
7710859458,-84.570465,24.807878,58.469185,1.380816,0.518378,0.263284
7710879418,-112.505707,7.551583,10.187126,0.892016,0.962512,0.470146
7710899379,-121.505890,-20.416151,-55.160824,0.670564,0.989024,0.603609
7710919341,-114.822830,-24.337536,-95.918373,0.814686,0.444141,0.405462
7710939302,-89.900314,-34.387089,-137.259171,1.377979,0.203268,0.164674
7710959263,-32.204594,-6.131122,-179.710098,1.191529,0.328605,0.280405
7710979225,-8.856683,-6.926007,-186.166245,0.970830,0.341419,0.322953
7710999187,-3.159537,-14.089720,-162.047928,0.896775,0.078592,0.106441
7711019148,-9.351518,-22.011988,-129.422073,0.797453,-0.209790,-0.072781
7711039109,-39.091869,-15.645766,-74.377625,0.583833,-0.401953,0.298801
7711059070,-57.685356,-30.186020,-9.512696,0.571278,-0.299328,0.644564
7711079031,50.723358,-73.431564,13.116802,0.725977,0.037319,0.097155
7711098996,114.652222,-60.551239,0.080471,0.932128,0.583775,0.147077
7711118954,68.372276,-6.429975,12.020063,0.919273,0.939090,0.684569
7711138915,-27.031902,28.558014,52.028164,0.892125,0.889440,0.433736
7711158876,-44.037266,32.777676,92.356506,0.888971,0.429042,0.333038
7711178837,-30.599619,35.656788,108.273651,0.899572,0.018685,0.189156
7711198797,-5.890622,36.018524,108.066376,0.764009,0.103029,0.048604
7711218758,23.441969,19.999256,88.819069,0.728075,0.449064,0.108479
7711238719,44.797710,16.604538,79.734299,0.877518,0.486785,0.145752
7711258680,31.967714,18.714958,95.231850,0.965338,0.268593,0.174886
7711278641,-11.005126,23.909012,117.569527,0.912599,0.035136,0.285378
7711298602,-46.107632,29.443287,136.304932,0.831879,-0.014268,0.374493
7711318564,-53.267651,28.042282,146.726395,0.986057,0.093994,0.396583
7711338525,-47.877197,43.736691,146.660019,1.431550,0.172439,0.413394
7711358486,-29.577616,78.737709,139.526550,1.693008,0.177038,0.459274
7711378447,-8.780155,123.390312,125.510910,1.401567,0.269166,0.610595
7711398408,-60.777344,128.382324,82.527344,0.621529,0.743366,0.709087
7711418369,-88.621979,1.558493,-4.949348,0.513793,1.005689,0.326455
7711438330,-46.319057,-27.191774,-86.663925,0.937651,0.929806,0.254791
7711458291,-40.700626,-46.089108,-167.656845,1.128099,0.733839,0.378417
7711478252,-35.142830,-58.954979,-218.263397,1.364099,0.432003,0.256379
7711498214,-2.664769,-53.570332,-245.774399,1.406228,0.217916,0.117145
7711518175,8.167674,-54.953911,-254.737549,1.162064,0.159817,0.080107
7711538136,0.471741,-73.012085,-250.114075,0.902905,0.149802,0.057124
7711558098,-29.267262,-86.570908,-236.538712,0.940308,0.247846,0.255265
7711578059,-63.397751,-56.913052,-215.885666,1.083363,0.190598,0.376752
7711598021,-67.470695,-43.276958,-188.218140,1.019283,-0.029540,0.252060
7711617982,-30.491375,-40.058064,-170.166977,0.769470,-0.038580,0.258918
7711637943,2.712141,-41.153732,-155.590195,0.560853,0.337918,0.446165
7711657904,13.021502,-33.933434,-118.879715,0.565361,0.500400,0.452237
7711677868,5.842943,-33.045700,-67.266411,0.696400,0.242037,0.406694
7711697827,12.711737,-36.735649,-23.310680,0.851192,-0.005915,0.051350
7711717788,32.932907,-7.521943,25.292303,0.887021,-0.148501,0.116720
7711737749,73.798683,9.618977,59.500954,0.526157,-0.033385,0.342609
7711757710,89.102791,2.039132,77.284126,0.587671,0.576524,0.532991
7711777670,86.006607,19.129852,62.319988,1.058625,1.041609,0.489572
7711797631,37.627666,58.896164,61.205132,1.124303,0.731776,0.228221
7711817592,41.190746,61.888130,68.437546,0.878765,0.364180,-0.013761
7711837553,58.190460,56.085350,76.380203,0.691399,0.481583,0.130677
7711857514,58.379753,56.090210,86.611359,0.798477,0.642938,0.281706
7711897437,-13.506396,69.050011,108.963287,0.973305,0.513813,-0.089240
7711917398,-40.153904,39.994141,98.194809,1.229649,0.596588,-0.320834
7711937359,-21.779697,-15.586266,68.982750,0.718142,0.780889,0.141290
7711957320,-0.863921,3.663422,46.406662,0.687025,0.723855,0.664348
7711977281,-25.281261,44.923969,9.721293,0.642110,1.281980,0.376735
7711997242,13.860945,23.938290,-24.323469,0.825729,0.859087,0.100822
7712017203,-27.411482,-1.528779,-43.509167,0.940818,0.273571,-0.055577
7712037164,3.584394,-12.984298,-14.572624,0.823385,0.010137,0.253190
7712057126,23.609852,-17.750193,18.264162,0.858331,0.232394,0.384051
7712077087,28.521927,11.303356,34.918495,1.013259,0.512539,0.511703
7712097048,-2.898505,44.669067,46.915447,0.966734,0.517618,0.372079
7712117009,-15.004451,59.410103,66.745255,0.809056,0.429938,0.107363
7712136972,1.501830,63.427986,86.541451,0.754951,0.447199,-0.062376
7712156933,-9.790804,53.446793,74.467064,0.773717,0.627894,-0.174721
7712176894,-47.311390,2.369644,13.916623,0.663464,1.043104,-0.086655
7712196855,-74.691002,-43.744617,-58.492744,0.566643,1.383767,0.153587
7712216816,-74.973404,-69.380096,-96.220268,0.783852,1.219426,0.382909
7712236777,-70.392822,-67.498459,-121.253006,0.920143,0.876961,0.395844
7712256744,-44.185566,-66.235313,-162.257355,1.097714,0.768427,0.341324
7712276700,-7.201765,-55.032242,-189.845642,1.168481,0.718750,0.220320
7712296661,9.695385,-56.376972,-188.816345,1.024251,0.636747,0.173396
7712316626,14.711807,-56.835011,-177.984177,0.908285,0.578236,0.142997
7712336583,-9.023942,-60.581417,-168.949722,0.746049,0.543275,0.055360
7712356543,-47.919235,-61.614307,-146.961151,0.742475,0.348471,0.133520
7712376504,-94.589211,-51.876633,-87.348160,0.845657,-0.280236,0.279026
7712396465,-85.408524,-7.330330,-6.739315,0.699211,-1.015353,0.305956
7712416426,28.906178,3.690909,95.775452,0.301186,-1.104125,0.505728
7712436387,136.803238,-26.029982,164.291412,0.411996,-0.295446,0.330603
7712456348,190.573044,-37.419361,111.428535,1.141150,1.147535,0.045606
7712476309,149.981079,32.202255,27.744772,1.359102,1.627206,0.136906
7712496271,55.883095,58.633938,80.725098,1.089876,0.911921,-0.009299
7712516232,-41.770699,36.652893,124.415878,0.727972,0.534025,0.293034
7712536193,-98.362053,30.095236,139.235321,0.708862,0.327617,0.275211
7712556154,-62.289780,35.910633,149.925491,0.893201,0.065044,0.296643
7712576115,-20.755135,48.258492,161.640930,0.979356,-0.060017,0.346531
7712596076,10.902618,58.343185,178.093216,1.063091,0.019237,0.311710
7712616038,24.825035,69.942566,197.269989,1.275685,0.252280,0.242676
7712635999,4.901002,80.016327,186.996506,1.529642,0.454460,0.193482
7712655960,-26.631016,86.453690,112.589951,1.178212,1.078980,0.220244
7712675921,-31.798721,8.366847,3.045349,0.620126,1.606059,0.194181
7712695882,13.849637,-31.639896,-66.445160,0.913649,1.401245,0.177240
7712715844,21.484232,-23.901146,-108.575500,1.249347,0.950426,0.213273
7712735806,20.351349,-27.290661,-146.870346,1.241883,0.741749,0.042080
7712755767,24.843586,-30.867544,-182.436905,1.141691,0.856741,0.145539
7712775728,-21.906630,-31.233347,-192.737869,1.032521,0.728576,0.236606
7712795689,-79.862503,-46.033974,-194.751511,1.036963,0.366130,0.188352
7712815650,-98.969635,-35.662712,-191.999298,1.094194,-0.039166,0.330721
7712835612,-76.206146,-2.224902,-156.523926,1.002761,-0.575569,0.751798
7712855572,-24.413910,15.714811,-74.800995,1.037456,-1.653371,0.428698
7712875534,68.279770,33.117710,24.202374,0.745698,-2.021017,0.069583
7712895495,214.088837,14.639946,135.342667,0.446702,-1.026293,0.516957
7712915456,338.170929,-9.510271,148.569382,0.538864,0.819232,-0.690470
7712935416,299.043396,52.346790,52.182213,2.020034,2.086232,0.149340
7712955377,176.206573,166.870193,106.840866,1.482435,1.261128,-0.330998
7712975338,-2.310935,125.617210,153.890594,0.380540,0.501329,0.029947
7712995299,-115.738190,32.872707,172.810043,0.599072,0.315206,0.025986
7713015260,-83.318054,47.913235,181.668076,1.102907,0.237432,0.055805
7713035221,-17.930359,87.540695,171.252853,1.261689,0.187226,0.122828
7713055183,-7.756515,106.847565,144.937531,1.199759,0.217824,0.238387
7713075144,-19.203709,71.546944,82.385376,0.894702,0.871469,0.312965
7713095105,5.680042,-5.251769,-38.430775,0.690354,1.633422,0.088478
7713115066,50.911224,-12.576959,-125.806618,0.850136,1.663217,0.243905
7713135027,21.613937,-33.512932,-175.696625,1.327307,1.318083,0.216148
7713154988,21.908875,-27.827763,-206.972534,1.357702,0.883341,0.078492
7713174949,48.545494,-31.542500,-223.067169,1.202875,0.660722,0.080573
7713194910,42.217628,-34.855446,-216.632111,1.095870,0.455337,0.064309
7713214871,21.808636,-27.991974,-186.784790,0.866240,-0.014438,0.225330
7713234832,-10.208819,-24.881784,-120.844589,0.509566,-0.479944,0.165402
7713254794,-22.350246,-33.454269,-35.528973,0.383999,-1.008590,0.284219
7713274755,-18.765783,-24.605734,62.441353,0.619335,-1.482920,0.618573
7713294718,60.084267,-13.209947,170.052292,0.794214,-1.084033,0.282780
7713314679,202.217041,8.355809,216.959717,1.041874,0.180483,0.003258
7713334640,201.993881,69.793106,173.804840,1.602881,1.086785,0.277715
7713354601,149.400604,127.122574,141.358673,1.507656,1.187722,0.075710
7713374562,37.837673,114.812637,161.902039,1.140809,0.930268,-0.011580
7713394523,-37.846981,71.996262,169.889725,1.281955,0.846400,0.034817
7713414484,-53.004765,84.517670,162.815887,1.413935,0.604030,0.132725
7713434445,-51.451733,120.571609,149.728531,1.117484,0.287358,0.459752
7713454406,-82.952927,85.045792,94.570816,0.805130,0.437113,0.564851
7713474368,-19.278254,13.573710,-34.852932,0.774140,1.161163,0.239352
7713494329,104.444878,15.351044,-130.149200,0.723827,1.296046,0.202709
7713514288,108.653641,-0.606966,-166.320526,0.980680,1.015048,0.059585
7713534249,100.424080,-15.502028,-185.382462,1.018402,0.947880,-0.093701
7713554211,84.892326,-35.326141,-197.699020,0.797800,0.956703,0.055365
7713574172,20.496897,-44.631523,-207.665482,0.867315,0.827662,0.237964
7713594133,-72.060562,-33.090591,-193.803970,1.053704,0.388013,0.354215
7713614094,-128.758179,-24.707912,-135.641312,1.054975,-0.418626,0.275388
7713634055,-82.696106,-12.288385,-58.725586,0.723897,-1.464149,0.235174
7713654017,26.761433,8.895082,48.417843,0.289346,-2.214207,0.055545
7713693939,362.416718,-88.834854,225.686722,1.516364,0.985701,-0.138641
7713713900,274.079834,143.775299,171.845398,2.447621,1.849747,0.430326
7713733861,69.623306,165.957214,175.242477,0.659840,1.252588,0.050993
7713753822,-10.242491,80.404846,216.066483,0.854545,0.699316,0.391268
7713773783,-116.624504,103.170380,223.004654,1.302244,0.500269,0.312041
7713793745,-123.020699,134.609039,190.271729,1.420592,0.230550,0.114742
7713813706,-43.233841,110.061157,128.627304,1.053881,-0.036827,0.188433
7713833667,20.862120,39.681755,51.350151,0.694026,0.988330,0.261476
7713853628,87.271431,-18.719046,-112.160538,0.888868,2.234626,0.140915
7713873590,113.737831,-13.459575,-184.772324,1.099490,1.829717,0.368775
7713893552,39.295631,-48.932133,-217.478348,1.379996,1.150174,0.190269
7713913513,9.542251,-49.019619,-258.878113,1.256906,0.716362,0.262686
7713933474,-7.256972,-41.988670,-264.636169,1.221015,0.359596,0.593509
7713953435,-65.408386,-12.491437,-210.904144,1.291474,-0.570419,0.736428
7713973396,-88.767052,23.778080,-115.295113,1.128390,-2.013060,0.306858
7713993358,19.375252,67.785629,32.018547,0.400702,-2.923935,-0.093879
7714013318,228.079834,11.943773,196.859589,-0.318273,-2.188564,0.142055
7714033280,401.542358,-94.904236,211.936508,0.920589,1.277831,-0.351138
7714053241,360.195282,166.736771,124.669449,2.753256,1.990586,0.300674
7714073202,122.532448,184.123749,148.948669,0.718691,0.982296,0.089829
7714093165,-15.237465,106.823669,200.315582,0.829298,0.310417,0.197385
7714113123,-88.092918,104.799416,219.962097,1.124859,0.183654,0.036418
7714133084,-41.108242,105.703491,226.043335,1.300930,-0.118261,-0.052571
7714153045,13.914546,130.951874,226.483429,1.576675,-0.240269,0.185236
7714173006,5.140785,112.848648,192.063507,1.196717,0.190144,0.301527
7714192967,46.686516,-2.648822,98.909805,0.871344,1.542978,0.073792
7714212928,129.402634,-29.337265,-61.482731,1.174830,2.575246,0.095596
7714232889,91.005035,-3.277547,-104.521156,1.035306,1.892470,0.244456
7714252850,26.506413,-54.983658,-146.391190,1.496539,1.329818,0.149943
7714272812,-8.350636,-51.396957,-221.700058,1.484503,0.811827,0.369289
7714292773,-22.604130,-58.804928,-259.667908,1.256932,0.468508,0.395690
7714312734,-39.379242,-40.598862,-267.423462,1.118271,0.249998,0.479046
7714332695,-54.516258,-12.494766,-251.782654,0.981730,-0.071511,0.476162
7714352657,-46.246380,8.175734,-204.678741,0.950286,-0.629343,0.144607
7714372617,4.596133,7.000960,-148.681274,0.723338,-1.187253,-0.100655
7714392579,56.749935,-17.038620,-70.218575,0.448016,-1.290085,0.225533
7714412540,73.226158,-3.646698,49.736134,0.568819,-1.310443,0.516839
7714432501,140.488297,17.293070,184.092728,0.577300,-1.295402,0.338995
7714452462,226.680313,-28.988190,268.780273,0.698665,-0.634206,-0.354394
7714472425,293.149323,-71.941681,222.874939,2.018789,1.293617,-0.545797
7714492386,270.373840,120.028900,164.089493,2.326470,1.638308,0.101468
7714512347,132.292328,139.179626,221.299286,1.156263,0.978873,0.377288
7714532308,-28.874496,118.185867,254.244583,1.112540,0.482148,0.499087
7714552269,-140.003067,142.305161,253.712296,1.329401,0.220603,0.165776
7714572230,-100.389526,150.940399,227.828979,1.348289,-0.064986,-0.099472
7714592192,-14.697558,136.296265,191.621384,1.229327,-0.304527,0.101423
7714612152,75.429451,115.481598,168.506622,1.228670,0.266151,0.306422
7714632113,95.165581,42.233509,91.808174,0.820760,1.242370,0.094088
7714652075,115.102081,5.240219,-24.909634,0.925223,1.714682,0.024251
7714672036,122.448753,21.525776,-52.998112,1.064753,1.370924,0.087898
7714692001,70.814766,-3.195421,-61.927925,1.220504,0.850898,0.068949
7714711956,7.503066,-22.720631,-88.412865,1.064093,0.527470,0.126015
7714731917,-43.910782,-44.986488,-120.091087,0.829880,0.508716,0.256798
7714751879,-87.595299,-56.550201,-138.554169,0.845906,0.405507,0.346657
7714771840,-125.841957,-46.757236,-147.400269,0.962735,0.114329,0.446635
7714791801,-163.913513,-30.981663,-160.952530,1.152160,-0.166157,0.415273
7714811762,-148.201218,-29.075403,-182.548492,1.096887,-0.338168,0.324467
7714831723,-55.796120,-34.619873,-191.015762,1.024326,-0.269620,0.366998
7714851684,17.074270,-38.645733,-167.560516,1.138765,-0.228387,0.408307
7714871646,63.930096,-49.094242,-123.280418,1.045574,-0.492258,0.442883
7714891607,87.128181,-57.483139,-71.886795,0.753227,-0.780225,0.310836
7714911568,124.396469,-39.787170,-5.792564,0.628726,-0.878014,0.049717
7714931529,183.931107,-3.590897,82.994400,0.581539,-0.683332,0.082816
7714951490,231.170731,-3.137322,156.319336,0.546381,-0.044231,-0.062158
7714971451,236.822830,19.828129,202.189301,1.450546,0.943669,0.229367
7714991413,178.021500,106.256622,198.860382,1.690238,1.317158,0.322987
7715011374,20.807470,109.659035,147.532257,0.724806,1.127899,0.323042
7715031335,-90.743149,78.589935,105.195068,0.906314,0.957214,0.298023
7715051297,-114.626251,102.241211,97.536926,1.039428,0.543574,0.265170
7715071258,-87.879417,100.160744,103.806198,1.078256,0.146317,0.123321
7715091220,-39.521328,73.705208,79.620766,0.884402,0.216260,0.100681
7715111181,10.903831,34.593861,43.037216,0.996001,0.682068,0.150736
7715131142,18.052946,23.906439,4.173491,1.059051,1.117241,0.091584
7715151103,-29.124262,3.942996,-36.791199,0.802714,1.057919,0.248488
7715171064,-84.888893,-26.268616,-70.900528,0.970320,0.667049,0.398837
7715191025,-131.903076,-37.863674,-95.081825,1.160420,0.284088,0.471702
7715210986,-151.185791,-33.735481,-111.142609,1.268080,-0.109210,0.425664
7715230947,-131.401215,-24.117569,-126.171753,1.088623,-0.427113,0.371668
7715250908,-78.756241,-43.350449,-129.528473,0.849342,-0.384295,0.332976
7715270870,-19.370308,-50.391075,-110.166031,0.839491,-0.223683,0.325338
7715290829,7.554794,-28.826900,-91.856750,0.778152,-0.049520,0.387381
7715310790,10.632845,-13.179646,-73.754036,0.619347,0.114969,0.396435
7715330751,12.294096,-10.285955,-46.658676,0.562279,0.183195,0.378061
7715350713,18.809389,-10.978190,-17.636967,0.723276,0.170755,0.393511
7715370674,22.955158,-4.714056,6.585182,0.939263,0.174318,0.429650
7715390635,26.503700,10.679133,31.421633,0.953422,0.155747,0.487583
7715410596,37.935204,22.812551,55.021580,0.872569,-0.038967,0.716398
7715430558,80.302094,32.132683,75.100220,0.796451,-0.316560,0.757066
7715450519,132.617447,29.565582,110.537346,0.554328,-0.227687,-0.095068
7715470480,150.831360,5.445858,129.561569,1.391415,0.419575,0.096905
7715490441,112.895340,83.873497,98.764030,1.795007,1.074368,0.397729
7715510402,-13.087839,101.112335,90.800827,0.647786,0.867732,0.411125
7715530363,-119.398865,47.947071,96.221016,0.785153,0.256439,0.067696
7715550324,-139.152374,27.043053,80.992981,0.971366,0.091498,0.140471
7715570285,-116.120438,-27.625666,17.301086,0.701786,0.630540,0.453518
7715590246,-66.332542,-42.008842,-74.466194,0.887020,1.165356,0.500698
7715610207,-77.899315,-20.914934,-108.862846,0.903511,1.009390,0.495086
7715630168,-94.093658,-24.826328,-116.864220,0.980453,0.622231,0.312337
7715650131,-65.732834,-20.543106,-120.139008,1.049879,0.325790,0.292241
7715670092,-33.170021,-11.950965,-118.291092,1.028865,0.196996,0.284494
7715690053,-12.641516,-2.576819,-109.767471,0.967161,0.217436,0.277200
7715710014,-20.893696,4.381810,-107.695290,0.882696,0.224559,0.431250
7715729976,-47.404564,-8.942675,-101.008415,0.919130,0.073586,0.881323
7715749937,-31.947151,12.415559,-55.968864,0.943396,-0.483586,0.802473
7715769898,17.643599,48.116688,5.403388,0.533091,-1.421697,-0.105495
7715789859,119.075760,7.344431,81.815056,0.091376,-1.695055,-0.326483
7715809820,144.154617,-52.078629,197.603851,0.583681,-0.576330,0.969047
7715829782,82.603989,17.258303,214.631012,2.038695,1.100558,1.143923
7715849743,46.527515,112.865677,141.723053,1.535328,1.152853,0.297067
7715869715,-47.335926,57.079914,138.301102,1.013854,0.313919,0.206996
7715889663,3.694810,-13.770477,70.733902,0.998710,0.066029,-0.071604
7715909625,111.306786,-31.974245,35.051838,0.542054,0.439331,0.150484
7715929586,97.423653,-44.496117,-0.250908,0.817391,0.984550,0.283014
7715949546,36.899815,-7.839603,-8.967894,1.106160,1.243009,0.383789
7715969508,-25.413359,-26.078701,-29.675915,1.207102,0.921520,0.202044
7715989469,-49.241474,-24.521635,-60.774910,1.145940,0.376713,0.125068
7716009430,-44.039429,-11.228125,-75.076035,0.999258,0.253264,0.251067
7716029391,-35.508068,0.771200,-69.730415,0.871655,0.258384,0.336882
7716049352,-24.604654,3.702649,-62.025871,0.817166,0.118448,0.233362
7716069325,-18.158546,-7.551005,-62.321690,0.897620,0.045765,0.168461
7716089274,-14.048567,-15.962978,-60.049068,1.144059,0.075157,0.276856
7716109236,-5.363246,1.386747,-48.646999,1.199153,0.072847,0.450284
7716129197,-8.185618,11.626531,-36.293301,0.974380,0.037831,0.513757
7716149158,1.293527,3.436481,-24.850439,0.921555,0.062042,0.391279
7716169119,35.422890,-0.753376,-15.836603,0.988501,0.196337,0.285404
7716209041,104.324791,16.479694,-30.950092,0.748137,0.140809,0.240381
7716229004,98.493431,3.627414,-25.098722,0.486587,0.277576,0.164319
7716248965,44.591808,-27.884104,-3.311533,0.671627,0.504174,0.269360
7716268926,-45.064590,-29.331320,-3.157876,1.350826,0.843148,0.358948
7716288887,-85.674858,10.719267,-35.720772,0.930609,0.580037,0.350634
7716308849,-31.220930,-9.382848,-26.054375,0.521895,-0.066582,0.170240
7716328810,-6.577578,-27.051456,15.484064,0.648801,-0.053373,0.392903
7716348771,-10.553756,-30.488951,16.690367,0.934486,0.647092,0.314001
7716368736,11.329720,-6.064755,-21.607933,0.954190,1.019148,0.334039
7716388693,-35.279655,-14.489079,-26.591413,1.089435,0.924705,0.280697
7716408654,-87.806908,-16.825787,-31.580778,1.125964,0.738221,0.110494
7716428615,-100.321808,-12.807072,-53.485649,0.918624,0.535195,0.159736
7716448576,-98.421570,-35.187408,-76.358345,0.830757,0.321822,0.219990
7716468536,-92.131531,-45.427238,-83.251396,0.903246,-0.054053,0.321271
7716488497,-78.833267,-52.253632,-72.124298,0.856396,-0.224710,0.397695
7716508458,-63.430584,-47.863823,-61.955685,0.852406,-0.122942,0.448042
7716528420,-44.898407,-33.252239,-61.514042,0.777326,0.244293,0.475345
7716548381,-19.163090,-23.865231,-68.501167,0.718779,0.670008,0.379514
7716568342,-11.462851,-17.253965,-62.573460,0.714328,0.795963,0.230851
7716588303,-21.759092,-17.172279,-42.192089,0.724050,0.800989,0.158644
7716628225,-104.548141,-19.302767,-11.786093,0.738789,0.499654,0.318655
7716648187,-129.907837,-12.949494,-1.383237,0.857689,0.228799,0.485996
7716668148,-124.466599,-4.585857,2.576328,0.858949,0.024315,0.558303
7716688109,-62.910126,-18.909271,11.665588,0.656271,-0.129609,0.524780
7716708070,21.159027,-49.186905,30.446102,0.699744,-0.078722,0.616625
7716728031,60.907776,-55.800602,38.108444,0.852789,0.213469,0.372695
7716747992,60.495743,-32.060646,36.166664,0.861726,0.724649,0.313491
7716767953,23.676455,-10.109759,32.179531,0.879154,0.935826,0.538370
7716787915,-34.802425,-3.927776,33.419029,0.824169,0.809004,0.504653
7716807876,-74.059647,-9.927499,46.906082,0.822081,0.530619,0.425307
7716827838,-74.615601,-9.593693,60.678524,0.881664,0.253921,0.318471
7716847799,-58.918892,3.129528,70.532074,0.803809,0.073004,0.342590
7716867760,-49.583714,1.033787,75.590256,0.735480,0.050672,0.364650
7716887721,-43.195915,2.589569,72.800949,0.819758,0.196812,0.285489
7716907683,-42.077690,24.607525,64.127403,0.935262,0.369411,0.347157
7716927644,-54.484447,49.236225,50.244461,1.045810,0.503444,0.422388
7716947605,-89.175247,37.693764,30.171738,0.919131,0.797156,0.351966
7716967566,-141.771759,3.090050,-8.466619,0.899841,1.037671,0.206891
7716987527,-162.460175,-11.172073,-61.419456,0.864700,0.964792,0.214725
7717007488,-161.213867,-34.051605,-106.553322,0.978602,0.615124,0.179196
7717047421,-147.223312,-58.626411,-176.391602,1.243137,0.061119,0.132749
7717067370,-128.796753,-60.957935,-194.610107,1.199048,0.042347,0.210379
7717087331,-116.822227,-64.069878,-195.256516,1.152628,0.048105,0.310330
7717107292,-124.202652,-68.295990,-175.716690,1.106545,0.024545,0.357405
7717127253,-134.591751,-62.390999,-141.448120,1.071299,-0.174498,0.284710
7717147215,-124.635292,-47.701946,-112.468391,0.836800,-0.447835,0.317851
7717167176,-89.482635,-39.620567,-73.263657,0.683573,-0.641909,0.458273
7717187137,-37.240833,-30.649658,-29.753704,0.688435,-0.863593,0.463359
7717227059,134.411133,-47.897427,68.560570,0.590178,-0.454998,0.331020
7717247021,181.281219,-63.520298,100.083076,0.804303,0.016637,0.336146
7717266982,155.369751,-89.301605,92.681847,1.320871,0.979172,0.309001
7717286943,76.629631,-19.924469,49.748943,1.733976,1.848406,0.536004
7717306904,-0.000695,39.535515,47.615746,1.093595,1.282731,0.449475
7717326865,-55.783642,35.895775,66.304115,0.948995,0.510173,0.104882
7717346826,-23.493216,13.131201,108.308044,0.722687,-0.024079,0.347336
7717366788,6.581897,10.939611,128.826218,0.828013,-0.314856,0.591156
7717386749,-45.349808,66.639221,115.062202,0.857777,-0.140860,0.345353
7717406711,-54.726318,78.838951,104.714157,0.752687,0.016787,0.116831
7717426672,-12.155735,54.736046,125.405045,0.649514,-0.014707,0.246219
7717446633,-6.461944,53.146500,141.872482,0.768076,-0.145121,0.463068
7717466595,-47.585747,62.632484,134.626312,0.929652,-0.060274,0.667254
7717486556,-61.356853,57.515663,109.733124,1.177082,-0.027596,0.696299
7717506517,-40.251438,70.240005,94.825119,1.294722,-0.219916,0.644602
7717526478,-30.346786,76.639534,86.014221,1.117030,-0.272886,0.458084
7717546439,8.897839,42.625648,77.990585,0.988200,-0.012990,0.317603
7717566400,46.075150,-8.523801,50.814880,0.728331,0.329424,0.288287
7717586361,43.195122,-41.985847,-6.619235,0.771557,1.065806,0.324552
7717606322,-6.375795,-41.400425,-85.053520,1.186391,1.617272,0.510715
7717626293,-98.424690,-34.214916,-133.272812,1.139028,1.033091,0.479894
7717646243,-158.023758,-57.500130,-162.988129,1.272333,0.308009,0.234508
7717666204,-139.150925,-44.724873,-193.864105,1.304681,-0.127770,0.257537
7717686165,-95.366989,-30.670284,-218.390839,1.194775,-0.146104,0.399427
7717706126,-41.107628,-21.733328,-218.596771,1.176712,-0.118544,0.356664
7717726088,11.431637,-3.650835,-200.516388,0.959899,-0.246903,0.376827
7717746049,36.465565,7.679139,-165.379929,0.756749,-0.502056,0.233221
7717766010,67.114555,-12.394343,-96.382332,0.598294,-0.894425,0.292472
7717785971,96.884193,-51.071335,-14.647566,0.637090,-1.270425,0.180780
7717805932,136.433502,-24.977715,71.007149,0.684447,-1.196332,0.183804
7717825894,169.548752,-9.132332,136.786835,0.387356,-0.528304,0.296539
7717845855,198.243988,-29.316177,151.847809,0.940548,0.544046,0.040611
7717865816,161.814697,44.311775,156.816116,2.130594,1.117728,0.448886
7717885777,49.466583,82.792099,129.475281,1.025295,0.929676,0.388896
7717905738,-32.278107,67.198662,134.078094,1.049944,0.409669,0.296969
7717925699,-65.162842,74.871063,145.592529,1.170337,-0.199350,0.109727
7717945660,-50.367664,81.448860,142.413681,0.909846,-0.449071,0.098295
7717965622,-9.278725,79.371193,138.871689,0.991414,-0.308279,0.167603
7717985584,12.002705,63.843636,116.895218,1.016274,0.126482,0.470274
7718005545,11.217194,23.307211,69.405548,0.939212,0.665232,0.351946
7718025506,18.962559,1.488317,25.012575,0.965801,0.925358,0.306284
7718045467,-15.514323,-10.471640,-20.680664,1.009832,0.845278,0.406204
7718065428,-50.331726,-36.028992,-70.574425,1.129880,0.723349,0.314970
7718085389,-51.109848,-45.523479,-103.667816,1.391903,0.430002,0.182615
7718105350,-43.380020,-37.378834,-117.899765,1.351228,0.070411,0.198322
7718125312,-35.832664,-32.836472,-123.687515,1.146753,-0.013001,0.273614
7718145273,-24.974834,-31.942438,-134.520996,0.975949,0.094338,0.325819
7718165234,-12.099477,-21.601408,-148.860657,0.839048,0.120823,0.336807
7718185195,-8.369778,-11.624982,-143.573441,0.782070,0.079554,0.333797
7718205156,-5.842248,-8.652273,-121.165581,0.871007,-0.031423,0.279422
7718225116,7.141900,-6.130322,-94.540726,0.983824,-0.063107,0.262614
7718245077,5.247404,0.896659,-74.938873,1.015733,0.018828,0.262585
7718265038,-4.032311,7.733399,-59.542892,0.972568,0.119780,0.291556
7718284999,-17.573895,2.886917,-44.378807,0.967242,0.123414,0.268998
7718304960,-31.485699,-3.041394,-30.754980,1.008225,0.119788,0.261340
7718324921,-35.036430,-5.880648,-18.847097,1.039876,0.153493,0.238876
7718344883,-24.247561,-7.704406,-8.616138,0.986480,0.128233,0.270274
7718364844,-9.764530,-6.100551,-1.163409,0.927505,0.114499,0.315039
7718384805,-2.675431,-1.009987,3.937315,0.877483,0.152574,0.316048
7718404766,0.365495,-2.417829,8.283022,0.873059,0.119248,0.284185
7718424727,6.740582,-2.766966,14.937756,0.875629,0.098252,0.298600
7718444689,12.029994,0.361261,20.824764,0.842041,0.142878,0.355259
7718464650,18.288927,3.722010,22.881977,0.819436,0.201304,0.356346
7718484611,23.686846,0.749842,24.558748,0.836511,0.214740,0.317465
7718504572,24.327168,0.144547,27.104219,0.904815,0.243809,0.289830
7718524533,19.034853,2.429396,31.697680,0.918740,0.323381,0.301986
7718544494,10.108341,1.401128,39.372967,0.920069,0.359279,0.302424
7718564455,-1.053862,-5.474295,51.550133,0.954521,0.355754,0.265961
7718584418,-11.364939,-9.360349,61.623371,1.060573,0.299569,0.253436
7718604379,-17.885569,-0.810921,55.821091,1.102487,0.233127,0.302281
7718624340,-21.167381,8.177144,42.636776,0.952196,0.301076,0.385649
7718644301,-25.599781,5.005132,23.964506,0.865764,0.341509,0.354262
7718664262,-22.912449,-1.057481,4.895081,0.863626,0.357973,0.278736
7718684223,-20.692869,1.251718,-19.273310,0.970017,0.245911,0.187454
7718704185,-13.718958,21.125076,-22.459929,0.678841,-0.170325,0.186473
7718724146,-10.614688,-8.717893,4.400731,0.707204,-0.501601,0.353781
7718744107,-46.464832,-22.711269,22.836514,1.073563,-0.267192,0.555722
7718764068,-35.841568,-19.735420,-8.143161,1.019746,0.321607,0.376626
7718784030,2.677005,-0.944650,-41.824421,0.894783,0.476380,0.447745
7718803992,10.581147,6.755264,-31.245350,0.984697,0.464084,0.422641
7718823950,6.426588,10.306154,-23.060234,1.017694,0.605362,0.341435
7718843911,5.811081,16.760803,-32.513138,0.887693,0.631485,0.369857
7718863873,-24.692532,14.453016,-44.829449,0.859811,0.543590,0.338094
7718883834,-44.342098,10.923749,-42.308708,0.854613,0.349828,0.312215
7718903795,-29.366899,5.467126,-35.617920,0.867394,0.271274,0.282866
7718923756,-17.712671,-3.065430,-35.930946,0.874561,0.359707,0.224726
7718943717,-22.112453,-5.301460,-39.213181,0.842376,0.429785,0.238833
7718963678,-38.551476,-6.379105,-37.740421,0.779163,0.447893,0.282453
7718983639,-52.969944,-16.852968,-38.888062,0.842609,0.497375,0.273517
7719003600,-62.195488,-15.997420,-44.065449,0.916269,0.497065,0.323227
7719023561,-61.650658,-14.496945,-42.062286,0.893295,0.416827,0.339965
7719043522,-54.501980,-17.723047,-39.089149,0.883662,0.394880,0.299261
7719063483,-51.164963,-21.876791,-42.062138,0.856457,0.475263,0.244447
7719083444,-61.676914,-24.430073,-50.175789,0.823837,0.530609,0.276453
7719103406,-75.870300,-24.408918,-54.616993,0.808747,0.509481,0.306664
7719123367,-77.944336,-28.286707,-53.775623,0.841663,0.450400,0.249410
7719143328,-74.452515,-33.666191,-53.406933,0.896979,0.428686,0.202244
7719163290,-78.105888,-37.222961,-58.028053,0.895115,0.454645,0.235659
7719183252,-85.413231,-40.267864,-63.504433,0.868164,0.478065,0.270296
7719203213,-86.708015,-42.072174,-66.511421,0.884369,0.462801,0.251174
7719223174,-84.624107,-44.452045,-66.751427,0.925796,0.437698,0.204901
7719243135,-85.434952,-48.459206,-67.719559,0.936913,0.430405,0.211326
7719263096,-90.925903,-51.277008,-70.845161,0.914437,0.452035,0.238697
7719283057,-92.430740,-52.167744,-73.694824,0.903977,0.454848,0.212234
7719303018,-92.169044,-52.424706,-76.251213,0.889984,0.447188,0.200629
7719322979,-94.425568,-54.822239,-80.801147,0.884068,0.452458,0.165193
7719342941,-95.114197,-61.370396,-85.810242,0.877234,0.453025,0.149396
7719362902,-94.484360,-66.068977,-87.956528,0.859783,0.479756,0.162297
7719382869,-93.554428,-69.666161,-86.513680,0.897664,0.493281,0.131809
7719402823,-96.550858,-73.265976,-85.053444,0.934308,0.515721,0.125830
7719422784,-103.825996,-73.756142,-86.966515,0.928904,0.557254,0.183604
7719442745,-113.135315,-73.034889,-87.233627,0.906566,0.552058,0.204132
7719462706,-117.278717,-73.937439,-88.816978,0.926981,0.507724,0.145679
7719482667,-112.028366,-73.519173,-91.805664,0.936002,0.469924,0.140635
7719502628,-100.410919,-69.001366,-95.781219,0.921817,0.450293,0.199340
7719522589,-88.056061,-66.338654,-94.583206,0.901262,0.508108,0.197288
7719542550,-94.082878,-66.209129,-92.698364,0.873394,0.559149,0.193118
7719562512,-106.137169,-62.542530,-92.424927,0.924937,0.624025,0.196643
7719582473,-114.205872,-52.433266,-92.739922,0.885593,0.565534,0.240589
7719602434,-108.267105,-49.006035,-92.163795,0.756140,0.510231,0.239849
7719622395,-98.339645,-51.061657,-85.130486,0.721240,0.517647,0.212498
7719642356,-92.451691,-51.961948,-77.262222,0.771504,0.543979,0.183848
7719662317,-100.026871,-49.304886,-68.965652,0.758656,0.561213,0.215749
7719682278,-113.839584,-49.649937,-62.089241,0.729440,0.537160,0.228629
7719702239,-122.683746,-51.534538,-56.552612,0.758235,0.472518,0.186050
7719722201,-117.710793,-60.468739,-55.437542,0.732153,0.454789,0.123758
7719742163,-110.939713,-72.704407,-59.464802,0.690668,0.499933,0.135553
7719762124,-113.659058,-79.807716,-60.153809,0.676512,0.541991,0.254260
7719782085,-119.013779,-82.308212,-52.813629,0.726198,0.510977,0.331898
7719802047,-114.219627,-78.558456,-41.214355,0.763642,0.385015,0.304324
7719822008,-95.988129,-79.019028,-33.321148,0.774286,0.270137,0.257228
