Timestamp (us),Gyroscope X (deg/s),Gyroscope Y (deg/s),Gyroscope Z (deg/s),Accelerometer X (g),Accelerometer Y (g),Accelerometer Z (g)
8969304185,-0.034836,0.070080,-0.116400,0.273149,-0.157454,-0.946804
8969306688,0.025799,0.008879,-0.115908,0.270953,-0.158160,-0.946105
8969309190,0.025549,-0.112686,-0.054545,0.271713,-0.158161,-0.949014
8969311694,-0.035208,-0.112106,0.005990,0.274612,-0.158196,-0.948253
8969314196,-0.035080,-0.051141,0.005636,0.273917,-0.155272,-0.948238
8969316699,-0.034944,0.009508,-0.055340,0.275353,-0.155292,-0.946763
8969319201,-0.034933,0.009505,-0.055322,0.274628,-0.156738,-0.948241
8969321704,0.025692,-0.051379,0.005773,0.275290,-0.161125,-0.946809
8969324207,-0.035055,-0.051114,0.005667,0.277525,-0.156047,-0.946745
8969326709,-0.035044,-0.051098,0.005666,0.279028,-0.153871,-0.948899
8969329212,-0.095657,0.010096,0.005208,0.276793,-0.159676,-0.949699
8969331715,-0.034771,0.070774,0.004958,0.274580,-0.161113,-0.948276
8969334217,-0.034635,0.131385,-0.056017,0.277470,-0.161150,-0.946785
8969336745,-0.034749,0.070711,0.004975,0.278891,-0.162629,-0.945322
8969339221,0.025876,0.009807,0.066051,0.276057,-0.158215,-0.947507
8969341724,0.025868,0.009804,0.066030,0.273902,-0.158184,-0.949720
8969344227,0.025985,0.070434,0.005035,0.275331,-0.159661,-0.948986
8969346730,0.026102,0.131045,-0.055940,0.276024,-0.159677,-0.946060
8969349232,0.025969,0.070370,0.005051,0.273836,-0.161108,-0.946825
8969351735,0.025844,0.009419,0.005402,0.273133,-0.158912,-0.946816
8969354238,0.025702,-0.050921,0.126996,0.270243,-0.158875,-0.948307
8969356740,0.086443,-0.051450,0.066438,0.270212,-0.161791,-0.948330
8969359243,0.147173,-0.052276,-0.054723,0.273126,-0.161096,-0.948292
8969361746,0.147127,-0.052260,-0.054706,0.275355,-0.157474,-0.948968
8969364249,0.086216,-0.112628,0.006181,0.276090,-0.157481,-0.949690
8969366751,0.147045,-0.051911,0.005931,0.276024,-0.160404,-0.946795
8969369254,0.147124,0.008738,-0.055045,0.277469,-0.159695,-0.945315
8969371757,0.086347,0.008687,-0.115753,0.278277,-0.155323,-0.948189
8969374259,0.086320,0.008685,-0.115717,0.277568,-0.156038,-0.950392
8969376762,0.086168,-0.051951,-0.054707,0.276800,-0.158220,-0.948958
8969379265,0.086131,-0.051638,0.005933,0.274603,-0.158198,-0.947523
8969381768,0.086211,0.009605,0.066201,0.271680,-0.158895,-0.946832
8969384270,0.086300,0.070532,0.065829,0.272406,-0.158177,-0.946089
8969386773,0.146906,0.009034,0.005642,0.274628,-0.158193,-0.949712
8969389276,0.146869,0.008735,-0.054982,0.276809,-0.158945,-0.950423
8969391778,0.146814,0.009029,0.005657,0.277542,-0.155316,-0.947468
8969394281,0.146874,0.070253,0.065926,0.274636,-0.157464,-0.949706
8969396784,0.207577,0.069685,0.005387,0.274605,-0.160380,-0.949729
8969399287,0.146781,0.069615,-0.055341,0.278988,-0.157516,-0.948928
8969401789,0.146619,0.008663,-0.054972,0.278979,-0.156791,-0.947464
8969404292,0.085699,-0.051427,0.066538,0.278220,-0.158971,-0.946760
8969406795,0.024816,-0.112092,0.066765,0.274620,-0.158195,-0.948982
8969409298,-0.035806,-0.051176,0.005666,0.273158,-0.158180,-0.948269
8969411800,0.024838,-0.112635,-0.054503,0.276057,-0.158942,-0.948243
8969414303,0.085579,-0.113144,-0.115004,0.274594,-0.156746,-0.945324
8969416805,0.146167,-0.173991,-0.053890,0.274593,-0.156018,-0.944588
8969419308,0.146228,-0.112709,0.006398,0.273044,-0.164023,-0.943939
8969421811,0.146298,-0.051744,0.006044,0.275281,-0.161126,-0.946080
8969424314,0.146484,0.070132,0.005338,0.278922,-0.159712,-0.945299
8969426816,0.085698,0.070358,0.005233,0.277436,-0.160430,-0.943132
8969429319,0.024941,0.070288,-0.055495,0.273207,-0.155987,-0.950440
8969431822,0.024817,0.009336,-0.055126,0.273224,-0.155984,-0.951899
8969434324,0.024693,-0.051597,-0.054757,0.273820,-0.161839,-0.946102
8969436827,0.085309,-0.112759,-0.054284,0.278163,-0.161166,-0.943859
8969439330,0.085273,-0.112427,0.006356,0.279640,-0.158995,-0.943826
8969441833,0.085228,-0.111798,0.127598,0.272406,-0.157449,-0.945353
8969444335,0.145941,-0.112011,0.127662,0.275346,-0.157476,-0.948239
8969446838,0.206644,-0.112521,0.067104,0.276784,-0.159678,-0.948970
8969449341,0.267221,-0.174258,-0.053706,0.277511,-0.160414,-0.949697
8969451843,0.327885,-0.174748,-0.114208,0.280417,-0.158266,-0.947459
8969454346,0.267159,-0.113515,-0.114628,0.279634,-0.162633,-0.946773
8969456849,0.206558,0.008926,-0.054777,0.275321,-0.158209,-0.946786
8969459352,0.145745,0.009468,0.005759,0.275371,-0.156016,-0.948957
8969461854,0.145708,0.009168,-0.054865,0.277543,-0.156770,-0.948939
8969464357,0.145778,0.070095,-0.055200,0.276009,-0.162589,-0.947542
8969466860,0.145723,0.070370,0.005439,0.279700,-0.160437,-0.950403
8969469363,0.145534,0.010308,0.187656,0.282599,-0.160473,-0.949641
8969471865,0.145363,-0.050328,0.248571,0.277469,-0.160423,-0.946050
8969474368,0.084471,-0.111290,0.188119,0.274539,-0.162576,-0.946100
8969476871,0.084695,0.010011,0.066112,0.273844,-0.160379,-0.946820
8969479373,0.145408,0.009759,0.066195,0.273134,-0.160367,-0.948286
8969481876,0.145478,0.070686,0.065822,0.274514,-0.163309,-0.944647
8969484379,0.145423,0.070961,0.126424,0.278922,-0.159712,-0.945299
8969486881,0.145503,0.131571,0.065410,0.276032,-0.158948,-0.946054
8969489384,0.084611,0.070552,0.005015,0.273886,-0.160370,-0.950467
8969491887,0.084593,0.070233,-0.055609,0.280370,-0.164095,-0.948965
8969494391,0.084567,0.070211,-0.055591,0.274588,-0.160384,-0.948270
8969496894,0.084549,0.069892,-0.116196,0.273110,-0.161099,-0.946833
8969499396,0.084407,0.008940,-0.115808,0.275315,-0.161119,-0.948998
8969501899,0.145013,-0.052538,-0.175938,0.274612,-0.158924,-0.948988
8969504402,0.144967,-0.052521,-0.175882,0.273860,-0.158921,-0.946808
8969506905,0.205652,-0.052456,-0.115101,0.276008,-0.161135,-0.946072
8969509407,0.144839,-0.051895,-0.054547,0.276040,-0.158946,-0.946784
8969511910,0.144784,-0.051582,0.006093,0.276066,-0.159668,-0.949707
8969514413,0.084106,0.009910,0.066257,0.278212,-0.158246,-0.945295
8969516915,0.023447,0.071382,0.126403,0.269498,-0.156688,-0.944650
8969519418,0.023672,0.193219,0.125660,0.272431,-0.158171,-0.948277
8969521921,0.084529,0.253543,0.064750,0.276017,-0.161860,-0.947537
8969524423,0.145144,0.191691,-0.056059,0.275273,-0.161128,-0.945350
8969526926,0.205741,0.129859,-0.176830,0.270878,-0.160357,-0.941746
8969529429,0.144830,0.068840,-0.237149,0.278971,-0.157520,-0.947470
8969531932,0.144543,-0.052744,-0.175748,0.277536,-0.158954,-0.950415
8969534434,0.144372,-0.113361,-0.114719,0.274521,-0.161852,-0.943905
8969536937,0.144308,-0.112732,0.006561,0.279633,-0.161179,-0.945302
8969539440,0.205002,-0.112945,0.006663,0.276776,-0.159680,-0.948240
8969541942,0.265687,-0.113454,-0.053857,0.274587,-0.159656,-0.947535
8969544445,0.265603,-0.113419,-0.053840,0.277453,-0.160426,-0.944591
8969546948,0.204799,-0.113728,-0.175172,0.274540,-0.164031,-0.947570
8969549451,0.265581,-0.052714,-0.114742,0.273095,-0.164012,-0.948316
8969551953,0.204874,0.008481,-0.115162,0.273100,-0.158919,-0.943898
8969554459,0.204917,0.069705,-0.054855,0.276040,-0.158219,-0.946049
8969556959,0.204843,0.069979,0.005784,0.276015,-0.159679,-0.945331
8969559462,0.265518,0.069709,0.005886,0.274571,-0.160387,-0.946812
8969561964,0.265319,0.008757,0.006236,0.276083,-0.160392,-0.951901
8969564467,0.265235,0.008754,0.006234,0.277511,-0.159687,-0.948962
8969566969,0.204296,-0.051930,0.006480,0.276057,-0.158942,-0.948243
8969569472,0.264972,-0.052162,0.006582,0.276793,-0.160404,-0.950435
8969571975,0.204149,-0.051897,0.006476,0.273885,-0.158188,-0.948261
8969574478,0.203969,-0.112811,0.006826,0.273843,-0.158924,-0.945349
8969576981,0.143165,-0.112527,0.006720,0.276017,-0.161860,-0.947537
8969579483,0.143227,-0.051265,0.066988,0.278940,-0.161163,-0.948228
8969581986,0.204047,0.009136,0.006097,0.274588,-0.160384,-0.948270
8969584489,0.203983,0.009133,0.006095,0.273845,-0.161833,-0.948290
8969586991,0.203803,-0.051799,0.006445,0.279641,-0.160450,-0.945297
8969589494,0.203622,-0.112713,0.006795,0.278946,-0.157525,-0.945281
8969591997,0.142828,-0.112726,-0.053934,0.278236,-0.157513,-0.946748
8969594526,0.082285,0.009121,-0.115347,0.281160,-0.157543,-0.948175
8969597001,0.082500,0.130681,-0.176636,0.278238,-0.159695,-0.948954
8969599503,0.082475,0.130640,-0.176581,0.273838,-0.163290,-0.949031
8969602006,0.082216,0.008739,-0.175822,0.273845,-0.161833,-0.948290
8969604509,0.082172,0.009330,-0.054522,0.275306,-0.159667,-0.946798
8969607012,0.082244,0.070850,0.066388,0.275998,-0.158955,-0.943137
8969609514,0.082209,0.071125,0.126989,0.275294,-0.155305,-0.941657
8969612017,0.082183,0.071103,0.126949,0.276773,-0.155316,-0.943829
8969614520,0.142790,0.009605,0.066743,0.278270,-0.158233,-0.950401
8969617022,0.082015,0.009554,0.005996,0.279047,-0.156777,-0.953299
8969619525,0.081998,0.009254,-0.054628,0.279029,-0.155326,-0.950370
8969622028,0.021349,0.070430,-0.055067,0.278262,-0.157508,-0.948936
8969624531,0.021333,0.070704,0.005573,0.274629,-0.159647,-0.951182
8969627033,0.021442,0.131612,0.005219,0.273846,-0.162561,-0.949025
8969629536,0.021310,0.070937,0.066191,0.275976,-0.163324,-0.945360
8969632038,0.081927,0.009737,0.066626,0.278189,-0.162615,-0.947518
8969634541,0.142525,-0.051445,0.067061,0.276050,-0.160399,-0.948984
8969637044,0.203220,-0.051677,0.067144,0.274578,-0.158931,-0.946070
8969639547,0.203156,-0.051661,0.067123,0.274587,-0.158929,-0.946800
8969642050,0.142362,-0.051693,0.006376,0.276100,-0.159661,-0.952625
8969644552,0.142433,0.009253,0.006022,0.275349,-0.161839,-0.952651
8969647055,0.142398,0.008954,-0.054602,0.272399,-0.160360,-0.947565
8969649558,0.203209,0.069632,-0.054833,0.274546,-0.161120,-0.945358
8969652061,0.203261,0.130540,-0.055168,0.274540,-0.164031,-0.947570
8969654563,0.142467,0.130451,-0.115876,0.273830,-0.164019,-0.949037
8969657066,0.081557,0.070025,-0.054970,0.278882,-0.162630,-0.944593
8969659569,0.142146,0.009122,0.006125,0.281805,-0.161933,-0.945284
8969662072,0.141869,-0.112741,0.006827,0.275323,-0.160390,-0.948992
8969664574,0.081085,-0.112457,0.006721,0.272382,-0.160364,-0.946106
8969667077,0.020319,-0.112173,0.006615,0.276039,-0.156764,-0.944578
8969669579,0.081053,-0.112386,0.006717,0.277476,-0.158239,-0.944574
8969672082,0.141767,-0.112600,0.006819,0.276669,-0.163339,-0.942434
8969674584,0.202471,-0.113109,-0.053702,0.274597,-0.161836,-0.950470
8969677088,0.202282,-0.173707,0.007289,0.273902,-0.158184,-0.949720
8969679590,0.080623,-0.234085,0.007431,0.278211,-0.157519,-0.944560
8969682093,0.019742,-0.294693,0.007676,0.277478,-0.161148,-0.947515
8969684596,-0.040878,-0.233719,-0.053404,0.277439,-0.165521,-0.948279
8969687098,-0.101257,-0.050607,-0.054547,0.276720,-0.164783,-0.948281
8969689601,-0.101118,0.010635,0.005741,0.276751,-0.159685,-0.946052
8969692104,0.020518,0.070768,-0.055027,0.278212,-0.158973,-0.946030
8969694607,0.020396,0.009816,-0.054658,0.278941,-0.161891,-0.948963
8969697109,0.020273,-0.051117,-0.054289,0.273795,-0.161844,-0.943913
8969699612,0.020383,0.009829,-0.054624,0.275289,-0.159670,-0.945339
8969702115,0.020377,0.009826,-0.054607,0.276725,-0.159691,-0.943864
8969704617,0.081235,0.070207,-0.115460,0.277478,-0.160421,-0.946779
8969707120,0.081317,0.131412,-0.055153,0.276753,-0.164049,-0.950464
8969709623,0.081282,0.131667,0.005487,0.276760,-0.161865,-0.948987
8969712125,0.020382,0.071538,0.126977,0.278988,-0.156789,-0.948193
8969714628,-0.040480,0.010834,0.127185,0.273183,-0.158174,-0.950457
8969717131,-0.040449,0.010237,0.005901,0.274645,-0.158189,-0.951171
8969719634,0.020322,0.009392,-0.115241,0.276043,-0.163310,-0.951195
8969722136,-0.040415,0.009341,-0.175931,0.277486,-0.159692,-0.946774
8969724639,-0.101249,-0.051640,-0.236251,0.272448,-0.158168,-0.949736
8969727142,-0.101217,-0.051624,-0.236176,0.277552,-0.158223,-0.951139
8969729645,-0.040348,0.009667,-0.115106,0.278204,-0.159702,-0.946036
8969732147,-0.040354,0.010258,0.006175,0.273209,-0.158169,-0.952646
8969734650,-0.040225,0.071184,0.005821,0.273804,-0.164024,-0.946849
8969737153,-0.040319,0.009935,-0.054451,0.277446,-0.164064,-0.947538
8969739656,-0.040190,0.070862,-0.054786,0.277428,-0.161886,-0.943873
8969742158,0.020562,0.070591,-0.054665,0.277455,-0.164790,-0.949003
8969744661,0.020448,0.009342,-0.114918,0.276729,-0.165509,-0.949746
8969747164,0.020335,-0.051887,-0.175152,0.279617,-0.162637,-0.945314
8969749667,-0.101160,-0.051077,-0.114683,0.281088,-0.164105,-0.948227
8969752169,-0.161761,0.010414,-0.054480,0.277493,-0.158236,-0.946033
8969754673,-0.161603,0.071637,0.005807,0.275287,-0.157488,-0.943133
8969757176,-0.100803,0.071070,-0.054713,0.277485,-0.158237,-0.945303
8969759679,-0.040023,0.070502,-0.115214,0.276043,-0.162582,-0.950460
8969762181,0.020613,0.009302,-0.114722,0.276826,-0.158942,-0.951882
8969764684,0.081230,-0.051880,-0.114230,0.277519,-0.158958,-0.948956
8969767187,0.081205,-0.051863,-0.114194,0.276711,-0.163330,-0.946081
8969769689,0.020440,-0.051599,-0.114262,0.276760,-0.161138,-0.948252
8969772192,-0.040199,0.009893,-0.054060,0.276015,-0.158951,-0.944596
8969774695,-0.100820,0.071365,0.006123,0.274537,-0.159667,-0.943159
8969777198,-0.100672,0.132272,0.005770,0.275297,-0.159668,-0.946068
8969779700,-0.100756,0.071301,0.006120,0.276742,-0.158960,-0.944587
8969782203,-0.040101,0.010100,0.006574,0.274561,-0.158207,-0.943876
8969784705,0.020651,0.009848,0.006676,0.273828,-0.161110,-0.946096
8969787208,-0.040095,0.010094,0.006569,0.273870,-0.161101,-0.949743
8969789711,-0.100715,0.071566,0.066734,0.273822,-0.164748,-0.949043
8969792214,-0.161298,0.132425,0.005635,0.275299,-0.162577,-0.949009
8969794716,-0.161372,0.071750,0.066607,0.275347,-0.158203,-0.948974
8969797219,-0.161554,-0.050132,0.067290,0.271730,-0.158157,-0.950473
8969799722,-0.100996,-0.172225,0.068076,0.271680,-0.159623,-0.947567
8969802225,-0.100955,-0.172467,0.007433,0.275314,-0.160392,-0.948262
8969804728,-0.100807,-0.111483,0.007079,0.277513,-0.162596,-0.951903
8969807230,-0.040045,-0.111400,0.067803,0.276050,-0.160399,-0.948984
8969809733,-0.100772,-0.111116,0.067677,0.273828,-0.161110,-0.946096
8969812236,-0.039875,-0.050697,0.006786,0.275320,-0.156027,-0.944580
8969814743,-0.100593,-0.050729,-0.053942,0.274586,-0.158202,-0.946065
8969817241,-0.100446,0.010216,-0.054277,0.273803,-0.162569,-0.945378
8969819744,-0.100530,-0.050717,-0.053908,0.276034,-0.161857,-0.948995
8969822246,-0.221978,-0.050204,-0.054099,0.273912,-0.161092,-0.953390
8969824749,-0.282764,-0.110869,-0.053834,0.273144,-0.161819,-0.950486
8969827252,-0.221935,-0.111083,-0.053714,0.273127,-0.162550,-0.949763
8969829754,-0.161126,-0.111296,-0.053593,0.273885,-0.158915,-0.948996
8969832257,-0.100229,-0.050283,0.006798,0.275363,-0.156745,-0.948963
8969834760,-0.160830,0.011208,0.066963,0.276034,-0.161857,-0.948995
8969837263,-0.221296,0.133609,0.126756,0.274588,-0.160384,-0.948270
8969839765,-0.221227,0.133567,0.126716,0.274619,-0.156740,-0.947512
8969842268,-0.221380,0.011369,0.066758,0.276041,-0.159673,-0.947519
8969844771,-0.160678,-0.050110,0.006571,0.277468,-0.158968,-0.944579
8969847274,-0.100004,-0.111273,0.007024,0.273827,-0.159655,-0.944625
8969849776,-0.099759,0.011215,0.127563,0.271648,-0.161811,-0.946855
8969852279,-0.160467,0.011460,0.127419,0.273110,-0.161827,-0.947569
8969854803,-0.221147,0.011409,0.066653,0.276017,-0.161860,-0.947537
8969857283,-0.281933,-0.049276,0.066880,0.276025,-0.161131,-0.947531
8969859785,-0.281970,-0.109894,0.127833,0.273903,-0.159639,-0.951190
8969862288,-0.160402,-0.110356,0.128000,0.273142,-0.159638,-0.948281
8969864791,-0.099487,-0.049937,0.067090,0.275328,-0.156025,-0.945310
8969867294,-0.038493,0.071986,0.127092,0.277501,-0.156779,-0.945291
8969869796,-0.099104,0.133142,0.126596,0.278939,-0.158982,-0.946022
8969872299,-0.098948,0.193733,0.065582,0.277462,-0.162606,-0.947526
8969874802,-0.220378,0.193576,-0.055891,0.273821,-0.164020,-0.948308
8969877305,-0.281048,0.193764,-0.055977,0.271633,-0.164724,-0.948337
8969879808,-0.280960,0.193703,-0.055960,0.271673,-0.161806,-0.949044
8969882310,-0.280997,0.133009,0.005032,0.273870,-0.161101,-0.949743
8969884813,-0.159662,0.010610,0.005942,0.276018,-0.163315,-0.949007
8969887315,-0.038364,-0.111750,0.006852,0.273110,-0.161099,-0.946833
8969889818,-0.038245,-0.050488,0.067120,0.270217,-0.157426,-0.944648
8969892321,-0.098973,-0.050223,0.066995,0.272380,-0.156727,-0.942430
8969894824,-0.220305,0.011219,0.066414,0.275255,-0.158950,-0.941686
8969897326,-0.341841,-0.048920,0.127159,0.277437,-0.162612,-0.945338
8969899829,-0.341617,0.012025,0.126768,0.278188,-0.161160,-0.946048
8969902332,-0.280645,0.072406,0.065858,0.276024,-0.159677,-0.946060
8969904834,-0.159059,0.071292,-0.055200,0.275999,-0.160409,-0.944607
8969907337,-0.098394,0.010388,0.005896,0.273843,-0.158924,-0.945349
8969909840,-0.098480,-0.050545,0.006246,0.270243,-0.158148,-0.947572
8969912343,-0.159323,-0.110617,0.127736,0.275305,-0.158939,-0.946062
8969914845,-0.220129,-0.171263,0.127944,0.280400,-0.158269,-0.946000
8969917348,-0.280915,-0.231891,0.128152,0.278220,-0.158971,-0.946760
8969919851,-0.280827,-0.231818,0.128111,0.276009,-0.162589,-0.947542
8969922354,-0.280507,-0.109885,0.127367,0.275992,-0.162593,-0.946084
8969924856,-0.280061,0.072642,0.065650,0.280344,-0.163373,-0.946041
8969927359,-0.279857,0.133549,0.065277,0.280361,-0.162642,-0.946765
8969929861,-0.279876,0.072280,0.004986,0.273845,-0.161106,-0.947555
8969932364,-0.279895,0.011031,-0.055286,0.275332,-0.161116,-0.950457
8969934867,-0.279807,0.011028,-0.055268,0.277479,-0.161875,-0.948250
8969937370,-0.340575,-0.049657,-0.055003,0.273117,-0.159643,-0.946092
8969939873,-0.340486,-0.049048,0.066259,0.272424,-0.158900,-0.948283
8969942375,-0.401003,0.012146,0.065782,0.273150,-0.158909,-0.948275
8969944878,-0.340119,0.011300,-0.055379,0.276726,-0.160418,-0.944599
8969947381,-0.339877,0.071633,-0.176958,0.281117,-0.156825,-0.943792
8969949883,-0.279138,0.010135,-0.237069,0.277517,-0.155321,-0.945280
8969952386,-0.279059,0.010428,-0.176372,0.278228,-0.157515,-0.946019
8969954889,-0.279097,-0.050208,-0.115343,0.274522,-0.163307,-0.945376
8969957391,-0.218386,-0.111370,-0.114851,0.275944,-0.166967,-0.946118
8969959894,-0.218317,-0.111335,-0.114815,0.278181,-0.163344,-0.947524
8969962397,-0.218132,-0.050371,-0.115130,0.274548,-0.163302,-0.947564
8969964899,-0.339311,0.072002,-0.116006,0.270947,-0.162525,-0.949787
8969967402,-0.339097,0.133206,-0.055699,0.270929,-0.160347,-0.946122
8969969905,-0.278135,0.193845,-0.055929,0.275336,-0.155296,-0.945304
8969972407,-0.217317,0.193833,0.004814,0.271714,-0.159615,-0.950485
8969974910,-0.278230,0.072457,0.066035,0.275331,-0.160388,-0.949721
8969977413,-0.278152,0.072731,0.126636,0.275363,-0.157472,-0.949698
8969979916,-0.399678,0.012869,0.247985,0.274573,-0.163296,-0.949753
8969982418,-0.399418,0.073202,0.126311,0.278197,-0.162613,-0.948248
8969984921,-0.399390,0.011655,0.005378,0.275353,-0.154565,-0.946027
8969987424,-0.399131,0.071988,-0.116220,0.269580,-0.153034,-0.948268
8969989927,-0.459754,0.072510,-0.055665,0.277511,-0.159687,-0.948962
8969992429,-0.398888,0.072833,0.065701,0.281120,-0.160461,-0.947469
8969994932,-0.337916,0.133788,0.126055,0.277569,-0.157492,-0.951862
8969997435,-0.277071,0.133497,0.126119,0.278239,-0.161150,-0.950424
8969999937,-0.276984,0.133455,0.126080,0.278989,-0.158971,-0.950399
8970002440,-0.216264,0.071938,0.065874,0.278270,-0.157506,-0.949666
8970004943,-0.216177,0.071322,-0.055392,0.277535,-0.158227,-0.949680
8970007446,-0.216091,0.070706,-0.176619,0.272415,-0.158902,-0.947553
8970009949,-0.276772,0.071229,-0.116045,0.276726,-0.160418,-0.944599
8970012453,-0.215945,0.070959,-0.115905,0.273925,-0.155270,-0.948967
8970014955,-0.155031,0.131914,-0.055494,0.275313,-0.158938,-0.946792
8970017458,-0.094243,0.131624,-0.055372,0.277527,-0.158228,-0.948950
8970019961,-0.155087,0.071495,0.066137,0.275379,-0.156014,-0.949686
8970022463,-0.216010,-0.050138,0.066716,0.272448,-0.157440,-0.949001
8970024966,-0.276682,-0.049874,0.066591,0.272431,-0.158171,-0.948277
8970027469,-0.276702,-0.111085,0.006300,0.276783,-0.158224,-0.947499
8970029971,-0.215760,-0.050369,0.006050,0.276775,-0.158225,-0.946770
8970032474,-0.215576,0.010577,0.005696,0.270961,-0.157431,-0.946099
8970034977,-0.154536,0.132185,0.005095,0.274578,-0.158931,-0.946070
8970037480,-0.154381,0.193370,0.065364,0.278246,-0.159693,-0.949683
8970039982,-0.215072,0.193557,0.065239,0.278246,-0.158966,-0.948948
8970042485,-0.275869,0.133112,0.126089,0.278204,-0.159702,-0.946036
8970044988,-0.336522,0.133319,0.125945,0.276758,-0.158229,-0.945311
8970047491,-0.336542,0.072644,0.186880,0.280351,-0.160462,-0.943830
8970049993,-0.275822,0.011739,0.247899,0.274545,-0.159665,-0.943888
8970052496,-0.214986,0.011190,0.187303,0.276776,-0.159680,-0.948240
8970054999,-0.275533,0.072069,0.126166,0.278221,-0.159699,-0.947495
8970057501,-0.336168,0.071701,0.004778,0.278196,-0.159704,-0.945307
8970060004,-0.396792,0.071630,-0.055950,0.280376,-0.160457,-0.946018
8970062507,-0.336044,0.010429,-0.055476,0.278980,-0.158245,-0.948934
8970065009,-0.275217,0.010771,0.065890,0.276049,-0.158944,-0.947513
8970067512,-0.214517,-0.050114,0.126947,0.276058,-0.160397,-0.949713
8970070015,-0.275073,0.011080,0.126451,0.276057,-0.158942,-0.948243
8970072518,-0.335610,0.072255,0.125956,0.278215,-0.163337,-0.950442
8970075021,-0.335388,0.133162,0.125564,0.276042,-0.161855,-0.949725
8970077523,-0.396032,0.133666,0.186043,0.273151,-0.160363,-0.949745
8970080026,-0.456772,0.073239,0.246855,0.275299,-0.161850,-0.948274
8970082529,-0.456736,0.011989,0.186507,0.273101,-0.161101,-0.946104
8970085031,-0.395960,-0.049489,0.126282,0.270872,-0.163268,-0.943957
8970087534,-0.334979,0.011207,0.125994,0.275281,-0.160399,-0.945345
8970090036,-0.274125,0.010659,0.065436,0.273158,-0.157452,-0.947534
8970092539,-0.334663,0.071834,0.064960,0.274570,-0.159660,-0.946076
8970095042,-0.334558,0.071811,0.064940,0.276009,-0.162589,-0.947542
8970097545,-0.395201,0.072334,0.125438,0.276025,-0.161859,-0.948266
8970100047,-0.334570,-0.049797,0.126206,0.277526,-0.156774,-0.947480
8970102550,-0.395204,-0.049533,0.126062,0.276815,-0.155307,-0.947476
8970105053,-0.455801,-0.049862,0.004674,0.275329,-0.156752,-0.946045
8970107556,-0.516263,0.010738,-0.117028,0.277469,-0.159695,-0.945315
8970110058,-0.515985,0.071665,-0.117343,0.277478,-0.160421,-0.946779
8970112561,-0.515716,0.132869,-0.057035,0.276057,-0.158215,-0.947507
8970115079,-0.454958,0.072539,0.125305,0.276065,-0.158941,-0.948972
8970117565,-0.454950,0.012180,0.246862,0.278222,-0.161880,-0.949701
8970120068,-0.454807,0.012176,0.246784,0.277487,-0.161874,-0.948979
8970122570,-0.454655,0.011875,0.186085,0.276760,-0.160411,-0.947517
8970125073,-0.454270,0.133434,0.124700,0.277502,-0.158234,-0.946762
8970127576,-0.454128,0.133393,0.124661,0.276775,-0.158225,-0.946770
8970130079,-0.453985,0.133351,0.124622,0.275322,-0.159663,-0.948256
8970132581,-0.453958,0.072379,0.124935,0.277519,-0.158958,-0.948956
8970135084,-0.514565,0.072901,0.185414,0.281160,-0.158271,-0.948910
8970137587,-0.575124,0.072534,0.064007,0.277486,-0.159692,-0.946774
8970140089,-0.514311,0.011036,0.003820,0.272373,-0.159638,-0.944641
8970142592,-0.514140,0.010735,-0.056803,0.272438,-0.154533,-0.945330
8970145095,-0.392625,-0.050398,0.004397,0.274610,-0.155287,-0.945312
8970147598,-0.392404,0.011141,0.125288,0.274563,-0.160389,-0.946082
8970150100,-0.392289,0.011434,0.185871,0.272383,-0.161818,-0.947577
8970152603,-0.452915,0.011976,0.246331,0.275305,-0.158939,-0.946062
8970155106,-0.513629,-0.048709,0.246501,0.279681,-0.157532,-0.946003
8970157608,-0.452834,-0.110169,0.186257,0.277526,-0.156774,-0.947480
8970160111,-0.391934,-0.110976,0.065058,0.274644,-0.156008,-0.948965
8970162614,-0.330946,-0.050557,0.004168,0.274620,-0.158195,-0.948982
8970165116,-0.330967,-0.111174,0.065141,0.272448,-0.157440,-0.949001
8970167619,-0.330757,-0.049913,0.125391,0.273893,-0.157459,-0.948255
8970170122,-0.330546,0.011330,0.185622,0.274627,-0.156011,-0.947506
8970172625,-0.390958,0.133731,0.245378,0.274635,-0.154555,-0.946765
8970175128,-0.451575,0.133938,0.245197,0.273182,-0.155265,-0.947516
8970177630,-0.512271,0.072621,0.124123,0.270275,-0.155959,-0.948283
8970180133,-0.451468,0.010826,0.003295,0.268829,-0.154486,-0.947559
8970182636,-0.451433,-0.050404,-0.056976,0.273166,-0.157451,-0.948263
8970185138,-0.329830,-0.050292,0.064494,0.273902,-0.158184,-0.949720
8970187641,-0.268996,-0.050228,0.125200,0.273917,-0.155272,-0.948238
8970190144,-0.208163,-0.050757,0.064643,0.276081,-0.156755,-0.948225
8970192647,-0.268953,-0.111422,0.064870,0.278261,-0.156781,-0.948201
8970195149,-0.268878,-0.111091,0.125472,0.276790,-0.156040,-0.946023
8970197652,-0.268687,-0.049829,0.185703,0.273924,-0.153816,-0.947497
8970200155,-0.207639,0.072094,0.245667,0.275363,-0.157472,-0.949698
8970202657,-0.146718,0.132753,0.245342,0.276131,-0.156745,-0.952602
8970205160,-0.146547,0.193344,0.184291,0.276808,-0.156764,-0.948217
8970207662,-0.207106,0.253869,0.062533,0.272448,-0.157440,-0.949001
8970210165,-0.267655,0.314670,0.001435,0.270243,-0.158148,-0.947572
8970212668,-0.267804,0.192712,0.002138,0.274571,-0.161114,-0.947547
8970215171,-0.268086,0.010455,0.124438,0.276742,-0.158960,-0.944587
8970217673,-0.207513,-0.111063,0.246451,0.273182,-0.155992,-0.948251
8970220176,-0.207448,-0.111028,0.246373,0.273926,-0.155997,-0.949702
8970222679,-0.146411,0.010618,0.245696,0.275331,-0.159661,-0.948986
8970225182,-0.146230,0.070951,0.124023,0.277495,-0.161145,-0.948974
8970227684,-0.085445,0.070680,0.124088,0.275306,-0.160394,-0.947533
8970230187,-0.085534,0.009728,0.124401,0.275271,-0.158946,-0.943145
8970232690,-0.146363,-0.050956,0.124609,0.274603,-0.158198,-0.947523
8970235193,-0.146308,-0.051237,0.063948,0.276767,-0.158227,-0.946041
8970237695,-0.146252,-0.051517,0.003306,0.279722,-0.154614,-0.946709
8970240198,-0.146090,0.009429,0.002953,0.279689,-0.156803,-0.945997
8970242701,-0.085323,0.009771,0.124300,0.276024,-0.159677,-0.946060
8970245204,-0.146036,0.010016,0.124157,0.273861,-0.160375,-0.948278
8970247706,-0.145990,0.010013,0.124118,0.276075,-0.161121,-0.951907
8970250209,-0.267424,0.010507,0.123871,0.273159,-0.159634,-0.949739
8970252712,-0.267456,-0.050426,0.124184,0.273150,-0.158909,-0.948275
8970255214,-0.267139,0.071449,0.123442,0.273911,-0.158910,-0.951185
8970257717,-0.206316,0.071178,0.123507,0.278955,-0.158251,-0.946746
8970260220,-0.145386,0.131540,0.062598,0.275331,-0.160388,-0.949721
8970262723,-0.206196,0.070818,0.062826,0.273183,-0.158174,-0.950457
8970265225,-0.266996,0.010411,0.123676,0.273157,-0.155998,-0.946063
8970267728,-0.327536,0.071586,0.123182,0.276816,-0.156035,-0.948211
8970270231,-0.327308,0.132197,0.062169,0.278262,-0.158962,-0.950407
8970272735,-0.327321,0.071225,0.062501,0.281050,-0.169205,-0.949727
8970275238,-0.387958,0.071451,0.062378,0.276752,-0.162594,-0.948993
8970277740,-0.387827,0.071132,0.001736,0.278181,-0.163344,-0.947524
8970280243,-0.326947,0.070268,-0.119405,0.276705,-0.166969,-0.949028
8970282745,-0.266105,0.069997,-0.119264,0.276003,-0.166955,-0.951225
8970285248,-0.266030,0.070272,-0.058604,0.276001,-0.163318,-0.947548
8970287751,-0.326802,0.009569,-0.058338,0.277446,-0.163337,-0.946803
8970290254,-0.387323,0.070744,-0.058775,0.281089,-0.164832,-0.948963
8970292756,-0.448057,0.010040,-0.058509,0.279628,-0.165544,-0.948984
8970295259,-0.448033,-0.050893,-0.058139,0.273830,-0.164746,-0.949772
8970297762,-0.448008,-0.111806,-0.057768,0.276775,-0.158225,-0.946770
8970300264,-0.447858,-0.112068,-0.118373,0.276783,-0.157496,-0.946764
8970302767,-0.447717,-0.112033,-0.118335,0.281143,-0.157547,-0.946716
8970305270,-0.386846,-0.111949,-0.057572,0.276033,-0.161130,-0.948260
8970307772,-0.386850,-0.172547,0.003420,0.271706,-0.159617,-0.949755
8970310275,-0.386835,-0.233720,-0.056851,0.273834,-0.157472,-0.943149
8970312778,-0.447561,-0.294624,-0.117208,0.273819,-0.160384,-0.944631
8970315281,-0.568765,-0.233698,-0.238975,0.276073,-0.158212,-0.948966
8970317784,-0.629200,-0.172743,-0.299978,0.276775,-0.158953,-0.947505
8970320286,-0.628896,-0.111463,-0.239614,0.277469,-0.160423,-0.946050
8970322789,-0.628814,-0.172357,-0.239186,0.277484,-0.157510,-0.944568
8970325292,-0.568109,-0.294411,-0.238304,0.277535,-0.157499,-0.948944
8970327794,-0.507298,-0.355794,-0.298395,0.275340,-0.160387,-0.950451
8970330297,-0.507139,-0.355682,-0.298301,0.275307,-0.161848,-0.949003
8970332807,-0.506756,-0.233414,-0.238289,0.275323,-0.160390,-0.948992
8970335303,-0.627970,-0.171617,-0.178152,0.278147,-0.163351,-0.944606
8970337805,-0.748913,0.012020,-0.118737,0.276023,-0.158950,-0.945325
8970340308,-0.748677,0.012016,-0.118700,0.277527,-0.158228,-0.948950
8970342811,-0.748558,-0.048917,-0.118311,0.276785,-0.160405,-0.949705
8970345313,-0.809170,-0.109880,-0.178648,0.273168,-0.160360,-0.951204
8970347816,-0.809022,-0.171072,-0.238862,0.276850,-0.156755,-0.951864
8970350319,-0.808759,-0.171315,-0.299409,0.279005,-0.157513,-0.950387
8970352822,-0.686919,-0.110532,-0.238837,0.275282,-0.161854,-0.946815
8970355324,-0.686703,-0.110497,-0.238762,0.274563,-0.161843,-0.947553
8970357827,-0.686371,-0.049532,-0.239039,0.273835,-0.159653,-0.945355
8970360330,-0.686253,-0.111040,-0.359856,0.275991,-0.160411,-0.943878
8970362832,-0.685930,-0.049779,-0.299473,0.281135,-0.157549,-0.945987
8970365335,-0.746357,0.012009,-0.178590,0.279682,-0.158259,-0.946738
8970367837,-0.806871,0.012550,-0.118016,0.276049,-0.158944,-0.947513
8970370341,-0.806725,-0.048680,-0.178249,0.278278,-0.156777,-0.949660
8970372865,-0.806694,-0.170821,-0.238112,0.279004,-0.155331,-0.948181
8970375345,-0.745701,-0.171016,-0.237933,0.278261,-0.156053,-0.947466
8970377847,-0.684718,-0.171508,-0.298376,0.278252,-0.155328,-0.946001
8970380350,-0.745127,-0.110276,-0.298738,0.273172,-0.153813,-0.945316
8970382853,-0.805516,-0.049063,-0.299100,0.271736,-0.154519,-0.947526
8970385355,-0.805263,-0.049047,-0.299006,0.273199,-0.155989,-0.949710
8970387858,-0.805126,-0.109962,-0.298561,0.274693,-0.154542,-0.951871
8970390361,-0.804989,-0.170857,-0.298115,0.275411,-0.153825,-0.950398
8970392864,-0.804620,-0.109873,-0.298373,0.273924,-0.153816,-0.947497
8970395366,-0.804126,0.011724,-0.359605,0.272453,-0.153075,-0.945318
8970397869,-0.803883,0.012017,-0.298870,0.275369,-0.153834,-0.946751
8970400372,-0.803648,0.012607,-0.177532,0.279762,-0.152423,-0.948150
8970402874,-0.742782,-0.048279,-0.116398,0.279755,-0.153880,-0.948891
8970405377,-0.621069,-0.048761,-0.116153,0.274676,-0.153819,-0.949677
8970407880,-0.560241,-0.110220,-0.176283,0.272462,-0.153801,-0.946783
8970410382,-0.559949,-0.049256,-0.176580,0.275345,-0.155294,-0.946033
8970412885,-0.559764,-0.049537,-0.237147,0.273910,-0.157455,-0.949714
8970415388,-0.559454,0.010815,-0.358668,0.271036,-0.155960,-0.951193
8970417890,-0.620017,0.011060,-0.358660,0.273255,-0.150886,-0.949670
8970420393,-0.559208,-0.049825,-0.297469,0.273964,-0.150170,-0.947467
8970422896,-0.558935,0.011714,-0.176483,0.273923,-0.151634,-0.945291
8970425399,-0.558769,0.012007,-0.115805,0.275361,-0.153836,-0.946022
8970427901,-0.619333,0.012252,-0.115873,0.275386,-0.153103,-0.947475
8970430404,-0.619013,0.072881,-0.176810,0.271802,-0.151596,-0.950421
8970432907,-0.618809,0.072561,-0.237377,0.271091,-0.150857,-0.951153
8970435409,-0.497126,0.071745,-0.297717,0.271139,-0.147210,-0.951853
8970437912,-0.436356,0.010840,-0.236545,0.271107,-0.148671,-0.950406
8970440415,-0.314865,-0.050293,-0.175289,0.271785,-0.151600,-0.948962
8970442918,-0.314775,-0.049981,-0.114612,0.270315,-0.152314,-0.948254
8970445421,-0.314444,0.071895,-0.115279,0.272568,-0.148686,-0.951119
8970447923,-0.374978,0.133347,-0.055077,0.277606,-0.150938,-0.948892
8970450426,-0.435832,0.011694,-0.054460,0.277598,-0.150940,-0.948162
8970452929,-0.435936,-0.109872,0.006883,0.271058,-0.152318,-0.949705
8970455431,-0.314311,-0.110632,-0.053533,0.270277,-0.158140,-0.950489
8970457934,-0.253463,-0.111142,-0.114035,0.272471,-0.153799,-0.947513
8970460437,-0.253268,-0.050177,-0.114351,0.273955,-0.150172,-0.946738
8970462939,-0.313811,0.011017,-0.114771,0.276104,-0.153841,-0.947473
8970465442,-0.374113,0.194348,-0.055272,0.276152,-0.150194,-0.948173
8970467945,-0.373996,0.194287,-0.055254,0.273980,-0.149440,-0.948191
8970470448,-0.313139,0.193978,-0.055133,0.271760,-0.153059,-0.948244
8970472950,-0.252417,0.132738,-0.054660,0.271016,-0.151600,-0.945323
8970475453,-0.252328,0.132400,-0.115265,0.273949,-0.153083,-0.948950
8970477956,-0.191742,0.010250,-0.114421,0.276850,-0.156755,-0.951864
8970480458,-0.131183,-0.111565,-0.052955,0.272521,-0.153788,-0.951889
8970482961,-0.070751,-0.294568,-0.051779,0.275469,-0.151631,-0.953298
8970485464,-0.131459,-0.294523,-0.112489,0.273279,-0.150153,-0.951123
8970487967,-0.131301,-0.233501,-0.112806,0.271802,-0.151596,-0.950421
8970490469,-0.191768,-0.111319,-0.113578,0.273883,-0.155279,-0.945320
8970492972,-0.191717,-0.110988,-0.052920,0.276071,-0.153848,-0.944555
8970495475,-0.130907,-0.111498,-0.113422,0.276054,-0.153852,-0.943096
8970497978,-0.070020,-0.050485,-0.053012,0.278218,-0.154608,-0.942348
8970500480,-0.009258,-0.050718,-0.052891,0.274626,-0.153829,-0.945300
8970502983,-0.009139,0.010228,-0.053226,0.273248,-0.154524,-0.952616
8970505486,-0.069876,0.010473,-0.053313,0.274675,-0.152364,-0.948206
8970507988,-0.009114,0.010222,-0.053193,0.276087,-0.152390,-0.944543
8970510491,-0.009237,-0.050415,0.007798,0.279754,-0.152425,-0.947421
8970512994,-0.009350,-0.111329,0.008147,0.280456,-0.153893,-0.946695
8970515496,-0.009356,-0.110997,0.068767,0.274668,-0.154548,-0.949683
8970517999,-0.009237,-0.050032,0.068394,0.273918,-0.156726,-0.949708
8970520501,0.051631,0.010368,0.007502,0.277557,-0.153131,-0.946721
8970523005,0.051731,0.071295,0.007148,0.279100,-0.147310,-0.948847
8970525507,0.051724,0.070975,-0.053477,0.279837,-0.150953,-0.953245
8970528010,0.051823,0.131883,-0.053812,0.275455,-0.155998,-0.956251
8970530514,0.112440,0.070366,-0.113961,0.276080,-0.154574,-0.946019
8970533017,0.173019,0.009463,-0.052847,0.281225,-0.153893,-0.950334
8970535519,0.233588,-0.051719,-0.052375,0.277599,-0.153122,-0.950368
8970538022,0.172891,0.009476,-0.052814,0.276897,-0.151653,-0.951094
8970540525,0.112223,0.070355,-0.113876,0.280539,-0.151694,-0.951783
8970543028,0.112071,0.009403,-0.113488,0.282736,-0.151715,-0.953218
8970545530,0.172659,-0.051779,-0.112997,0.275411,-0.153825,-0.950398
8970548033,0.233336,-0.051714,-0.052235,0.278325,-0.151676,-0.948890
8970550536,0.293993,-0.051650,0.008508,0.276120,-0.152383,-0.947461
8970553038,0.293891,-0.051337,0.069127,0.277566,-0.153129,-0.947451
8970555541,0.354664,0.009064,0.008235,0.271737,-0.156701,-0.949732
8970558044,0.293813,0.009310,0.008129,0.275426,-0.150913,-0.948916
8970560547,0.293855,0.069643,-0.113470,0.279818,-0.147320,-0.948109
8970563049,0.233130,0.131096,-0.053268,0.278318,-0.153859,-0.950366
8970565552,0.233048,0.131352,0.007371,0.271794,-0.153052,-0.951162
8970568055,0.293580,0.070726,0.129069,0.269621,-0.151571,-0.950445
8970570558,0.414725,-0.051356,0.190562,0.272446,-0.155259,-0.946795
8970573060,0.475218,-0.112519,0.190958,0.272470,-0.153071,-0.946777
8970575563,0.475069,-0.112483,0.190898,0.274692,-0.151633,-0.948930
8970578066,0.414180,-0.112199,0.190734,0.273966,-0.153079,-0.950408
8970580568,0.413943,-0.173391,0.130404,0.279762,-0.152423,-0.948150
8970583071,0.474571,-0.174178,0.009222,0.280513,-0.150245,-0.948125
8970585574,0.535171,-0.174669,-0.051299,0.276912,-0.149468,-0.950347
8970588077,0.535342,0.008472,0.008284,0.271074,-0.150860,-0.949694
8970590579,0.596127,0.130674,0.128926,0.273180,-0.153083,-0.945310
8970593082,0.596047,0.191860,0.189156,0.272478,-0.151615,-0.946036
8970595585,0.595851,0.192096,0.249719,0.272446,-0.155259,-0.946795
8970598087,0.595682,0.191443,0.128396,0.274586,-0.158202,-0.946065
8970600590,0.595272,0.069226,0.068437,0.275418,-0.151642,-0.948922
8970603093,0.473480,0.009068,0.129182,0.273955,-0.150172,-0.946738
8970605595,0.473215,-0.051865,0.129493,0.273189,-0.153082,-0.946040
8970608098,0.473066,-0.051848,0.129452,0.275328,-0.156025,-0.945310
8970610601,0.533792,0.008256,0.007919,0.276824,-0.155306,-0.948206
8970613104,0.655085,0.008350,0.129369,0.275347,-0.158930,-0.949710
8970615606,0.654763,-0.052583,0.129680,0.272456,-0.156711,-0.948995
8970618109,0.654548,-0.052269,0.190262,0.274685,-0.153817,-0.950406
8970620612,0.654459,0.008677,0.189850,0.277584,-0.155307,-0.951115
8970623114,0.593523,0.008626,0.129064,0.277551,-0.156769,-0.949668
8970625617,0.593452,0.069553,0.128672,0.275346,-0.157476,-0.948239
8970628120,0.593266,0.069531,0.128632,0.275339,-0.158932,-0.948980
8970630623,0.532572,0.191618,0.127784,0.275346,-0.157476,-0.948239
8970633128,0.532396,0.191854,0.188366,0.273901,-0.156730,-0.948249
8970635627,0.532345,0.252724,0.187955,0.273876,-0.158190,-0.947532
8970638129,0.532061,0.191714,0.188247,0.273125,-0.159641,-0.946822
8970640632,0.531778,0.130724,0.188540,0.273117,-0.160370,-0.946828
8970643135,0.531495,0.069753,0.188833,0.276816,-0.156035,-0.948211
8970645637,0.409858,0.069932,0.127943,0.276784,-0.158951,-0.948235
8970648140,0.409622,0.008683,0.067633,0.277462,-0.162606,-0.947526
8970650664,0.409386,-0.052546,0.007341,0.277487,-0.161146,-0.948244
8970653146,0.469988,-0.052481,0.068065,0.273142,-0.159638,-0.948281
8970655648,0.469947,0.008762,0.128314,0.273868,-0.158192,-0.946802
8970658151,0.530656,0.069440,0.128026,0.278236,-0.157513,-0.946748
8970660654,0.530605,0.130348,0.127634,0.276041,-0.159673,-0.947519
8970663157,0.530331,0.069081,0.067323,0.278891,-0.163356,-0.946057
8970665659,0.469309,0.008378,0.067550,0.281088,-0.162650,-0.946757
8970668162,0.408431,0.008327,0.006803,0.276784,-0.158951,-0.948235
8970670665,0.408419,0.069254,0.006449,0.274611,-0.157469,-0.947518
8970673167,0.347783,0.191341,0.005639,0.273158,-0.157452,-0.947534
8970675670,0.347790,0.252210,0.005285,0.273877,-0.159644,-0.949002
8970678173,0.347574,0.190904,-0.054987,0.276744,-0.161869,-0.947529
8970680676,0.286600,0.130460,0.005901,0.278211,-0.157519,-0.944560
8970683178,0.225538,0.008808,0.006499,0.276790,-0.155313,-0.945288
8970685681,0.286081,-0.052077,0.067575,0.276040,-0.158946,-0.946784
8970688184,0.286117,0.008573,0.006579,0.276710,-0.162603,-0.945346
8970690686,0.347017,0.129588,-0.115267,0.278914,-0.160441,-0.945305
8970693189,0.346908,0.129547,-0.115231,0.277460,-0.159697,-0.944585
8970695692,0.346683,0.068577,-0.114843,0.272406,-0.157449,-0.945353
8970698194,0.285709,0.008170,-0.053937,0.270995,-0.158151,-0.949752
8970700697,0.224870,0.008713,0.006599,0.276041,-0.160400,-0.948254
8970703200,0.224800,0.008710,0.006597,0.275281,-0.160399,-0.945345
8970705702,0.285353,-0.052471,0.007050,0.274536,-0.158940,-0.942423
8970708205,0.346012,-0.053000,-0.053470,0.275329,-0.157479,-0.946780
8970710708,0.345680,-0.175139,-0.113372,0.278996,-0.156787,-0.948923
8970713211,0.224092,-0.174587,-0.113544,0.278980,-0.158245,-0.948934
8970715713,0.163417,-0.113948,-0.235209,0.274620,-0.158195,-0.948982
8970718216,0.224337,0.007699,-0.235735,0.273125,-0.159641,-0.946822
8970720719,0.224383,0.068627,-0.236012,0.274547,-0.161847,-0.946094
8970723222,0.285141,0.130177,-0.054320,0.283258,-0.160496,-0.943798
8970725724,0.224302,0.130681,0.006216,0.281144,-0.159002,-0.948187
8970728227,0.224222,0.130937,0.066836,0.276057,-0.158215,-0.947507
8970730730,0.224045,0.069669,0.006545,0.275998,-0.158228,-0.942401
8970733233,0.284724,0.069102,-0.053976,0.276750,-0.158231,-0.944582
8970735735,0.223894,0.069329,-0.054063,0.276025,-0.161131,-0.947531
8970738238,0.223843,0.068714,-0.175290,0.276032,-0.158948,-0.946054
8970740741,0.163033,0.068940,-0.175339,0.275360,-0.152382,-0.944551
8970743243,0.102135,0.007941,-0.235658,0.276863,-0.150933,-0.947441
8970745746,0.101977,-0.052695,-0.174610,0.280524,-0.153879,-0.952530
8970748249,0.102052,0.008548,-0.114285,0.275395,-0.154556,-0.949675
8970750751,0.162867,0.069524,-0.053875,0.276079,-0.153846,-0.945284
8970753254,0.223439,0.008324,-0.053402,0.276806,-0.153855,-0.945276
8970755757,0.223360,0.008618,0.007237,0.273206,-0.154533,-0.948969
8970758259,0.223173,-0.052315,0.007587,0.273165,-0.155269,-0.946057
8970760762,0.223219,0.008631,0.007232,0.276070,-0.152394,-0.943084
8970763265,0.223391,0.130192,-0.054096,0.274602,-0.156744,-0.946053
8970765767,0.284186,0.190535,-0.114949,0.271011,-0.157420,-0.950475
8970768270,0.344738,0.128704,-0.235701,0.276088,-0.154572,-0.946749
8970770773,0.344495,0.068327,-0.114031,0.278193,-0.156068,-0.941630
8970773276,0.344262,0.007672,-0.053021,0.278953,-0.154614,-0.943070
8970775778,0.344145,0.007967,0.007618,0.278228,-0.157515,-0.946019
8970778281,0.283190,-0.053014,-0.052759,0.273875,-0.156008,-0.945326
8970780784,0.222370,-0.053046,-0.113469,0.275380,-0.157469,-0.951157
8970783287,0.161677,0.008149,-0.113889,0.276073,-0.158212,-0.948966
8970785789,0.161733,0.069373,-0.053583,0.275386,-0.153103,-0.947475
8970788294,0.161798,0.130282,-0.053918,0.271694,-0.154528,-0.943879
8970790796,0.222478,0.130289,0.006826,0.270951,-0.155978,-0.943899
8970793299,0.282916,0.008140,0.007631,0.269475,-0.159603,-0.945403
8970795802,0.282720,-0.053089,-0.052642,0.273877,-0.159644,-0.949002
8970798305,0.343264,-0.114548,-0.112792,0.278965,-0.160431,-0.949681
8970800807,0.343049,-0.175739,-0.173027,0.276031,-0.158221,-0.945319
8970803310,0.403690,-0.176229,-0.233491,0.275370,-0.155289,-0.948222
8970805813,0.403670,-0.114947,-0.173147,0.276089,-0.156026,-0.948219
8970808315,0.342911,-0.053435,-0.112926,0.277567,-0.154583,-0.948921
8970810818,0.282277,0.069283,0.007546,0.273173,-0.154540,-0.946052
8970813321,0.160932,0.191915,0.067255,0.274618,-0.154558,-0.945306
8970815824,0.100017,0.131470,0.128104,0.274677,-0.155273,-0.951147
8970818326,0.099878,0.070202,0.067793,0.274652,-0.156006,-0.949694
8970820829,0.221112,-0.052770,-0.052561,0.275339,-0.158932,-0.948980
8970823332,0.342531,-0.053547,-0.112959,0.278237,-0.158968,-0.948219
8970825834,0.403173,-0.054076,-0.173442,0.276710,-0.161876,-0.944611
8970828337,0.403162,0.006871,-0.173739,0.272400,-0.161087,-0.948300
8970830840,0.342287,0.007414,-0.113166,0.270962,-0.159612,-0.948305
8970833342,0.342402,0.129568,-0.053212,0.270970,-0.158883,-0.948299
8970835845,0.342401,0.190754,0.007075,0.273893,-0.157459,-0.948255
8970838348,0.281563,0.190646,-0.053654,0.275338,-0.157478,-0.947510
8970840851,0.220503,0.068975,-0.053037,0.271697,-0.158892,-0.948291
8970843354,0.220202,-0.052907,-0.052317,0.275337,-0.156750,-0.946774
8970845856,0.280881,-0.053435,-0.112818,0.276807,-0.156036,-0.947482
8970848359,0.341300,-0.175527,-0.111975,0.276089,-0.156754,-0.948955
8970850861,0.280221,-0.297083,-0.111340,0.273919,-0.159635,-0.952649
8970853364,0.279999,-0.357326,0.010291,0.273151,-0.159636,-0.949010
8970855867,0.280018,-0.295987,0.070558,0.273819,-0.161111,-0.945367
8970858370,0.340892,-0.173986,0.130558,0.276816,-0.156762,-0.948947
8970860872,0.401766,-0.052617,0.069295,0.277568,-0.156765,-0.951127
8970863375,0.401756,0.008330,0.068922,0.279675,-0.161170,-0.948949
8970865878,0.401872,0.129890,0.007574,0.276810,-0.159673,-0.951158
8970868380,0.401764,0.129256,-0.113673,0.273207,-0.155260,-0.949704
8970870883,0.340898,0.129464,-0.113741,0.273908,-0.155274,-0.947508
8970873386,0.340558,0.007563,-0.113001,0.275370,-0.154562,-0.947486
8970875889,0.279461,-0.113457,0.008878,0.275339,-0.158932,-0.948980
8970878391,0.340113,-0.113670,0.008979,0.276800,-0.158220,-0.948958
8970880894,0.340113,-0.052407,0.069247,0.276073,-0.156757,-0.947496
8970883397,0.400880,0.007697,-0.052267,0.276791,-0.156767,-0.946758
8970885899,0.400754,0.007694,-0.052251,0.279028,-0.153871,-0.948899
8970888402,0.339782,-0.053286,-0.112609,0.279780,-0.153874,-0.951080
8970890915,0.339434,-0.174832,-0.051247,0.280450,-0.157531,-0.949642
8970893406,0.399951,-0.235956,-0.050775,0.277519,-0.158958,-0.948956
8970895909,0.460565,-0.236130,-0.050656,0.277534,-0.156772,-0.948209
8970898411,0.460652,-0.114196,-0.051343,0.273900,-0.155275,-0.946779
8970900914,0.399991,0.008245,0.008487,0.270266,-0.155233,-0.946819
8970903417,0.399874,0.007945,-0.052138,0.272464,-0.156710,-0.949724
8970905920,0.399642,-0.053284,-0.112392,0.272507,-0.157428,-0.954107
8970908423,0.399400,-0.114197,-0.112004,0.271723,-0.160341,-0.951950
8970910925,0.399266,-0.113864,-0.051347,0.272449,-0.159622,-0.951206
8970913428,0.399140,-0.113829,-0.051331,0.276108,-0.159659,-0.953355
8970915930,0.399024,-0.114090,-0.111937,0.277529,-0.161137,-0.951891
8970918433,0.459773,-0.053966,-0.233394,0.275339,-0.159659,-0.949715
8970920936,0.520493,0.006436,-0.294191,0.271730,-0.157430,-0.949738
8970923439,0.459590,0.006682,-0.294202,0.271712,-0.156706,-0.947544
8970925942,0.398697,0.007225,-0.233592,0.274561,-0.158207,-0.943876
8970928444,0.337930,0.068995,-0.112730,0.276015,-0.158224,-0.943860
8970930947,0.277075,0.069519,-0.052176,0.277525,-0.156047,-0.946745
8970933449,0.216257,0.069448,-0.112886,0.275377,-0.153105,-0.946745
8970935952,0.277045,0.130108,-0.113098,0.275419,-0.152369,-0.949657
8970938455,0.276958,0.130067,-0.113063,0.279038,-0.156051,-0.951834
8970940957,0.337504,0.068551,-0.173194,0.276083,-0.159664,-0.951166
8970943460,0.398030,0.007054,-0.233306,0.275314,-0.160392,-0.948262
8970945963,0.398012,0.068279,-0.172962,0.278243,-0.155330,-0.945272
8970948466,0.458609,0.068602,-0.051559,0.273147,-0.153818,-0.943128
8970950969,0.458339,0.007948,0.009431,0.271694,-0.155255,-0.944615
8970953471,0.457954,-0.113618,0.070754,0.273875,-0.156008,-0.945326
8970955974,0.397079,-0.113630,0.010006,0.275328,-0.156025,-0.945310
8970958477,0.397187,0.008265,0.009299,0.274619,-0.156740,-0.947512
8970960979,0.457820,0.007421,-0.111845,0.276122,-0.155292,-0.950402
8970963482,0.457560,-0.053512,-0.111458,0.275411,-0.153098,-0.949663
8970965985,0.457184,-0.175355,-0.110719,0.273926,-0.155997,-0.949702
8970968488,0.456799,-0.296862,-0.049358,0.272480,-0.155251,-0.949713
8970970990,0.517395,-0.297018,-0.049239,0.273926,-0.155997,-0.949702
8970973493,0.517465,-0.175065,-0.049927,0.274612,-0.158924,-0.948988
8970975996,0.456697,-0.114425,-0.171612,0.273843,-0.158924,-0.945349
8970978498,0.517410,-0.053708,-0.171806,0.272431,-0.156717,-0.946806
8970981001,0.578210,0.068217,-0.111729,0.274613,-0.160378,-0.950459
8970983504,0.578135,0.129422,-0.051424,0.276049,-0.158944,-0.947513
8970986007,0.517195,0.130224,0.069733,0.281862,-0.159012,-0.947449
8970988509,0.456302,0.130135,0.008985,0.281120,-0.161189,-0.948204
8970991012,0.395312,0.069116,-0.051392,0.278947,-0.158253,-0.946016
8970993514,0.455937,0.068549,-0.111894,0.276049,-0.158944,-0.947513
8970996018,0.455678,0.007597,-0.111507,0.278915,-0.161896,-0.946775
8970998520,0.455428,-0.053632,-0.171743,0.278188,-0.161160,-0.946048
8971001023,0.394429,-0.114296,-0.171441,0.278179,-0.160435,-0.944583
8971003526,0.454919,-0.175142,-0.110309,0.277435,-0.158975,-0.941662
8971006028,0.394037,-0.174838,-0.110378,0.278230,-0.160424,-0.948960
8971008531,0.393681,-0.296643,-0.109640,0.278915,-0.161169,-0.946040
8971011034,0.332826,-0.296598,-0.170332,0.275306,-0.160394,-0.947533
8971013536,0.271750,-0.418116,-0.169678,0.274573,-0.163296,-0.949753
8971016039,0.332520,-0.357303,-0.169873,0.272383,-0.161091,-0.946841
8971018542,0.454253,-0.175195,-0.231289,0.275297,-0.158941,-0.945333
8971021045,0.514966,-0.114459,-0.231465,0.274595,-0.158200,-0.946794
8971023547,0.454287,0.007982,-0.171577,0.281120,-0.160461,-0.947469
8971026050,0.332656,0.008773,-0.111109,0.278245,-0.158239,-0.948213
8971028553,0.271919,0.070246,-0.050908,0.273868,-0.158192,-0.946802
8971031055,0.271727,0.008997,-0.111162,0.277535,-0.157499,-0.948944
8971033558,0.332399,0.008152,-0.232268,0.272341,-0.161827,-0.943929
8971036061,0.332295,0.008149,-0.232195,0.270919,-0.158167,-0.943187
8971038564,0.392949,0.007305,-0.353262,0.272424,-0.159627,-0.949018
8971041067,0.392923,0.068826,-0.232259,0.273045,-0.166204,-0.946145
8971043569,0.392799,0.068804,-0.232186,0.273747,-0.166945,-0.944684
8971046072,0.271178,0.069873,-0.111076,0.277469,-0.159695,-0.945315
8971048576,0.210344,0.070397,-0.050523,0.278246,-0.158966,-0.948948
8971051078,0.088790,0.071168,0.009907,0.276065,-0.157486,-0.947502
8971053581,0.088762,0.071146,0.009904,0.273134,-0.159639,-0.947551
8971056084,0.088618,0.010194,0.010253,0.272521,-0.153061,-0.951154
8971058586,0.149339,0.009645,-0.050269,0.273240,-0.153798,-0.951152
8971061089,0.210022,0.009690,0.010473,0.277445,-0.161883,-0.945332
8971063592,0.270705,0.009142,-0.050048,0.277511,-0.158959,-0.948227
8971066095,0.149016,-0.050997,0.010733,0.276832,-0.155304,-0.948935
8971068598,0.088220,-0.050436,0.071248,0.279763,-0.153878,-0.949621
8971071100,0.027452,-0.050171,0.071122,0.277551,-0.156041,-0.948933
8971073603,0.149049,0.009981,0.010334,0.272439,-0.157442,-0.948271
8971076106,0.270615,0.069817,-0.111058,0.276123,-0.156746,-0.951872
8971078608,0.391903,0.008071,-0.171086,0.273854,-0.162559,-0.949755
8971081111,0.331031,0.008614,-0.110514,0.279690,-0.157530,-0.946732
8971083614,0.330918,0.008908,-0.049857,0.280433,-0.156808,-0.947448
8971086117,0.209316,0.009996,0.071195,0.273912,-0.160364,-0.952655
8971088619,0.269874,-0.051186,0.071629,0.273838,-0.164017,-0.949766
8971091122,0.269682,-0.112396,0.011336,0.274515,-0.165490,-0.946852
8971093625,0.330346,-0.112906,-0.049186,0.276729,-0.164781,-0.949011
8971096127,0.269628,-0.051989,-0.110248,0.274606,-0.161835,-0.951200
8971098630,0.269543,-0.051973,-0.110214,0.274571,-0.160387,-0.946812
8971101133,0.148202,0.070697,-0.050469,0.278906,-0.160443,-0.944575
8971103636,0.148040,0.009745,-0.050101,0.276743,-0.160414,-0.946058
8971106138,0.147993,0.009742,-0.050085,0.275993,-0.164775,-0.948289
8971108641,0.147840,-0.051488,-0.110340,0.276671,-0.166976,-0.946110
8971111144,0.086938,-0.112153,-0.110057,0.277388,-0.165531,-0.943902
8971113646,0.026161,-0.111572,-0.049504,0.276660,-0.162614,-0.940969
8971116149,0.026260,-0.050311,0.010782,0.274506,-0.164038,-0.944652
8971118652,0.087108,0.010386,0.010530,0.276710,-0.161876,-0.944611
8971121155,0.147704,-0.050795,0.010983,0.271656,-0.160355,-0.946114
8971123657,0.147783,0.009854,-0.049995,0.268024,-0.163949,-0.949831
8971126160,0.147862,0.070484,-0.110953,0.268054,-0.158124,-0.946866
8971128663,0.026336,0.070959,-0.111126,0.273124,-0.158187,-0.945351
8971131165,-0.034412,0.071185,-0.111195,0.271680,-0.158895,-0.946832
8971133668,-0.095150,0.071708,-0.050642,0.268715,-0.159601,-0.942493
8971136171,-0.095032,0.133505,0.130889,0.270234,-0.157422,-0.946107
8971138673,-0.034164,0.194738,0.251844,0.273991,-0.153074,-0.952597
8971141176,-0.034172,0.195271,0.373010,0.273265,-0.153793,-0.953340
8971143679,0.026560,0.195554,0.494241,0.271785,-0.152327,-0.949697
8971146182,0.087282,0.195541,0.554812,0.272519,-0.150879,-0.948948
8971148684,0.147753,0.073668,0.616067,0.276121,-0.153110,-0.948196
8971151199,0.208339,0.012170,0.555707,0.276863,-0.151660,-0.948176
8971153688,0.208283,0.011869,0.494911,0.274724,-0.150172,-0.950377
8971156191,0.208227,0.011569,0.434133,0.276137,-0.152379,-0.948920
8971158694,0.268785,-0.049613,0.434452,0.277590,-0.152396,-0.948904
8971161196,0.268691,-0.049301,0.494938,0.277591,-0.153851,-0.950374
8971163699,0.268732,0.011348,0.433808,0.279755,-0.154607,-0.949627
8971166202,0.268889,0.132907,0.372346,0.279740,-0.156792,-0.950373
8971168705,0.269055,0.254132,0.250281,0.278262,-0.157508,-0.948936
8971171207,0.329603,0.192577,0.190036,0.278244,-0.156784,-0.946742
8971173710,0.329268,0.070656,0.190680,0.273941,-0.154539,-0.949691
8971176213,0.328807,-0.111859,0.252298,0.275379,-0.156014,-0.949686
8971178716,0.267954,-0.111278,0.312737,0.278254,-0.158964,-0.949677
8971181218,0.328592,-0.110898,0.433987,0.276809,-0.158218,-0.949688
8971183721,0.328604,-0.049933,0.433499,0.277465,-0.166970,-0.951938
8971186224,0.267780,-0.050263,0.312014,0.278168,-0.168438,-0.951212
8971188726,0.267607,-0.112067,0.130401,0.278121,-0.161902,-0.940948
8971191229,0.267551,-0.112922,-0.051506,0.283215,-0.159777,-0.939415
8971193732,0.328118,-0.174955,-0.232901,0.280344,-0.162645,-0.945306
8971196234,0.328140,-0.114267,-0.293802,0.281032,-0.167754,-0.946798
8971198737,0.267423,-0.053350,-0.354788,0.281804,-0.159752,-0.943078
8971201240,0.206822,0.069072,-0.294862,0.272395,-0.153815,-0.940948
8971203742,0.206641,0.008120,-0.294417,0.273112,-0.152371,-0.938740
8971206245,0.206451,-0.052515,-0.233351,0.280405,-0.152450,-0.940848
8971208748,0.266768,-0.235240,-0.171495,0.281232,-0.151709,-0.948858
8971211251,0.388038,-0.296296,-0.110260,0.284933,-0.151737,-0.954653
8971213753,0.448656,-0.296452,-0.110121,0.281962,-0.156809,-0.953996
8971216256,0.387785,-0.296407,-0.170813,0.278285,-0.154594,-0.948184
8971218759,0.266425,-0.174254,-0.232293,0.277533,-0.155318,-0.946739
8971221262,0.205602,-0.173950,-0.232324,0.276122,-0.155292,-0.950402
8971223764,0.266402,-0.113511,-0.293121,0.278312,-0.156770,-0.952578
8971226267,0.326835,-0.235881,-0.352843,0.281218,-0.156804,-0.952546
8971228770,0.387374,-0.297578,-0.473521,0.281281,-0.149517,-0.951029
8971231273,0.448127,-0.237397,-0.594865,0.276827,-0.148031,-0.941582
8971233775,0.447860,-0.297956,-0.533704,0.276102,-0.150932,-0.944531
8971236278,0.569074,-0.358992,-0.472354,0.274003,-0.145798,-0.946703
8971238781,0.629509,-0.419761,-0.411128,0.277621,-0.147298,-0.946675
8971241283,0.690158,-0.358651,-0.350624,0.276942,-0.143643,-0.947383
8971243786,0.750913,-0.236927,-0.351114,0.276953,-0.146550,-0.951053
8971246289,0.872389,-0.115490,-0.351499,0.279859,-0.145129,-0.949551
8971248791,0.871999,-0.176384,-0.351037,0.276943,-0.145097,-0.948853
8971251294,0.932357,-0.237803,-0.411093,0.271065,-0.150135,-0.948229
8971253797,0.992688,-0.298907,-0.410508,0.272536,-0.150875,-0.950407
8971256300,1.053232,-0.238132,-0.410627,0.274708,-0.150902,-0.949654
8971258803,1.053026,-0.177424,-0.471472,0.273289,-0.151606,-0.953323
8971261305,1.052472,-0.299525,-0.531243,0.273990,-0.151620,-0.951126
8971263808,1.112677,-0.422429,-0.712135,0.270415,-0.150110,-0.954802
8971266310,1.173067,-0.422545,-0.711807,0.273328,-0.147961,-0.953293
8971268813,1.294410,-0.301049,-0.712079,0.268910,-0.149377,-0.949706
8971271315,1.294101,-0.239431,-0.590963,0.266100,-0.143504,-0.952609
8971273819,1.354416,-0.239011,-0.469429,0.271914,-0.142844,-0.951810
8971276321,1.414837,-0.177958,-0.408907,0.276977,-0.144363,-0.951036
8971278824,1.535988,-0.117469,-0.408922,0.271956,-0.143562,-0.956192
8971281327,1.656985,-0.117929,-0.408586,0.271141,-0.149391,-0.954059
8971283830,1.777809,-0.178726,-0.286654,0.268192,-0.150094,-0.951179
8971286332,1.837758,-0.300778,-0.285756,0.268151,-0.150830,-0.948267
8971288835,1.898045,-0.240299,-0.346536,0.272570,-0.150868,-0.953325
8971291337,1.897467,-0.240817,-0.467672,0.270448,-0.150103,-0.957720
8971293840,1.957736,-0.180357,-0.528395,0.269681,-0.153013,-0.957021
8971296353,2.078592,-0.180500,-0.467399,0.268938,-0.153008,-0.955571
8971298846,2.138678,-0.180692,-0.467148,0.265318,-0.148598,-0.952658
8971301348,2.259495,-0.181429,-0.527416,0.266803,-0.145699,-0.952619
8971303851,2.198161,-0.120194,-0.527706,0.267532,-0.149344,-0.956287
8971306354,2.197578,-0.058929,-0.467269,0.271051,-0.154502,-0.951182
8971308858,2.257715,0.002661,-0.285504,0.269573,-0.154490,-0.949009
8971311360,2.378476,0.002460,-0.224584,0.269597,-0.152303,-0.948992
8971313864,2.377594,-0.057877,-0.102917,0.270357,-0.153032,-0.952637
8971316366,2.437596,-0.058404,-0.163403,0.271730,-0.158885,-0.951209
8971318869,2.497695,0.001998,-0.224222,0.271732,-0.161066,-0.953414
8971321371,2.496920,0.001701,-0.284774,0.271713,-0.158161,-0.949014
8971323874,2.556885,0.001155,-0.345203,0.270163,-0.165438,-0.947630
8971326377,2.555840,-0.120408,-0.283768,0.270172,-0.165436,-0.948359
8971328880,2.554921,-0.181300,-0.283327,0.275297,-0.159668,-0.946068
8971331383,2.493513,-0.120658,-0.404938,0.270145,-0.162533,-0.943230
8971333885,2.432222,0.001488,-0.405619,0.273836,-0.160381,-0.946090
8971336388,2.371192,0.245159,-0.467625,0.278195,-0.158249,-0.943836
8971338891,2.370303,0.185042,-0.285260,0.273770,-0.163304,-0.943196
8971341393,2.430289,0.185032,-0.224444,0.270831,-0.165459,-0.942516
8971343896,2.490015,0.063459,-0.102321,0.275920,-0.167700,-0.944665
8971346399,2.549981,0.062894,-0.162807,0.277349,-0.169904,-0.944667
8971348901,2.488431,0.063420,-0.102238,0.279498,-0.172845,-0.944666
8971351404,2.426919,0.063351,-0.162932,0.275895,-0.169160,-0.943948
8971353907,2.365426,0.063283,-0.223607,0.275144,-0.170611,-0.943238
8971356410,2.303720,-0.058645,-0.283559,0.279553,-0.167742,-0.944625
8971358912,2.242150,-0.119604,-0.343844,0.277382,-0.169169,-0.946849
8971361415,2.180822,-0.058388,-0.344192,0.276591,-0.173539,-0.945433
8971363918,2.119514,0.002808,-0.344540,0.277316,-0.170638,-0.942484
8971366420,2.058215,0.064283,-0.284265,0.272255,-0.171301,-0.945464
8971368923,2.057559,0.064559,-0.223554,0.275944,-0.166967,-0.946118
8971371426,1.996057,0.003858,-0.223236,0.278068,-0.170641,-0.944665
8971373928,1.995323,-0.057370,-0.283436,0.273756,-0.166944,-0.945413
8971376431,1.994696,-0.057352,-0.283347,0.273666,-0.172054,-0.942536
8971378934,1.933321,-0.056789,-0.222739,0.274386,-0.174246,-0.944004
8971381437,1.871964,-0.056226,-0.162151,0.278053,-0.172827,-0.945412
8971383939,1.810530,-0.117186,-0.222475,0.277316,-0.171366,-0.943220
8971386442,1.749230,-0.117198,-0.283131,0.275136,-0.171340,-0.943244
8971388945,1.688076,-0.056576,-0.404742,0.273038,-0.167661,-0.946886
8971391448,1.748536,0.064459,-0.526459,0.278109,-0.169178,-0.946841
8971393950,1.747889,0.002916,-0.647187,0.281766,-0.166306,-0.946048
8971396453,1.747223,-0.058015,-0.646631,0.276680,-0.167701,-0.947575
8971398956,1.685926,-0.057451,-0.585910,0.276639,-0.169892,-0.946134
8971401458,1.624531,-0.117818,-0.524856,0.278117,-0.167722,-0.946100
8971403961,1.563272,-0.117236,-0.464173,0.280297,-0.168474,-0.946811
8971406464,1.502041,-0.116950,-0.464131,0.278819,-0.169190,-0.945374
8971408969,1.501801,0.004946,-0.464689,0.277365,-0.168446,-0.944655
8971411472,1.501330,0.004945,-0.464543,0.278108,-0.167723,-0.945371
8971413971,1.500733,-0.055690,-0.403423,0.279585,-0.165553,-0.945337
8971416473,1.500020,-0.177235,-0.341970,0.276679,-0.165519,-0.945369
8971418976,1.438684,-0.237564,-0.280992,0.276647,-0.169163,-0.946128
8971421479,1.438357,-0.176857,-0.341878,0.278812,-0.171373,-0.946851
8971423981,1.438030,-0.116168,-0.402745,0.278804,-0.171375,-0.946121
8971426484,1.559085,-0.117519,-0.584277,0.280273,-0.169934,-0.946094
8971428987,1.619335,-0.117730,-0.583990,0.283154,-0.169973,-0.943873
8971431490,1.557962,-0.178078,-0.522936,0.280183,-0.173590,-0.941746
8971433992,1.496607,-0.238407,-0.461902,0.276582,-0.172813,-0.943969
8971436495,1.435388,-0.237786,-0.401238,0.280240,-0.171396,-0.944646
8971438998,1.434928,-0.237415,-0.340490,0.282405,-0.173606,-0.945369
8971441500,1.373719,-0.236498,-0.219242,0.278763,-0.174293,-0.945415
8971444003,1.373306,-0.237018,-0.340418,0.277327,-0.174273,-0.946890
8971446506,1.312163,-0.237585,-0.522282,0.280226,-0.175036,-0.946864
8971449008,1.190405,-0.176677,-0.643922,0.280904,-0.178691,-0.946156
8971451511,1.129292,-0.176373,-0.643824,0.279444,-0.180858,-0.947648
8971454014,1.068072,-0.236702,-0.582751,0.278717,-0.180122,-0.946921
8971456517,0.946257,-0.236131,-0.582776,0.279368,-0.181601,-0.941818
8971459019,0.824481,-0.235559,-0.582801,0.278609,-0.183781,-0.941114
8971461522,0.763491,-0.235534,-0.643344,0.275017,-0.181549,-0.942596
8971464025,0.763251,-0.235460,-0.643142,0.275048,-0.178632,-0.942573
8971466527,0.702272,-0.235137,-0.643044,0.275767,-0.178643,-0.941835
8971469030,0.701926,-0.295696,-0.581868,0.273537,-0.180082,-0.938953
8971471533,0.579985,-0.416669,-0.520567,0.272083,-0.178611,-0.937499
8971474036,0.579668,-0.476875,-0.398807,0.267780,-0.177093,-0.941182
8971476539,0.458114,-0.415001,-0.338619,0.269955,-0.182211,-0.945576
8971479041,0.397346,-0.353693,-0.338969,0.270681,-0.180038,-0.943362
8971481544,0.275993,-0.231818,-0.461018,0.269962,-0.180028,-0.944099
8971484046,0.215292,-0.170864,-0.521951,0.269293,-0.177825,-0.947008
8971486549,0.154493,-0.170858,-0.582514,0.269266,-0.174921,-0.941878
8971489052,0.093812,-0.109330,-0.522164,0.270663,-0.179314,-0.941168
8971491555,-0.027706,-0.108501,-0.461586,0.268549,-0.177093,-0.944821
8971494057,-0.027599,-0.046944,-0.340548,0.267847,-0.176352,-0.946282
8971496560,-0.027725,-0.107266,-0.218845,0.270026,-0.174195,-0.944053
8971499063,-0.027833,-0.168162,-0.218424,0.272204,-0.171312,-0.941088
8971501566,-0.088554,-0.168157,-0.279082,0.268588,-0.171993,-0.943322
8971504068,-0.149150,-0.106926,-0.279450,0.268581,-0.174904,-0.945533
8971506571,-0.209870,-0.105754,-0.097600,0.271480,-0.175667,-0.945507
8971509074,-0.270553,-0.105175,-0.037051,0.271472,-0.176396,-0.945513
8971511576,-0.331208,-0.104893,-0.037143,0.268542,-0.179276,-0.946298
8971514079,-0.330979,-0.044227,-0.098105,0.270714,-0.180031,-0.946280
8971516582,-0.391373,0.077598,-0.159504,0.274307,-0.182264,-0.944798
8971519085,-0.391250,0.077574,-0.159454,0.272847,-0.184430,-0.946290
8971521587,-0.391127,0.077549,-0.159404,0.271392,-0.182959,-0.944836
8971524090,-0.512483,0.078022,-0.159562,0.269186,-0.182212,-0.941936
8971526593,-0.633686,0.139424,-0.160072,0.269971,-0.180026,-0.944829
8971529095,-0.754975,0.140174,-0.099607,0.270707,-0.181487,-0.947021
8971531598,-0.815352,0.201012,-0.160654,0.273567,-0.187350,-0.948494
8971534101,-0.936817,0.079883,-0.099485,0.273574,-0.185166,-0.947018
8971536604,-0.997271,0.080403,-0.038936,0.269148,-0.187312,-0.943436
8971539106,-1.118679,-0.040688,0.022194,0.273565,-0.183713,-0.944818
8971541609,-1.239575,0.081681,0.021276,0.279330,-0.186701,-0.943318
8971544112,-1.299916,0.081607,-0.039457,0.271322,-0.190975,-0.946359
8971546615,-1.420870,0.143009,-0.040004,0.277893,-0.186680,-0.944793
8971549117,-1.481396,0.021352,-0.039392,0.273534,-0.188084,-0.946312
8971551620,-1.541805,-0.038742,0.082113,0.273576,-0.188802,-0.950694
8971554123,-1.662916,-0.099163,0.082231,0.277209,-0.187390,-0.949183
8971556625,-1.723008,-0.038250,0.021127,0.273575,-0.186621,-0.948488
8971559128,-1.843686,0.083229,-0.161658,0.273548,-0.184444,-0.944094
8971561631,-1.964595,0.083996,-0.101193,0.279412,-0.183774,-0.947671
8971564134,-2.085582,0.023834,-0.040395,0.281592,-0.183072,-0.946912
8971566636,-2.145801,-0.036262,0.081110,0.277174,-0.185943,-0.944795
8971569141,-2.266606,-0.035753,0.080877,0.272218,-0.180037,-0.950640
8971571643,-2.326518,0.025436,0.080395,0.275852,-0.180079,-0.950600
8971574146,-2.507890,0.087104,0.079707,0.275778,-0.183732,-0.947711
8971576648,-2.628689,0.026347,0.019203,0.275751,-0.180101,-0.941847
8971579151,-2.749449,-0.034391,-0.041281,0.275889,-0.172071,-0.946159
8971581654,-2.809557,-0.155991,-0.040668,0.275122,-0.174980,-0.945461
8971584156,-2.808790,-0.216872,-0.040304,0.275039,-0.177907,-0.941108
8971586659,-2.747061,-0.155826,0.020083,0.275814,-0.173541,-0.941065
8971589162,-2.806813,-0.094895,-0.041001,0.270783,-0.169833,-0.942551
8971591665,-2.866313,0.087876,-0.102770,0.266390,-0.171244,-0.941152
8971594167,-2.926018,0.148433,-0.224438,0.269959,-0.175664,-0.939688
8971596670,-2.985838,0.148635,-0.224471,0.269958,-0.172755,-0.936747
8971599173,-3.045881,0.027274,-0.163179,0.266969,-0.177103,-0.933896
8971601676,-3.106639,0.028116,-0.042038,0.266251,-0.176365,-0.933898
8971604178,-3.167254,0.088997,-0.103117,0.267769,-0.172732,-0.936041
8971606681,-3.227868,0.149879,-0.164195,0.271379,-0.175688,-0.936754
8971609184,-3.288599,0.149831,-0.224921,0.271274,-0.182984,-0.934624
8971611687,-3.410185,0.089101,-0.285399,0.274229,-0.179371,-0.935292
8971614189,-3.531664,0.089598,-0.285607,0.273528,-0.179357,-0.937488
8971616692,-3.653009,0.150432,-0.407411,0.270580,-0.180787,-0.935344
8971619195,-3.774461,0.150038,-0.589486,0.274266,-0.183000,-0.941886
8971621697,-3.956536,0.210824,-0.772016,0.280087,-0.182338,-0.941816
8971624200,-4.078024,0.211617,-0.711602,0.282235,-0.183825,-0.940345
8971626703,-4.078140,0.150687,-0.711250,0.285237,-0.175111,-0.940243
8971629205,-4.078498,-0.031805,-0.649572,0.286069,-0.169278,-0.943835
8971631708,-4.017856,-0.093577,-0.770361,0.285432,-0.164159,-0.946720
8971634211,-4.078596,-0.093329,-0.770465,0.294275,-0.158416,-0.951684
8971636714,-4.078470,-0.032696,-0.831439,0.294324,-0.155496,-0.953119
8971639216,-4.139093,0.028483,-0.831895,0.288461,-0.157621,-0.951012
8971641719,-4.138978,0.089413,-0.832247,0.283413,-0.153189,-0.950304
8971644222,-4.138996,0.090006,-0.711002,0.282761,-0.150983,-0.954671
8971646724,-4.199763,0.091145,-0.529239,0.279903,-0.148757,-0.956874
8971649227,-4.199916,0.031402,-0.286399,0.278449,-0.147285,-0.955420
8971651730,-4.139553,-0.150746,-0.103372,0.274106,-0.147958,-0.957662
8971654233,-4.018198,-0.211876,-0.042191,0.273462,-0.146477,-0.963494
8971656735,-3.896827,-0.273599,-0.102253,0.271259,-0.150094,-0.965006
8971659238,-3.835971,-0.212918,-0.102501,0.263210,-0.155104,-0.965135
8971661741,-3.775249,-0.212573,0.018848,0.261055,-0.155073,-0.967347
8971664243,-3.714528,-0.212228,0.140196,0.266109,-0.157321,-0.966579
8971666746,-3.653700,-0.150656,0.321815,0.270453,-0.157376,-0.965072
8971669261,-3.653584,-0.089727,0.321463,0.266811,-0.157335,-0.964383
8971671750,-3.714216,-0.028252,0.381629,0.263878,-0.155852,-0.960756
8971674253,-3.714235,-0.027658,0.502874,0.267478,-0.155902,-0.957798
8971676756,-3.714244,-0.027361,0.563496,0.269649,-0.155929,-0.957045
8971679259,-3.714253,-0.027064,0.624118,0.268920,-0.151557,-0.952641
8971681761,-3.714156,0.034459,0.745011,0.268904,-0.152288,-0.951918
8971684264,-3.653202,0.156664,0.865656,0.268161,-0.154465,-0.952673
8971686767,-3.592481,0.157009,0.987004,0.268829,-0.153758,-0.946823
8971689269,-3.531750,0.157057,1.047730,0.271620,-0.156726,-0.939520
8971691772,-3.471020,0.157105,1.108456,0.271572,-0.161828,-0.940290
8971694275,-3.470913,0.218332,1.168727,0.271542,-0.166926,-0.942519
8971696777,-3.531546,0.279807,1.228893,0.274433,-0.168417,-0.942499
8971699280,-3.652927,0.341827,1.349578,0.272251,-0.166210,-0.940317
8971701783,-3.774416,0.342621,1.409992,0.267091,-0.169804,-0.937485
8971704286,-3.895797,0.404641,1.530677,0.268488,-0.174196,-0.936774
8971706788,-4.017286,0.405435,1.591091,0.271370,-0.174963,-0.935289
8971709291,-4.138542,0.528089,1.650802,0.270554,-0.179338,-0.931685
8971711794,-4.199049,0.650197,1.649994,0.274148,-0.183025,-0.931674
8971714297,-4.259771,0.649852,1.528646,0.274083,-0.187403,-0.930250
8971716799,-4.381356,0.589122,1.468167,0.270435,-0.190273,-0.931772
8971719302,-4.563673,0.528344,1.346963,0.273391,-0.188842,-0.934646
8971721805,-4.685143,0.528545,1.286133,0.273464,-0.185189,-0.937535
8971724307,-4.867460,0.467767,1.164928,0.269161,-0.181490,-0.939013
8971726810,-5.049572,0.529739,1.224887,0.269960,-0.177119,-0.941158
8971729313,-5.170944,0.591463,1.284949,0.274379,-0.175702,-0.944746
8971731815,-5.231596,0.653531,1.466360,0.276584,-0.175722,-0.946910
8971734318,-5.292238,0.715303,1.587149,0.276675,-0.172794,-0.951993
8971736821,-5.413726,0.716097,1.647563,0.277361,-0.175720,-0.951278
8971739324,-5.535321,0.655664,1.647707,0.275857,-0.174987,-0.946183
8971741826,-5.656792,0.655865,1.586877,0.280310,-0.175018,-0.954158
8971744329,-5.717648,0.595183,1.587125,0.274581,-0.162567,-0.949747
8971746832,-5.778396,0.595729,1.647643,0.276743,-0.160414,-0.946058
8971749335,-5.839368,0.474117,1.648243,0.278973,-0.159702,-0.949675
8971751837,-5.900224,0.413436,1.648491,0.277477,-0.158966,-0.945309
8971754340,-5.900206,0.412842,1.527246,0.282572,-0.158297,-0.945247
8971756843,-5.839457,0.412297,1.466728,0.278251,-0.154601,-0.945266
8971759345,-5.900080,0.473476,1.466272,0.278987,-0.156062,-0.947458
8971761848,-5.900196,0.412546,1.466624,0.281876,-0.153917,-0.943761
8971764351,-5.960936,0.412794,1.466520,0.282629,-0.156102,-0.948147
8971766854,-6.021685,0.413339,1.527038,0.284061,-0.161215,-0.951090
8971769356,-6.021810,0.352706,1.588012,0.286282,-0.159777,-0.953242
8971771859,-6.021944,0.292370,1.709609,0.284134,-0.156836,-0.953243
8971774361,-5.961089,0.353051,1.709361,0.285561,-0.156131,-0.950303
8971776864,-5.960847,0.474614,1.648035,0.277551,-0.156041,-0.948933
8971779367,-6.021578,0.474566,1.587309,0.280506,-0.153155,-0.950336
8971781870,-6.082531,0.352361,1.466664,0.284106,-0.153205,-0.947378
8971784372,-6.082638,0.291135,1.406394,0.284775,-0.154680,-0.943735
8971786875,-6.082513,0.351768,1.345420,0.281224,-0.151711,-0.948128
8971789378,-6.082522,0.352065,1.406042,0.275409,-0.150189,-0.946722
8971791880,-6.082541,0.352658,1.527286,0.272451,-0.148712,-0.940907
8971794383,-6.143290,0.353203,1.587805,0.272476,-0.149433,-0.943830
8971796886,-6.204047,0.354045,1.708945,0.273193,-0.147262,-0.940887
8971799389,-6.143201,0.415024,1.769319,0.270246,-0.149419,-0.939478
8971801892,-6.082355,0.476002,1.829694,0.275342,-0.150931,-0.941622
8971804394,-6.021498,0.536683,1.829446,0.273146,-0.152363,-0.941657
8971806897,-6.142987,0.537477,1.889860,0.269513,-0.153776,-0.943168
8971809400,-6.203825,0.476202,1.768864,0.269661,-0.147198,-0.949681
8971811902,-6.264662,0.414927,1.647867,0.266650,-0.155187,-0.948318
8971814405,-6.264760,0.353404,1.526974,0.270968,-0.155974,-0.945358
8971816908,-6.386230,0.353604,1.466144,0.268118,-0.153019,-0.947555
8971819410,-6.386230,0.353604,1.466144,0.270348,-0.150852,-0.949702
8971821913,-6.446979,0.354149,1.526663,0.273320,-0.147962,-0.952564
8971824417,-6.446872,0.415376,1.586933,0.266837,-0.145692,-0.955536
8971826920,-6.507388,0.537781,1.646747,0.268242,-0.148629,-0.954085
8971829423,-6.446658,0.537829,1.707474,0.273286,-0.147969,-0.949646
8971831925,-6.507532,0.477741,1.828966,0.274013,-0.147251,-0.948903
8971834428,-6.446793,0.477493,1.829070,0.274743,-0.152350,-0.954042
8971836931,-6.446551,0.599056,1.767744,0.275477,-0.150902,-0.953293
8971839434,-6.385918,0.537581,1.707578,0.274797,-0.145065,-0.951795
8971841937,-6.385802,0.598510,1.707226,0.273312,-0.147964,-0.951835
8971844439,-6.507272,0.598711,1.646396,0.279159,-0.147297,-0.953953
8971846942,-6.507272,0.598711,1.646396,0.278447,-0.145103,-0.953214
8971849444,-6.567994,0.598366,1.525047,0.277773,-0.135628,-0.948770
8971851947,-6.446612,0.536345,1.404362,0.276370,-0.134146,-0.951692
8971854450,-6.446487,0.596978,1.343388,0.274884,-0.136318,-0.950996
8971856952,-6.385863,0.535800,1.343844,0.273518,-0.128282,-0.950948
8971859455,-6.325123,0.535551,1.343948,0.277854,-0.130520,-0.950917
8971861958,-6.203876,0.413195,1.344860,0.276451,-0.129765,-0.954575
8971864461,-6.082513,0.351768,1.345420,0.276475,-0.128305,-0.955292
8971866963,-6.021657,0.412449,1.345172,0.275763,-0.125384,-0.953818
8971869466,-5.960685,0.534060,1.344572,0.275820,-0.121008,-0.954513
8971871969,-5.839206,0.533563,1.344780,0.280148,-0.123975,-0.954488
8971874472,-5.717843,0.472136,1.345340,0.275804,-0.123193,-0.955260
8971876974,-5.596712,0.288850,1.346603,0.276597,-0.121733,-0.959616
8971879477,-5.535954,0.288008,1.225463,0.278784,-0.118120,-0.956646
8971881980,-5.535944,0.287711,1.164840,0.273723,-0.120237,-0.961096
8971884490,-5.475080,0.348096,1.103970,0.278090,-0.118104,-0.959571
8971886985,-5.353601,0.347599,1.104178,0.280972,-0.117416,-0.956616
8971889488,-5.171372,0.346556,1.043868,0.276612,-0.118093,-0.957399
8971891990,-4.989018,0.406147,0.922583,0.275902,-0.118808,-0.959601
8971894493,-4.867539,0.405650,0.922791,0.278817,-0.118113,-0.959563
8971896996,-4.746050,0.404856,0.862377,0.281717,-0.120330,-0.961008
8971899499,-4.685311,0.404608,0.862481,0.281008,-0.121773,-0.963945
8971902001,-4.503306,0.281409,0.742252,0.281016,-0.121044,-0.963939
8971904504,-4.442548,0.280567,0.621112,0.281776,-0.119590,-0.965378
8971907007,-4.382022,0.157865,0.500675,0.283180,-0.122527,-0.963927
8971909510,-4.382120,0.096342,0.379782,0.285344,-0.123283,-0.963179
8971912012,-4.321603,-0.026063,0.319968,0.283865,-0.123272,-0.961007
8971914515,-4.200231,-0.087787,0.259905,0.283113,-0.123269,-0.958826
8971917018,-4.018119,-0.149759,0.199947,0.284574,-0.121102,-0.957334
8971919520,-3.957487,-0.211234,0.139780,0.287528,-0.116034,-0.956532
8971922023,-3.836114,-0.272958,0.079718,0.284613,-0.116002,-0.955834
8971924549,-3.714876,-0.395018,0.141252,0.281704,-0.113787,-0.953661
8971927027,-3.593388,-0.395811,0.080837,0.281655,-0.115979,-0.951490
8971929530,-3.471792,-0.335379,0.080693,0.282334,-0.119635,-0.950782
8971932032,-3.350072,-0.214313,0.019575,0.285984,-0.118946,-0.951465
8971934535,-3.289225,-0.153335,0.079950,0.281622,-0.116714,-0.949307
8971937038,-3.228485,-0.153583,0.080054,0.275090,-0.115909,-0.949374
8971939540,-3.167853,-0.215058,0.019887,0.277989,-0.117399,-0.950083
8971942043,-3.046587,-0.338009,-0.100446,0.277981,-0.118128,-0.950089
8971944546,-2.985945,-0.399780,-0.221234,0.276584,-0.114462,-0.951534
8971947049,-2.864457,-0.400574,-0.281649,0.275856,-0.112999,-0.950072
8971949551,-2.803583,-0.340486,-0.403141,0.272207,-0.115142,-0.950859
8971952054,-2.681987,-0.280054,-0.403285,0.270788,-0.115845,-0.954528
8971954557,-2.621131,-0.219372,-0.403533,0.268697,-0.110710,-0.957429
8971957060,-2.439038,-0.280751,-0.342247,0.268696,-0.108528,-0.955223
8971959562,-2.317791,-0.403108,-0.341335,0.272347,-0.110021,-0.958112
8971962065,-2.135929,-0.586346,-0.279346,0.272382,-0.112196,-0.963236
8971964568,-2.075180,-0.586891,-0.339864,0.275990,-0.110789,-0.959537
8971967070,-1.953441,-0.466419,-0.522226,0.276706,-0.107163,-0.955123
8971969573,-1.831720,-0.345353,-0.583344,0.274519,-0.109321,-0.956624
8971972076,-1.649269,-0.224239,-0.583736,0.273064,-0.107849,-0.955169
8971974579,-1.467041,-0.225281,-0.644047,0.273807,-0.106400,-0.955150
8971977081,-1.345543,-0.226372,-0.765083,0.278977,-0.104259,-0.960182
8971979584,-1.224064,-0.226869,-0.764875,0.280495,-0.100626,-0.962325
8971982087,-1.102585,-0.227366,-0.764667,0.279082,-0.097691,-0.963047
8971984589,-0.920384,-0.227518,-0.643111,0.277570,-0.097686,-0.957957
8971987092,-0.738300,-0.288600,-0.521203,0.278303,-0.095511,-0.956473
8971989595,-0.556099,-0.288752,-0.399646,0.279846,-0.091145,-0.960069
8971992097,-0.373871,-0.289794,-0.459957,0.282736,-0.090455,-0.957843
8971994600,-0.191545,-0.229313,-0.399375,0.282745,-0.091181,-0.959308
8971997103,-0.009317,-0.230355,-0.459685,0.285596,-0.095590,-0.958581
8971999606,0.294381,-0.231598,-0.459165,0.281218,-0.094089,-0.955700
8972002108,0.476484,-0.293273,-0.458501,0.276144,-0.088935,-0.952068
8972004611,0.780057,-0.355149,-0.397007,0.276102,-0.089672,-0.949156
8972007114,1.023007,-0.355846,-0.335969,0.279672,-0.094092,-0.947692
8972009616,1.326812,-0.295862,-0.275179,0.274610,-0.094754,-0.950672
8972012119,1.508906,-0.357241,-0.213893,0.275386,-0.091843,-0.952099
8972014622,1.691115,-0.357690,-0.152959,0.276798,-0.093323,-0.949907
8972017124,1.873450,-0.297505,-0.152999,0.272381,-0.097649,-0.949260
8972019627,2.055794,-0.237618,-0.213661,0.270218,-0.097620,-0.950743
8972022130,2.177265,-0.237818,-0.152831,0.267303,-0.098315,-0.950781
8972024633,2.359474,-0.238267,-0.091897,0.270937,-0.099085,-0.951476
8972027135,2.541800,-0.177786,-0.031315,0.271631,-0.099827,-0.949286
8972029638,2.724144,-0.117898,-0.091977,0.273110,-0.100566,-0.952193
8972032141,2.785010,-0.057514,-0.152847,0.275293,-0.104955,-0.956581
8972034643,2.967238,-0.058556,-0.213157,0.273799,-0.107129,-0.955155
8972037146,3.149234,-0.181458,-0.272764,0.272353,-0.105656,-0.954430
8972039649,3.392192,-0.182452,-0.272348,0.277454,-0.102075,-0.952157
8972042152,3.574411,-0.183198,-0.272036,0.278833,-0.103562,-0.947046
8972044654,3.635401,-0.062180,-0.393881,0.276581,-0.109371,-0.946388
8972047157,3.756899,-0.063271,-0.514917,0.279545,-0.107211,-0.949256
8972049660,3.878388,-0.064064,-0.575331,0.278842,-0.104288,-0.948511
8972052162,3.999751,-0.125491,-0.574772,0.276630,-0.106451,-0.947823
8972054665,4.181863,-0.187463,-0.634730,0.280231,-0.109410,-0.947806
8972057168,4.303227,-0.248890,-0.634170,0.282404,-0.110164,-0.947788
8972059670,4.485339,-0.310863,-0.694129,0.285352,-0.108735,-0.949933
8972062173,4.606701,-0.372289,-0.693569,0.286030,-0.112390,-0.949224
8972064676,4.728190,-0.373083,-0.753983,0.282396,-0.112348,-0.949264
8972067179,4.788939,-0.373628,-0.814502,0.286889,-0.108006,-0.956476
8972069681,4.971292,-0.314038,-0.935786,0.283982,-0.107973,-0.956508
8972072184,5.153279,-0.436643,-0.934771,0.278869,-0.107192,-0.953640
8972074687,5.335266,-0.559248,-0.933755,0.277407,-0.106449,-0.952192
8972077190,5.517360,-0.620627,-0.872469,0.276745,-0.102063,-0.953624
8972079694,5.699695,-0.560442,-0.872509,0.276722,-0.106432,-0.955847
8972082196,5.882039,-0.500555,-0.933171,0.275226,-0.105697,-0.951481
8972084699,6.064384,-0.440667,-0.993833,0.271651,-0.104187,-0.955156
8972087202,6.185853,-0.440868,-0.933003,0.272418,-0.102732,-0.957325
8972089704,6.368188,-0.380683,-0.933043,0.271660,-0.105640,-0.957356
8972092207,6.550515,-0.320202,-0.872461,0.267316,-0.105586,-0.958863
8972094710,6.671878,-0.381629,-0.871901,0.265886,-0.102655,-0.958126
8972097213,6.854106,-0.382672,-0.932212,0.272376,-0.102741,-0.953678
8972099715,7.036334,-0.383714,-0.992522,0.273725,-0.109327,-0.950796
8972102218,7.218455,-0.445983,-1.113103,0.265766,-0.112136,-0.956743
8972104721,7.340051,-0.385550,-1.113247,0.267897,-0.114354,-0.954548
8972107223,7.522154,-0.447225,-1.112583,0.269277,-0.118023,-0.951644
8972109726,7.704372,-0.447971,-1.112271,0.269318,-0.116559,-0.953820
8972112229,7.764996,-0.509149,-1.111815,0.270753,-0.113671,-0.949404
8972114732,7.886484,-0.509943,-1.172230,0.270771,-0.115849,-0.953069
8972117235,7.947233,-0.510488,-1.232748,0.270796,-0.115116,-0.954522
8972119737,8.129461,-0.511531,-1.293058,0.270038,-0.118751,-0.955289
8972122240,8.251065,-0.451395,-1.353824,0.272831,-0.125355,-0.951662
8972124743,8.372545,-0.451892,-1.353616,0.272765,-0.127551,-0.948032
8972127245,8.433285,-0.452140,-1.353513,0.277085,-0.129066,-0.945808
8972129748,8.554764,-0.452637,-1.353305,0.282179,-0.128396,-0.945746
8972132251,8.615610,-0.391659,-1.292930,0.279282,-0.130542,-0.948713
8972134753,8.737206,-0.331226,-1.293074,0.277795,-0.130532,-0.945811
8972137256,8.798080,-0.271139,-1.414567,0.280692,-0.128386,-0.942844
8972139759,8.980192,-0.333111,-1.474525,0.281412,-0.129851,-0.943577
8972142261,9.101447,-0.455764,-1.534236,0.280726,-0.128379,-0.945762
8972144764,9.162072,-0.516943,-1.533780,0.280703,-0.131293,-0.946514
8972147267,9.222927,-0.456261,-1.534028,0.282083,-0.134962,-0.943610
8972149770,9.283899,-0.334650,-1.534628,0.279217,-0.134192,-0.946554
8972152272,9.344630,-0.334602,-1.473901,0.274121,-0.133408,-0.945145
8972154775,9.466002,-0.396325,-1.533964,0.276286,-0.134891,-0.945133
8972157278,9.526751,-0.396871,-1.594482,0.273453,-0.131932,-0.948789
8972159781,9.587607,-0.336189,-1.594730,0.274857,-0.134142,-0.946602
8972162283,9.648463,-0.275508,-1.594978,0.277756,-0.134905,-0.946576
8972164786,9.709203,-0.275757,-1.594874,0.274826,-0.137785,-0.947360
8972167289,9.830449,-0.398113,-1.593962,0.276287,-0.136346,-0.946603
8972169791,9.891082,-0.459588,-1.654129,0.276321,-0.137066,-0.950256
8972172294,9.951715,-0.521064,-1.714295,0.273410,-0.143579,-0.956176
8972174797,10.073088,-0.582787,-1.774358,0.271907,-0.145027,-0.953286
8972177300,10.194567,-0.583284,-1.774150,0.276260,-0.146534,-0.953979
8972179802,10.255423,-0.522603,-1.774397,0.276986,-0.146543,-0.953971
8972182310,10.194798,-0.461424,-1.774853,0.272625,-0.145038,-0.952549
8972184806,10.316394,-0.400992,-1.774997,0.274763,-0.144345,-0.948142
8972187309,10.377134,-0.401240,-1.774893,0.274714,-0.147264,-0.946707
8972189812,10.437864,-0.401192,-1.714167,0.270338,-0.148672,-0.946766
8972192314,10.498604,-0.401441,-1.714063,0.272486,-0.150886,-0.946030
8972194817,10.437856,-0.400895,-1.653545,0.276781,-0.155315,-0.944558
8972197320,10.437874,-0.401489,-1.774789,0.277549,-0.153860,-0.946727
8972199822,10.316287,-0.462218,-1.835268,0.275419,-0.152369,-0.949657
8972202325,10.255556,-0.462267,-1.895994,0.273950,-0.154537,-0.950420
8972204828,10.255672,-0.401337,-1.896346,0.278187,-0.158978,-0.943842
8972207331,10.255566,-0.462563,-1.956616,0.280341,-0.158282,-0.940894
8972209833,10.316422,-0.401882,-1.956864,0.276742,-0.158960,-0.944587
8972212336,10.376921,-0.523693,-1.895434,0.271640,-0.162541,-0.946861
8972214839,10.316172,-0.523148,-1.834916,0.273110,-0.162554,-0.948304
8972217341,10.316172,-0.523148,-1.834916,0.278213,-0.161155,-0.948236
8972219844,10.255538,-0.461673,-1.774749,0.279625,-0.161181,-0.944573
8972222347,10.195031,-0.339565,-1.775557,0.278163,-0.161166,-0.943859
8972224849,10.195022,-0.339268,-1.714935,0.273811,-0.161840,-0.945372
8972227352,10.255761,-0.339517,-1.714831,0.275975,-0.162597,-0.944625
8972229855,10.255761,-0.339517,-1.714831,0.276654,-0.166252,-0.943916
8972232358,10.195022,-0.339268,-1.714935,0.272343,-0.164736,-0.946871
8972234861,10.073552,-0.339068,-1.775765,0.273045,-0.165477,-0.945409
8972237363,10.073436,-0.399998,-1.775413,0.278084,-0.169183,-0.944653
8972239866,10.134059,-0.461176,-1.774957,0.278852,-0.167728,-0.946822
8972242369,10.194557,-0.582987,-1.713527,0.276680,-0.166974,-0.946840
8972244871,10.194549,-0.582691,-1.652905,0.278042,-0.169919,-0.941741
8972247374,10.133790,-0.581849,-1.531765,0.275863,-0.170621,-0.942500
8972249877,10.073167,-0.520670,-1.532221,0.275209,-0.166233,-0.944662
8972252379,10.012427,-0.520422,-1.532325,0.272253,-0.168392,-0.942523
8972254882,10.012669,-0.398859,-1.593650,0.272962,-0.167677,-0.940321
8972257385,9.952055,-0.337977,-1.654728,0.275175,-0.165513,-0.941009
8972259888,9.952296,-0.216414,-1.716054,0.274350,-0.170617,-0.937410
8972262390,9.891547,-0.215869,-1.655536,0.271486,-0.171302,-0.941825
8972264893,9.952278,-0.215821,-1.594810,0.271513,-0.174205,-0.946954
8972267396,9.952278,-0.215821,-1.594810,0.274381,-0.179339,-0.948422
8972269898,9.891421,-0.276502,-1.594562,0.275049,-0.180087,-0.944043
8972272401,9.830547,-0.336590,-1.473070,0.271343,-0.184424,-0.941930
8972274904,9.709050,-0.335499,-1.352033,0.270584,-0.186605,-0.941226
8972277407,9.648408,-0.273728,-1.231244,0.269914,-0.183675,-0.943399
8972279909,9.587678,-0.273776,-1.291971,0.266967,-0.185832,-0.941990
8972282412,9.405342,-0.333960,-1.291931,0.269106,-0.188775,-0.941259
8972284915,9.283756,-0.394690,-1.352409,0.273419,-0.193200,-0.941246
8972287417,9.162268,-0.393896,-1.291995,0.274098,-0.197583,-0.941273
8972289920,9.101644,-0.332717,-1.292450,0.273398,-0.199023,-0.944940
8972292423,9.041137,-0.210609,-1.293258,0.271951,-0.196096,-0.942744
8972294926,8.980522,-0.149728,-1.354336,0.273348,-0.201216,-0.942769
8972297428,8.859061,-0.149824,-1.475789,0.268915,-0.205545,-0.940664
8972299931,8.676967,-0.088445,-1.537074,0.268198,-0.206989,-0.942872
8972302434,8.494632,-0.148630,-1.537035,0.271830,-0.204122,-0.939891
8972304937,8.312288,-0.208517,-1.476372,0.273299,-0.202681,-0.939863
8972307439,8.190701,-0.269247,-1.536851,0.277660,-0.203459,-0.940550
8972309942,8.008483,-0.268501,-1.537163,0.280608,-0.202029,-0.942695
8972312445,7.887129,-0.207371,-1.598344,0.278427,-0.201277,-0.941984
8972314947,7.704920,-0.206922,-1.659279,0.276974,-0.201260,-0.942000
8972317450,7.583441,-0.206425,-1.659487,0.276974,-0.201987,-0.942735
8972319953,7.401212,-0.205383,-1.599176,0.279953,-0.196187,-0.943386
8972322456,7.340348,-0.265768,-1.538306,0.276294,-0.196150,-0.941238
8972324958,7.218743,-0.325904,-1.477540,0.276278,-0.197608,-0.941249
8972327461,7.158012,-0.325952,-1.538266,0.277755,-0.193983,-0.939745
8972329964,7.036533,-0.325455,-1.538474,0.277762,-0.191800,-0.938269
8972332466,6.975793,-0.325206,-1.538578,0.275608,-0.193223,-0.941952
8972334969,6.854412,-0.263186,-1.417893,0.278490,-0.193990,-0.940467
8972337473,6.732807,-0.323322,-1.357127,0.277054,-0.195424,-0.943412
8972339976,6.672184,-0.262144,-1.357583,0.274122,-0.195395,-0.941256
8972342479,6.611202,-0.383458,-1.296361,0.271935,-0.197554,-0.942756
8972344981,6.550338,-0.443843,-1.235491,0.271961,-0.199003,-0.946415
8972347484,6.489463,-0.503930,-1.113999,0.272686,-0.196829,-0.944201
8972349987,6.428840,-0.442752,-1.114454,0.267623,-0.194583,-0.944240
8972352490,6.429189,-0.259963,-1.115510,0.269796,-0.196792,-0.945692
8972354992,6.307932,-0.137309,-1.055799,0.266873,-0.198216,-0.945736
8972357495,6.247174,-0.136467,-0.934659,0.269721,-0.198263,-0.940598
8972359998,6.125802,-0.074743,-0.874596,0.266171,-0.196021,-0.945726
8972362500,6.004420,-0.012723,-0.753911,0.266186,-0.193836,-0.944979
8972365003,5.882932,-0.011929,-0.693497,0.266797,-0.197505,-0.938436
8972367506,5.761452,-0.011432,-0.693705,0.266790,-0.198962,-0.939177
8972370008,5.639973,-0.010935,-0.693913,0.266789,-0.198234,-0.938441
8972372511,5.579349,0.050243,-0.694369,0.267452,-0.203348,-0.937745
8972375014,5.518717,0.111718,-0.634202,0.266023,-0.202598,-0.939214
8972377517,5.397362,0.172849,-0.695384,0.271069,-0.204121,-0.936981
8972380019,5.275892,0.173049,-0.756214,0.269649,-0.204097,-0.939915
8972382522,5.154520,0.234772,-0.696152,0.267486,-0.203341,-0.940663
8972385025,5.033022,0.235863,-0.575115,0.274001,-0.204149,-0.939137
8972387528,4.911525,0.236954,-0.454079,0.276197,-0.202717,-0.939102
8972390030,4.789910,0.177114,-0.332691,0.274735,-0.201974,-0.937653
8972392533,4.668431,0.177611,-0.332898,0.273305,-0.199770,-0.937652
8972395036,4.486212,0.178357,-0.333210,0.276938,-0.198358,-0.936141
8972397545,4.425705,0.300465,-0.334018,0.275469,-0.199799,-0.936169
8972400041,4.304324,0.362485,-0.213333,0.273240,-0.202693,-0.934757
8972402544,4.304430,0.423712,-0.153063,0.272531,-0.203409,-0.936959
8972405047,4.243789,0.485484,-0.032274,0.272555,-0.202676,-0.938412
8972407549,4.183049,0.485732,-0.032378,0.274671,-0.207079,-0.936964
8972410052,4.000713,0.425548,-0.032338,0.278296,-0.207123,-0.936195
8972412555,3.939750,0.303640,-0.092361,0.278290,-0.210761,-0.939142
8972415057,3.757531,0.304386,-0.092673,0.273214,-0.215064,-0.944339
8972417560,3.635936,0.243953,-0.092529,0.275493,-0.211432,-0.949392
8972420063,3.453717,0.244698,-0.092841,0.276177,-0.209994,-0.944266
8972422565,3.453717,0.244698,-0.092841,0.273262,-0.210690,-0.944304
8972425068,3.332238,0.245196,-0.093048,0.275433,-0.209990,-0.942815
8972427571,3.150019,0.245941,-0.093360,0.276871,-0.211465,-0.942811
8972430074,3.028530,0.246735,-0.032946,0.276243,-0.207798,-0.947896
8972432576,2.907167,0.308162,-0.033506,0.275516,-0.207790,-0.947904
8972435079,2.785902,0.431112,0.086827,0.272599,-0.205576,-0.945000
8972437603,2.664539,0.492539,0.086267,0.272615,-0.204118,-0.944989
8972440086,2.603808,0.492491,0.025541,0.277695,-0.205633,-0.945674
8972442586,2.603710,0.430967,-0.095351,0.280609,-0.204211,-0.944901
8972445088,2.482008,0.309308,-0.155478,0.276247,-0.201979,-0.942743
8972447591,2.360422,0.248578,-0.215956,0.270434,-0.202638,-0.943542
8972450094,2.238835,0.187849,-0.276435,0.268998,-0.204072,-0.946488
8972452597,2.178203,0.249324,-0.216268,0.272714,-0.200460,-0.950066
8972455099,2.178184,0.249917,-0.095024,0.274869,-0.200491,-0.947853
8972457602,2.178175,0.250214,-0.034401,0.274836,-0.202680,-0.947141
8972460105,2.117435,0.250463,-0.034505,0.274159,-0.200479,-0.949320
8972462608,2.056812,0.311641,-0.034961,0.271277,-0.199713,-0.950805
8972465110,1.935333,0.312138,-0.035169,0.270444,-0.205545,-0.947213
8972467613,1.935207,0.251505,0.025805,0.272535,-0.209954,-0.943577
8972470116,1.813612,0.191072,0.025949,0.276151,-0.209273,-0.941342
8972472618,1.692249,0.252499,0.025389,0.275409,-0.212177,-0.942833
8972475121,1.570760,0.253293,0.085803,0.271753,-0.216503,-0.945096
8972477624,1.388532,0.254335,0.146114,0.271011,-0.217953,-0.945116
8972480126,1.206072,0.133518,0.207128,0.270977,-0.218687,-0.942933
8972482629,1.023727,0.073630,0.267790,0.271687,-0.218699,-0.941466
8972485132,0.902257,0.073831,0.206960,0.273126,-0.221629,-0.942932
8972487635,0.720029,0.074873,0.267270,0.273846,-0.224548,-0.945136
8972490137,0.476945,0.015234,0.327828,0.271635,-0.228893,-0.946654
8972492640,0.355331,-0.044605,0.449217,0.270869,-0.233257,-0.947426
8972495143,0.234084,0.077751,0.448305,0.271619,-0.230352,-0.946665
8972497646,0.051991,0.139130,0.387019,0.273798,-0.228922,-0.945171
8972500148,-0.251582,0.201006,0.325525,0.273743,-0.234026,-0.945212
8972502651,-0.494541,0.202000,0.325110,0.271595,-0.232539,-0.946683
8972505154,-0.676885,0.142112,0.385772,0.271685,-0.227428,-0.949560
8972507657,-0.798606,0.021046,0.446890,0.275350,-0.224554,-0.949496
8972510159,-0.980959,-0.038545,0.568174,0.276011,-0.226759,-0.945859
8972512662,-1.163178,-0.037799,0.567862,0.278198,-0.225328,-0.945094
8972515165,-1.345397,-0.037053,0.567550,0.277545,-0.220940,-0.947255
8972517667,-1.527473,0.023732,0.385020,0.275372,-0.219458,-0.946538
8972520170,-1.648952,0.024229,0.384812,0.276081,-0.218016,-0.943601
8972522673,-1.770431,0.024726,0.384604,0.276798,-0.215844,-0.940657
8972525175,-1.891920,0.025520,0.445019,0.276127,-0.210732,-0.940625
8972527678,-1.952659,0.025768,0.444915,0.283369,-0.210822,-0.938356
8972530181,-2.074139,0.026265,0.444707,0.280527,-0.207138,-0.940547
8972532684,-2.134878,0.026514,0.444603,0.279815,-0.204944,-0.939808
8972535187,-2.134878,0.026514,0.444603,0.282713,-0.202798,-0.936841
8972537689,-2.195734,-0.034168,0.444851,0.281274,-0.199868,-0.935375
8972540192,-2.317330,-0.094600,0.444995,0.282775,-0.194784,-0.934589
8972542694,-2.499539,-0.094152,0.384060,0.280555,-0.199131,-0.935377
8972545197,-2.621019,-0.093655,0.383852,0.283480,-0.200616,-0.938274
8972547700,-2.803005,0.028951,0.382837,0.282011,-0.202057,-0.938302
8972550203,-2.863861,-0.031731,0.383085,0.274025,-0.201235,-0.938385
8972552705,-2.924726,-0.092115,0.443955,0.275430,-0.205626,-0.938403
8972555208,-2.985717,-0.213133,0.565799,0.275392,-0.210726,-0.939903
8972557711,-3.046349,-0.151658,0.625965,0.273978,-0.207791,-0.940625
8972560214,-3.107070,-0.152003,0.504617,0.274721,-0.206341,-0.940606
8972562716,-3.289048,-0.029694,0.442979,0.275360,-0.213642,-0.939926
8972565219,-3.471374,-0.090175,0.382397,0.272373,-0.220899,-0.940017
8972567722,-3.653709,-0.150360,0.382437,0.272390,-0.220895,-0.941476
8972570224,-3.836160,-0.271474,0.382829,0.266602,-0.220822,-0.943728
8972572727,-4.079119,-0.270480,0.382413,0.271615,-0.223806,-0.940048
8972575230,-4.261329,-0.270031,0.321479,0.274491,-0.228211,-0.941510
8972577732,-4.443645,-0.330809,0.200274,0.270890,-0.226707,-0.942997
8972580235,-4.625846,-0.330657,0.078718,0.273780,-0.226744,-0.941506
8972582738,-4.808064,-0.329911,0.078406,0.273119,-0.223812,-0.944409
8972585241,-4.990176,-0.267939,0.138365,0.274616,-0.226002,-0.950246
8972587743,-5.172279,-0.206264,0.137701,0.278246,-0.220954,-0.945059
8972590246,-5.415112,-0.144636,0.076311,0.273107,-0.218723,-0.938532
8972592749,-5.597322,-0.144188,0.015377,0.278269,-0.217312,-0.943571
8972595253,-5.779648,-0.204669,-0.045205,0.279754,-0.213685,-0.942796
8972597756,-5.901244,-0.265102,-0.045061,0.273987,-0.207789,-0.941355
8972600259,-6.022723,-0.264605,-0.045269,0.276158,-0.207089,-0.939866
8972602761,-6.083579,-0.325286,-0.045021,0.276241,-0.205617,-0.945690
8972605264,-6.205165,-0.386015,-0.105500,0.275495,-0.201975,-0.940563
8972607766,-6.326635,-0.385815,-0.166330,0.275517,-0.196152,-0.936869
8972610269,-6.447999,-0.324388,-0.166890,0.277012,-0.195433,-0.939765
8972612772,-6.569139,-0.140805,-0.107531,0.271949,-0.193187,-0.939803
8972615275,-6.629771,-0.079330,-0.047364,0.270577,-0.188788,-0.942702
8972617777,-6.629780,-0.079033,0.013258,0.270583,-0.185877,-0.940491
8972620280,-6.690743,-0.200941,-0.046765,0.271373,-0.179326,-0.939701
8972622783,-6.630120,-0.262119,-0.046309,0.272206,-0.173494,-0.943293
8972625285,-6.569496,-0.323298,-0.045853,0.273607,-0.172067,-0.937430
8972627788,-6.569505,-0.323001,0.014769,0.269304,-0.168367,-0.938908
8972630291,-6.569282,-0.200844,0.074688,0.272986,-0.164762,-0.939568
8972632794,-6.568952,-0.017461,0.194877,0.272250,-0.164029,-0.938111
8972635296,-6.447375,0.043565,0.315977,0.270106,-0.167632,-0.944730
8972637799,-6.326030,-0.017268,0.437781,0.271494,-0.171300,-0.942554
8972640302,-6.326165,-0.077605,0.559378,0.267803,-0.173452,-0.939694
8972642804,-6.326397,-0.199464,0.560081,0.266350,-0.173435,-0.939710
8972645307,-6.387136,-0.199216,0.559977,0.266312,-0.179989,-0.942680
8972647810,-6.387244,-0.260443,0.499707,0.266950,-0.185835,-0.940531
8972650313,-6.386895,-0.077653,0.498652,0.270575,-0.185879,-0.939761
8972652816,-6.447412,0.044752,0.558466,0.273533,-0.186630,-0.944841
8972655323,-6.447198,0.167205,0.679007,0.274236,-0.188825,-0.944850
8972657821,-6.568686,0.167999,0.739421,0.272016,-0.192445,-0.944904
8972660324,-6.568794,0.106772,0.679151,0.271329,-0.189519,-0.945618
8972662826,-6.690273,0.107269,0.678943,0.272815,-0.187347,-0.946314
8972665329,-6.690264,0.106973,0.618321,0.272079,-0.186613,-0.944857
8972667832,-6.751003,0.107221,0.618217,0.274953,-0.188108,-0.943378
8972670334,-6.811617,0.168103,0.557139,0.276440,-0.187391,-0.945544
8972672837,-6.933088,0.168303,0.496309,0.274996,-0.188826,-0.947760
8972675340,-6.993809,0.167958,0.374960,0.274954,-0.189563,-0.944848
8972677842,-6.993916,0.106731,0.314690,0.277142,-0.187404,-0.943348
8972680345,-7.054665,0.107277,0.375208,0.277232,-0.184476,-0.948431
8972682848,-7.115414,0.107822,0.435726,0.278750,-0.180115,-0.949838
8972685351,-7.176037,0.169000,0.435270,0.281713,-0.175045,-0.949766
8972687854,-7.176019,0.168407,0.314026,0.281696,-0.175049,-0.948307
8972690356,-7.176019,0.168407,0.314026,0.280960,-0.174315,-0.946850
8972692859,-7.176135,0.107477,0.314378,0.275929,-0.169153,-0.946865
8972695379,-7.237107,-0.014134,0.314978,0.274531,-0.163305,-0.946105
8972697865,-7.176474,-0.075609,0.254811,0.277436,-0.161157,-0.943868
8972700366,-7.115851,-0.136788,0.255267,0.278923,-0.160440,-0.946034
8972702868,-7.055111,-0.137036,0.255371,0.279673,-0.158261,-0.946008
8972705371,-6.994380,-0.136988,0.316097,0.278985,-0.153153,-0.944517
8972707874,-6.994282,-0.075465,0.436990,0.279017,-0.149509,-0.943758
8972710377,-6.933436,-0.014487,0.497364,0.279751,-0.148789,-0.943744
8972712879,-6.872599,0.046788,0.618361,0.276853,-0.148026,-0.943771
8972715382,-6.751129,0.046588,0.679191,0.273936,-0.146539,-0.941603
8972717884,-6.690506,-0.014590,0.679647,0.271691,-0.150165,-0.939468
8972720387,-6.569132,-0.076314,0.619584,0.273073,-0.156016,-0.938769
8972722890,-6.447412,0.044752,0.558466,0.273859,-0.157466,-0.945337
8972725393,-6.386565,0.105730,0.618840,0.273917,-0.155999,-0.948973
8972727895,-6.386575,0.106027,0.679463,0.271735,-0.152338,-0.945321
8972730398,-6.386700,0.045394,0.740437,0.269498,-0.155961,-0.943915
8972732901,-6.265248,0.045787,0.922511,0.269483,-0.159601,-0.946132
8972735403,-6.204526,0.046132,1.043860,0.267320,-0.159572,-0.947615
8972737906,-6.143573,0.168337,1.164504,0.266617,-0.157376,-0.947606
8972740409,-6.082718,0.229018,1.164257,0.266609,-0.158105,-0.947612
8972742912,-6.021978,0.228769,1.164361,0.270202,-0.160338,-0.946130
8972745414,-6.022085,0.167543,1.104090,0.270194,-0.160340,-0.945401
8972747917,-5.961345,0.167294,1.104194,0.268757,-0.160320,-0.946876
8972750420,-5.961345,0.167294,1.104194,0.271002,-0.155967,-0.948276
8972752922,-5.900606,0.167046,1.104298,0.273204,-0.151624,-0.946028
8972755425,-5.839759,0.228024,1.164672,0.276128,-0.151654,-0.947455
8972757928,-5.839759,0.228024,1.164672,0.277600,-0.154576,-0.951839
8972760431,-5.778787,0.349635,1.164073,0.278383,-0.149481,-0.951790
8972762933,-5.657076,0.470998,1.163577,0.279108,-0.148035,-0.950311
8972765436,-5.596220,0.531679,1.163329,0.276937,-0.148735,-0.951800
8972767939,-5.535587,0.470204,1.103163,0.275475,-0.147993,-0.950352
8972770442,-5.475080,0.348096,1.103970,0.278383,-0.149481,-0.951790
8972772944,-5.414697,0.165354,1.165752,0.277615,-0.150936,-0.949621
8972775447,-5.353967,0.165403,1.226478,0.278372,-0.145847,-0.947384
8972777950,-5.293102,0.225787,1.165608,0.279083,-0.148041,-0.948123
8972780452,-5.110767,0.285971,1.165568,0.279035,-0.150960,-0.946688
8972782955,-5.049902,0.346356,1.104698,0.274691,-0.150906,-0.948195
8972785458,-4.989055,0.407334,1.165072,0.274733,-0.150170,-0.951107
8972787960,-5.049688,0.468809,1.225239,0.277558,-0.154585,-0.948192
8972790463,-4.928325,0.407382,1.225798,0.278940,-0.160436,-0.947493
8972792966,-4.867702,0.346204,1.226254,0.276792,-0.158222,-0.948229
8972795468,-4.867934,0.224344,1.226958,0.273183,-0.157447,-0.949722
8972797971,-4.928548,0.285226,1.165880,0.273191,-0.157445,-0.950451
8972800474,-4.928441,0.346453,1.226150,0.278228,-0.157515,-0.946019
8972802977,-4.867692,0.345907,1.165632,0.278171,-0.161164,-0.944589
8972805480,-4.867790,0.284384,1.044739,0.275256,-0.161859,-0.944627
8972807982,-4.867888,0.222861,0.923847,0.274555,-0.161845,-0.946823
8972810485,-4.867976,0.161040,0.742332,0.276710,-0.161876,-0.944611
8972812988,-4.868093,0.100111,0.742684,0.276014,-0.157497,-0.943125
8972815490,-4.807468,0.038932,0.743140,0.276782,-0.156042,-0.945294
8972817993,-4.807468,0.038932,0.743140,0.274610,-0.155287,-0.945312
8972820496,-4.746720,0.038387,0.682621,0.276015,-0.158951,-0.944596
8972822999,-4.746604,0.099317,0.682270,0.280415,-0.155357,-0.944518
8972825501,-4.685757,0.160295,0.742644,0.280406,-0.153904,-0.942318
8972828004,-4.685766,0.160592,0.803266,0.281144,-0.159002,-0.948187
8972830507,-4.625143,0.099413,0.803722,0.280456,-0.153893,-0.946695
8972833009,-4.625143,0.099413,0.803722,0.279663,-0.155354,-0.942338
8972835512,-4.685874,0.099365,0.742996,0.282555,-0.158300,-0.943788
8972838015,-4.685855,0.098772,0.621751,0.278291,-0.150228,-0.944502
8972840517,-4.746818,-0.023136,0.561729,0.276161,-0.150192,-0.948902
8972843020,-4.746799,-0.023730,0.440484,0.279016,-0.148782,-0.943023
8972845523,-4.746915,-0.084660,0.440836,0.271725,-0.150885,-0.943121
8972848026,-4.625195,0.036406,0.379718,0.271752,-0.153788,-0.948250
8972850528,-4.503608,0.097136,0.440196,0.273972,-0.150169,-0.948197
8972853032,-4.442646,0.219044,0.500219,0.276273,-0.140713,-0.949556
8972855535,-4.382031,0.158162,0.561297,0.276967,-0.142183,-0.948101
8972858038,-4.321524,0.036054,0.562105,0.276934,-0.144372,-0.947389
8972860540,-4.321640,-0.024876,0.562456,0.274722,-0.145808,-0.945966
8972863043,-4.260910,-0.024828,0.623183,0.276969,-0.145819,-0.951777
8972865546,-4.199947,0.097080,0.683205,0.268958,-0.145730,-0.950406
8972868049,-4.139101,0.158058,0.743580,0.271122,-0.145759,-0.948923
8972870551,-4.078236,0.218443,0.682709,0.266020,-0.149340,-0.951197
8972873054,-4.078110,0.279076,0.621735,0.271843,-0.150860,-0.953333
8972875557,-4.078324,0.156623,0.501195,0.271883,-0.147215,-0.953304
8972878060,-4.078441,0.095693,0.501546,0.271121,-0.144304,-0.947453
8972880562,-4.017817,0.034514,0.502002,0.268887,-0.153019,-0.951194
8972883065,-3.956970,0.095493,0.562377,0.270398,-0.150841,-0.954078
8972885568,-3.835375,0.155925,0.562233,0.272602,-0.147952,-0.953301
8972888070,-3.774645,0.155974,0.622959,0.276161,-0.150192,-0.948902
8972890573,-3.713780,0.216358,0.562089,0.272510,-0.148699,-0.946013
8972893076,-3.653049,0.216406,0.622815,0.274079,-0.145055,-0.952533
8972895579,-3.652933,0.277336,0.622463,0.274774,-0.148706,-0.953283
8972898081,-3.592184,0.276791,0.561945,0.272544,-0.149419,-0.949666
8972900584,-3.531426,0.275949,0.440804,0.273254,-0.149431,-0.948199
8972903087,-3.531524,0.214426,0.319912,0.275491,-0.146535,-0.950340
8972905589,-3.531747,0.092269,0.259993,0.277679,-0.146558,-0.951045
8972908092,-3.471249,-0.029542,0.321423,0.276217,-0.145816,-0.949597
8972910595,-3.471267,-0.028949,0.442667,0.271889,-0.142849,-0.949621
8972913098,-3.410304,0.092959,0.502690,0.270475,-0.139914,-0.950344
8972915600,-3.410091,0.215412,0.623231,0.271210,-0.139194,-0.950330
8972918103,-3.288504,0.276142,0.683709,0.270475,-0.139914,-0.950344
8972920606,-3.227648,0.336823,0.683461,0.271194,-0.139925,-0.949606
8972923109,-3.166775,0.396911,0.561969,0.269740,-0.139908,-0.949622
8972925611,-3.045286,0.396117,0.501554,0.271252,-0.138458,-0.953242
8972928114,-2.984662,0.334939,0.502010,0.271980,-0.140648,-0.955440
8972930617,-2.863308,0.273809,0.563192,0.275581,-0.142879,-0.954687
8972933119,-2.802694,0.212927,0.624270,0.273410,-0.144306,-0.956911
8972935622,-2.741829,0.273312,0.563400,0.270413,-0.147201,-0.951861
8972938125,-2.741722,0.334538,0.623671,0.274729,-0.144352,-0.945224
8972940627,-2.802211,0.456053,0.501618,0.275506,-0.143622,-0.948858
8972943130,-2.802443,0.334193,0.502322,0.274037,-0.145791,-0.949621
8972945633,-2.680964,0.333696,0.502530,0.277645,-0.145838,-0.947392
8972948135,-2.620484,0.212478,0.685204,0.278365,-0.148030,-0.948861
8972950638,-2.559754,0.212527,0.745931,0.276177,-0.148734,-0.948891
8972953152,-2.559744,0.212230,0.685308,0.273319,-0.146508,-0.951093
8972955642,-2.559601,0.272269,0.503090,0.274780,-0.145796,-0.951072
8972958145,-2.559475,0.332902,0.442116,0.278397,-0.145841,-0.949573
8972960648,-2.498727,0.332357,0.381597,0.280568,-0.145141,-0.948084
8972963151,-2.498610,0.393287,0.381246,0.282029,-0.143702,-0.947327
8972965653,-2.498601,0.392990,0.320623,0.279148,-0.143663,-0.949547
8972968156,-2.559332,0.392942,0.259897,0.281345,-0.143685,-0.950982
8972970658,-2.498699,0.331467,0.199731,0.285647,-0.145202,-0.947298
8972973161,-2.438085,0.270585,0.260809,0.285597,-0.146667,-0.944392
8972975664,-2.316721,0.209158,0.261369,0.287092,-0.145221,-0.946553
8972978167,-2.256098,0.147980,0.261824,0.285679,-0.142286,-0.947275
8972980669,-2.195474,0.086802,0.262280,0.282796,-0.140065,-0.947290
8972983172,-2.195484,0.087098,0.322902,0.282845,-0.137873,-0.949460
8972985675,-2.134744,0.086850,0.323006,0.282829,-0.138603,-0.948737
8972988178,-2.134637,0.148077,0.383277,0.280673,-0.137118,-0.949479
8972990680,-2.013246,0.085759,0.201970,0.279245,-0.137096,-0.951683
8972993183,-1.891758,0.084966,0.141556,0.277049,-0.138529,-0.951719
8972995686,-1.770269,0.084172,0.081141,0.277041,-0.139985,-0.952460
8972998188,-1.770153,0.145102,0.080789,0.279214,-0.142194,-0.953912
8973000691,-1.770385,0.023242,0.081493,0.279973,-0.139286,-0.953881
8973003194,-1.709887,-0.098569,0.142923,0.279891,-0.142940,-0.950263
8973005696,-1.649380,-0.220678,0.143731,0.276977,-0.145090,-0.951771
8973008199,-1.588515,-0.160293,0.082860,0.272624,-0.142856,-0.950343
8973010702,-1.527524,-0.039275,-0.038984,0.271904,-0.141391,-0.949610
8973013205,-1.466543,0.082039,-0.100206,0.274837,-0.142147,-0.952501
8973015707,-1.405929,0.021157,-0.039128,0.277753,-0.143633,-0.954669
8973018210,-1.345315,-0.039724,0.021950,0.274127,-0.141408,-0.953233
8973020713,-1.406063,-0.039179,0.082469,0.274037,-0.146518,-0.950356
8973023216,-1.466696,0.022296,0.142635,0.274740,-0.148714,-0.950365
8973025718,-1.527320,0.083474,0.142179,0.274796,-0.144338,-0.951060
8973028221,-1.466803,-0.038930,0.082365,0.276993,-0.144359,-0.952495
8973030724,-1.466794,-0.039227,0.021742,0.273336,-0.147231,-0.953288
8973033226,-1.466775,-0.039821,-0.099502,0.271875,-0.147944,-0.953309
8973035729,-1.406036,-0.040069,-0.099398,0.278398,-0.147296,-0.951043
8973038232,-1.406027,-0.040366,-0.160020,0.275500,-0.147260,-0.951805
8973040734,-1.406143,-0.101296,-0.159668,0.273303,-0.147966,-0.951105
8973043237,-1.527836,-0.223252,-0.280417,0.271098,-0.148673,-0.949676
8973045740,-1.588566,-0.223300,-0.341143,0.273287,-0.148697,-0.950382
8973048242,-1.588450,-0.162370,-0.341495,0.275458,-0.147269,-0.948157
8973050745,-1.527711,-0.162619,-0.341391,0.273302,-0.145784,-0.948899
8973053248,-1.527836,-0.223252,-0.280417,0.275458,-0.147269,-0.948157
8973055751,-1.467096,-0.223501,-0.280313,0.274713,-0.145083,-0.944501
8973058253,-1.406134,-0.101593,-0.220291,0.272654,-0.137758,-0.948114
8973060756,-1.345278,-0.040911,-0.220539,0.275579,-0.139243,-0.951011
8973063259,-1.345296,-0.040318,-0.099294,0.276304,-0.137069,-0.948797
8973065762,-1.345296,-0.040318,-0.099294,0.272679,-0.137753,-0.950302
8973068264,-1.345422,-0.100951,-0.038320,0.273390,-0.139219,-0.950306
8973070767,-1.284673,-0.101496,-0.098838,0.272717,-0.131198,-0.947332
8973073270,-1.163193,-0.101993,-0.098630,0.268317,-0.134793,-0.947409
8973075772,-1.041607,-0.041264,-0.038152,0.268352,-0.136968,-0.952533
8973078275,-0.920128,-0.041761,-0.037944,0.269079,-0.137703,-0.953260
8973080778,-0.920137,-0.041464,0.022678,0.267526,-0.139890,-0.946729
8973083281,-0.980886,-0.040919,0.083196,0.267544,-0.141341,-0.949658
8973085783,-0.980895,-0.040622,0.143819,0.269007,-0.142810,-0.951842
8973088286,-0.920058,0.020653,0.264815,0.268270,-0.140622,-0.948915
8973090789,-0.919942,0.081583,0.264463,0.270458,-0.139191,-0.948150
8973093292,-0.919700,0.203146,0.203137,0.271178,-0.142110,-0.950353
8973095794,-0.919333,0.385342,0.080837,0.268967,-0.146455,-0.951871
8973098297,-0.919343,0.385639,0.141460,0.273270,-0.148700,-0.948923
8973100799,-0.858719,0.324460,0.141915,0.272535,-0.149421,-0.948936
8973103303,-0.798212,0.202352,0.142723,0.273137,-0.151638,-0.940193
8973105805,-0.859067,0.141671,0.142971,0.271041,-0.150867,-0.946776
8973108308,-0.919807,0.141919,0.142867,0.274617,-0.153104,-0.943835
8973110812,-0.980440,0.203394,0.203033,0.276071,-0.154575,-0.945290
8973113315,-0.919700,0.203146,0.203137,0.274626,-0.154557,-0.946036
8973115817,-0.919575,0.263779,0.142163,0.277542,-0.156043,-0.948203
8973118320,-0.980198,0.324957,0.141708,0.275369,-0.153834,-0.946751
8973120823,-1.101678,0.325454,0.141500,0.278227,-0.156788,-0.945283
8973123325,-1.223157,0.325951,0.141292,0.278228,-0.157515,-0.946019
8973125828,-1.223264,0.264725,0.081021,0.278307,-0.150225,-0.945960
8973128331,-1.284129,0.204340,0.141891,0.277612,-0.146573,-0.945210
8973130834,-1.284022,0.265567,0.202162,0.276797,-0.153129,-0.943811
8973133336,-1.283897,0.326200,0.141188,0.273907,-0.153819,-0.946038
8973135839,-1.283780,0.387130,0.140836,0.274601,-0.154562,-0.943847
8973138342,-1.283906,0.326497,0.201810,0.273866,-0.154555,-0.943126
8973140845,-1.223291,0.265615,0.262888,0.277508,-0.154596,-0.943815
8973143347,-1.284156,0.205230,0.323758,0.276126,-0.148018,-0.943779
8973145850,-1.405626,0.205431,0.262928,0.274690,-0.149452,-0.946724
8973148353,-1.527124,0.206521,0.383965,0.279011,-0.153147,-0.946705
8973150855,-1.587632,0.328629,0.383157,0.278257,-0.150235,-0.941584
8973153358,-1.466045,0.389359,0.443635,0.274682,-0.150181,-0.946730
8973155861,-1.465813,0.511219,0.442932,0.281908,-0.151001,-0.943738
8973158363,-1.404967,0.572197,0.503306,0.281885,-0.154643,-0.945226
8973160866,-1.465832,0.511812,0.564176,0.276089,-0.156026,-0.948219
8973163369,-1.526803,0.390201,0.564776,0.279004,-0.155331,-0.948181
8973165872,-1.648390,0.329471,0.504297,0.276824,-0.155306,-0.948206
8973168374,-1.769753,0.390898,0.503738,0.278261,-0.156781,-0.948201
8973170877,-1.830609,0.330217,0.503985,0.278221,-0.159699,-0.947495
8973173380,-1.830725,0.269287,0.504337,0.276015,-0.159679,-0.945331
8973175882,-1.830957,0.147427,0.505041,0.275305,-0.158212,-0.945327
8973178385,-1.891455,0.269239,0.443611,0.277453,-0.161881,-0.946062
8973180888,-2.012828,0.330963,0.503674,0.282574,-0.161933,-0.948923
8973183391,-2.134307,0.331460,0.503466,0.283309,-0.161939,-0.949645
8973185893,-2.195047,0.331708,0.503362,0.278173,-0.163346,-0.946795
8973188396,-2.316633,0.270979,0.442883,0.275993,-0.164047,-0.947554
8973190899,-2.377363,0.270930,0.382157,0.279618,-0.163364,-0.946049
8973193401,-2.438326,0.149022,0.322135,0.278204,-0.159702,-0.946036
8973195904,-2.438317,0.148726,0.261513,0.276056,-0.157488,-0.946772
8973198407,-2.499057,0.148974,0.261409,0.276744,-0.161869,-0.947529
8973200909,-2.559805,0.149519,0.321927,0.276058,-0.160397,-0.949713
8973203412,-2.681285,0.150016,0.321719,0.275379,-0.155287,-0.948951
8973205915,-2.802773,0.150810,0.382133,0.274628,-0.157466,-0.948977
8973208418,-2.924136,0.212237,0.381573,0.272464,-0.156710,-0.949724
8973210940,-3.045625,0.213031,0.441988,0.274006,-0.150161,-0.951115
8973213425,-3.045625,0.213031,0.441988,0.276196,-0.151639,-0.953290
8973215924,-2.984769,0.273712,0.441740,0.276898,-0.153835,-0.953300
8973218427,-3.045509,0.273961,0.441636,0.274718,-0.153082,-0.952589
8973220930,-3.045625,0.213031,0.441988,0.274683,-0.151635,-0.948200
8973223433,-3.106365,0.213279,0.441884,0.273949,-0.153083,-0.948950
8973225935,-3.106249,0.274209,0.441532,0.272528,-0.150877,-0.949678
8973228438,-3.106267,0.274803,0.562776,0.270379,-0.146481,-0.948208
8973230941,-3.106295,0.275693,0.744643,0.269644,-0.147202,-0.948222
8973233443,-3.167150,0.215012,0.744891,0.268191,-0.147912,-0.948973
8973235946,-3.167025,0.275645,0.683917,0.270395,-0.145750,-0.948931
8973238449,-3.167016,0.275348,0.623295,0.271881,-0.143578,-0.949627
8973240952,-3.167016,0.275348,0.623295,0.272664,-0.140665,-0.951784
8973243454,-3.227667,0.337417,0.804706,0.269855,-0.134792,-0.954687
8973245957,-3.227569,0.398940,0.925598,0.268392,-0.134050,-0.953239
8973248460,-3.227462,0.460167,0.985869,0.270533,-0.137720,-0.953244
8973250962,-3.166713,0.459621,0.925350,0.274885,-0.137773,-0.952466
8973253465,-3.166723,0.459918,0.985973,0.276290,-0.140709,-0.951015
8973255968,-3.166964,0.338355,1.047298,0.274070,-0.144329,-0.951068
8973258471,-3.045610,0.277225,1.108480,0.271211,-0.141376,-0.952536
8973260973,-3.045610,0.277225,1.108480,0.269758,-0.142086,-0.953287
8973263476,-3.045494,0.338155,1.108128,0.271156,-0.147206,-0.953312
8973265979,-3.045369,0.398788,1.047154,0.269702,-0.145735,-0.951857
8973268481,-3.105867,0.520599,0.985725,0.271221,-0.142828,-0.954736
8973270984,-3.045127,0.520351,0.985829,0.275589,-0.142150,-0.954682
8973273487,-3.105858,0.520303,0.925102,0.275516,-0.145802,-0.951793
8973275990,-3.166839,0.398988,0.986324,0.279149,-0.145845,-0.951753
8973278492,-3.166955,0.338058,0.986676,0.279915,-0.140753,-0.950245
8973280995,-3.106341,0.277177,1.047754,0.275560,-0.137065,-0.947347
8973283498,-3.045485,0.337858,1.047506,0.274123,-0.136317,-0.948086
8973286001,-2.984629,0.398540,1.047258,0.277033,-0.139987,-0.951730
8973288503,-2.984513,0.459469,1.046907,0.278486,-0.140004,-0.951714
8973291006,-2.984388,0.520102,0.985933,0.275677,-0.134858,-0.955353
8973293508,-3.045234,0.459124,0.925558,0.278567,-0.134168,-0.953127
8973296011,-3.045457,0.336968,0.865640,0.282165,-0.132035,-0.947963
8973298514,-3.045448,0.336671,0.805017,0.280076,-0.129081,-0.953070
8973301017,-2.984592,0.397352,0.804770,0.277268,-0.126117,-0.958914
8973303519,-2.863122,0.397152,0.865600,0.280196,-0.120328,-0.955188
8973306022,-2.741768,0.336022,0.926782,0.285291,-0.118930,-0.954391
8973308525,-2.681144,0.274844,0.927238,0.279576,-0.115932,-0.960267
8973311028,-2.620521,0.213665,0.927693,0.278114,-0.115917,-0.959554
8973313530,-2.438427,0.152287,0.988979,0.275892,-0.115174,-0.955195
8973316033,-2.317180,0.029930,0.989891,0.275149,-0.116623,-0.955215
8973318536,-2.074222,0.028936,0.990307,0.275149,-0.117351,-0.955950
8973321038,-1.831138,0.088575,0.929748,0.273711,-0.115148,-0.955220
8973323541,-1.648784,0.148166,0.808464,0.268640,-0.113631,-0.955264
8973326044,-1.527063,0.269232,0.747346,0.271561,-0.109298,-0.952279
8973328547,-1.527063,0.269232,0.747346,0.275916,-0.113714,-0.955913
8973331049,-1.466226,0.330506,0.868343,0.275917,-0.115168,-0.957384
8973333552,-1.405621,0.269922,0.990043,0.276668,-0.113717,-0.958093
8973336055,-1.223518,0.208246,0.990707,0.278062,-0.113746,-0.952971
8973338558,-0.980550,0.206955,0.930500,0.275850,-0.116637,-0.953019
8973341060,-0.798313,0.205616,0.809568,0.273663,-0.118068,-0.953784
8973343563,-0.676708,0.265752,0.748801,0.272192,-0.117327,-0.951606
8973346065,-0.615852,0.326434,0.748554,0.272918,-0.116609,-0.950863
8973348568,-0.615745,0.387660,0.808824,0.273640,-0.121710,-0.955272
8973351071,-0.555006,0.387412,0.808928,0.277224,-0.123944,-0.953061
8973353574,-0.494498,0.265304,0.809736,0.275038,-0.126830,-0.955297
8973356076,-0.373126,0.203580,0.749673,0.278663,-0.127601,-0.955262
8973358579,-0.312600,0.080878,0.629236,0.279355,-0.126162,-0.950866
8973361082,-0.251967,0.019403,0.569070,0.279413,-0.124695,-0.954502
8973363584,-0.191102,0.079788,0.508200,0.284435,-0.127678,-0.951551
8973366087,-0.191219,0.018858,0.508552,0.285242,-0.121850,-0.952955
8973368591,-0.130595,-0.042321,0.509007,0.287365,-0.124070,-0.950031
8973371094,-0.069962,-0.103796,0.448841,0.287364,-0.123343,-0.949296
8973373596,0.051642,-0.043660,0.388075,0.285231,-0.118216,-0.948550
8973376099,0.112284,-0.105432,0.267286,0.280919,-0.113791,-0.948563
8973378602,0.233773,-0.106225,0.206872,0.278805,-0.113024,-0.953687
8973381105,0.355494,0.014841,0.145754,0.278797,-0.113026,-0.952958
8973383608,0.477089,0.075273,0.145610,0.277457,-0.106438,-0.956568
8973386110,0.720038,0.074576,0.206648,0.275311,-0.106406,-0.959510
8973388613,0.902141,0.012901,0.207312,0.272388,-0.107830,-0.959554
8973391116,1.145091,0.012203,0.268350,0.276732,-0.108612,-0.958782
8973393618,1.266445,-0.048927,0.329532,0.276707,-0.109344,-0.957329
8973396121,1.327068,-0.110105,0.329988,0.274503,-0.110779,-0.956635
8973398624,1.387817,-0.110650,0.269469,0.275909,-0.115897,-0.957390
8973401127,1.569929,-0.172623,0.209511,0.273720,-0.115147,-0.955949
8973403629,1.752157,-0.173665,0.149200,0.274506,-0.115142,-0.961047
8973406132,1.873646,-0.174459,0.088786,0.273723,-0.120237,-0.961096
8973408634,1.995018,-0.236182,0.028724,0.272254,-0.122406,-0.961859
8973411137,2.116507,-0.236976,-0.031691,0.274427,-0.123887,-0.962576
8973413640,2.298628,-0.299245,-0.152271,0.278036,-0.124662,-0.961083
8973416143,2.420223,-0.238812,-0.152415,0.282397,-0.125440,-0.961770
8973418645,2.480847,-0.299991,-0.151960,0.280862,-0.130532,-0.959638
8973421148,2.541461,-0.360872,-0.090882,0.277244,-0.128304,-0.958931
8973423651,2.602085,-0.422051,-0.090426,0.275749,-0.129024,-0.956036
8973426153,2.602094,-0.422347,-0.151048,0.277841,-0.135614,-0.954605
8973428656,2.602112,-0.422941,-0.272292,0.279287,-0.137087,-0.955330
8973431159,2.602112,-0.422941,-0.272292,0.283646,-0.135683,-0.953811
8973433662,2.602247,-0.362604,-0.393889,0.282224,-0.132750,-0.953804
8973436165,2.663103,-0.301923,-0.394137,0.282257,-0.131289,-0.955251
8973438667,2.723851,-0.302468,-0.454655,0.282224,-0.132023,-0.953069
8973441170,2.784484,-0.363944,-0.514821,0.280779,-0.132004,-0.953814
8973443673,2.845224,-0.364192,-0.514717,0.283000,-0.129839,-0.955232
8973446175,2.906098,-0.304104,-0.636210,0.279374,-0.128340,-0.954531
8973448678,3.027470,-0.365828,-0.696272,0.280906,-0.120340,-0.953721
8973451181,3.209592,-0.428097,-0.816853,0.280903,-0.115976,-0.949310
8973453683,3.330964,-0.489820,-0.876915,0.276510,-0.117387,-0.947911
8973456186,3.330973,-0.490117,-0.937538,0.277272,-0.118843,-0.952291
8973458689,3.270234,-0.489869,-0.937642,0.283069,-0.118914,-0.950768
8973461191,3.330973,-0.490117,-0.937538,0.283067,-0.116005,-0.947827
8973463694,3.452569,-0.429684,-0.937681,0.276565,-0.111557,-0.947135
8973466197,3.695420,-0.491905,-0.997536,0.276599,-0.110822,-0.949317
8973468700,3.877514,-0.553284,-0.936250,0.278019,-0.111573,-0.947119
8973471220,4.059501,-0.675889,-0.935235,0.275054,-0.113734,-0.944250
8973473704,4.241720,-0.676635,-0.934923,0.272850,-0.115168,-0.943557
8973476207,4.363547,-0.494342,-0.935770,0.272883,-0.114434,-0.945739
8973478709,4.485134,-0.433612,-0.875292,0.270713,-0.117316,-0.949434
8973481212,4.606854,-0.312547,-0.936410,0.272143,-0.119520,-0.949435
8973483714,4.728334,-0.313044,-0.936202,0.274282,-0.121736,-0.947970
8973486217,4.789073,-0.313292,-0.936098,0.271303,-0.126809,-0.946584
8973488720,4.849679,-0.373877,-0.814398,0.268430,-0.127495,-0.950269
8973491223,4.910409,-0.373829,-0.753672,0.270619,-0.127519,-0.950974
8973493725,4.971274,-0.313444,-0.814542,0.273469,-0.131202,-0.949512
8973496228,4.971292,-0.314038,-0.935786,0.270523,-0.134813,-0.949573
8973498731,5.031925,-0.375513,-0.995953,0.268366,-0.131873,-0.948845
8973501234,5.092549,-0.436691,-0.995497,0.269844,-0.131158,-0.950282
8973503736,5.153182,-0.498166,-1.055663,0.270523,-0.134813,-0.949573
8973506239,5.213921,-0.498415,-1.055559,0.271936,-0.137748,-0.948851
8973508742,5.335507,-0.437685,-0.995081,0.275577,-0.136334,-0.948070
8973511244,5.396354,-0.376707,-0.934707,0.278492,-0.135638,-0.948032
8973513747,5.396479,-0.316074,-0.995681,0.279227,-0.135645,-0.948754
8973516250,5.396372,-0.377301,-1.055951,0.279242,-0.132733,-0.947271
8973518753,5.396256,-0.438230,-1.055599,0.280671,-0.134937,-0.947273
8973521255,5.457229,-0.316619,-1.056199,0.277006,-0.138538,-0.948071
8973523758,5.457461,-0.194760,-1.056903,0.277022,-0.137080,-0.948060
8973526261,5.518317,-0.134078,-1.057151,0.279905,-0.138573,-0.947310
8973528763,5.639680,-0.195505,-1.056591,0.279937,-0.136384,-0.948022
8973531266,5.700322,-0.257277,-1.177379,0.276311,-0.134886,-0.947321
8973533769,5.700224,-0.318800,-1.298272,0.277748,-0.135634,-0.946581
8973536271,5.760982,-0.319642,-1.419413,0.279953,-0.134199,-0.947275
8973538774,5.882354,-0.381366,-1.479475,0.280679,-0.134208,-0.947267
8973541277,6.003582,-0.503129,-1.357319,0.282155,-0.129855,-0.945028
8973543780,6.185677,-0.564508,-1.296033,0.285087,-0.129884,-0.947184
8973546282,6.246417,-0.564757,-1.295929,0.282180,-0.129123,-0.946481
8973548785,6.307156,-0.565005,-1.295825,0.282210,-0.124025,-0.944252
8973551288,6.367905,-0.565550,-1.356343,0.281492,-0.124015,-0.944989
8973553791,6.368119,-0.443097,-1.235803,0.276433,-0.127587,-0.950910
8973556293,6.429081,-0.321189,-1.175780,0.275042,-0.120283,-0.949409
8973558796,6.672379,-0.139097,-1.115798,0.275033,-0.120285,-0.948679
8973561298,6.915463,-0.079458,-1.176356,0.272080,-0.126807,-0.950952
8973563801,7.036836,-0.141182,-1.236418,0.269944,-0.128954,-0.956829
8973566304,7.157976,-0.324765,-1.295777,0.269183,-0.128953,-0.953919
8973568807,7.157636,-0.507851,-1.355344,0.268423,-0.128952,-0.951010
8973571309,7.218251,-0.568733,-1.294266,0.269176,-0.131137,-0.955396
8973573812,7.339730,-0.569230,-1.294058,0.264818,-0.133995,-0.958385
8973576315,7.522056,-0.508749,-1.233476,0.266956,-0.134756,-0.955449
8973578818,7.643652,-0.448316,-1.233620,0.270613,-0.131884,-0.954656
8973581320,7.704623,-0.326705,-1.234219,0.268418,-0.134044,-0.955427
8973583823,7.826209,-0.265975,-1.173741,0.267717,-0.134758,-0.958359
8973586326,7.887065,-0.205294,-1.173989,0.262507,-0.140543,-0.953355
8973588828,7.947805,-0.205542,-1.173885,0.265367,-0.146406,-0.954829
8973591331,7.947805,-0.205542,-1.173885,0.274860,-0.139232,-0.951749
8973593834,8.008437,-0.267018,-1.234051,0.271185,-0.139926,-0.948877
8973596336,8.069060,-0.328196,-1.233595,0.271130,-0.146484,-0.950388
8973598839,8.129809,-0.328741,-1.294114,0.275483,-0.147991,-0.951081
8973601342,8.251298,-0.329535,-1.354528,0.277720,-0.144368,-0.952487
8973603845,8.312028,-0.329487,-1.293802,0.271807,-0.147231,-0.946739
8973606347,8.372875,-0.268509,-1.233428,0.276853,-0.149480,-0.945241
8973608850,8.372973,-0.206985,-1.112535,0.278276,-0.153141,-0.945984
8973611353,8.433703,-0.206937,-1.051809,0.276854,-0.150935,-0.946712
8973613856,8.494452,-0.207482,-1.112327,0.279036,-0.153869,-0.949629
8973616359,8.372983,-0.207282,-1.173157,0.283329,-0.153934,-0.943745
8973618861,8.312243,-0.207033,-1.173261,0.278980,-0.158245,-0.948934
8973621364,8.190647,-0.267466,-1.173117,0.278964,-0.158976,-0.948211
8973623866,8.190656,-0.267763,-1.233739,0.278270,-0.158233,-0.950401
8973626369,8.251288,-0.329238,-1.293906,0.278956,-0.158978,-0.947481
8973628873,8.311912,-0.390417,-1.293450,0.278930,-0.158256,-0.944558
8973631376,8.433373,-0.390320,-1.171998,0.278162,-0.159711,-0.942389
8973633879,8.433373,-0.390320,-1.171998,0.275321,-0.157481,-0.946051
8973636381,8.433480,-0.329093,-1.111727,0.279641,-0.160450,-0.945297
8973638884,8.372741,-0.328845,-1.111831,0.277463,-0.163334,-0.948262
8973641387,8.372741,-0.328845,-1.111831,0.279658,-0.160446,-0.946755
8973643890,8.372741,-0.328845,-1.111831,0.280328,-0.164104,-0.945318
8973646392,8.372624,-0.389775,-1.111479,0.276711,-0.164058,-0.946817
8973648895,8.372750,-0.329142,-1.172454,0.273796,-0.164753,-0.946855
8973651398,8.312018,-0.329190,-1.233180,0.275250,-0.164770,-0.946838
8973653900,8.312028,-0.329487,-1.293802,0.273775,-0.169849,-0.949813
8973656403,8.251288,-0.329238,-1.293906,0.270883,-0.167630,-0.949098
8973658906,8.251038,-0.450504,-1.171958,0.273070,-0.165472,-0.947598
8973661408,8.250922,-0.511434,-1.171606,0.275212,-0.171324,-0.949809
8973663911,8.251046,-0.450801,-1.232580,0.274443,-0.170597,-0.945434
8973666414,8.312028,-0.329487,-1.293802,0.270809,-0.170555,-0.945474
8973668917,8.312270,-0.207924,-1.355128,0.270811,-0.172737,-0.947680
8973671420,8.251521,-0.207378,-1.294610,0.271513,-0.174932,-0.947690
8973673922,8.190539,-0.328693,-1.233388,0.269317,-0.176365,-0.947725
8973676425,8.129539,-0.449414,-1.050921,0.268519,-0.182918,-0.947786
8973678927,8.068791,-0.448869,-0.990403,0.271410,-0.183683,-0.947030
