Timestamp (us),Gyroscope X (deg/s),Gyroscope Y (deg/s),Gyroscope Z (deg/s),Accelerometer X (g),Accelerometer Y (g),Accelerometer Z (g)
4560476834,-4.155465,1.420017,2.027557,0.964906,-0.222562,-0.202791
4560496889,-3.387527,1.937033,1.358558,0.966300,-0.223305,-0.191412
4560516935,-2.519655,1.964856,1.259632,0.964256,-0.211130,-0.191022
4560536987,-3.251553,2.270413,1.114835,0.967273,-0.213670,-0.191244
4560557038,-3.723134,2.783939,-0.023613,0.956012,-0.233646,-0.188639
4560577090,-3.865517,3.130005,-1.570863,0.950488,-0.242319,-0.190668
4560597142,-2.992884,4.147211,-2.484149,0.944277,-0.244107,-0.187692
4560617193,-1.080437,3.907555,-2.741677,0.943566,-0.249656,-0.188087
4560637245,0.306843,3.754363,-3.188794,0.952966,-0.238795,-0.179694
4560657296,1.611208,2.766232,-2.329423,0.965142,-0.215486,-0.184422
4560677348,1.516174,3.007103,-1.360113,0.965972,-0.202606,-0.192472
4560697400,2.993570,2.745001,-1.117200,0.956746,-0.215665,-0.182934
4560717451,3.703425,2.459863,-1.321098,0.960941,-0.223869,-0.179083
4560737503,4.543427,1.791290,-1.068983,0.968797,-0.231427,-0.162308
4560757555,6.489343,1.750535,0.074899,0.967828,-0.216136,-0.160311
4560777606,7.556387,1.529089,-0.030817,0.955006,-0.229504,-0.159157
4560797658,7.707130,2.433612,-1.208725,0.950955,-0.233295,-0.150416
4560817710,7.216398,1.595668,-1.152613,0.958811,-0.202022,-0.137544
4560837761,7.613846,1.980300,0.429924,0.969851,-0.215130,-0.179303
4560857813,9.911307,1.252396,-0.599110,0.965682,-0.226165,-0.162391
4560877864,10.293822,0.972710,-0.802912,0.972314,-0.227308,-0.173510
4560897916,12.876207,1.382088,-2.358913,0.967208,-0.247344,-0.163317
4560917969,10.639732,2.462627,-2.051116,0.953794,-0.258388,-0.171191
4560938020,16.336519,0.010011,-4.409294,0.944006,-0.229873,-0.164229
4560958072,13.154600,0.030881,-1.429722,0.938297,-0.189331,-0.174736
4560978124,15.933765,-1.936533,-0.885810,0.961682,-0.178838,-0.187961
4560998175,11.281148,0.767036,0.463137,0.968109,-0.183664,-0.208854
4561018227,10.530581,2.430734,-0.982335,0.987522,-0.180101,-0.178584
4561038278,7.675365,4.330000,-1.419881,1.002065,-0.198808,-0.192896
4561058330,4.839045,6.621463,-1.085731,0.993080,-0.199477,-0.168323
4561078381,4.451562,6.249731,-0.644734,0.978664,-0.188166,-0.156559
4561098433,3.307703,6.142415,0.371616,0.976472,-0.181357,-0.143748
4561118485,2.560473,5.818208,1.494681,0.959456,-0.184859,-0.131831
4561138536,1.425238,5.648484,2.238401,0.944154,-0.205855,-0.123699
4561158588,0.076070,4.943304,1.369723,0.940019,-0.217462,-0.127865
4561178657,-0.471980,3.961271,0.312245,0.952150,-0.223443,-0.141434
4561198689,-1.086488,3.704809,0.010186,0.966392,-0.220393,-0.146367
4561218741,-1.552802,3.736646,0.722661,0.968036,-0.202946,-0.140013
4561238793,-2.864630,3.914452,1.381877,0.963349,-0.193935,-0.138151
4561258844,-4.203563,3.671467,1.557499,0.956840,-0.194224,-0.131923
4561278896,-5.509157,3.024184,1.393450,0.956846,-0.200191,-0.129854
4561298947,-6.602205,2.522194,1.175772,0.960721,-0.207421,-0.134106
4561318999,-6.646211,2.375359,0.812504,0.966897,-0.218848,-0.140019
4561339051,-6.563432,2.648187,0.652377,0.960763,-0.218799,-0.135610
4561359102,-5.625595,2.395434,0.531656,0.958603,-0.217569,-0.125460
4561379154,-5.454477,1.705191,0.450606,0.962162,-0.219645,-0.125047
4561399205,-5.177163,1.054032,0.437595,0.966755,-0.219628,-0.130922
4561419257,-5.418305,0.611568,0.348256,0.968507,-0.218319,-0.135015
4561439308,-5.592859,0.429191,0.500525,0.965072,-0.221465,-0.138457
4561459360,-5.462205,0.112016,0.630414,0.960030,-0.223392,-0.132653
4561479412,-5.377637,-0.016969,0.555040,0.963399,-0.220939,-0.133203
4561499463,-4.981768,0.097954,0.311978,0.967388,-0.221690,-0.129076
4561519515,-4.538701,-0.217996,0.312912,0.967705,-0.225401,-0.134575
4561539566,-3.874644,-0.450629,0.055797,0.971100,-0.213320,-0.128874
4561559618,-3.662912,-0.430841,0.563444,0.965088,-0.211631,-0.130572
4561579670,-3.091136,-0.549290,0.449968,0.962069,-0.211430,-0.128778
4561599723,-3.464924,-0.497246,0.662130,0.968271,-0.211064,-0.129557
4561619774,-3.596374,-0.125638,0.736685,0.970124,-0.218257,-0.130914
4561639826,-3.628231,0.110070,0.826832,0.968617,-0.223867,-0.135404
4561659878,-3.271563,0.317518,0.848729,0.963313,-0.226184,-0.131416
4561679929,-2.324840,-0.253254,0.850364,0.961177,-0.232900,-0.136989
4561699981,-1.897119,-0.494014,0.752518,0.964706,-0.227596,-0.135116
4561720032,-0.858297,-1.111031,0.549648,0.959278,-0.232039,-0.140011
4561740084,-0.445387,-1.255408,0.102843,0.959328,-0.231219,-0.133477
4561760143,-0.102770,-1.095909,-0.238880,0.960796,-0.227178,-0.137057
4561780187,0.454506,-1.336206,-0.397405,0.962760,-0.225129,-0.146610
4561800239,1.080268,-1.673496,-0.358567,0.962078,-0.219251,-0.142048
4561820290,0.678945,-2.026197,-0.493633,0.965998,-0.223392,-0.139973
4561840342,1.112526,-1.775197,-0.866018,0.965722,-0.223566,-0.139336
4561860394,1.485454,-1.697661,-0.995258,0.963310,-0.218871,-0.134682
4561880444,1.636728,-1.664335,-0.684689,0.964346,-0.217234,-0.141146
4561900495,1.690276,-1.709630,-0.699709,0.969173,-0.212159,-0.142807
4561920547,1.278460,-1.605415,-0.601398,0.971228,-0.209027,-0.152826
4561940599,0.727653,-0.882339,-0.937171,0.962725,-0.210970,-0.147592
4561960650,0.169505,-0.474937,-0.764063,0.959337,-0.217077,-0.142092
4562000754,-0.713415,0.130227,1.000058,0.969709,-0.211140,-0.141451
4562020805,-0.944043,0.359255,1.438929,0.967982,-0.219365,-0.138188
4562040857,-0.539616,0.186956,1.386328,0.968314,-0.234301,-0.140739
4562060908,0.966160,0.799989,0.731898,0.972906,-0.236768,-0.129681
4562080960,1.712009,0.925079,0.534153,0.971863,-0.228464,-0.126967
4562101012,1.773314,0.819486,0.579969,0.965763,-0.213033,-0.120645
4562121064,1.721101,0.359088,1.059049,0.970280,-0.204571,-0.133253
4562141115,0.830176,0.616614,0.687104,0.964706,-0.212891,-0.142466
4562161166,1.060314,0.786235,-0.336720,0.962176,-0.218004,-0.143788
4562181218,0.448833,0.109950,-1.001124,0.958985,-0.204748,-0.150326
4562201269,-1.140513,-1.332509,-1.761072,0.946148,-0.182665,-0.179938
4562221321,-4.978868,-0.617613,-2.391245,0.947746,-0.163701,-0.181964
4562241372,-8.451656,1.452607,-2.768531,0.969499,-0.188739,-0.163434
4562261424,-7.675892,2.415180,-1.423065,1.002702,-0.231153,-0.161071
4562281477,-6.508048,3.644391,0.861135,0.996406,-0.252393,-0.165051
4562301529,-2.779646,3.986933,0.752544,0.975769,-0.258040,-0.156498
4562321580,2.160604,1.889109,-1.144275,0.962044,-0.247073,-0.168991
4562341632,3.575457,1.589546,-3.152162,0.962069,-0.232001,-0.118634
4562361684,3.167688,1.443935,-4.144361,0.960934,-0.225345,-0.161526
4562381735,5.072422,-0.028971,-4.928164,0.959455,-0.205312,-0.183671
4562401787,6.141539,-2.411309,-4.602013,0.945393,-0.166776,-0.167858
4562421838,6.644557,-2.612081,-4.457498,0.953844,-0.182069,-0.171165
4562441890,4.463439,-4.921961,-1.326244,0.990460,-0.157953,-0.193270
4562481993,1.464934,-3.188284,1.003151,0.975233,-0.107445,-0.140340
4562502045,-0.591112,-1.032274,-2.868826,0.955732,-0.125498,-0.148177
4562522096,-5.596829,2.722522,-5.381068,0.973182,-0.104622,-0.165108
4562542148,-15.899130,5.888574,-4.289422,0.994400,-0.024728,-0.185332
4562562198,-20.759142,7.478007,-0.041402,1.047799,0.031869,-0.194060
4562582250,-22.190954,8.895154,3.432958,1.049452,0.046319,-0.187672
4562602301,-33.223213,10.243682,4.788807,1.068682,0.064534,-0.149212
4562622353,-57.179497,16.459026,5.185042,1.090395,0.155313,-0.228269
4562642405,-73.644142,26.970400,8.489328,1.059840,0.146131,-0.236741
4562662456,-90.553238,34.127171,7.614165,1.012181,0.090084,-0.196623
4562682508,-112.602264,39.163437,5.671897,1.026698,0.084711,-0.244445
4562702559,-133.334061,45.361809,7.249380,1.069035,0.080206,-0.248364
4562722611,-156.807434,48.216385,9.915555,1.100717,0.160892,-0.265614
4562742662,-181.732300,56.623028,15.670480,1.099844,0.268309,-0.263682
4562762714,-216.719238,63.706631,20.698328,1.078090,0.354927,-0.328367
4562782766,-241.379272,75.950256,31.464787,1.000590,0.399023,-0.442033
4562802817,-270.427734,87.452782,24.470261,0.965388,0.336272,-0.517445
4562822869,-285.946960,83.925728,27.792274,0.916884,0.208183,-0.623732
4562842921,-291.545288,75.173935,31.401659,0.839118,-0.002733,-0.735811
4562862972,-289.323151,66.671890,24.434797,0.907612,-0.019639,-0.778846
4562883024,-291.536041,62.862244,16.164902,0.909229,0.233546,-0.730142
4562903075,-310.449890,56.170094,31.466185,0.964329,0.274380,-0.818927
4562923127,-328.837128,70.923737,40.107269,1.091734,0.139293,-0.946062
4562943179,-332.456848,92.955322,40.305466,1.114557,0.021484,-0.877100
4562963232,-345.392792,103.594948,44.631237,1.127614,-0.211629,-0.826323
4562983283,-351.368835,98.358612,34.343983,1.061848,-0.410074,-0.830036
4563003335,-332.988159,95.041634,17.887482,0.899850,-0.414929,-0.750332
4563023387,-332.227875,82.496391,18.915707,0.838470,-0.246691,-0.627748
4563043438,-332.564514,72.405258,27.370819,0.779779,-0.258536,-0.889411
4563063490,-310.341431,71.410759,24.812357,0.867891,-0.374369,-0.761843
4563083541,-300.000397,64.089691,13.738369,1.055068,-0.364484,-0.753724
4563103593,-279.677032,65.549416,11.073589,1.105370,-0.294847,-0.816065
4563123645,-255.596268,66.256485,13.942724,0.991626,-0.234411,-0.727050
4563143696,-253.572510,66.688065,16.464319,0.818028,-0.218825,-0.715919
4563163748,-253.631378,71.208351,9.847495,0.727697,-0.264325,-0.508998
4563183799,-272.869690,59.312328,-1.405004,0.878455,-0.224203,-0.477311
4563203851,-273.176361,56.496254,-1.016245,1.027947,-0.196243,-0.674612
4563223903,-259.153259,55.535778,3.059634,1.063470,-0.254679,-0.655598
4563243953,-238.919830,59.315453,7.177636,0.986177,-0.350463,-0.626045
4563264004,-231.623764,56.755219,1.764949,0.890977,-0.355262,-0.495155
4563284056,-237.088806,48.279964,-2.630045,0.903124,-0.282148,-0.473285
4563304107,-245.573608,42.370438,-3.955765,0.957595,-0.166522,-0.554306
4563324159,-245.936310,48.993736,-3.061407,0.992946,-0.112573,-0.593124
4563344210,-245.752899,52.419979,-4.073699,0.986121,-0.101558,-0.507505
4563364262,-250.821106,48.837219,-3.551790,0.952459,-0.126403,-0.569076
4563384314,-255.568466,51.068584,0.049768,0.954170,-0.154302,-0.582555
4563404365,-248.600266,48.559711,0.677448,0.953524,-0.208364,-0.569846
4563424417,-254.078278,53.238319,-0.526652,0.988635,-0.219864,-0.566192
4563444468,-249.683197,53.218212,-4.635917,0.998936,-0.192839,-0.532987
4563464520,-255.023285,51.266918,-5.150271,1.022012,-0.148068,-0.557153
4563484571,-261.680359,56.742004,-5.242596,1.026455,-0.052061,-0.585407
4563504623,-267.788208,64.492935,4.608216,0.992476,-0.058641,-0.602022
4563524675,-263.741943,66.750381,4.455019,0.974752,-0.079351,-0.554193
4563544726,-268.506775,66.010521,2.837341,1.015851,-0.087613,-0.547354
4563564778,-270.567291,67.003578,5.926855,1.013050,-0.100465,-0.607299
4563584830,-269.595367,70.461174,9.044710,0.989097,-0.108936,-0.560384
4563604881,-268.574646,74.286316,10.213490,0.971055,-0.135313,-0.502131
4563624933,-269.543945,73.735359,9.328989,1.002667,-0.119042,-0.506458
4563644984,-270.301575,76.522186,11.411445,0.985734,-0.152645,-0.509279
4563665038,-266.537354,73.072578,10.656537,0.987647,-0.157920,-0.490755
4563685089,-265.556244,70.726616,9.625961,0.986556,-0.196558,-0.549754
4563705141,-258.298187,75.716591,7.279485,0.938216,-0.199391,-0.466814
4563725192,-254.759888,72.649559,4.833232,0.968482,-0.210816,-0.367675
4563745244,-256.275024,69.990181,1.250501,1.010924,-0.197688,-0.460501
4563765295,-254.191803,67.036682,-0.945528,0.999756,-0.152260,-0.382128
4563785347,-259.571136,65.072983,-0.982352,1.004641,-0.157444,-0.466283
4563805398,-256.219971,69.937729,-2.288711,0.995730,-0.194402,-0.374034
4563825453,-256.562103,67.355118,-3.355904,1.022913,-0.240559,-0.384759
4563845501,-254.577393,65.486870,-1.917738,1.005335,-0.302581,-0.450057
4563865553,-243.949814,63.715237,-4.931780,0.991672,-0.294878,-0.347089
4563885605,-239.076157,59.677902,-9.724633,0.985236,-0.258674,-0.355824
4563905656,-234.765961,58.479160,-14.049596,0.943158,-0.210130,-0.309152
4563925708,-237.402695,53.438179,-14.933199,0.964102,-0.178002,-0.321190
4563945758,-240.161942,53.969471,-14.502063,0.984673,-0.166088,-0.368260
4563965810,-239.604965,53.489899,-14.083763,0.980586,-0.181805,-0.316485
4563985861,-241.422974,50.978222,-15.612999,1.009699,-0.225765,-0.377480
4564005913,-240.239349,52.577587,-17.225664,1.004628,-0.247704,-0.341363
4564025964,-240.218613,48.140064,-16.672276,1.028297,-0.212684,-0.399676
4564046016,-238.531860,47.626076,-14.465618,1.014277,-0.222042,-0.429386
4564066067,-234.856934,49.524643,-14.564394,1.003610,-0.225117,-0.350084
4564086119,-238.902512,51.708355,-14.411345,1.008900,-0.249522,-0.431469
4564106171,-238.444733,56.361374,-14.995959,1.021808,-0.251502,-0.361919
4564126222,-236.465454,56.636169,-15.603916,1.034857,-0.248695,-0.396486
4564146274,-236.855530,56.192249,-16.966463,1.028389,-0.236670,-0.418847
4564166326,-238.817932,58.402840,-15.919918,0.995591,-0.225079,-0.397310
4564186377,-240.295227,63.553486,-13.852935,1.013874,-0.233703,-0.354910
4564206429,-239.933899,64.866646,-11.864322,1.018734,-0.281924,-0.366769
4564226480,-235.244324,65.060379,-12.488105,1.023320,-0.285613,-0.307437
4564246532,-232.914429,63.251842,-15.158059,0.996545,-0.254782,-0.358606
4564266584,-230.112701,63.711075,-16.259575,0.968978,-0.246547,-0.356716
4564286635,-223.178223,64.115707,-17.066765,1.020624,-0.235422,-0.323487
4564306687,-224.824173,66.557785,-18.150818,0.998959,-0.238925,-0.342868
4564326739,-226.131607,68.940720,-20.530785,0.988117,-0.236101,-0.283175
4564346790,-230.121399,69.232674,-20.659237,1.021574,-0.245809,-0.293732
4564366843,-231.190994,66.742104,-17.239746,1.007361,-0.236300,-0.300123
4564386895,-227.309265,66.539062,-13.754086,1.013283,-0.224432,-0.258684
4564406946,-230.138809,66.058304,-13.622596,1.037432,-0.243367,-0.309734
4564426998,-232.460175,66.946144,-12.487999,0.988739,-0.297282,-0.343174
4564447049,-230.116058,67.145683,-9.776239,0.936609,-0.312395,-0.260664
4564467101,-223.077347,62.915108,-6.573386,0.961178,-0.300673,-0.289890
4564487153,-214.825150,62.557327,-3.263038,0.945841,-0.306493,-0.236764
4564507204,-208.129791,64.989021,-3.811868,0.926993,-0.326473,-0.137420
4564527256,-208.658249,63.561886,-11.628249,0.939022,-0.334131,-0.179508
4564567359,-203.838898,61.656410,-20.180014,0.982642,-0.380717,-0.210105
4564587411,-198.058945,60.379108,-21.647953,0.972865,-0.389951,-0.155173
4564607462,-190.170258,59.557396,-24.080734,0.970778,-0.363185,-0.170221
4564627513,-188.987259,58.938812,-27.072702,0.980533,-0.347711,-0.131342
4564647564,-188.320282,58.511608,-28.087046,1.004835,-0.348903,-0.155058
4564667616,-186.006989,56.645988,-24.178263,1.032422,-0.329141,-0.143277
4564687667,-187.645309,57.051834,-18.350868,0.965392,-0.304574,-0.104865
4564707719,-188.273407,53.431660,-12.744902,0.947224,-0.333897,-0.132374
4564727770,-183.043137,54.235390,-8.717497,0.953399,-0.377541,-0.090927
4564747822,-179.191269,57.060089,-5.416576,0.957056,-0.407640,-0.093279
4564767874,-171.501160,58.266731,-2.641949,0.907579,-0.447234,-0.077903
4564787925,-164.893036,56.998550,-3.526631,0.879009,-0.520002,-0.066539
4564807977,-155.144547,54.274376,-6.196029,0.946231,-0.535557,-0.033528
4564828029,-144.328888,53.187824,-6.719020,1.030602,-0.510639,-0.006589
4564868131,-127.122528,60.305565,-13.009789,0.864901,-0.539481,0.048101
4564888183,-119.538109,60.208717,-16.945593,0.794166,-0.503635,0.075268
4564908235,-110.666954,56.002728,-18.935051,0.836746,-0.492679,0.053267
4564928286,-102.308929,55.655289,-21.286257,0.951940,-0.482063,0.085588
4564968389,-90.019844,63.940372,-17.999525,1.009796,-0.385605,0.074431
4564988441,-82.330383,65.223595,-15.119055,0.940982,-0.336497,0.062741
4565008493,-74.771599,63.161160,-14.136909,0.917888,-0.418538,0.015358
4565048597,-58.458900,62.136799,-9.326453,0.891067,-0.438513,0.090651
4565068649,-39.711025,63.439117,-2.865076,0.875152,-0.513584,0.168114
4565088701,-23.687292,62.880718,3.891668,0.936838,-0.571676,0.156136
4565108752,-4.596003,69.968231,7.650040,0.973916,-0.534865,0.157791
4565128804,0.363200,81.065475,14.211336,0.912593,-0.523036,0.162127
4565148856,11.093054,85.487213,15.647501,0.842158,-0.493968,0.172561
4565168909,17.337744,82.427170,17.497545,0.912077,-0.447330,0.119076
4565188959,30.219116,81.946564,20.609642,0.897526,-0.371884,0.168541
4565209010,33.735683,78.767784,20.914942,0.850115,-0.413034,0.221121
4565229062,40.637199,77.285339,15.870050,0.870457,-0.495244,0.244575
4565249114,44.160305,74.945541,11.996455,0.883144,-0.525245,0.241377
4565269165,50.524605,71.307007,9.892235,0.830602,-0.435928,0.326492
4565289217,50.724823,69.840309,11.845010,0.877771,-0.384595,0.325597
4565309269,55.714905,68.932198,11.944920,0.886870,-0.309159,0.415400
4565329319,55.224148,69.380257,12.474074,0.801894,-0.289823,0.376220
4565349370,49.186348,67.789131,13.209252,0.847905,-0.267785,0.385471
4565369422,45.713642,65.738861,11.921530,0.789241,-0.155665,0.445922
4565389473,37.373890,64.688026,12.837546,0.816751,-0.152445,0.463621
4565409525,31.388874,60.234138,13.408253,0.835210,-0.117621,0.500975
4565429577,25.792753,59.668888,15.041637,0.831542,-0.153110,0.491271
4565449628,20.960251,57.831715,15.239133,0.867065,-0.165278,0.518202
4565469680,16.466099,58.485252,15.185402,0.848120,-0.176519,0.567639
4565489749,15.360579,55.037117,13.697038,0.777676,-0.176027,0.593945
4565509783,13.475003,53.081249,13.689280,0.760160,-0.180818,0.598330
4565529835,12.226576,49.406605,14.937748,0.719472,-0.209567,0.601918
4565549886,14.828835,43.569687,14.828109,0.688443,-0.235316,0.636078
4565569939,17.433680,37.089050,14.963213,0.715616,-0.279247,0.641323
4565589989,21.324451,32.916245,13.763595,0.721575,-0.283127,0.699758
4565610041,22.744892,28.418869,11.815644,0.733533,-0.271461,0.706888
4565630093,24.416626,24.023945,12.595678,0.718925,-0.259015,0.766533
4565650144,24.792061,16.593283,11.272097,0.726436,-0.284769,0.819961
4565670195,22.926735,6.411103,4.554984,0.638444,-0.272595,0.910172
4565690247,15.859713,-13.241982,-3.416094,0.516405,-0.281757,1.096089
4565710299,6.452002,-42.052399,-12.832694,0.620387,-0.163954,1.090192
4565730350,-6.707323,-68.007034,-13.390441,0.586059,-0.127542,0.940658
4565750403,-1.056087,-90.994576,-14.389421,0.600812,-0.385648,0.901216
4565770455,15.894101,-101.277794,-14.541818,0.358556,-0.463206,0.742893
4565790507,19.642384,-109.772697,-5.199319,0.726783,-0.435214,0.105262
4565810558,27.117893,-70.309654,-25.884476,0.834857,-0.397386,0.001346
4565830610,21.596899,-67.760498,-18.062263,0.855620,0.095964,0.816016
4565850661,-12.368862,-77.778145,7.919343,0.938662,0.486759,0.964495
4565870713,-36.606998,-87.814148,28.160334,0.714197,0.032553,0.774395
4565890765,-36.327175,-100.866226,27.576159,0.538931,-0.314194,0.613392
4565910816,-30.887983,-114.101700,13.106157,0.418568,-0.679363,0.566778
4565930868,-18.068027,-131.027679,-7.924666,0.461052,-0.633033,0.527826
4565950919,-7.397141,-141.888443,-16.053516,0.718795,-0.315329,0.397193
4565970971,-6.768614,-137.640045,-11.187526,0.901517,-0.040313,0.317509
4565991023,-14.588580,-128.683105,-0.938586,0.829554,0.063629,0.271262
4566011073,-25.388100,-116.351646,6.995767,0.830596,0.042168,0.244252
4566051176,-33.339394,-89.627304,19.010057,0.980860,-0.211909,0.211632
4566071228,-27.003664,-74.315048,20.811918,1.082190,-0.304797,0.219151
4566111331,-11.011602,-43.740326,11.947270,1.031464,-0.352256,0.326948
4566131382,-11.271424,-39.000374,9.051024,1.040618,-0.350545,0.381978
4566151434,-6.941049,-42.554390,4.415854,1.014316,-0.377423,0.061281
4566191537,4.561513,-14.303896,8.376801,0.876870,-0.270953,0.158229
4566211589,8.954910,1.756397,9.229396,1.017803,-0.338559,0.193365
4566231641,10.875845,16.046396,10.013167,1.173122,-0.374538,0.169344
4566251692,14.095093,32.088783,11.646869,1.119293,-0.322348,0.103740
4566271744,20.857603,50.780762,9.639878,1.026014,-0.329389,0.281112
4566291795,23.400063,55.288654,6.766187,1.008283,-0.373309,0.217330
4566311847,34.093296,66.515213,6.261442,1.043144,-0.361049,0.205166
4566331899,38.926193,72.917770,8.890324,1.073685,-0.297678,0.235549
4566351950,37.304520,82.176102,8.798357,1.103308,-0.301557,0.207358
4566372002,37.005718,89.084976,7.971284,1.143388,-0.325841,0.116311
4566392054,36.556580,104.907349,9.819239,0.996468,-0.336901,0.115216
4566412105,42.700409,112.934082,8.629848,0.815168,-0.354977,0.181849
4566432158,47.975754,114.969376,10.485413,0.747529,-0.305582,0.202882
4566452210,50.161880,113.052528,13.628940,0.715642,-0.193033,0.282968
4566472262,43.231827,112.955635,15.071703,0.690317,-0.093881,0.307997
4566492313,33.668510,111.393585,13.253904,0.647558,-0.054220,0.381851
4566512365,26.306356,110.539986,9.545734,0.646703,-0.115199,0.495975
4566532416,17.643892,106.030472,6.502408,0.678329,-0.236670,0.542411
4566552468,16.015459,95.978294,8.068565,0.680013,-0.314893,0.683018
4566572520,20.293606,78.803856,11.733832,0.624890,-0.367063,0.843551
4566592571,23.553795,45.646637,10.118942,0.574564,-0.336259,0.921816
4566612622,18.604937,8.152266,3.443970,0.574709,-0.298599,0.925017
4566652726,13.654307,-20.365860,-5.179408,0.683972,-0.219499,0.784278
4566672777,23.346050,-20.483347,-14.542410,0.527279,-0.145747,0.666254
4566692845,24.850870,0.527106,-7.066692,0.807525,0.058501,0.252716
4566712879,14.943373,14.968444,-9.727726,0.516656,-0.261017,0.669785
4566732931,5.186308,-4.574606,-16.728136,0.783836,-0.173268,0.972218
4566752982,-2.342834,-21.819069,-3.554481,0.819012,-0.081343,0.990853
4566773034,-7.164367,-36.172340,7.827207,0.620845,-0.199701,0.921200
4566793085,-8.410264,-52.757557,3.557209,0.467641,-0.272498,0.841160
4566813137,-9.597610,-69.733810,-4.970837,0.404731,-0.236484,0.808578
4566833189,-12.986303,-87.054482,-9.275445,0.541906,-0.152604,0.724876
4566853240,-19.169792,-96.430992,-7.800969,0.666861,-0.075828,0.661072
4566873292,-28.354183,-101.488617,-2.164317,0.671975,-0.029854,0.590050
4566893344,-34.249641,-105.367981,3.914280,0.692686,-0.079342,0.518607
4566913395,-38.555866,-107.631805,4.529906,0.761961,-0.185223,0.479971
4566933447,-39.173225,-109.920746,3.363270,0.841046,-0.286023,0.413807
4566953498,-36.371708,-111.174416,2.707240,0.902535,-0.312145,0.388280
4566973550,-35.099670,-108.828850,3.744609,0.911840,-0.308325,0.323229
4566993601,-29.649586,-102.187454,2.696656,0.896509,-0.278901,0.279973
4567033705,-22.925848,-79.722244,-0.445009,0.931756,-0.252759,0.272740
4567053756,-19.411373,-67.884232,1.112129,0.961627,-0.273976,0.226483
4567073808,-17.565105,-51.135277,5.441985,0.928810,-0.274272,0.210712
4567093860,-14.760696,-35.318783,8.994085,0.893996,-0.292764,0.295747
4567113913,-10.600310,-22.963976,9.973217,0.915196,-0.349262,0.299914
4567133964,-1.987855,-11.556701,10.180998,0.963522,-0.392893,0.335753
4567154016,0.400577,-18.503176,12.500523,1.074622,-0.446581,0.274451
4567174068,12.112989,-17.293091,8.081298,1.000427,-0.395901,-0.079475
4567214171,13.278765,10.155609,7.599780,1.068938,-0.355618,0.218918
4567234222,13.363183,22.440712,4.184782,1.148896,-0.342312,0.273408
4567254274,11.268505,34.892910,4.225975,1.135044,-0.322002,0.246990
4567274326,13.307774,50.924088,8.899290,1.008326,-0.349604,0.338114
4567294377,23.529070,59.219353,11.133236,0.890285,-0.369390,0.345049
4567314429,35.628250,65.245323,12.730131,0.842600,-0.357729,0.277958
4567334480,39.580353,65.597107,11.454270,0.766572,-0.288141,0.289156
4567354532,38.561203,65.937332,7.497238,0.795164,-0.259258,0.264940
4567374584,32.951511,68.052673,3.270435,0.849885,-0.251545,0.319678
4567394643,28.499504,68.580444,-1.095305,0.885455,-0.276404,0.438095
4567414685,24.286407,60.854137,-2.408681,0.845851,-0.280700,0.493486
4567434737,18.692926,45.030807,-1.768619,0.775083,-0.242710,0.556345
4567454789,13.220417,23.639036,-1.836990,0.724860,-0.198226,0.516939
4567474840,11.329655,0.314395,-2.726062,0.728835,-0.185835,0.454841
4567494892,11.412366,-9.197703,-7.543846,0.735596,-0.238544,0.369885
4567514944,11.301352,-2.869675,-15.159728,0.596500,-0.205119,0.473666
4567534995,10.223691,6.979815,-20.756245,0.740620,-0.123982,0.419672
4567555047,1.595131,12.029028,-8.159237,0.825066,-0.150103,0.397034
4567575098,-3.335362,4.730126,-9.572362,1.196377,-0.364573,0.598187
4567595150,-3.393609,-10.524792,-7.609879,1.262335,-0.336645,0.654316
4567615201,-2.808436,-30.363441,-1.258767,0.907339,-0.305267,0.653981
4567635253,-3.134954,-46.860100,-2.088546,0.720050,-0.314356,0.586776
4567655305,-5.998501,-58.943096,-10.625286,0.524737,-0.157769,0.530502
4567675356,-14.259597,-69.162277,-16.582136,0.411135,0.011574,0.432127
4567695408,-24.166187,-76.337349,-16.084047,0.533467,0.003620,0.422543
4567715459,-34.785679,-82.672768,-9.343543,0.688524,-0.126962,0.397071
4567735511,-38.988892,-89.966362,-3.488720,0.802431,-0.239830,0.384098
4567755563,-38.927917,-97.547150,-0.628089,0.894458,-0.289554,0.355334
4567775614,-36.943531,-104.592232,2.123917,0.964200,-0.332980,0.268082
4567795666,-32.739929,-108.727341,0.560270,0.958685,-0.339123,0.201132
4567815719,-30.769415,-108.783325,-1.918546,0.892535,-0.320089,0.169815
4567835770,-29.621578,-109.068146,-3.721758,0.887003,-0.309835,0.144209
4567855822,-28.659275,-104.563408,-1.873194,0.968798,-0.319566,0.099005
4567875874,-28.869905,-99.850983,2.809595,1.000950,-0.312426,0.084972
4567895925,-32.844906,-90.368752,5.734106,0.983416,-0.252449,0.075792
4567915977,-40.811207,-86.042061,7.866832,0.923661,-0.263513,0.041688
4567936028,-40.689358,-82.228249,3.389641,0.884486,-0.318255,-0.013032
4567956080,-37.769775,-77.521622,-4.449083,0.926365,-0.353302,0.014118
4567976132,-37.457214,-73.284073,-6.949694,0.982701,-0.362579,-0.027182
4567996183,-34.306915,-66.149063,-5.603591,1.000843,-0.336378,-0.040354
4568016235,-39.556320,-59.782612,-4.259478,0.983458,-0.331867,-0.078246
4568036286,-45.814545,-50.971985,-3.128067,0.921480,-0.331716,-0.096410
4568056338,-49.981838,-46.322426,-1.884522,0.964033,-0.342589,-0.056175
4568076390,-51.509430,-44.174824,-4.036232,1.034849,-0.373979,-0.114930
4568096440,-52.742702,-41.764107,-5.703899,1.013120,-0.372934,-0.172262
4568116491,-50.441170,-37.928101,-5.338975,1.056540,-0.364032,-0.134431
4568156595,-63.999657,-23.847282,-2.426954,0.941715,-0.350921,-0.210559
4568176646,-71.121979,-20.731314,-0.540458,0.947895,-0.329233,-0.155871
4568196698,-76.144470,-16.144337,-1.100191,1.007310,-0.320450,-0.218262
4568216749,-82.226212,-7.984521,-2.217548,0.997892,-0.303662,-0.237427
4568236801,-91.231041,-1.125673,-0.760133,0.987418,-0.297625,-0.226574
4568256853,-98.027977,5.195337,-1.393430,0.951091,-0.328442,-0.234927
4568296956,-111.072258,10.818651,-1.453713,0.975888,-0.306222,-0.292630
4568317008,-116.895401,13.375470,-0.490378,0.986567,-0.324673,-0.301156
4568337059,-121.684319,18.142284,-0.467232,0.971092,-0.367681,-0.345847
4568357111,-131.134171,22.498905,-1.661253,0.942884,-0.350819,-0.363237
4568377163,-142.184494,26.002653,-0.418929,0.928659,-0.299342,-0.357390
4568397214,-154.141174,29.872850,3.278032,0.925003,-0.244979,-0.367407
4568417265,-163.908920,35.681103,7.452601,0.947695,-0.307315,-0.397061
4568437317,-170.177582,39.470856,10.556689,0.946441,-0.376193,-0.397545
4568457369,-175.974426,38.378757,14.314066,0.922232,-0.342242,-0.421377
4568477421,-183.491013,38.680103,18.105137,0.928547,-0.369469,-0.458643
4568517525,-191.457428,48.615768,21.226536,0.919752,-0.367451,-0.436734
4568537577,-197.042450,50.917522,24.820564,0.928788,-0.355729,-0.444440
4568557628,-197.431442,47.250183,26.333973,0.939396,-0.384552,-0.466753
4568577680,-191.443863,46.490131,26.008598,0.982542,-0.465456,-0.508317
4568597731,-189.292328,53.769035,24.739815,0.950387,-0.485297,-0.518494
4568617783,-191.946671,61.987103,25.682531,0.907221,-0.477497,-0.468086
4568637835,-198.071671,55.567551,25.297533,0.989010,-0.549148,-0.356889
4568657886,-196.311676,14.743327,12.166837,0.968214,-0.294812,-0.466587
4568677938,-209.503860,24.961798,28.158161,0.934096,-0.359872,-0.679019
4568697990,-197.624268,52.253098,20.541636,0.860056,-0.595166,-0.512683
4568718041,-217.888535,60.827862,13.288859,0.983691,-0.613871,-0.288196
4568738093,-205.924179,38.373016,7.177616,1.045216,-0.528170,-0.251307
4568758144,-199.292999,41.775776,8.982518,1.077360,-0.614635,-0.388314
4568778196,-190.077667,54.799095,8.411467,1.020860,-0.615762,-0.267189
4568798246,-185.208847,46.386833,8.082539,0.955351,-0.554365,-0.226648
4568818298,-181.679550,38.081886,4.509915,0.896288,-0.494647,-0.305191
4568838349,-183.520920,39.174553,-0.859107,0.896704,-0.473182,-0.278080
4568858401,-189.606262,33.861217,-4.021830,0.949132,-0.444473,-0.215967
4568878453,-194.116425,32.402210,-5.576488,1.065948,-0.432583,-0.196554
4568898504,-198.694321,35.563168,-1.614404,1.095769,-0.445713,-0.191646
4568918556,-199.935333,44.411026,5.002288,1.093183,-0.529010,-0.113358
4568938607,-196.632309,43.972286,9.027070,1.089649,-0.536492,-0.051131
4568958659,-198.549545,49.884892,11.985899,1.088780,-0.537642,-0.151006
4568978711,-204.963928,67.983398,11.387674,0.939608,-0.594498,-0.164948
4568998762,-195.007080,72.917419,-1.365463,0.779307,-0.639395,0.018567
4569018814,-183.415573,59.563236,-13.366469,0.880112,-0.591987,0.014462
4569038865,-181.516953,61.794456,-13.048926,1.050740,-0.609487,0.028871
4569058917,-180.128922,65.001945,-5.504245,1.116613,-0.619820,-0.037070
4569078969,-161.525375,69.459442,0.635573,0.992166,-0.631573,-0.045633
4569099020,-148.243347,70.829102,4.195892,0.908705,-0.550901,0.030548
4569119072,-142.046646,72.093582,4.462208,0.969858,-0.556095,0.051945
4569139123,-135.162506,73.705643,0.172131,0.995371,-0.545838,0.111264
4569159175,-127.886795,66.996025,-1.110877,0.931256,-0.515523,0.131726
4569179227,-115.059219,66.756638,-4.199179,0.918069,-0.468472,0.164806
4569199278,-111.190140,68.081032,-7.645944,0.906249,-0.526350,0.172844
4569219331,-102.079247,77.401718,-7.772199,0.889351,-0.588856,0.162905
4569259434,-60.061398,67.403534,-3.189927,0.842451,-0.591267,0.217859
4569279486,-48.277096,64.736259,-1.381070,0.867135,-0.462871,0.266262
4569299538,-34.539810,74.806847,0.640894,0.930388,-0.494851,0.269352
4569319589,-24.871555,91.373810,6.514746,0.909106,-0.573199,0.315278
4569339641,-10.306545,101.109283,15.889163,0.833700,-0.504922,0.330039
4569359693,2.025649,104.912811,25.929016,0.858922,-0.359068,0.309081
4569379744,9.321465,109.337479,27.775639,0.978564,-0.281044,0.295484
4569399796,9.929010,113.210495,23.752810,0.960329,-0.207178,0.227973
4569419848,12.985102,122.163101,19.711624,0.792097,-0.184922,0.362304
4569439899,21.602055,123.830406,16.360538,0.784967,-0.273354,0.425260
4569459951,26.650455,119.693558,14.849659,0.777569,-0.255708,0.434183
4569480011,28.874863,116.449387,14.556900,0.721352,-0.175753,0.513291
4569500053,23.547541,112.723236,15.481080,0.653930,-0.114364,0.553546
4569520104,19.797861,108.410027,16.778097,0.644743,-0.104818,0.638439
4569540156,14.819112,102.013100,17.582516,0.618409,-0.133217,0.728284
4569560207,13.509738,89.520164,18.217180,0.618139,-0.164364,0.774266
4569580259,12.661508,75.770935,16.605064,0.575587,-0.231552,0.835089
4569600310,13.262101,58.219490,12.496909,0.547947,-0.276562,0.907122
4569640414,10.504562,16.148750,6.185571,0.487100,-0.217784,1.133313
4569660465,4.801087,-15.387115,6.114341,0.546211,-0.179169,1.092296
4569680517,0.907408,-48.616280,4.123256,0.666228,-0.274283,1.023540
4569700569,7.403444,-62.026203,-0.637869,0.823364,-0.276210,0.921249
4569720620,16.867575,-58.923332,1.235285,0.344140,-0.349995,0.828457
4569740672,29.865845,-55.379169,-1.578113,0.752769,0.011724,0.332393
4569760723,17.619823,-23.602020,7.161320,0.446981,-0.097385,0.405831
4569780775,2.797492,-34.883354,-8.680112,0.299324,0.107104,0.982442
4569800827,-5.937293,-60.807178,-4.154035,0.696424,0.008425,1.112184
4569820878,-17.592344,-71.861191,3.004777,0.715367,-0.217485,1.010507
4569840929,-22.699472,-85.070023,4.802820,0.572477,-0.259463,0.866291
4569860981,-19.791756,-98.769737,10.715122,0.465475,-0.259079,0.737290
4569881033,-15.937548,-115.671219,9.976221,0.335493,-0.253081,0.699945
4569901086,-12.325806,-133.502625,1.714706,0.459505,-0.193323,0.634332
4569921137,-15.038107,-142.054337,-4.408990,0.637545,-0.109641,0.562373
4569941189,-19.715586,-144.114792,-4.862569,0.787130,-0.053032,0.443811
4569961241,-24.303389,-138.368866,0.901983,0.806062,-0.051425,0.323868
4569981292,-26.387423,-129.658600,7.041970,0.788721,-0.153387,0.331469
4570001344,-26.420614,-122.352524,8.722071,0.828462,-0.279741,0.333576
4570021395,-25.062874,-115.519554,6.189415,0.931377,-0.317732,0.323203
4570041447,-23.858427,-105.112137,6.009131,1.015859,-0.269175,0.319332
4570061498,-21.990332,-89.496544,9.971517,1.074499,-0.243567,0.302911
4570081550,-15.443981,-71.094971,12.672135,1.018013,-0.254748,0.209028
4570101602,-9.844652,-53.370335,14.950996,0.959824,-0.253731,0.212876
4570121653,-4.267817,-35.102821,13.074725,0.918147,-0.272936,0.287146
4570141705,-2.135223,-19.510502,11.898565,1.055611,-0.356142,0.439679
4570161756,-0.706116,-21.813469,11.201157,1.110042,-0.448734,0.143126
4570181807,-2.140211,-9.971490,10.107379,0.966504,-0.321751,0.118191
4570201858,5.802120,4.697523,12.971949,0.883102,-0.316393,0.284220
4570221910,8.775575,14.422918,9.966445,1.021454,-0.394558,0.267201
4570241961,22.644697,29.977495,6.300406,1.211918,-0.365592,0.249403
4570262013,24.049129,47.020817,7.226450,1.191253,-0.270078,0.196801
4570282065,23.689623,66.672180,8.219915,1.016379,-0.217507,0.298016
4570302116,26.047569,79.723900,7.226746,0.945384,-0.268094,0.304006
4570322168,29.648178,90.263161,7.408958,0.929696,-0.312267,0.202979
4570342220,34.355949,99.316330,9.142012,0.944707,-0.347768,0.272659
4570362271,37.569992,104.026489,11.133080,0.999634,-0.314393,0.170508
4570382323,40.262024,116.519966,11.551403,0.897453,-0.261127,0.187980
4570402374,43.852757,125.587677,9.548370,0.810691,-0.231851,0.324171
4570422426,44.162758,128.125595,8.387515,0.813828,-0.178591,0.337755
4570442478,38.174648,130.472794,8.790788,0.691760,-0.119006,0.432083
4570462529,30.224470,124.052414,7.762220,0.599431,-0.098496,0.495810
4570482581,23.887100,117.228622,4.907948,0.549555,-0.096042,0.573861
4570502632,21.110947,103.727074,3.636706,0.529416,-0.172696,0.719566
4570522684,19.326370,80.381554,2.937143,0.516908,-0.227437,0.858801
4570542736,14.475793,49.427750,1.590343,0.483542,-0.168081,1.000021
4570562787,4.740108,8.971603,-2.700533,0.589751,-0.164231,0.966829
4570582838,1.900657,-18.789843,-7.909147,0.721215,-0.257742,0.919584
4570602892,7.569781,-30.344936,-11.433426,0.704945,-0.435484,0.766841
4570622943,25.253574,-20.759602,-15.777498,0.911309,-0.282380,0.416354
4570642995,31.927612,7.239688,13.401199,0.733725,-0.258266,0.465529
4570663047,15.795732,2.616731,-3.417665,0.420048,0.039043,0.841761
4570683098,4.164414,-25.928978,-1.124910,0.626798,0.142622,0.963359
4570703149,-5.236938,-41.371181,2.486124,0.695137,-0.068101,0.918931
4570723201,-9.737526,-53.246437,-0.336226,0.535443,-0.139902,0.903543
4570743253,-14.076961,-67.905693,-4.179777,0.458686,-0.118442,0.814411
4570763304,-13.785882,-84.809418,-7.585215,0.444705,-0.097040,0.762624
4570803408,-23.823545,-109.231277,-5.496703,0.623636,-0.135758,0.599930
4570823459,-31.762356,-113.576675,-0.166100,0.710701,-0.156943,0.578980
4570843511,-35.503075,-115.655106,5.155221,0.780828,-0.207145,0.507169
4570863563,-34.093929,-118.179123,6.732269,0.800326,-0.247906,0.436253
4570883613,-30.928049,-121.542404,4.643379,0.768100,-0.274809,0.363901
4570903664,-28.344664,-123.343475,-1.899539,0.821579,-0.287225,0.345066
4570923716,-27.904648,-120.097389,-7.640570,0.895579,-0.254048,0.270772
4570963819,-27.216093,-100.650909,-5.320449,0.966940,-0.189427,0.242174
4570983870,-25.454327,-86.555000,-1.458896,0.959514,-0.193081,0.235529
4571003922,-25.901266,-70.543015,-0.839387,0.967723,-0.232240,0.285391
4571023974,-25.832325,-57.901344,-1.883394,1.023914,-0.290426,0.293188
4571044025,-21.890404,-44.946075,-2.960155,0.996757,-0.257415,0.197275
4571064077,-19.932373,-32.003330,0.821935,1.044213,-0.303227,0.475976
4571084129,-17.426920,-46.581665,-0.909763,1.020642,-0.415967,0.058863
4571104180,-12.235365,-40.205067,-1.547449,0.883136,-0.312449,0.012157
4571124232,-0.452403,-24.408113,0.440310,0.824568,-0.345340,0.206342
4571144283,9.491014,-19.025337,-4.985517,1.063512,-0.474835,0.193267
4571164335,11.965288,-6.874096,-8.029520,1.217255,-0.436408,0.105300
4571184387,12.443243,7.312159,-5.357726,1.152184,-0.288800,0.074683
4571204439,11.496835,29.574617,-0.242522,1.186839,-0.234492,0.169820
4571224490,15.556749,43.315910,1.595867,1.152639,-0.283525,0.087713
4571244542,17.426409,54.162472,5.332158,0.996070,-0.304060,0.073480
4571264593,24.032303,63.288666,5.851662,0.903381,-0.264885,0.127264
4571284645,28.666864,72.803131,2.588618,0.989614,-0.301146,0.209091
4571304698,30.883043,82.540154,1.000603,1.112743,-0.271264,0.246881
4571324750,28.694580,95.979767,6.002644,1.081630,-0.223548,0.227295
4571344801,26.871738,109.833580,10.101234,1.024156,-0.212119,0.228482
4571364853,27.372169,129.363556,11.413134,0.935472,-0.233136,0.189016
4571384905,27.900789,142.296997,11.610908,0.841418,-0.278734,0.300211
4571404956,32.312157,142.956543,11.705617,0.742202,-0.288202,0.263081
4571425008,35.930775,129.134460,10.759135,0.657273,-0.197627,0.320324
4571445059,29.883369,119.622513,9.892133,0.592320,-0.106414,0.406512
4571465115,22.067989,108.237106,7.523993,0.600296,-0.088544,0.607761
4571485162,10.391740,93.062927,4.268365,0.695867,-0.092543,0.682284
4571505214,2.342981,71.494301,2.913082,0.697275,-0.161175,0.756250
4571525265,2.413916,48.866505,-1.450240,0.671020,-0.266927,0.824542
4571545317,-6.363463,33.369164,-3.584085,0.546013,-0.202765,0.749206
4571565369,-0.021929,17.991821,-9.566168,0.480408,-0.332013,0.730242
4571585419,9.962354,19.998299,-30.274710,0.591573,-0.235255,0.380641
4571605470,18.928118,34.297070,-10.235305,0.913048,-0.210464,0.425895
4571625522,23.692699,34.355080,-7.198010,0.630707,-0.456901,0.875896
4571645574,23.365158,8.218308,-12.594997,0.831153,-0.294149,1.032210
4571665625,14.323468,-10.814414,-5.705186,0.804458,-0.143446,0.938574
4571685677,-0.806510,-20.835043,-2.004724,0.561064,-0.062631,0.864296
4571705728,-11.860768,-32.858391,1.322266,0.407249,-0.051631,0.830996
4571725780,-17.799986,-50.445610,0.710421,0.429354,-0.073777,0.803598
4571745831,-23.463051,-68.459770,-2.863422,0.510415,-0.033117,0.749717
4571765883,-31.430099,-81.317390,-2.588958,0.564930,-0.078775,0.648477
4571805986,-38.616451,-97.794685,-2.870717,0.625292,-0.188362,0.561470
4571826038,-36.700470,-106.789902,-2.294707,0.756758,-0.253962,0.515447
4571846089,-34.013100,-112.183578,-0.837060,0.829274,-0.288147,0.432380
4571866141,-30.178057,-114.059975,-2.590256,0.882217,-0.306324,0.430148
4571886193,-27.099546,-112.046188,-1.863114,0.926600,-0.333894,0.337444
4571906244,-21.427040,-106.910851,-3.595640,0.915940,-0.319948,0.329481
4571926296,-21.053228,-99.318382,-3.864460,0.919454,-0.281706,0.270807
4571946348,-20.819653,-86.976219,-3.224964,0.915061,-0.234944,0.250331
4571966399,-21.039251,-71.965164,-0.260188,0.906412,-0.216778,0.270417
4571986451,-21.321386,-55.972027,4.398912,0.961858,-0.243596,0.311928
4572006504,-18.019922,-41.559902,3.863041,1.009654,-0.294435,0.332941
4572026556,-16.458908,-26.880577,1.765594,0.972295,-0.304332,0.287984
4572046607,-9.354412,-13.400233,1.216444,0.939317,-0.333265,0.360520
4572066659,-3.648118,-10.091217,-1.229801,1.075592,-0.387158,0.421458
4572086710,-3.686703,-18.525757,-2.405778,1.011709,-0.361978,-0.014987
4572106762,-1.765255,-6.985291,0.562629,0.877274,-0.265738,0.071286
4572126814,6.998677,9.231459,-2.361166,1.025127,-0.300544,0.169256
4572146865,9.595171,30.897902,-6.294424,1.201070,-0.378698,0.255840
4572166922,7.305303,42.820831,-3.318281,1.250297,-0.320976,0.211896
4572186969,4.349786,64.379326,2.997528,1.188110,-0.257607,0.275613
4572207020,6.553474,85.045647,5.767653,1.082200,-0.325223,0.258650
4572227072,17.011904,103.931015,7.699759,0.932682,-0.428973,0.218438
4572247123,30.326754,113.250717,12.657516,0.780177,-0.415617,0.178122
4572267175,46.286705,116.632103,15.838595,0.691738,-0.385099,0.242215
4572287225,46.940544,111.606949,14.059469,0.762809,-0.275469,0.318338
4572307277,36.961815,113.232559,7.744091,0.904335,-0.018986,0.277020
4572327328,27.869896,122.674858,8.449897,0.861889,-0.045111,0.299288
4572347380,29.369778,126.507980,6.791530,0.724175,-0.227277,0.601702
4572367431,27.554039,110.894981,3.185329,0.624115,-0.202106,0.706855
4572387483,20.960079,83.724785,0.507363,0.494603,-0.107996,0.840629
4572407534,10.246701,45.171761,-9.140472,0.464274,-0.140135,0.789527
4572427586,3.651241,9.453576,-15.358672,0.599031,-0.216524,0.731837
4572447637,5.637644,-5.810258,-24.090782,0.723231,-0.310118,0.788513
4572467690,17.468899,3.501985,-22.368696,0.814430,-0.137463,0.463340
4572487741,14.583638,36.062794,9.306263,1.028173,-0.131781,0.171869
4572507793,11.253676,43.230267,-0.289491,0.594660,-0.386515,0.707053
4572527844,14.866501,11.921201,-0.539082,0.882996,-0.112231,0.962036
4572547896,9.589548,-6.895594,4.196244,0.795796,-0.134337,0.903234
4572567947,-0.782689,-18.685366,-0.640348,0.524131,-0.123595,0.818934
4572587999,-8.166107,-31.315327,-5.770670,0.416429,-0.023886,0.806383
4572608050,-15.429955,-48.250790,-7.589351,0.442130,-0.010810,0.769969
4572628102,-18.975094,-64.014122,-4.388525,0.594628,-0.045184,0.744273
4572648153,-23.750259,-76.385078,-0.100008,0.629660,-0.043830,0.661619
4572668205,-30.018261,-83.278351,2.775628,0.659402,-0.086220,0.678953
4572688257,-34.978222,-89.886322,2.603081,0.761240,-0.191158,0.605819
4572708310,-37.942837,-94.928001,1.946965,0.792073,-0.280402,0.522729
4572728361,-39.395351,-99.008507,0.460901,0.818422,-0.296280,0.437123
4572748413,-36.648430,-99.303345,1.415903,0.777292,-0.318826,0.404192
4572768464,-32.488686,-99.858887,-1.888064,0.743148,-0.291810,0.398911
4572788516,-28.405479,-99.873962,-6.080605,0.810799,-0.300379,0.386494
4572808568,-27.644236,-100.956238,-9.927253,0.904723,-0.230200,0.285193
4572828619,-25.463011,-94.117775,-10.050107,0.923368,-0.242141,0.298733
4572848671,-21.946917,-86.640068,-12.502373,0.968745,-0.331677,0.269553
4572868722,-17.904284,-75.690399,-16.293102,0.918138,-0.343659,0.246248
4572888774,-12.718040,-65.116653,-17.096830,0.891537,-0.298691,0.313794
4572908826,-11.889519,-55.274429,-15.031661,0.923037,-0.260177,0.301938
4572928877,-9.808387,-42.341595,-11.742213,0.940070,-0.263442,0.306096
4572948929,-5.712950,-31.390739,-9.416748,0.958596,-0.321817,0.331987
4572968983,-6.072110,-36.900871,-10.011530,1.080575,-0.407271,0.296941
4572989031,-7.018749,-41.661545,-11.533322,0.969847,-0.347388,-0.081435
4573009082,-7.188396,-27.032001,-6.528510,0.907256,-0.261740,0.117803
4573029134,1.508299,-10.710215,-7.186534,1.084740,-0.412445,0.117716
4573049186,12.352555,6.132938,-9.249216,1.189883,-0.454416,0.133761
4573069238,10.864181,21.497032,-1.980363,1.177969,-0.311194,0.150650
4573089289,5.690964,36.062984,4.140528,1.232482,-0.229756,0.157183
4573109342,3.627117,60.590363,7.224738,1.168169,-0.306468,0.171430
4573129392,9.978537,80.089363,9.595749,1.044977,-0.363542,0.189303
4573149444,22.356661,94.060799,11.612327,0.967758,-0.378476,0.243641
4573169496,31.307201,97.634048,13.969093,0.888865,-0.310180,0.215480
4573189547,31.578314,100.038750,13.392289,0.853910,-0.130026,0.194425
4573209599,27.298853,112.855774,15.752152,0.809863,-0.091564,0.286370
4573229650,22.044968,118.592453,11.171693,0.909222,-0.160052,0.291411
4573249702,14.737474,129.718185,7.338856,0.899692,-0.144257,0.291888
4573269753,16.126553,129.013184,7.265008,0.807335,-0.238190,0.370935
4573289805,21.659918,118.953964,0.340251,0.786785,-0.292355,0.622167
4573309857,12.295861,94.700081,-5.295009,0.687931,-0.165781,0.657445
4573329908,-4.351604,61.052963,-4.976185,0.544334,0.017385,0.692388
4573349960,-20.823898,29.824720,-0.504909,0.580867,0.080314,0.665199
4573370011,-27.109108,20.828924,7.236090,0.682244,-0.127925,0.566719
4573390063,-17.381702,19.412657,1.333557,0.461286,-0.419660,0.645780
4573410116,-8.166925,14.570460,-29.499342,0.471304,-0.474989,0.395287
4573430168,2.430679,21.228802,-22.409355,1.001066,-0.407800,0.361457
4573450219,5.901752,20.301634,-5.794301,0.981003,-0.392132,0.712402
4573470271,4.040633,0.615585,-1.587704,1.014471,-0.221956,0.905435
4573490322,-1.805660,-14.687980,-1.328291,0.871899,-0.317537,0.780474
4573510374,-8.884030,-27.966213,-2.454797,0.556943,-0.277239,0.679255
4573530425,-12.720942,-41.621586,-5.339456,0.340379,-0.188167,0.689413
4573550477,-17.440960,-60.460037,-6.985734,0.356031,-0.204550,0.640272
4573570528,-18.395210,-77.930542,-7.501199,0.613628,-0.215195,0.573877
4573590580,-23.016788,-86.281006,-2.665748,0.688852,-0.152993,0.540699
4573610632,-26.346275,-91.757645,0.294925,0.730913,-0.147570,0.532210
4573630683,-32.068710,-95.008102,0.020129,0.757048,-0.188791,0.402362
4573650735,-30.977688,-94.834732,-1.299589,0.816411,-0.287368,0.386928
4573670786,-30.730173,-91.625923,-3.144840,0.913241,-0.365702,0.377252
4573690837,-27.462427,-90.114349,-3.992457,0.956797,-0.406721,0.354678
4573710888,-22.433023,-87.883492,-4.562749,0.968960,-0.376837,0.333151
4573730940,-18.885839,-86.499725,-4.303495,0.955839,-0.282645,0.269440
4573750992,-17.468493,-77.395218,-1.857045,0.921214,-0.243531,0.278012
4573771043,-17.054441,-73.051041,0.378791,0.916664,-0.239810,0.259305
4573791095,-18.912363,-66.909286,3.495966,0.892460,-0.250608,0.225631
4573811146,-19.983263,-63.266663,4.378107,0.902662,-0.273634,0.285227
4573831198,-20.378357,-59.788120,6.223103,0.943910,-0.286313,0.268943
4573851250,-15.532093,-58.449726,7.565848,0.986033,-0.270534,0.260334
4573871301,-15.029251,-54.675831,5.976245,0.966707,-0.241143,0.183332
4573891353,-13.329586,-48.739075,5.424666,0.992575,-0.212767,0.219723
4573911404,-15.526570,-42.979034,4.966008,1.003229,-0.249757,0.146974
4573931456,-13.766804,-36.226456,6.101704,0.987846,-0.302341,0.138112
4573971559,-10.181070,-41.449749,7.164343,0.889960,-0.332957,0.102327
4573991611,-10.051942,-40.848309,6.101171,0.884715,-0.297940,-0.015629
4574011662,-2.065794,-35.157169,3.433708,0.983238,-0.277704,0.165423
4574031714,-4.916287,-33.153000,-2.013891,1.114796,-0.228632,0.030824
4574051765,-8.126124,-22.340664,-3.224764,1.120521,-0.213443,0.088583
4574071817,-12.722170,-18.550209,0.659369,1.028668,-0.251918,0.023031
4574091869,-8.320934,-13.978162,5.985238,0.979247,-0.282766,0.040124
4574111922,-5.512243,-13.671221,8.393306,0.971921,-0.354734,0.066080
4574131973,1.068816,-16.886192,7.015130,0.990572,-0.370407,0.002501
4574152025,4.927244,-15.022000,3.702930,0.954885,-0.284575,0.044425
4574172077,6.884226,-14.707240,-0.156529,1.029246,-0.251988,0.126644
4574192129,6.152214,-10.217196,-2.468169,1.015834,-0.264717,0.025905
4574212180,8.990749,-4.873389,-0.729259,0.890741,-0.279015,0.004462
4574232232,13.289934,-1.906426,2.995438,0.827951,-0.278392,0.109072
4574252283,16.402834,-9.743557,0.596088,0.949573,-0.339119,0.107002
4574272335,23.041815,-14.866438,-4.807539,1.067507,-0.288056,0.025088
4574292387,26.373280,-14.471235,-4.582699,1.035008,-0.206968,0.007650
4574312438,26.150547,-13.627914,-5.449528,1.033858,-0.202166,0.077113
4574332490,23.800690,-13.697098,-9.146997,1.008677,-0.194264,0.029765
4574352541,24.901943,-13.260072,-11.998577,0.953058,-0.179544,0.070371
4574372593,22.366091,-15.065765,-13.992312,0.897927,-0.174385,0.032749
4574392645,22.619976,-14.575753,-15.994936,0.926101,-0.156985,0.070010
4574412695,17.124342,-14.761630,-15.696792,0.990589,-0.140510,0.055826
4574432746,13.042199,-13.586773,-14.176038,1.026423,-0.138229,0.038149
4574452798,10.581244,-12.206100,-12.997617,0.983838,-0.128540,0.004108
4574472849,9.763739,-9.407121,-11.332026,0.908725,-0.155153,0.016243
4574492901,9.772605,-10.463593,-12.730495,0.941782,-0.177962,0.049188
4574512952,8.234121,-11.794823,-12.763265,1.009162,-0.178095,0.016676
4574553056,8.352115,-10.465272,-7.940091,0.927800,-0.168556,0.003628
4574573107,9.278610,-9.689105,-8.610039,0.951416,-0.205063,0.052296
4574593159,8.882151,-11.467074,-10.831985,1.037788,-0.220614,0.037911
4574613210,7.865438,-13.659997,-10.808916,1.055304,-0.191595,0.005799
4574633262,4.375819,-13.816807,-9.192836,1.030283,-0.137239,-0.014185
4574653314,0.112919,-10.638374,-6.390503,0.964535,-0.137920,-0.026367
4574673365,-3.475842,-8.969483,-5.288469,0.973153,-0.146614,0.031779
4574693417,-9.148087,-6.940824,-2.769681,1.010137,-0.211704,-0.008467
4574713468,-8.406820,-2.778183,2.824144,0.947772,-0.277226,0.025658
4574733520,-5.906925,-5.364540,6.614081,0.920984,-0.320856,0.060419
4574753572,0.511680,-9.391619,7.830764,0.941441,-0.298602,0.012137
4574773623,9.660023,-12.921115,3.292349,0.960086,-0.226615,0.030431
4574793675,9.101290,-13.437939,-3.405473,0.990639,-0.201770,0.015819
4574813726,5.802110,-9.930679,-6.008407,0.992029,-0.229699,0.025876
4574833779,1.495632,-8.497114,-6.557524,0.991022,-0.174219,0.030044
4574853831,-3.326860,-7.082193,-4.726603,0.980956,-0.137356,0.049086
4574873882,-5.131041,-7.921951,-5.996342,1.013352,-0.195540,0.041537
4574893934,-6.010755,-6.540762,-9.957009,0.996884,-0.223790,0.018935
4574913986,-6.020290,-4.132810,-10.927830,0.956549,-0.258643,0.027687
4574934037,-10.173351,-7.211385,-12.052612,0.979908,-0.309435,0.049434
4574954089,-10.556581,-10.161773,-11.216205,0.997245,-0.281597,0.017335
4574974140,-10.957067,-10.977879,-7.810301,0.987546,-0.213895,0.051746
4574994192,-10.724011,-9.810804,-5.980297,0.970629,-0.223422,0.080819
4575014244,-16.713572,-7.542543,-4.856751,0.962512,-0.257560,0.051801
4575034296,-19.353798,-6.767716,-0.864386,0.967404,-0.253196,0.070416
4575054347,-21.318909,-6.372761,4.781265,0.972771,-0.227314,0.075153
4575074399,-20.454477,-6.794010,6.896943,1.010880,-0.261958,0.060920
4575094450,-21.356529,-5.238113,5.368527,1.021668,-0.272293,0.060843
4575114500,-23.439484,-5.681718,2.210360,1.030096,-0.229791,0.032691
4575134552,-27.207335,-2.594329,2.117672,0.953305,-0.224201,0.035081
4575154603,-29.378063,-4.041017,2.487206,0.964326,-0.262133,0.055775
4575174655,-28.467287,-5.554576,3.500105,1.019782,-0.230052,0.035075
4575194707,-25.277580,-3.431396,2.210828,0.994610,-0.230404,0.052532
4575214758,-24.885519,-2.725852,-0.664165,0.942696,-0.237805,0.032073
4575234810,-24.521338,-2.547779,-6.477966,0.929935,-0.237682,0.093783
4575254862,-30.220572,-3.706722,-10.966300,0.942775,-0.230326,0.014901
4575274913,-31.036228,-4.380116,-12.161168,0.990723,-0.233922,0.048546
4575294965,-31.303284,-6.280826,-17.111164,1.046026,-0.231992,0.022378
4575315016,-34.293243,-5.418937,-19.379196,1.045302,-0.210084,0.010577
4575335068,-43.993633,-3.851302,-18.365622,0.936249,-0.135435,-0.038957
4575355119,-61.354134,-3.320446,-17.315475,0.935904,-0.036051,-0.014207
4575375171,-78.485329,-1.834433,-15.525963,1.005549,0.006617,-0.065739
4575415275,-112.130112,4.813302,-13.574138,1.057835,-0.049785,-0.123518
4575435326,-125.274834,8.268715,-11.807966,1.008072,-0.074749,-0.191018
4575455378,-136.583847,11.174488,-12.412757,1.011256,-0.110401,-0.187674
4575475429,-154.316147,11.943592,-9.324564,1.028306,-0.142011,-0.234447
4575495481,-167.293869,15.085936,-0.834836,0.999706,-0.176483,-0.283783
4575515533,-181.885742,18.492744,4.334962,0.989310,-0.189128,-0.276894
4575535586,-199.637756,20.453697,9.829165,1.019485,-0.224531,-0.336891
4575555637,-207.952728,24.017084,12.866538,0.982932,-0.251519,-0.401820
4575575689,-214.238235,27.837038,13.567999,0.925129,-0.307005,-0.435669
4575595741,-221.358337,29.530645,11.434969,0.915209,-0.386393,-0.445545
4575615792,-228.230560,27.544958,5.881262,0.958218,-0.403879,-0.448673
4575635844,-234.713547,27.069912,5.892747,1.007800,-0.406489,-0.461015
4575655895,-237.866364,24.443810,5.652795,1.006857,-0.385395,-0.466174
4575675947,-241.755692,26.161179,5.132870,0.987198,-0.342522,-0.508616
4575695998,-247.025589,33.211735,4.238840,0.988002,-0.349700,-0.502347
4575716050,-248.945343,37.837246,1.767991,0.990244,-0.387945,-0.476805
4575736102,-254.709259,40.335007,0.541191,0.970792,-0.357285,-0.470845
4575756153,-258.318909,44.923393,1.140539,0.970311,-0.361246,-0.449081
4575776205,-253.048645,38.314400,1.032625,1.085878,-0.505893,-0.262728
4575796257,-258.285950,0.185995,1.218896,1.018458,-0.298276,-0.513542
4575816306,-255.398911,10.040585,7.898884,0.986569,-0.292339,-0.659706
4575836358,-246.950821,27.471796,4.069119,0.869477,-0.379122,-0.470220
4575856410,-250.122711,21.180990,0.590428,0.993627,-0.424120,-0.273871
4575876461,-256.107147,3.832047,5.275469,1.163167,-0.347688,-0.400701
4575896513,-261.033142,24.284426,10.390727,1.185617,-0.305140,-0.472561
4575916565,-263.436218,42.888988,14.821781,1.063231,-0.349226,-0.365674
4575936616,-255.662811,45.079884,9.907925,1.009012,-0.451396,-0.303166
4575956668,-251.897644,38.119026,3.753741,1.036623,-0.457341,-0.329349
4575976719,-251.426224,33.403446,-1.694603,1.009524,-0.398845,-0.339034
4575996771,-252.562698,32.562092,-5.101837,0.972585,-0.327264,-0.340669
4576016822,-245.445480,37.272030,-8.364352,1.046080,-0.388089,-0.297456
4576036874,-239.287018,40.366222,-5.648746,1.077370,-0.435693,-0.308407
4576056926,-232.415695,44.509922,-0.981635,1.015333,-0.439482,-0.252182
4576076977,-226.721588,45.468121,-3.002933,0.910815,-0.476726,-0.241949
4576097029,-218.232941,43.619007,-8.842909,0.913914,-0.549262,-0.174469
4576117080,-213.138031,37.103508,-11.982667,1.008234,-0.600419,-0.189386
4576137132,-202.830597,37.302868,-12.722122,1.051082,-0.655590,-0.146364
4576157184,-192.149796,30.192642,-11.253781,0.975226,-0.564968,-0.112778
4576177235,-183.811615,32.622887,-5.345910,0.944103,-0.528257,-0.062892
4576197287,-176.412292,28.890123,-4.221531,0.928931,-0.511789,-0.033380
4576217338,-171.727310,27.070560,-5.073324,0.945799,-0.511527,-0.049532
4576237392,-167.106888,23.291140,-3.652232,0.942329,-0.516611,-0.061494
4576257443,-155.131180,18.601530,-1.305947,0.940452,-0.545135,-0.022552
4576277495,-143.726959,16.946495,1.295346,0.937203,-0.562132,-0.035284
4576297546,-127.100449,14.754019,4.745504,0.980779,-0.565203,-0.002403
4576317598,-111.980682,15.662605,7.927821,1.003740,-0.538432,0.017354
4576337650,-99.879715,15.888052,8.256281,0.977287,-0.502521,0.048651
4576357701,-89.111618,16.451742,8.227831,0.954712,-0.471410,0.073943
4576377753,-82.210518,14.850009,9.511779,0.954671,-0.416008,0.053397
4576397813,-73.634918,14.762785,10.858130,0.967880,-0.408120,0.082119
4576417856,-65.661171,13.293411,9.162715,0.967890,-0.448097,0.069313
4576437908,-52.483326,14.844370,5.507277,0.922625,-0.473536,0.121090
4576457960,-41.865543,14.566422,3.405147,0.921284,-0.459630,0.140824
4576478011,-32.410416,11.692877,2.623526,0.939299,-0.425984,0.114569
4576498063,-23.766651,13.005351,4.343979,0.941943,-0.393924,0.145208
4576518113,-17.014162,10.463888,6.040480,0.966420,-0.352261,0.132267
4576538165,-7.661160,16.355446,7.229537,0.958907,-0.348809,0.152532
4576558216,3.055167,26.044214,9.617665,1.007209,-0.386931,0.205210
4576578268,9.107140,32.087906,15.453254,0.996057,-0.389410,0.211522
4576598320,17.214222,42.104362,19.531273,0.946605,-0.387874,0.186615
4576618371,28.953014,48.175522,25.031303,0.921084,-0.368698,0.222838
4576638423,38.363747,50.235928,28.977125,0.927866,-0.381635,0.129879
4576658474,45.493797,53.658321,26.181358,1.000705,-0.329339,0.135153
4576678526,47.273998,59.431274,21.264833,0.987794,-0.264196,0.143487
4576698577,55.335022,63.858898,15.608013,0.874149,-0.264725,0.277196
4576718629,58.441250,58.546310,13.859335,0.843883,-0.315158,0.364360
4576738680,63.571865,48.906075,14.754758,0.774933,-0.326438,0.405990
4576758732,71.594566,34.302841,16.575743,0.783181,-0.262714,0.413491
4576778783,70.712418,15.744133,16.776423,0.787154,-0.196626,0.402575
4576798835,72.272537,-1.772172,12.432861,0.807824,-0.152305,0.353495
4576818887,69.410820,-15.749393,6.873599,0.777085,-0.159934,0.422346
4576838938,71.483170,-32.664341,3.452418,0.788367,-0.259931,0.429491
4576858990,72.488693,-50.996078,-11.582049,0.816648,-0.295912,0.444104
4576879041,64.524818,-47.781258,-11.196234,1.212035,0.204792,0.395579
4576899093,47.096851,-28.609818,9.525310,1.004349,0.337949,0.284413
4576919144,34.981812,-17.354675,13.098351,0.852220,0.282631,0.385493
4576939196,21.773163,-8.571761,8.646602,0.913908,0.081935,0.242202
4576959249,11.534016,-13.711079,1.293570,0.939993,-0.182805,0.450032
4576979301,8.920132,-29.058706,5.637061,1.008592,-0.219167,0.476387
4576999352,9.487309,-39.252018,20.989058,0.955103,-0.100413,0.459455
4577019404,10.512585,-45.403694,27.937063,0.816519,-0.044248,0.418106
4577039455,12.395764,-50.535217,24.877029,0.667502,-0.089166,0.387487
4577059507,13.286346,-60.119217,13.874783,0.680757,-0.140868,0.391542
4577079559,13.683285,-70.740471,7.416076,0.876962,-0.169108,0.355997
4577099610,14.747710,-77.554153,9.296027,1.023051,-0.118679,0.308099
4577119665,12.326120,-80.447029,15.316957,1.007954,-0.069491,0.261798
4577139714,9.963452,-81.407417,18.345095,0.948515,-0.105053,0.217255
4577159765,9.907628,-80.066727,16.726179,0.921795,-0.157662,0.182775
4577179817,11.799145,-78.252808,14.695685,0.930099,-0.175373,0.143595
4577199868,14.997558,-76.106163,15.899799,0.947426,-0.180028,0.113870
4577219920,19.010696,-72.241470,16.627813,0.948230,-0.167124,0.094732
4577239970,20.082573,-66.903465,15.684414,0.944317,-0.175141,0.112974
4577260022,18.588961,-61.776325,15.258007,0.992955,-0.183487,0.093602
4577280073,17.869833,-52.864140,17.114708,1.066407,-0.166894,0.105473
4577300125,14.915546,-43.857010,20.684708,1.082428,-0.165407,0.124474
4577320176,13.789958,-37.680500,20.148451,1.085198,-0.163654,0.164281
4577340228,6.159998,-42.679169,19.114872,1.064957,-0.183932,0.019229
4577360279,7.270333,-44.097969,19.301268,0.968998,-0.173045,0.007426
4577380331,7.805843,-45.431988,17.888412,0.872836,-0.211470,0.054721
4577400383,6.799760,-47.185841,12.915433,0.899530,-0.288969,0.018727
