Timestamp (us),Gyroscope X (deg/s),Gyroscope Y (deg/s),Gyroscope Z (deg/s),Accelerometer X (g),Accelerometer Y (g),Accelerometer Z (g)
7946947550,-2.434369,0.010188,-0.386023,-0.311622,0.255145,0.914864
7946967580,-2.176112,-0.013862,-0.340204,-0.312933,0.254048,0.916932
7946987609,-1.879822,-0.045775,-0.309464,-0.313943,0.253141,0.917272
7947007638,-1.575753,-0.047335,-0.294140,-0.313139,0.251224,0.917268
7947027668,-1.271766,-0.025881,-0.225934,-0.313915,0.252606,0.915259
7947047697,-0.998340,-0.065259,-0.187560,-0.310834,0.250677,0.914744
7947067727,-0.785096,-0.020897,-0.240905,-0.314871,0.248961,0.916671
7947087757,-0.450342,0.068822,-0.196003,-0.312683,0.251040,0.917000
7947107786,-0.253912,-0.083814,-0.005074,-0.314553,0.252700,0.915433
7947127815,-0.063582,0.014281,0.039687,-0.315787,0.255175,0.914157
7947147845,0.088564,0.028673,0.032058,-0.313157,0.255430,0.914476
7947187905,0.278700,0.012316,-0.005624,-0.313014,0.253688,0.916197
7947207935,0.475903,-0.110539,-0.012079,-0.311837,0.252226,0.915746
7947227965,0.749777,-0.058657,0.002782,-0.310427,0.249204,0.917111
7947247994,1.023229,0.024233,0.184189,-0.313149,0.251038,0.917814
7947268031,1.418520,0.190358,0.410449,-0.313545,0.254424,0.915647
7947288053,1.494487,0.205306,0.448270,-0.314941,0.256634,0.912998
7947308083,1.661684,0.150987,0.403315,-0.315277,0.258735,0.912190
7947328112,1.699592,0.112677,0.388491,-0.313672,0.264018,0.910622
7947348140,1.661621,0.044043,0.290481,-0.311960,0.264820,0.911844
7947368170,1.396434,0.159164,0.152908,-0.311871,0.266181,0.912588
7947388199,1.297495,-0.023652,-0.042739,-0.310681,0.268449,0.912994
7947408229,1.062521,0.122085,-0.081987,-0.310712,0.271196,0.910371
7947428258,0.795557,-0.074352,-0.065303,-0.312822,0.273415,0.906979
7947468317,0.020206,-0.131546,-0.186511,-0.311813,0.273867,0.906543
7947488347,-0.260493,0.037472,-0.165320,-0.311580,0.275520,0.904006
7947508377,-0.692901,0.206938,-0.250355,-0.309900,0.277310,0.907702
7947528406,-1.225463,0.080182,-0.302623,-0.313112,0.278407,0.910399
7947548436,-1.575847,0.082699,-0.105679,-0.312751,0.271829,0.913356
7947568465,-1.705789,0.030589,0.038756,-0.316645,0.257402,0.923658
7947588495,-1.205234,-0.054873,0.312672,-0.319426,0.241557,0.925932
7947608526,-0.393027,-0.073126,0.692323,-0.313746,0.230878,0.923643
7947628555,0.565326,0.143070,0.850196,-0.310280,0.230351,0.916573
7947648584,1.456298,0.358554,0.689593,-0.314613,0.247080,0.910906
7947668614,1.782907,0.028483,0.381656,-0.312884,0.249886,0.911964
7947688643,2.217509,0.070783,0.063062,-0.314273,0.256187,0.910722
7947708673,2.461595,0.152760,-0.073986,-0.312633,0.253057,0.914737
7947728702,2.666151,-0.092175,-0.155234,-0.318773,0.268585,0.913776
7947748732,2.521695,-0.244278,-0.343580,-0.308628,0.277451,0.913475
7947768760,2.112351,-0.067552,-0.496904,-0.310861,0.282475,0.913394
7947788789,1.549539,-0.148452,-0.541989,-0.311625,0.290981,0.908074
7947808819,0.917628,-0.258873,-0.420054,-0.312734,0.286802,0.907378
7947828849,0.401138,-0.149651,-0.443967,-0.314262,0.273395,0.911977
7947848879,0.544909,-0.165000,-0.254216,-0.313585,0.261438,0.915529
7947868908,0.894022,-0.105066,0.010824,-0.316436,0.255537,0.915246
7947888937,1.265563,-0.113653,0.306778,-0.315365,0.257192,0.911353
7947908967,1.630331,0.037462,0.548313,-0.311833,0.255351,0.911028
7947928996,2.109797,0.194945,0.600297,-0.310336,0.257992,0.909433
7947949026,2.315444,0.369279,0.705082,-0.312332,0.270485,0.909151
7947969055,2.041851,0.416474,0.727300,-0.314430,0.287368,0.905804
7947989085,1.281038,0.245232,0.667713,-0.312332,0.306595,0.902273
7948009114,0.064703,0.266820,0.644198,-0.308840,0.316650,0.892472
7948029145,-1.485708,0.113915,0.265626,-0.310964,0.317013,0.894905
7948049175,-3.194739,0.014291,-0.363679,-0.356754,0.324256,0.888659
7948069204,-6.587224,0.523036,0.714651,-0.208395,0.482759,0.837578
7948089234,-14.966315,0.598401,-3.664911,-0.293275,0.354209,0.854546
7948109273,-11.663878,0.264837,-2.583854,-0.379963,-0.006321,1.027735
7948129293,-3.001440,-0.830801,-2.380913,-0.326423,0.212005,0.924632
7948149322,-6.251292,-1.154200,-4.078162,-0.305773,0.454844,0.886496
7948169352,-13.231860,-1.284308,-3.966713,-0.304657,0.401192,0.901264
7948189380,-15.210683,-1.225870,-3.285771,-0.326696,0.206011,0.921924
7948209410,-12.194275,-1.293344,-2.752998,-0.312700,0.109112,0.935315
7948229439,-7.523464,-0.457026,-2.477223,-0.306673,0.094088,0.943673
7948249469,-2.491591,0.327839,-1.086272,-0.325174,0.107746,0.948611
7948269498,1.069607,0.160793,0.122408,-0.327904,0.167071,0.946833
7948289528,3.835924,0.353813,3.033655,-0.337587,0.156355,0.951598
7948309557,4.670882,-0.375340,2.554926,-0.301974,0.280632,0.907405
7948329587,3.237714,0.025840,1.891221,-0.299914,0.268550,0.915361
7948349616,3.035767,-0.075856,0.754661,-0.306344,0.224911,0.923708
7948369646,3.852050,0.100439,0.139424,-0.300931,0.211477,0.925589
7948389675,5.023565,0.200569,0.070911,-0.307866,0.212449,0.922472
7948409705,5.798518,0.411040,0.501699,-0.315651,0.232196,0.918329
7948429736,6.062616,0.671565,1.432239,-0.320202,0.251126,0.910214
7948449765,5.779755,0.605856,1.819342,-0.317807,0.264876,0.908371
7948469795,5.156880,0.662079,1.712419,-0.311757,0.280701,0.906060
7948489825,4.116079,0.460399,1.213189,-0.307940,0.289161,0.903826
7948509854,3.015956,0.326290,0.341841,-0.303558,0.294049,0.904491
7948529883,1.687085,0.239928,-0.272228,-0.306171,0.298524,0.905220
7948549913,0.374491,0.427548,-0.873424,-0.311562,0.298033,0.901385
7948569942,-1.033003,0.069084,-1.037902,-0.318345,0.300901,0.901027
7948589971,-2.326252,-0.106746,-1.037050,-0.319368,0.290599,0.903745
7948610000,-3.215953,0.104496,-0.735970,-0.322432,0.280748,0.909447
7948630029,-3.910108,-0.065292,-0.257207,-0.321130,0.271054,0.914674
7948650059,-4.346612,-0.357875,0.328861,-0.316676,0.262364,0.916218
7948670089,-4.378345,-0.295212,0.805993,-0.308278,0.252904,0.920649
7948690118,-4.302987,-0.142056,1.199013,-0.310122,0.239154,0.922044
7948710148,-3.663148,0.334876,1.430363,-0.305704,0.223728,0.922886
7948730177,-2.728520,0.529202,1.838617,-0.307989,0.213982,0.925223
7948770236,-0.873107,0.572581,1.816404,-0.317624,0.226279,0.919886
7948790266,-0.256789,0.484751,1.567230,-0.311396,0.229224,0.923574
7948810295,0.351958,0.373998,1.280334,-0.311919,0.228691,0.921918
7948830325,0.976733,0.231747,0.705590,-0.309771,0.230153,0.918771
7948850356,1.434873,0.311396,0.212305,-0.312346,0.236731,0.918059
7948870385,1.701586,0.080058,-0.255714,-0.315805,0.237385,0.918922
7948890414,2.134855,0.016718,-0.300465,-0.314289,0.238217,0.915212
7948910444,2.530594,-0.031632,-0.474257,-0.313192,0.242847,0.916824
7948930473,2.667191,-0.284327,-0.707114,-0.312111,0.248503,0.914155
7948950503,2.599905,-0.078763,-0.799858,-0.311498,0.259517,0.914724
7948970533,2.242379,-0.305981,-1.025586,-0.313011,0.271200,0.912251
7948990562,1.558730,-0.249486,-1.147705,-0.309674,0.276598,0.904504
7949010590,0.836550,-0.337484,-1.291376,-0.312722,0.277688,0.908299
7949030620,0.076660,-0.203936,-1.254954,-0.313090,0.276871,0.908285
7949050649,-0.593173,-0.383042,-1.246192,-0.312173,0.271929,0.911267
7949070679,-1.125142,-0.212312,-1.111404,-0.309695,0.266712,0.912994
7949090709,-1.498217,-0.278586,-1.035207,-0.312387,0.262527,0.914920
7949110738,-1.620194,-0.071231,-0.680648,-0.315295,0.255061,0.917542
7949130768,-1.674224,-0.054832,-0.415438,-0.316353,0.248323,0.918284
7949150797,-1.408994,-0.177640,-0.300547,-0.315406,0.239122,0.917393
7949170827,-0.998160,-0.027228,-0.195462,-0.315478,0.232555,0.919065
7949190856,-0.284273,0.038590,0.130362,-0.314009,0.225796,0.920761
7949210886,0.392452,0.233671,0.356514,-0.313157,0.227496,0.925082
7949230915,1.120721,0.025090,0.593663,-0.310497,0.233519,0.920251
7949250945,1.607291,0.030176,0.609020,-0.311195,0.241380,0.916204
7949270976,1.912494,0.256755,0.561772,-0.310602,0.244359,0.920258
7949291005,2.064540,0.210102,0.509163,-0.316449,0.252501,0.920512
7949311035,2.101682,-0.033793,0.473318,-0.313283,0.259597,0.918621
7949331064,1.927020,0.005139,0.457742,-0.311035,0.257064,0.913065
7949351094,1.889597,0.088811,0.381201,-0.310637,0.253895,0.909390
7949371123,1.791451,0.142128,0.236645,-0.312188,0.256900,0.911219
7949391153,1.700446,0.241739,0.288840,-0.315053,0.263383,0.911598
7949411182,1.373064,0.144573,0.304662,-0.314941,0.272781,0.908674
7949431210,0.856700,0.284240,0.280493,-0.313110,0.272139,0.907419
7949451240,0.415604,0.256129,0.280516,-0.312312,0.276852,0.910762
7949471269,-0.307082,0.099858,0.205657,-0.310297,0.282569,0.912217
7949491299,-1.059425,0.072912,0.061460,-0.310242,0.276741,0.911891
7949511328,-1.666783,0.205170,-0.046094,-0.311623,0.265989,0.914051
7949531358,-1.827137,-0.030221,-0.127598,-0.309960,0.262594,0.916512
7949551388,-1.917824,0.122568,-0.106179,-0.310909,0.256044,0.916162
7949571417,-1.788418,0.098794,-0.181738,-0.313200,0.247329,0.913579
7949591447,-1.575180,0.043798,-0.355561,-0.314891,0.242321,0.914966
7949611476,-1.149483,-0.011890,-0.400381,-0.316374,0.240593,0.916113
7949631506,-0.761521,-0.060021,-0.521103,-0.316362,0.238747,0.920295
7949651535,-0.169008,0.006160,-0.278744,-0.314831,0.237370,0.920490
7949671565,0.202982,-0.155756,-0.307533,-0.312551,0.242935,0.916561
7949691596,0.454085,0.033790,-0.134615,-0.313113,0.251506,0.915719
7949711625,0.408249,0.011325,-0.096538,-0.314066,0.259739,0.910667
7949731655,0.255729,-0.002684,0.024820,-0.313420,0.260193,0.910225
7949751685,-0.033083,0.182186,0.220263,-0.313630,0.256550,0.910371
7949771720,-0.094642,0.137402,0.387415,-0.311392,0.261884,0.914838
7949791744,-0.481495,0.230255,0.227224,-0.310369,0.268246,0.916192
7949831803,-0.976198,0.034668,0.137642,-0.314195,0.257511,0.917948
7949851831,-0.944527,0.201371,-0.038131,-0.315966,0.245877,0.915620
7949871860,-0.641082,0.078156,0.016125,-0.317241,0.245701,0.915781
7949891890,-0.535177,-0.090013,-0.027904,-0.313060,0.246858,0.916042
7949911919,-0.398443,-0.174693,-0.095366,-0.312146,0.246219,0.915320
7949931949,-0.208369,-0.236847,-0.170573,-0.311554,0.246290,0.918161
7949951978,-0.024795,-0.047860,-0.270639,-0.310734,0.246377,0.917992
7949972008,0.203904,-0.095554,-0.512755,-0.311676,0.249583,0.915816
7949992037,0.113310,-0.103373,-0.717450,-0.312871,0.254979,0.913381
7950012067,0.174801,0.040846,-0.741378,-0.312376,0.258443,0.912326
7950032096,-0.001164,-0.109972,-0.596137,-0.316869,0.253458,0.912937
7950052126,-0.039640,-0.032863,-0.361757,-0.316753,0.251616,0.916300
7950072155,0.194432,-0.124170,0.018228,-0.315331,0.251323,0.918146
7950092186,0.255256,0.181244,0.394799,-0.313018,0.249871,0.914701
7950112216,0.270269,0.189005,0.462980,-0.311111,0.254402,0.916691
7950132245,0.185963,0.098417,0.554685,-0.310574,0.254305,0.917155
7950152275,0.368584,0.250166,0.697559,-0.312394,0.246832,0.919887
7950172304,0.611816,0.355949,0.848431,-0.310844,0.244099,0.918243
7950192334,0.885280,0.392966,0.969566,-0.311968,0.246852,0.915877
7950212363,1.182193,0.360413,0.810759,-0.311746,0.249046,0.914258
7950232393,1.341612,0.336886,0.856526,-0.313399,0.250231,0.915976
7950252423,1.448178,0.305621,0.781019,-0.312538,0.254875,0.915303
7950272451,1.387168,0.260275,0.781370,-0.313623,0.256155,0.915571
7950292480,1.486891,0.396425,0.681708,-0.311352,0.255415,0.915144
7950312510,1.509182,0.159889,0.547226,-0.312483,0.256894,0.912675
7950332539,1.486915,-0.031631,0.146972,-0.311748,0.258982,0.913071
7950352568,1.283206,0.151287,-0.104872,-0.312546,0.267385,0.909849
7950372598,0.979442,-0.053839,-0.467238,-0.313163,0.272483,0.910982
7950392628,0.561230,-0.265589,-0.715872,-0.315331,0.267686,0.908072
7950412657,0.326043,-0.379510,-1.010731,-0.313668,0.263019,0.909973
7950432687,0.159276,-0.409709,-1.200111,-0.314433,0.262011,0.911960
7950452716,0.053776,-0.295459,-1.345182,-0.312028,0.266100,0.910942
7950472746,-0.303525,-0.278318,-1.337916,-0.313994,0.270939,0.911137
7950492775,-0.683841,-0.268489,-1.277526,-0.312989,0.273297,0.911814
7950512806,-1.071579,-0.220588,-1.225041,-0.311731,0.271286,0.911725
7950532836,-1.429223,-0.256600,-1.179419,-0.316612,0.266385,0.913974
7950552865,-1.673926,-0.360875,-0.882959,-0.313193,0.262082,0.913989
7950572895,-1.871995,-0.168340,-0.528312,-0.315072,0.262104,0.912224
7950592924,-1.896019,-0.189903,-0.186948,-0.315835,0.257825,0.912629
7950612954,-1.927346,-0.120012,0.176391,-0.313102,0.261082,0.913525
7950632984,-2.094642,-0.004443,0.326982,-0.312283,0.262986,0.914286
7950653013,-2.346218,0.020512,0.561697,-0.307296,0.260227,0.913429
7950673041,-2.900080,0.335649,0.596693,-0.307403,0.278731,0.911225
7950693071,-3.509631,0.225567,0.855115,-0.322334,0.268418,0.914995
7950713101,-4.125818,0.596070,1.412782,-0.300320,0.277779,0.910692
7950733130,-4.823551,0.743215,1.062432,-0.286321,0.273123,0.913250
7950753159,-5.950310,0.651255,-0.901107,-0.314073,0.262734,0.912520
7950773189,-5.104231,0.988534,-1.130993,-0.295848,0.169984,0.912689
7950793218,-1.930025,0.562885,-0.473823,-0.376773,0.103058,0.948459
7950813248,2.040721,-0.140338,0.383198,-0.305673,0.257740,0.947941
7950833277,-0.306061,-0.237500,-0.519392,-0.318617,0.325012,0.906084
7950853307,-1.670106,-0.746849,-0.212491,-0.322624,0.223036,0.918861
7950873336,0.169597,-0.557646,0.097677,-0.303194,0.141305,0.934124
7950893366,3.872191,0.011333,0.837736,-0.314722,0.143433,0.940803
7950933426,4.242211,-0.125746,-0.866908,-0.306966,0.323588,0.903522
7950953456,2.655569,0.010171,-1.429893,-0.318234,0.249162,0.916983
7950973485,3.963289,0.140814,-1.263551,-0.304078,0.171127,0.928634
7950993515,6.096353,-0.233931,-0.690715,-0.326117,0.215922,0.924216
7951013546,6.217146,-0.119048,-0.289769,-0.315109,0.275025,0.914626
7951033574,5.432614,-0.304523,-0.091457,-0.321090,0.286160,0.901485
7951053604,4.308449,-0.452532,-0.606341,-0.312593,0.293395,0.901325
7951073633,3.085415,-0.485334,-0.970598,-0.313307,0.299457,0.909129
7951093661,1.580772,-0.730355,-1.507598,-0.308677,0.313304,0.903764
7951113691,-0.068147,-0.783712,-1.864307,-0.312995,0.307770,0.904555
7951133720,-1.337322,-0.724015,-1.956407,-0.313232,0.283609,0.908801
7951153750,-1.877923,-0.682127,-1.668900,-0.315843,0.267759,0.911808
7951193809,-1.780187,-0.352853,-0.928570,-0.308870,0.247837,0.915571
7951213838,-1.536935,-0.132438,-0.642183,-0.315239,0.248053,0.916565
7951233868,-1.423770,-0.292652,-0.572544,-0.308827,0.257607,0.911463
7951253897,-1.498547,-0.163596,-0.793545,-0.308749,0.264267,0.909426
7951273927,-1.992196,-0.016311,-0.779857,-0.310678,0.266814,0.912066
7951293957,-2.251033,-0.091031,-0.771772,-0.314038,0.259624,0.914683
7951313986,-2.426455,0.025115,-0.461966,-0.313694,0.258979,0.915596
7951334017,-2.677963,-0.079937,-0.408130,-0.312552,0.259264,0.912330
7951354047,-2.837201,0.073341,-0.348838,-0.316295,0.259552,0.913824
7951374076,-3.034965,0.089765,-0.303578,-0.310235,0.261868,0.916318
7951394106,-3.165056,0.068382,-0.075998,-0.316783,0.250787,0.917843
7951414135,-3.105024,0.015368,0.098864,-0.315375,0.243767,0.917528
7951434165,-2.983732,0.068592,0.272865,-0.314193,0.241035,0.916152
7951454195,-2.725668,0.082957,0.424511,-0.314753,0.235730,0.920567
7951474224,-2.376368,0.157986,0.651513,-0.310773,0.229976,0.918936
7951494252,-1.897039,0.269749,0.688717,-0.309605,0.224117,0.922826
7951514282,-1.206511,0.152809,0.955407,-0.312364,0.220759,0.923572
7951534311,-0.689279,0.310346,1.083230,-0.315004,0.227802,0.921403
7951554340,-0.194750,0.597833,1.338847,-0.316783,0.232823,0.921329
7951574370,0.077921,0.398716,1.408890,-0.316187,0.235291,0.919171
7951594400,0.260386,0.390113,1.401468,-0.312654,0.241081,0.922294
7951614429,0.344467,0.297489,1.152076,-0.313356,0.239459,0.919985
7951634459,0.512056,0.235124,0.978293,-0.312949,0.240199,0.917534
7951654488,0.519982,0.143030,0.766771,-0.314120,0.240301,0.916968
7951674518,0.695218,0.072937,0.570309,-0.312848,0.245687,0.913569
7951694548,0.566783,0.034567,0.274867,-0.314641,0.252884,0.915341
7951714577,0.324667,0.134011,0.038870,-0.308941,0.250661,0.915596
7951734608,0.286770,0.004153,-0.157193,-0.310527,0.248111,0.917190
7951754637,0.226695,0.126003,-0.234067,-0.313435,0.249127,0.917791
7951774667,0.188100,0.027434,-0.180183,-0.314912,0.250978,0.914407
7951794696,-0.056042,-0.184423,-0.186104,-0.319298,0.258932,0.913952
7951814726,-0.511652,-0.190233,-0.368246,-0.310260,0.256590,0.915538
7951834755,-0.846314,-0.409986,-0.601608,-0.312244,0.249669,0.917359
7951854785,-0.753788,-0.235994,-0.777413,-0.311545,0.243114,0.916123
7951874814,-0.822108,-0.136376,-0.687297,-0.313159,0.249399,0.917707
7951894844,-0.875703,-0.258005,-0.724212,-0.316140,0.241395,0.918954
7951914872,-0.807233,-0.174335,-0.633897,-0.316235,0.238941,0.918108
7951934901,-0.579131,-0.068548,-0.505779,-0.312861,0.237291,0.916413
7951974961,-0.434962,-0.023158,-0.362030,-0.311289,0.244650,0.917876
7951994990,-0.587557,-0.067664,-0.255581,-0.313705,0.243100,0.920744
7952015020,-0.610241,0.024050,-0.180540,-0.315422,0.243295,0.920353
7952035049,-0.481502,-0.052544,-0.119178,-0.315020,0.245669,0.918920
7952055079,-0.633673,-0.066911,-0.103967,-0.314123,0.245115,0.919386
7952075108,-0.641650,-0.127634,-0.065550,-0.313742,0.241849,0.916715
7952095138,-0.595372,-0.052119,-0.172312,-0.314977,0.237384,0.918205
7952115167,-0.467131,-0.097629,0.078342,-0.312898,0.237095,0.918693
7952135197,-0.314835,-0.052816,0.062875,-0.312299,0.236930,0.915141
7952155228,-0.207820,0.129474,0.114471,-0.312189,0.241207,0.915821
7952175257,-0.359917,-0.037838,-0.081332,-0.314043,0.246416,0.914835
7952195287,-0.716532,0.085608,-0.150780,-0.311853,0.255707,0.912491
7952215316,-1.043671,0.072269,-0.105334,-0.315522,0.261439,0.917506
7952235346,-1.751138,-0.007661,-0.089841,-0.316145,0.259358,0.915742
7952255375,-2.253314,-0.165125,-0.172164,-0.313274,0.254694,0.915837
7952275405,-2.610484,-0.293344,-0.383560,-0.309078,0.239016,0.913295
7952295434,-2.524521,0.055420,-0.659402,-0.310440,0.239263,0.919209
7952315479,-2.783427,-0.072734,-0.696362,-0.314001,0.248214,0.918778
7952335492,-3.246932,-0.101133,-0.817662,-0.311597,0.260729,0.909986
7952355522,-4.309750,-0.005412,-1.190503,-0.309340,0.272225,0.904377
7952375551,-5.616685,-0.121574,-1.576847,-0.315701,0.279826,0.919864
7952395581,-6.910042,-0.518954,-1.816763,-0.321356,0.261920,0.919242
7952415610,-7.412617,-0.706583,-1.815431,-0.313320,0.222904,0.915999
7952435640,-6.986832,-0.624779,-1.717344,-0.314069,0.198419,0.929637
7952455669,-6.014564,-0.583139,-1.383611,-0.317103,0.187363,0.938706
7952475699,-4.578715,-0.635471,-1.101939,-0.312730,0.166141,0.933925
7952495728,-2.571753,-0.393644,-0.723894,-0.311142,0.159663,0.933982
7952515758,-0.632769,-0.029621,-0.331743,-0.308733,0.156783,0.941206
7952535788,1.359348,0.166056,-0.120124,-0.312573,0.165585,0.935291
7952555817,2.750065,0.189901,0.107812,-0.313367,0.185232,0.925235
7952575848,3.526357,0.269060,-0.028955,-0.312663,0.216663,0.923438
7952595877,3.259811,0.156272,-0.035719,-0.316925,0.241378,0.922684
7952615907,2.598815,0.113441,-0.232814,-0.315131,0.245663,0.920197
7952635936,1.853420,-0.073385,-0.375666,-0.312065,0.239458,0.918728
7952655966,1.776923,-0.187154,-0.374748,-0.310935,0.226135,0.921728
7952675996,1.708952,0.003827,-0.277817,-0.312268,0.219034,0.922462
7952696025,1.905825,0.118255,0.108005,-0.314261,0.215869,0.920757
7952716055,2.224264,0.102185,0.358504,-0.315205,0.213045,0.921811
7952736093,2.543415,0.467557,0.863592,-0.316062,0.220155,0.921771
7952756112,2.922921,0.657287,1.294363,-0.317059,0.222252,0.922596
7952796171,3.399963,0.748466,1.998964,-0.313630,0.213558,0.925858
7952816201,3.999387,0.670091,2.272868,-0.312738,0.221575,0.924669
7952836231,4.203701,0.524770,2.387918,-0.317639,0.242569,0.922410
7952856260,2.147787,0.317063,0.758515,-0.295734,0.354259,0.895771
7952876290,-0.878158,-0.117905,0.192045,-0.329831,0.286261,0.909013
7952896319,-1.788207,-0.283594,-0.716857,-0.308939,0.240725,0.916782
7952916349,-1.955111,-0.573528,-1.184594,-0.309923,0.236615,0.919832
7952936378,-2.000648,-0.504579,-1.124538,-0.311104,0.231989,0.917762
7952956408,-1.848008,-0.162026,-0.877131,-0.311194,0.227538,0.915711
7952976437,-1.514400,0.051164,-0.332848,-0.317829,0.211611,0.920568
7952996468,-0.725051,0.338820,0.438494,-0.308047,0.210451,0.921538
7953016498,0.043477,0.555767,0.520447,-0.318240,0.205112,0.926527
7953036527,0.756241,0.408720,0.923879,-0.318966,0.218868,0.926916
7953056557,1.181215,0.262052,0.985972,-0.316241,0.222031,0.928268
7953076586,1.583822,0.137982,0.941716,-0.311775,0.217707,0.931039
7953096616,2.464556,0.210985,1.404038,-0.309375,0.184867,0.936891
7953116645,4.637244,0.552870,2.372728,-0.313145,0.147853,0.946438
7953136675,7.599997,0.990590,3.659444,-0.310281,0.172087,0.942601
7953156704,8.733417,0.930492,3.417869,-0.307021,0.246350,0.918600
7953176732,8.095858,0.863965,3.001103,-0.312906,0.271874,0.905868
7953196762,7.277431,0.773831,2.068865,-0.319591,0.263627,0.905775
7953216791,7.096785,0.597126,1.296886,-0.310135,0.246938,0.914812
7953236821,7.150884,0.389571,0.775489,-0.310262,0.247925,0.917558
7953256851,7.279705,0.565126,1.122855,-0.311134,0.253667,0.917871
7953276880,7.483321,0.695684,1.789083,-0.316852,0.260823,0.915196
7953296910,7.207926,0.828803,2.462639,-0.319749,0.270541,0.907388
7953316939,6.674561,0.817523,2.796089,-0.316819,0.289496,0.902772
7953336969,5.693793,0.746270,2.697646,-0.312184,0.302982,0.896947
7953356998,4.220396,0.515518,1.925496,-0.309520,0.307792,0.897126
7953377028,3.330932,0.527789,1.909798,-0.313318,0.270041,0.908127
7953397057,4.105012,0.494566,2.304721,-0.328367,0.227481,0.928212
7953417088,4.811146,0.744020,2.901955,-0.296408,0.286002,0.902250
7953437118,4.604572,1.174467,3.823258,-0.313994,0.271632,0.917260
7953457148,4.687812,1.304364,4.102746,-0.317894,0.279538,0.908962
7953477177,4.413818,1.107379,3.945043,-0.305347,0.296705,0.903938
7953497206,4.059152,1.022452,3.028149,-0.321549,0.280551,0.910920
7953517236,4.347335,0.800011,2.977081,-0.313221,0.275403,0.910187
7953537265,4.522689,0.905594,2.961116,-0.301447,0.281168,0.908788
7953557295,4.743668,1.202015,3.178614,-0.307271,0.275475,0.907089
7953577323,5.237113,1.383606,3.632255,-0.312903,0.268753,0.910039
7953617382,6.925143,1.619078,3.881304,-0.311886,0.277508,0.907032
7953637412,7.215264,1.601022,3.494908,-0.311623,0.295195,0.904005
7953657441,7.291299,1.485962,3.351851,-0.317923,0.297583,0.907394
7953677471,7.480463,1.409454,3.534556,-0.313725,0.298382,0.906374
7953697500,7.457031,1.471361,3.799398,-0.308523,0.305207,0.901866
7953717530,7.449909,1.692568,3.926434,-0.310535,0.299854,0.900414
7953737560,7.815056,1.667495,3.835835,-0.312527,0.298960,0.899643
7953757589,8.051888,1.535139,3.329060,-0.315437,0.306096,0.897379
7953777618,8.120306,1.251977,2.982693,-0.315990,0.316033,0.896549
7953797648,8.105244,1.091399,2.741406,-0.311954,0.319566,0.895552
7953817677,7.885506,0.908358,2.287910,-0.309996,0.320391,0.892579
7953837708,8.152126,1.082216,2.347237,-0.311486,0.312085,0.897042
7953857738,8.366337,1.209665,2.103642,-0.306112,0.328660,0.891805
7953877767,7.873664,0.721545,1.038425,-0.322460,0.347847,0.883410
7953897797,7.188632,0.580730,1.092351,-0.317055,0.351647,0.882072
7953917826,6.527654,0.224501,0.503618,-0.314340,0.341600,0.883849
7953937856,6.383359,-0.065350,0.096548,-0.309729,0.338987,0.889742
7953957885,6.012640,-0.088180,-0.487262,-0.316270,0.353084,0.884745
7953977915,5.600995,-0.283622,-0.402417,-0.318159,0.346073,0.886293
7953997943,5.463776,0.000285,0.057641,-0.300907,0.349544,0.881858
7954017973,5.001423,0.284083,-0.028368,-0.315249,0.349658,0.893403
7954038002,5.183661,-0.213468,-0.570014,-0.321530,0.336278,0.882587
7954058032,5.319071,0.154174,0.321653,-0.311520,0.335919,0.886764
7954078061,5.607895,0.045726,0.216554,-0.318565,0.349092,0.884580
7954098091,5.014217,-0.011616,0.338062,-0.308331,0.378373,0.882004
7954118120,4.093998,-0.021763,0.398359,-0.310462,0.364107,0.878277
7954138150,4.352506,0.443110,0.970821,-0.311366,0.324154,0.889031
7954158179,5.296862,0.887448,1.043368,-0.307463,0.334248,0.887818
7954178209,5.227904,0.666695,0.931457,-0.308048,0.373833,0.879228
7954198238,4.937155,0.800048,1.650497,-0.321802,0.365816,0.878474
7954218268,4.579062,0.550482,1.569016,-0.316523,0.362154,0.875970
7954238298,4.639419,0.650003,1.833584,-0.314398,0.352821,0.881030
7954258329,4.844941,0.641024,1.750355,-0.311041,0.354071,0.881735
7954278358,4.937429,0.952635,1.755365,-0.307954,0.364170,0.880510
7954298388,4.998372,1.005695,1.785278,-0.310659,0.365011,0.879652
7954318418,4.997188,0.747034,1.825360,-0.309080,0.366650,0.878141
7954338447,4.982087,0.601781,1.614273,-0.314856,0.366153,0.875669
7954358476,5.104326,0.623460,1.462508,-0.312654,0.368329,0.875177
7954378506,5.036461,0.669108,1.348360,-0.309505,0.373510,0.873541
7954398535,5.044369,0.554103,1.114284,-0.314202,0.371425,0.876915
7954418563,4.999791,0.637355,0.901264,-0.314295,0.373275,0.872092
7954438593,5.030501,0.392298,0.509067,-0.310771,0.378244,0.875390
7954458622,5.016037,0.292254,0.161123,-0.313129,0.380746,0.870537
7954478652,4.635882,-0.080254,-0.298442,-0.314158,0.383228,0.867804
7954498681,4.400975,-0.217392,-0.706838,-0.310624,0.392594,0.866670
7954518711,4.021107,-0.483186,-1.121806,-0.311677,0.395976,0.865862
7954538740,3.657617,-0.627967,-1.742499,-0.310866,0.394152,0.865402
7954558770,3.208762,-1.122126,-2.269315,-0.309798,0.399077,0.863183
7954578799,2.526402,-1.166318,-2.906171,-0.308200,0.401631,0.860859
7954598829,1.728447,-1.521695,-3.457067,-0.312391,0.408135,0.858934
7954618858,0.954304,-1.656563,-4.040131,-0.313042,0.400559,0.862322
7954638888,0.354212,-2.028466,-4.666614,-0.317154,0.397032,0.862405
7954658919,-0.025774,-2.133626,-4.847886,-0.312707,0.391519,0.865804
7954678948,-0.200275,-2.201868,-5.044531,-0.309747,0.389670,0.867296
7954698978,-0.443606,-2.185255,-5.014460,-0.313516,0.380376,0.871896
7954719008,-0.116922,-2.148519,-4.893296,-0.318051,0.372832,0.874035
7954739037,0.232091,-2.088483,-4.597930,-0.310812,0.377445,0.871822
7954759067,0.179967,-1.967031,-4.780946,-0.310654,0.385043,0.865139
7954779096,-0.245406,-2.125691,-5.098268,-0.309709,0.398439,0.862996
7954799126,-0.905711,-2.268595,-5.628135,-0.308547,0.399243,0.864574
7954819155,-1.482875,-2.648384,-6.300033,-0.313581,0.391231,0.869348
7954839183,-2.035723,-2.800537,-7.148220,-0.308946,0.399538,0.861192
7954859213,-3.098287,-3.400628,-8.455400,-0.303009,0.412085,0.858757
7954879242,-4.774939,-3.716447,-9.947235,-0.308827,0.415968,0.855138
7954899272,-6.263587,-4.367460,-11.223866,-0.315081,0.405132,0.861236
7954919302,-7.447175,-4.906399,-12.645349,-0.313701,0.400225,0.857835
7954939331,-8.827598,-5.299929,-14.143970,-0.309332,0.402019,0.857923
7954959361,-10.513392,-6.034517,-15.685367,-0.309354,0.408461,0.862273
7954979390,-12.456060,-6.700613,-17.636896,-0.309247,0.405105,0.859687
7954999419,-14.769661,-7.282315,-19.976002,-0.309256,0.415583,0.859236
7955019450,-17.417896,-8.022649,-22.480747,-0.309656,0.418421,0.857065
7955039479,-20.225941,-8.823130,-25.015392,-0.314485,0.403206,0.862871
7955059508,-22.599905,-9.573137,-27.701889,-0.309594,0.379359,0.870307
7955079539,-24.698353,-9.760837,-30.241335,-0.303522,0.371199,0.873069
7955099569,-27.124245,-10.091498,-32.802486,-0.301921,0.372357,0.875754
7955119598,-29.830555,-10.429228,-35.644249,-0.301646,0.362932,0.882974
7955139628,-32.862949,-10.926600,-38.939762,-0.293123,0.363329,0.883847
7955159657,-36.387226,-11.003340,-42.421009,-0.291467,0.357389,0.885553
7955179687,-39.934368,-11.209841,-46.045238,-0.293989,0.343684,0.895519
7955219746,-47.358677,-11.151792,-54.078773,-0.287192,0.307220,0.908895
7955239775,-51.122910,-10.687981,-57.905869,-0.280071,0.282107,0.912431
7955259803,-54.954086,-9.782011,-61.638149,-0.277595,0.256041,0.928115
7955279833,-58.587181,-8.678782,-65.250664,-0.269645,0.222750,0.927206
7955299863,-62.128548,-7.408381,-68.803886,-0.264929,0.201302,0.929458
7955319892,-66.647156,-5.502007,-72.651047,-0.261027,0.208908,0.933061
7955339922,-72.191132,-3.270236,-76.418030,-0.256080,0.194588,0.946976
7955359951,-77.917542,-1.113971,-80.290619,-0.250546,0.151628,0.951051
7955379981,-83.111435,1.673552,-83.478271,-0.252898,0.088362,0.962570
7955400010,-87.355995,5.007442,-85.669220,-0.232495,0.033946,0.962763
7955420040,-90.612221,8.810053,-87.257057,-0.234360,-0.027972,0.961156
7955440070,-93.746536,12.741670,-88.770096,-0.225378,-0.067468,0.961119
7955460099,-97.121872,17.344868,-90.144829,-0.223857,-0.092537,0.962830
7955480129,-100.705643,21.562578,-91.038742,-0.225778,-0.154259,0.959032
7955520189,-107.079788,31.940006,-93.547668,-0.198792,-0.258336,0.939610
7955540219,-110.016808,37.988083,-94.638611,-0.209451,-0.318038,0.926560
7955560248,-112.872635,43.656063,-95.453384,-0.199260,-0.355522,0.908120
7955580278,-116.062119,49.806435,-95.946320,-0.196387,-0.402793,0.888741
7955600308,-119.017860,56.095142,-95.674522,-0.172698,-0.460234,0.857372
7955620337,-121.866501,63.001732,-94.839195,-0.178020,-0.523930,0.820453
7955640366,-123.535011,69.327225,-92.914192,-0.188997,-0.606861,0.776508
7955660396,-124.911171,76.541939,-90.935852,-0.160553,-0.611230,0.761136
7955680424,-126.894249,83.200676,-87.739983,-0.171515,-0.677247,0.706484
7955700454,-128.551743,89.813217,-84.187233,-0.175491,-0.721779,0.661821
7955720483,-129.680206,96.410881,-79.693901,-0.177836,-0.772738,0.608635
7955760542,-132.093124,107.493935,-69.817650,-0.165169,-0.830683,0.550242
7955780572,-134.747650,113.577873,-64.312332,-0.157177,-0.847848,0.501554
7955800601,-137.661499,119.450027,-58.812946,-0.151165,-0.886526,0.442044
7955820631,-139.885788,124.212677,-51.681332,-0.148381,-0.932767,0.370635
7955840660,-141.533737,129.172516,-43.853546,-0.133056,-0.953384,0.281043
7955860690,-141.759003,133.229736,-35.100052,-0.139886,-0.992273,0.177410
7955880719,-140.285812,134.752777,-25.763386,-0.158304,-1.021607,0.087737
7955900749,-138.175659,135.249954,-17.176008,-0.159548,-1.018336,0.011790
7955920780,-135.882950,135.845444,-8.490802,-0.162460,-1.018984,-0.046235
7955940809,-132.385101,133.618057,0.158034,-0.195524,-1.011582,-0.140736
7955960839,-129.332062,131.694916,8.038305,-0.196145,-0.998925,-0.170848
7955980868,-127.672661,130.950806,15.748780,-0.192600,-0.993666,-0.186170
7956000898,-126.854057,129.130356,23.483051,-0.209693,-0.987701,-0.222636
7956020928,-127.587563,128.771408,31.045074,-0.194811,-0.969085,-0.260292
7956040957,-128.383224,128.574677,39.212273,-0.183047,-0.954324,-0.320948
7956060987,-128.789413,126.967819,47.421829,-0.194029,-0.940056,-0.413658
7956081016,-128.197144,123.694656,55.137859,-0.182019,-0.907796,-0.476340
7956101044,-126.963303,118.741287,62.201080,-0.188889,-0.864392,-0.540047
7956121074,-124.817604,112.812912,68.226593,-0.198321,-0.822331,-0.620606
7956141103,-121.621071,106.342270,73.097115,-0.210260,-0.770054,-0.669616
7956161133,-117.768021,100.056503,77.390152,-0.228534,-0.718672,-0.714536
7956181163,-113.648338,92.110184,79.483292,-0.222721,-0.682132,-0.738845
7956201192,-110.613190,85.672600,82.609573,-0.197295,-0.660780,-0.741155
7956221222,-108.768906,82.035973,88.335159,-0.225082,-0.632599,-0.780420
7956241251,-107.431831,79.500450,94.748810,-0.217739,-0.619523,-0.797069
7956261281,-107.723434,76.715363,101.345741,-0.221617,-0.602706,-0.802728
7956281310,-108.342377,72.143845,105.857277,-0.240054,-0.545138,-0.846042
7956301340,-106.339088,63.806351,105.988907,-0.181298,-0.411324,-0.926106
7956321369,-100.834106,57.792412,107.694962,-0.240655,-0.336256,-0.974762
7956341399,-94.684807,50.317017,105.887932,-0.244219,-0.283359,-0.966753
7956361430,-88.897446,43.902908,104.473648,-0.242991,-0.250303,-0.966519
7956381459,-81.788673,38.308716,102.234261,-0.258181,-0.102131,-0.961561
7956401489,-68.257355,30.404636,95.475693,-0.286078,-0.000978,-1.065427
7956421518,-62.867840,27.488113,96.822067,-0.190004,-0.267461,-0.954678
7956441548,-66.068298,24.814415,97.995453,-0.275357,-0.380006,-0.964136
7956461577,-73.383423,22.844267,100.449890,-0.246244,-0.366910,-0.944644
7956481607,-81.723747,20.053080,106.133148,-0.224692,-0.287212,-0.951499
7956501636,-85.576103,14.774770,110.406410,-0.241058,-0.157768,-0.967001
7956521665,-86.912338,9.552403,114.907898,-0.231168,-0.092310,-0.971895
7956541694,-87.646851,4.608409,117.117531,-0.255565,-0.065397,-0.984550
7956561723,-89.736595,-0.043745,117.959290,-0.246379,-0.084946,-1.000284
7956581753,-94.913429,-5.749227,119.869896,-0.228444,-0.101143,-1.022418
7956601783,-101.724503,-10.987858,122.223122,-0.222186,-0.019878,-1.031790
7956621812,-106.518730,-17.462103,124.746941,-0.209677,0.056565,-1.001665
7956641842,-109.492439,-25.286957,126.888695,-0.211330,0.129620,-0.984857
7956661871,-111.864571,-33.536354,128.223022,-0.218651,0.178291,-0.982335
7956681901,-113.721077,-41.466167,128.068832,-0.205772,0.253678,-0.958970
7956701930,-114.455666,-49.192257,126.882301,-0.178576,0.340901,-0.934350
7956721960,-114.803917,-56.636295,124.162003,-0.196053,0.376877,-0.915130
7956741990,-115.680672,-63.332222,121.245613,-0.185832,0.448432,-0.903529
7956762019,-115.369057,-70.327286,117.263222,-0.226427,0.501873,-0.855218
7956782050,-115.297859,-76.681946,113.199532,-0.185955,0.522328,-0.844694
7956802079,-116.222832,-83.436241,108.691376,-0.193949,0.578052,-0.848234
7956822109,-117.736473,-89.412239,103.820030,-0.175498,0.609948,-0.823537
7956842139,-119.882950,-94.664703,98.070358,-0.144932,0.641568,-0.795634
7956862168,-122.247902,-100.873375,92.836617,-0.167923,0.722013,-0.757833
7956882198,-123.258965,-105.607086,86.954239,-0.157756,0.744272,-0.648731
7956902228,-122.967880,-109.967583,80.925308,-0.165488,0.799314,-0.582068
7956922257,-122.154778,-113.502846,74.396851,-0.179497,0.840024,-0.550240
7956942285,-122.077477,-117.066505,67.314796,-0.161231,0.853965,-0.539225
7956962314,-123.178986,-120.424835,60.586800,-0.156430,0.872172,-0.495340
7956982344,-124.765182,-124.011841,52.996132,-0.142903,0.902546,-0.469916
7957002374,-126.960136,-127.702080,45.436359,-0.129737,0.937856,-0.384198
7957022403,-126.897423,-130.051117,37.358425,-0.121634,0.950200,-0.275312
7957042433,-126.035179,-132.581406,28.698572,-0.105521,0.966272,-0.189360
7957062462,-123.967804,-134.029022,20.212179,-0.126323,0.979677,-0.106862
7957082492,-121.608490,-134.388260,12.148970,-0.120533,0.973325,-0.038630
7957102521,-119.191093,-131.366867,4.474421,-0.149667,0.995111,0.005558
7957122550,-116.423454,-128.324890,-3.321446,-0.143221,1.015065,0.107732
7957142580,-111.142326,-122.488190,-11.329116,-0.204458,0.936822,0.220678
7957162610,-106.275009,-119.443245,-17.190554,-0.153196,0.940136,0.206843
7957182639,-103.667412,-116.889107,-23.170277,-0.172355,0.956525,0.197006
7957202670,-103.886887,-115.612854,-28.814606,-0.171986,0.992756,0.137367
7957222700,-107.720192,-116.378632,-33.965866,-0.130448,0.953872,0.122528
7957242729,-111.634827,-117.436745,-40.168625,-0.177459,0.950662,0.271274
7957262759,-111.919830,-116.453575,-47.053993,-0.165532,0.887596,0.374411
7957282796,-111.271622,-113.975342,-53.799816,-0.145710,0.872249,0.423708
7957302818,-110.449364,-111.137978,-59.858604,-0.163223,0.842068,0.479290
7957322847,-109.512199,-107.377251,-65.037979,-0.156394,0.814591,0.529541
7957342877,-108.354370,-103.388542,-69.984116,-0.163857,0.758934,0.569530
7957362905,-106.989136,-100.427231,-74.542435,-0.155583,0.712999,0.565406
7957382934,-106.856453,-96.625473,-80.109222,-0.192001,0.728715,0.643107
7957402964,-106.414879,-93.174065,-85.248329,-0.172792,0.679629,0.652368
7957422993,-106.610878,-89.032440,-89.862801,-0.178127,0.663559,0.696136
7957443023,-105.928101,-83.126770,-93.650040,-0.195402,0.589503,0.809653
7957463052,-102.472160,-75.804596,-97.387169,-0.177446,0.505208,0.860016
7957483082,-98.529701,-69.088646,-99.549484,-0.193100,0.472202,0.882463
7957503112,-94.623177,-61.724827,-99.237885,-0.188569,0.409967,0.913000
7957523141,-90.021454,-55.292820,-98.774094,-0.207986,0.332205,0.929403
7957543171,-84.526390,-49.090973,-97.435974,-0.215678,0.238476,0.937723
7957563200,-75.617180,-42.082020,-92.903351,-0.217435,0.125525,0.987500
7957583230,-69.345245,-37.314888,-91.439079,-0.311399,0.322625,0.948631
7957603259,-70.555275,-34.066597,-89.397026,-0.243841,0.444300,0.863395
7957623290,-75.293137,-30.539907,-91.620163,-0.210547,0.392486,0.888106
7957643320,-78.323807,-28.134794,-96.471619,-0.217086,0.292075,0.900948
7957663349,-79.160095,-24.737177,-101.512329,-0.236082,0.207259,0.939476
7957683379,-78.192574,-20.632362,-101.644890,-0.266026,0.133594,0.951637
7957723438,-77.162964,-12.226026,-99.159813,-0.241355,0.083503,0.971203
7957743467,-76.133034,-8.566354,-98.014816,-0.232531,0.019091,0.964177
7957763497,-74.301964,-4.562214,-97.296921,-0.250693,-0.021054,0.963694
7957783525,-72.772964,-0.849022,-97.562408,-0.258791,-0.046720,0.953191
7957803555,-70.927780,2.644047,-97.143494,-0.275028,-0.128465,0.961848
7957823584,-67.929901,6.027020,-95.957306,-0.261934,-0.168183,0.948365
7957843614,-65.184319,9.053505,-94.791016,-0.280942,-0.179228,0.957083
7957863643,-62.631088,11.876973,-93.183319,-0.268378,-0.186742,0.951466
7957883673,-63.461811,14.512522,-93.941315,-0.265666,-0.094350,0.959121
7957903702,-66.950363,17.877356,-94.790131,-0.252508,-0.112853,0.962815
7957923732,-69.660156,21.769785,-95.969017,-0.244123,-0.209020,0.934582
7957943761,-70.068344,25.820305,-96.306503,-0.267867,-0.283750,0.903835
7957963791,-69.750496,29.580462,-95.829926,-0.262037,-0.321276,0.897192
7957983821,-69.331017,33.245628,-94.010460,-0.262010,-0.356219,0.891300
7958003850,-68.720100,36.220589,-91.153946,-0.273705,-0.429226,0.880393
7958023880,-65.761032,38.282494,-86.749451,-0.260054,-0.528438,0.821725
7958043911,-59.713509,39.302258,-81.803978,-0.304988,-0.625150,0.771715
7958063940,-49.751854,38.323284,-74.269485,-0.347934,-0.864354,0.599454
7958083970,-20.191633,30.494198,-56.053051,-0.390092,-1.216657,0.546669
7958103999,-13.525180,29.596668,-54.404549,-0.334701,-0.330296,0.912726
7958124029,-15.955569,23.034624,-42.552868,-0.468672,-0.526117,0.833511
7958144059,-12.765324,16.815136,-33.165524,-0.231940,-0.606360,0.736011
7958164088,-4.308404,16.225412,-29.964415,-0.378606,-0.760468,0.639812
7958184117,7.529799,14.091286,-25.725117,-0.348838,-0.765017,0.638428
7958204145,16.220966,11.476519,-19.974464,-0.309492,-0.636182,0.746982
7958224175,19.991159,8.377603,-14.290369,-0.323300,-0.537539,0.809658
7958244204,21.344757,5.855818,-10.560889,-0.318159,-0.536857,0.812122
7958284264,25.135355,2.529948,-4.427532,-0.349843,-0.497393,0.794991
7958304293,25.738857,1.110020,-2.436387,-0.355312,-0.450399,0.817704
7958324322,24.340706,0.352390,-1.316131,-0.345068,-0.388203,0.840995
7958344352,21.377174,0.488724,-1.659904,-0.332437,-0.371958,0.853493
7958364382,18.177597,1.314463,-3.351613,-0.322369,-0.343565,0.878568
7958384411,15.331654,1.966315,-4.131838,-0.335564,-0.456328,0.829473
7958404441,17.335720,1.355046,-3.928601,-0.345084,-0.500871,0.808456
7958424470,19.498579,0.445849,-1.523974,-0.305583,-0.475345,0.825311
7958444500,20.955265,-0.391740,0.690157,-0.340683,-0.467971,0.832203
7958464531,22.065172,-1.788361,3.621532,-0.336697,-0.449467,0.841204
7958484560,23.104849,-3.465578,6.752366,-0.338861,-0.430642,0.848737
7958504590,23.405855,-4.488100,8.740026,-0.342243,-0.389771,0.857094
7958524620,22.194965,-5.236211,10.724654,-0.328101,-0.330963,0.879231
7958544649,18.642220,-5.337479,11.231787,-0.312577,-0.251261,0.909617
7958564679,11.976865,-4.196483,9.550920,-0.305690,-0.152795,0.949257
7958584708,3.023856,-2.967791,7.708986,-0.322290,-0.180668,0.935674
7958604738,0.737592,-3.821430,10.573503,-0.330049,-0.463571,0.815984
7958624766,6.767475,-4.098592,12.352960,-0.323687,-0.564555,0.740749
7958644795,11.537169,-3.003081,10.632510,-0.254623,-0.397034,0.853247
7958664825,10.214349,-0.802972,4.092784,-0.410155,-0.342251,0.966074
7958684854,8.629268,-2.770367,5.071464,-0.347470,-0.330037,0.881663
7958704884,9.248316,-2.333717,2.338538,-0.345914,-0.475558,0.826571
7958724913,14.760456,-1.300587,1.346854,-0.285541,-0.554731,0.796601
7958744943,23.474884,0.050418,0.331303,-0.318731,-0.636725,0.803520
7958764973,32.561695,-1.680451,0.175842,-0.394619,-0.548215,0.889469
7958785002,36.907768,-2.977046,-0.539053,-0.348555,-0.373565,0.896580
7958805032,36.483276,-2.433528,-2.560663,-0.313031,-0.242924,0.901744
7958825061,34.768429,-2.817753,-4.082270,-0.315406,-0.214536,0.909728
7958845091,33.211918,-1.810475,-5.789873,-0.293090,-0.242107,0.880895
7958865120,32.609440,0.403319,-7.112875,-0.283716,-0.331447,0.868079
7958885151,35.706589,1.790385,-8.518133,-0.302186,-0.427610,0.867803
7958905181,41.954826,2.522942,-9.453862,-0.308215,-0.466876,0.875649
7958925210,51.121338,2.645144,-10.739414,-0.310194,-0.458873,0.895593
7958945240,61.686306,2.202461,-12.565460,-0.309643,-0.413109,0.904242
7958965269,72.114754,1.890102,-14.332009,-0.337878,-0.388224,0.915516
7958985299,85.250175,1.043326,-16.835806,-0.332359,-0.379692,0.914772
7959005328,102.127640,0.412262,-19.468502,-0.314990,-0.337181,0.932245
7959025358,122.825523,0.689660,-22.084234,-0.314448,-0.341852,0.936137
7959045386,143.506287,0.778123,-22.052233,-0.273548,-0.378610,0.916559
7959065415,159.362335,0.155476,-16.982067,-0.387047,-0.273779,0.930017
7959085445,171.272293,-1.310158,-19.837624,-0.329837,-0.235101,0.905925
7959105474,175.613831,-1.753771,-20.423203,-0.364410,-0.230668,0.901022
7959125504,167.745346,-2.163414,-16.549112,-0.377820,-0.303556,0.918663
7959145534,146.466568,-1.761962,-12.165149,-0.366766,-0.128562,0.935342
7959165563,141.807434,-2.732350,-11.545103,-0.346443,-0.055718,0.980897
7959185592,152.885284,-2.921179,-9.498571,-0.337038,-0.076049,0.974015
7959205622,164.577225,-3.096327,-9.210910,-0.299845,-0.014968,1.003668
7959225652,177.660202,-3.041584,-8.537818,-0.292518,-0.025787,1.023772
7959245681,193.318710,-2.111911,-6.195180,-0.339737,-0.057348,1.050740
7959265711,213.337280,-1.071301,-2.471421,-0.358019,-0.055770,1.065247
7959285740,238.134476,-1.428190,-1.629985,-0.336837,0.017659,1.055954
7959305771,268.913574,-3.366771,-2.220558,-0.360189,0.083237,1.034544
7959325801,292.517365,-2.357107,0.208653,-0.335542,0.139164,1.039662
7959345830,301.585785,1.127948,2.837515,-0.285592,0.322198,0.900387
7959365860,310.224365,7.271599,7.672986,-0.258407,0.635929,0.661802
7959385890,310.532684,13.884436,5.342978,-0.266919,0.728271,0.155198
7959405919,299.533813,21.498922,4.651992,-0.142355,1.080681,-0.307947
7959425949,278.083099,30.045465,4.357561,-0.283972,1.564912,-0.362920
7959445978,257.886932,2.938476,1.580463,-0.142112,0.709879,-0.089985
7959466009,264.383667,-2.595243,-1.751553,-0.414102,1.012264,0.599029
7959486036,291.584290,-8.246916,1.523868,-0.332298,0.854388,0.829872
7959506066,323.608490,-2.371362,4.211997,-0.372188,0.771803,0.521165
7959526095,345.554504,7.749942,1.840246,-0.314001,0.841803,-0.005286
7959546124,352.774109,12.713238,-2.527322,-0.217332,0.770153,-0.461212
7959566154,349.302063,15.457381,-6.851099,-0.229895,0.647191,-0.747481
7959586183,342.330383,18.046616,-10.690012,-0.218829,0.588443,-0.901492
7959606213,333.411194,14.724177,-12.258672,-0.201714,0.527176,-0.972990
7959626242,325.601105,8.393238,-10.351674,-0.211875,0.495475,-1.040184
7959646272,319.736206,2.832910,-7.100590,-0.214382,0.410339,-1.011159
7959666302,316.198212,-0.928838,-4.060617,-0.233149,0.336370,-1.005667
7959686331,312.322357,-0.864144,-4.510378,-0.283477,0.150683,-1.052845
7959706361,307.012451,-0.542607,-5.539231,-0.298432,0.098628,-1.060599
7959726391,303.298309,0.994124,-9.390477,-0.306245,0.018746,-1.020839
7959746421,302.465393,1.078918,-14.926534,-0.301789,0.034690,-0.979172
7959766451,305.299255,-0.042557,-20.283880,-0.256717,-0.088196,-1.025770
7959786480,301.404480,-2.832378,-18.518452,-0.213227,-0.452173,-1.010445
7959806510,292.862976,-3.257349,-13.469330,-0.300244,-0.457181,-1.027517
7959826539,287.931580,-3.264543,-9.786748,-0.261794,-0.536840,-0.950211
7959846569,282.245239,-4.442546,-6.875659,-0.237729,-0.619466,-0.848335
7959866598,274.347778,-6.007671,-4.864659,-0.224792,-0.761471,-0.799227
7959886628,265.143372,-6.649551,-4.257151,-0.267452,-0.814849,-0.690222
7959906656,253.500427,-5.881804,-2.532924,-0.290969,-0.854307,-0.614830
7959926685,224.918625,-8.242636,-2.633071,-0.329243,-0.661215,-0.634573
7959946715,142.585602,-10.595937,-8.218391,-0.325339,-0.512842,-0.747711
7959966744,33.810013,-11.418488,-9.947310,-0.291537,-0.467484,-0.641754
7959986774,-15.279351,-11.184180,-6.272944,-0.315263,-0.887533,-0.387846
7960006804,-22.413490,-10.241968,-6.686157,-0.332977,-1.051188,-0.263479
7960026833,-37.840000,-10.282566,-9.111969,-0.289025,-0.884186,-0.380541
7960046863,-63.120880,-11.760362,-10.787432,-0.294763,-0.717345,-0.542325
7960066893,-89.127220,-13.796686,-12.193181,-0.293328,-0.654194,-0.611557
7960086922,-121.300690,-15.929136,-13.419135,-0.292571,-0.616910,-0.648996
7960106952,-156.868958,-16.281769,-13.600179,-0.291070,-0.698264,-0.648172
7960126991,-183.821869,-14.908096,-14.261643,-0.274159,-0.824083,-0.567079
7960147012,-199.222794,-12.192389,-14.132668,-0.287674,-0.894671,-0.553344
7960167041,-209.601212,-12.389397,-16.638126,-0.282221,-0.783811,-0.654753
7960187071,-218.278931,-11.438807,-16.991499,-0.247943,-0.727797,-0.690835
7960207100,-212.344925,-7.866309,-13.667336,-0.259845,-0.915809,-0.676517
7960227130,-188.383194,-7.080924,-13.995956,-0.284014,-0.968698,-0.687624
7960247161,-163.405319,-7.009054,-14.393916,-0.268116,-0.906498,-0.718286
7960287219,-107.939056,-3.728555,-13.090518,-0.276970,-0.702282,-0.803088
7960307248,-86.779732,-3.550473,-12.816408,-0.281225,-0.669889,-0.824129
7960327276,-64.799232,-2.237930,-11.156319,-0.255469,-0.687287,-0.836013
7960347306,-45.906075,-1.389898,-7.621038,-0.224138,-0.729790,-0.844205
7960367335,-36.509018,-0.598573,-4.218771,-0.227637,-0.659564,-0.855846
7960387365,-20.348021,-0.054457,-2.562626,-0.219497,-0.534975,-0.861408
7960407395,-4.085298,-0.950790,-3.555657,-0.200584,-0.149395,-0.962066
7960427424,-3.447115,-1.473100,2.855921,-0.282178,-0.018947,-0.939453
7960447454,3.066264,-1.153712,1.703907,-0.359901,0.000758,-0.924193
7960467483,6.750350,-0.573736,1.154907,-0.327293,-0.150765,-0.935654
7960487513,1.513093,-0.669613,-1.659783,-0.294098,-0.439793,-0.953856
7960507542,-13.802577,0.821044,-3.529740,-0.324847,-0.584535,-0.951403
7960527572,-29.907444,1.267310,-4.845397,-0.322721,-0.445913,-0.920142
7960547602,-38.427418,1.401268,-3.326637,-0.271594,-0.169407,-0.906255
7960567632,-36.716263,0.398405,2.209969,-0.233540,0.037307,-0.906555
7960587662,-28.115416,-0.688361,4.960395,-0.269914,0.160842,-0.934122
7960607691,-15.521949,-2.172125,2.317621,-0.275625,0.233680,-0.954082
7960627721,-1.574166,-3.129148,-2.269940,-0.298181,0.197021,-0.985554
7960647751,1.906413,-2.350942,1.493518,-0.365145,-0.442353,-1.033273
7960667780,-30.999668,4.611309,12.299477,-0.385100,-1.175065,-1.104553
7960687810,-71.526756,4.736934,-0.633508,-0.266986,-0.690599,-0.896576
7960707839,-112.434486,0.921760,-4.457802,-0.319967,0.312004,-0.904597
7960727869,-152.711380,-0.038000,-6.994061,-0.299550,0.649014,-1.018918
7960747897,-192.541122,0.805286,-4.571380,-0.228502,0.478575,-1.029564
7960767926,-225.255951,-0.672919,-2.224333,-0.317685,-0.155356,-1.018162
7960787956,-225.592758,1.043181,-1.730903,-0.303585,-0.338937,-1.120601
7960807985,-230.489227,2.238627,-2.539430,-0.288597,-0.101194,-1.106473
7960828015,-239.149689,3.271073,-3.424229,-0.280538,0.172825,-1.010049
7960848045,-246.733765,3.651467,-4.113480,-0.301264,0.387259,-0.864706
7960868074,-250.064255,2.721729,-5.161197,-0.266130,0.400610,-0.864377
7960888104,-245.325104,2.388327,-6.301005,-0.249931,0.277701,-0.876023
7960908133,-209.262939,1.515826,-5.229910,-0.307583,0.143827,-0.959815
7960928163,-154.852966,-1.053019,-2.088531,-0.305618,0.228867,-0.971595
7960948192,-131.247955,-0.992269,1.106859,-0.298555,0.614774,-0.801391
7960968222,-139.843414,-2.257099,3.039179,-0.252172,0.593513,-0.891854
7960988251,-151.720688,-2.223276,3.442585,-0.323383,0.601685,-0.920963
7961008282,-163.269943,-0.434460,3.368907,-0.312653,0.656595,-0.804063
7961028312,-173.093658,1.979888,1.888119,-0.265567,0.736409,-0.748332
7961048341,-180.730438,5.600589,0.421007,-0.327841,0.762065,-0.597467
7961068371,-185.436676,7.421597,0.327620,-0.303854,0.785699,-0.489041
7961088400,-190.879822,4.973494,-0.594638,-0.258760,0.839060,-0.550351
7961108430,-198.660629,1.387342,0.440131,-0.301302,0.864058,-0.558936
7961128459,-205.947632,0.374708,2.469534,-0.333576,0.898795,-0.435619
7961148489,-211.708633,1.037539,2.627989,-0.255872,0.926914,-0.294142
7961168518,-215.541229,3.297841,0.992168,-0.183797,0.931760,-0.233037
7961188547,-218.628647,4.384782,0.193009,-0.283891,0.922304,-0.065675
7961208576,-217.731369,6.581108,0.569272,-0.354827,0.887623,0.100923
7961228606,-214.061508,4.576901,1.141368,-0.314010,0.847542,0.230670
7961248635,-210.920547,0.554400,0.532182,-0.339136,0.876296,0.184059
7961268665,-213.177032,-4.433836,-1.504524,-0.275156,0.964728,0.086133
7961288694,-222.499832,-11.277011,-4.924180,-0.265093,1.040821,0.069198
7961308724,-232.004349,-11.394008,-4.889883,-0.302680,0.982707,0.188375
7961348783,-239.889847,-14.607176,-10.826256,-0.203451,0.727140,0.549969
7961368813,-237.332153,-13.546256,-12.737036,-0.235423,0.625402,0.661895
7961388842,-233.469742,-13.024271,-14.407617,-0.248462,0.533726,0.746195
7961408873,-228.579529,-10.888749,-14.506586,-0.260455,0.466721,0.768752
7961428903,-224.818893,-8.658736,-13.181458,-0.252942,0.422188,0.790738
7961448932,-221.557648,-6.589026,-12.780244,-0.269709,0.353853,0.827812
7961468962,-217.822296,-5.350018,-11.932061,-0.284471,0.243016,0.856673
7961488991,-212.779236,-3.934441,-10.842104,-0.293776,0.162822,0.904714
7961509021,-208.080688,-2.850959,-9.453820,-0.288633,0.091829,0.921122
7961529050,-202.779434,-2.009705,-8.980648,-0.283156,0.065383,0.936303
7961549080,-198.810181,-1.236345,-8.158772,-0.298363,0.013237,0.944703
7961569122,-196.589096,-0.469630,-9.809453,-0.292838,0.029355,0.923762
7961589137,-196.071045,0.436104,-9.013104,-0.268552,-0.008831,0.932659
7961609167,-196.149994,1.486447,-11.433073,-0.276359,-0.111222,0.926929
7961629197,-195.190277,2.404309,-13.131124,-0.304716,-0.181986,0.908468
7961649226,-193.369919,2.490842,-11.690372,-0.298385,-0.276652,0.890441
7961669256,-189.596573,2.484035,-7.760955,-0.298961,-0.465271,0.824416
7961689285,-181.213150,1.937981,-5.272967,-0.317611,-0.563057,0.805863
7961709315,-172.944733,-0.012643,0.380917,-0.292806,-0.593627,0.773300
7961749374,-170.261383,-1.111599,1.498430,-0.327466,-0.381001,0.868279
7961769403,-177.862595,0.952031,-3.450944,-0.307201,-0.279767,0.918752
7961789433,-187.079224,2.416648,-3.452534,-0.264477,-0.431641,0.799908
7961809462,-189.802292,4.984982,-4.544493,-0.306380,-0.679716,0.632512
7961829493,-186.768799,6.123034,-5.401777,-0.282138,-0.740781,0.581491
7961849523,-184.954727,7.048893,-5.636138,-0.271751,-0.733698,0.605553
7961869552,-186.227844,9.244929,-6.504389,-0.291194,-0.692917,0.630811
7961889582,-191.776108,12.459480,-7.754783,-0.286786,-0.700500,0.629991
7961909612,-198.159332,15.806958,-9.272070,-0.358875,-0.727948,0.571142
7961929641,-206.810135,30.105326,-12.853750,0.154129,-0.768282,0.631235
7961949671,-215.862854,54.822094,-17.721075,-0.352118,-0.874737,0.414877
7961969700,-222.948242,62.242111,-18.014265,-0.222007,-0.846491,0.415336
7961989747,-231.896774,73.662170,-15.566894,-0.095498,-0.964441,0.388365
7962009758,-241.410507,89.077621,-9.718642,-0.092766,-0.944688,0.198974
7962029788,-247.294876,101.184746,-1.839181,-0.152555,-0.997073,0.044601
7962049817,-249.856506,110.010590,8.844488,-0.108472,-1.043365,-0.125100
7962069847,-252.118210,119.381836,21.479910,-0.068582,-1.111104,-0.204504
7962089876,-256.103394,127.705200,36.693630,-0.029134,-1.120390,-0.310580
7962109906,-258.328461,133.072937,54.018097,-0.004279,-1.060765,-0.456790
7962129935,-260.357544,135.407166,72.732910,0.012141,-0.956807,-0.589307
7962149965,-259.370880,133.967789,92.216339,0.002527,-0.900251,-0.750530
7962169994,-257.000549,128.867691,109.524773,-0.057887,-0.859534,-0.764464
7962190024,-262.683929,123.086472,128.897369,-0.019816,-0.936821,-0.655921
7962210054,-276.429596,115.478638,149.221573,-0.025191,-0.969632,-0.756917
7962230083,-287.535553,98.867134,167.241882,0.180861,-0.691667,-0.925278
7962250114,-291.877563,73.822502,178.019531,0.078551,-0.582844,-1.062783
7962270144,-298.880432,49.647675,185.209839,0.160587,-0.597021,-1.125031
7962290173,-307.302307,22.603659,190.300568,0.162604,-0.412363,-1.304508
7962310202,-316.675659,-0.353617,180.033051,0.171897,-0.331190,-1.269828
7962330232,-319.874908,-20.179447,178.135635,0.075675,0.209341,-1.374941
7962350262,-310.806488,-43.276695,177.954834,0.036228,0.771724,-0.878672
7962370291,-284.937988,-57.167553,160.023407,0.017441,0.775501,-0.708588
7962390321,-265.095001,-73.689430,151.528122,0.107020,0.797237,-0.720168
7962410350,-248.295670,-85.989304,137.460968,-0.039137,0.680778,-0.680621
7962430378,-231.578888,-87.949478,112.767822,-0.020902,1.008731,-0.455539
7962450408,-207.704788,-96.446198,104.510391,-0.142232,1.011048,-0.457946
7962470437,-198.526230,-94.831406,85.295784,0.175584,0.733718,-0.552300
7962490467,-187.865601,-94.255806,64.960884,0.095504,0.964040,-0.255588
7962510497,-171.282883,-100.803131,54.499908,0.167317,1.125833,-0.100738
7962530526,-156.039703,-101.235153,45.086342,-0.030895,1.061071,-0.186996
7962550556,-145.159592,-94.766502,34.619469,-0.096763,1.030806,-0.127910
7962570585,-132.312943,-86.593575,24.760977,-0.147625,1.034419,0.026314
7962590614,-118.181129,-78.717949,19.068172,-0.133961,1.002562,0.102106
7962610644,-102.837303,-65.150299,12.539621,-0.189313,0.998370,0.208895
7962630674,-86.716858,-51.320255,8.306626,-0.275279,1.000317,0.232348
7962650704,-71.756531,-38.710003,6.213884,-0.279432,0.953932,0.256409
7962670733,-56.792351,-25.438704,3.774399,-0.220963,0.952698,0.296513
7962690764,-40.741997,-12.172091,1.653926,-0.297407,0.985054,0.375178
7962710793,-23.973938,3.946264,2.133266,-0.244799,0.995365,0.284104
7962730823,-12.456824,5.537408,-0.020262,-0.199009,0.962353,0.115741
7962750852,-6.791072,0.079336,-0.267396,-0.380995,0.962161,0.013819
7962770882,-4.613799,-0.913208,2.274415,-0.370976,0.944953,-0.124031
7962790912,-5.426000,2.215796,3.422977,-0.314838,0.926036,-0.157894
7962810941,-3.045542,4.281337,3.459859,-0.306335,0.914745,0.036869
7962830971,0.994919,6.236111,2.596204,-0.270347,0.938836,0.179365
7962850998,9.366905,10.883333,1.128213,-0.275811,0.939318,0.180650
7962871028,20.530718,14.788184,0.600405,-0.274741,0.962246,0.215571
7962911087,45.036877,19.395103,-1.018670,-0.272232,0.939596,0.050252
7962931117,60.909748,20.046831,-1.774678,-0.276112,0.898743,-0.016286
7962951146,81.329559,19.886822,-3.613496,-0.230640,0.876625,-0.083674
7962971176,107.008339,15.826310,-4.924183,-0.331616,0.794719,-0.270851
7963011235,151.682693,1.466226,-3.697767,-0.255609,0.888188,-0.276146
7963031264,168.010406,5.349844,-4.670244,-0.216716,0.877927,-0.213255
7963051294,171.378815,9.153067,-6.960018,-0.279931,1.057130,-0.025655
7963071323,153.520782,12.318729,-8.185625,-0.320169,1.114646,-0.068229
7963091353,124.553001,13.588491,-8.968504,-0.307120,1.111093,-0.207912
7963111384,103.079918,12.810441,-7.061663,-0.363138,0.961519,-0.397815
7963131414,106.680679,10.394678,-4.484466,-0.293662,0.923651,-0.334956
7963151443,119.196838,12.833464,-6.515733,-0.259272,0.920457,-0.323563
7963171473,134.486755,15.151794,-10.576653,-0.199971,0.871138,-0.364411
7963191510,152.244019,16.008511,-15.321660,-0.234254,0.815545,-0.432583
7963211532,168.174973,15.699526,-18.738476,-0.240156,0.814124,-0.479709
7963231561,177.512131,14.571606,-20.286404,-0.218048,0.892073,-0.499718
7963251591,184.470734,12.537998,-21.016594,-0.203094,0.894985,-0.578234
7963271619,197.858658,8.348553,-18.905027,-0.210241,0.851158,-0.599662
7963291649,214.044067,4.626192,-16.090895,-0.263208,0.788669,-0.683813
7963311679,227.705170,2.690525,-13.346061,-0.343170,0.569646,-0.825266
7963331708,232.817169,2.691154,-14.162462,-0.305814,0.268608,-0.975978
7963351737,224.664536,3.737596,-19.149055,-0.221026,-0.177172,-1.066821
7963371767,209.626236,2.463878,-23.232388,-0.365083,-0.258126,-1.262176
7963391796,191.345261,3.458734,-16.478758,-0.165104,0.042580,-0.868055
7963411826,203.830444,0.059503,-9.407980,-0.267241,0.612927,-0.987960
7963431855,231.835297,1.345054,-6.281403,-0.287058,0.644053,-1.135160
7963451885,261.938599,0.456327,-5.842369,-0.249317,0.559241,-0.875053
7963471914,283.725464,-3.164144,-9.190639,-0.223977,-0.035232,-1.005394
7963491944,289.660645,-4.713698,-7.923710,-0.306920,-0.289351,-0.965819
7963511973,288.550720,-6.542244,-7.916476,-0.257113,-0.623088,-0.847041
7963532005,277.036255,-8.006166,-6.408494,-0.240492,-0.830452,-0.714486
7963552034,262.865753,-7.122242,-3.541565,-0.314975,-0.907410,-0.636435
7963572064,248.555008,-5.943845,-3.876828,-0.352512,-0.936634,-0.582996
7963592093,236.106659,-5.990338,-5.626342,-0.344201,-0.970957,-0.531871
7963612133,221.401352,-7.080679,-6.708540,-0.292079,-1.028395,-0.389776
7963632153,202.341583,-4.037883,-3.346519,-0.201741,-1.116684,-0.057545
7963652182,189.044220,-11.694821,-6.025800,-0.426002,-0.746768,-0.558333
7963672212,203.048538,-14.634838,-7.154406,-0.177317,-0.547031,-0.916889
7963692240,216.730499,6.284078,1.320172,-0.296319,-0.894958,-0.604521
7963712269,223.221939,-0.528165,0.326596,-0.338577,-1.075124,-0.386764
7963732299,223.517517,12.647669,0.724111,-0.273757,-1.008734,-0.391396
7963752328,232.899353,14.944604,1.376587,-0.265510,-0.880033,-0.588179
7963772358,250.178467,15.077100,0.087288,-0.407204,-1.084485,-0.537049
7963792388,262.813293,12.504427,-2.614561,-0.307971,-0.898862,-0.185342
7963812417,267.346558,10.063415,-1.553124,-0.304462,-0.893827,0.011043
7963832447,264.720428,7.489571,0.794925,-0.329187,-0.824057,0.085326
7963852476,259.129486,4.961696,3.088080,-0.328611,-0.815063,0.419097
7963872506,247.294388,-0.611103,4.539422,-0.364522,-0.835177,0.675046
7963892535,231.494781,-10.775752,8.233795,-0.543758,-1.121724,0.959615
7963912565,220.504059,-1.832628,-4.812018,-0.124269,-0.417616,0.303852
7963932595,223.002090,0.030204,-1.482741,-0.347285,-1.124512,0.160674
7963952626,225.561813,-1.058572,-2.063766,-0.416598,-1.061403,0.174465
7963972655,157.681625,-8.761168,2.100336,-0.335781,-0.585087,0.162381
7963992685,25.110073,-8.625637,5.606270,-0.291345,-0.256577,0.326089
7964012714,-22.589682,-6.761233,11.822792,-0.383126,-0.463730,0.947587
7964032744,-18.613388,-10.091610,12.368261,-0.351986,-0.302684,1.102044
7964052773,-5.568043,-11.764350,13.101333,-0.343699,-0.374984,1.073482
7964072803,0.242699,-14.930823,13.214132,-0.355120,-0.565727,0.788065
7964092832,-15.509881,-16.560049,15.479664,-0.312360,-0.639019,0.516301
7964112860,-36.717094,-17.851271,19.127247,-0.305162,-0.681190,0.571260
7964132890,-50.363567,-21.142607,21.635220,-0.269988,-0.602617,0.744008
7964152920,-53.612335,-20.870932,20.342407,-0.238006,-0.536958,0.853684
7964172949,-52.578365,-19.256197,17.743847,-0.281929,-0.521369,0.882785
7964192979,-61.783615,-19.385214,16.936777,-0.305538,-0.545898,0.755550
7964213008,-74.577942,-18.952055,16.942118,-0.277678,-0.592493,0.671216
7964233038,-88.734032,-20.024101,17.641830,-0.288841,-0.647624,0.640124
7964253067,-106.308800,-22.280657,18.357414,-0.302717,-0.665592,0.596185
7964273097,-121.198769,-23.505379,17.769091,-0.295776,-0.692507,0.627910
7964293126,-124.902916,-23.079237,16.421690,-0.262735,-0.662636,0.734898
7964313156,-123.777435,-22.626944,14.613892,-0.272778,-0.654855,0.817702
7964333185,-125.987625,-21.471149,13.033623,-0.278218,-0.640357,0.742339
7964353215,-130.455063,-19.960299,11.623668,-0.253186,-0.694698,0.771731
7964373246,-135.666718,-21.549387,10.732220,-0.214663,-0.750845,0.721170
7964393275,-142.010773,-21.543230,9.356739,-0.286368,-0.801142,0.580864
7964413305,-154.106354,-22.366552,8.038517,-0.301877,-0.809368,0.523751
7964433335,-167.165009,-22.698139,6.564056,-0.297753,-0.844433,0.534449
7964453364,-180.315735,-23.150692,5.189136,-0.305237,-0.863779,0.470060
7964473394,-199.014633,-23.728743,3.024046,-0.321413,-0.856623,0.305534
7964493423,-226.243958,-23.986534,1.170591,-0.320491,-0.862587,0.138974
7964513453,-256.201782,-24.039791,-0.746557,-0.300729,-0.936507,0.031707
7964533481,-276.272949,-24.843689,-2.061217,-0.244606,-0.975053,-0.010007
7964553510,-279.901337,-23.691710,-4.749129,-0.231184,-1.004963,-0.034258
7964573540,-262.292084,-23.487795,-6.918393,-0.257777,-1.116727,-0.021391
7964593570,-220.959381,-22.013048,-8.032942,-0.265189,-1.199468,0.055414
7964613599,-160.320831,-19.488409,-8.320520,-0.262831,-1.294948,0.087983
7964633629,-83.386902,-16.410305,-8.491137,-0.239515,-1.281651,-0.015499
7964653658,-42.412918,-18.043036,-10.724667,-0.293167,-0.795198,-0.517000
7964673688,-45.061008,-18.607595,-10.751534,-0.229907,-0.858252,-0.439503
7964693717,-49.062855,-22.535194,-12.502290,-0.308083,-0.934769,-0.386431
7964713747,-55.270355,-26.924299,-16.896387,-0.397119,-0.895869,-0.370629
7964733776,-62.021820,-29.556065,-20.175774,-0.329648,-0.889693,-0.345465
7964753806,-70.163185,-30.332228,-21.613792,-0.312741,-0.900285,-0.374868
7964773835,-77.044350,-31.908043,-23.453922,-0.333703,-0.855586,-0.442535
7964793866,-81.091568,-33.542732,-24.753862,-0.292393,-0.795081,-0.490876
7964813896,-84.019798,-33.763054,-24.715517,-0.303336,-0.788948,-0.531532
7964833925,-87.101982,-33.590935,-25.924007,-0.323687,-0.784318,-0.522691
7964853955,-91.458595,-31.282475,-25.376839,-0.339191,-0.795853,-0.511820
7964873984,-98.085411,-28.988058,-25.793579,-0.369279,-0.829677,-0.489890
7964894014,-106.728203,-27.094500,-26.359570,-0.360137,-0.801117,-0.492581
7964914044,-114.975052,-25.081329,-26.949118,-0.341855,-0.763294,-0.547441
7964934073,-120.821671,-23.009747,-26.757038,-0.344883,-0.706582,-0.601194
7964954112,-125.240097,-20.661728,-25.861454,-0.349707,-0.659117,-0.660357
7964974131,-128.916107,-17.802809,-23.521618,-0.312570,-0.634854,-0.690386
7964994160,-133.599884,-13.657825,-18.334614,-0.288389,-0.652129,-0.706038
7965014190,-140.316711,-7.809758,-10.137629,-0.316107,-0.658418,-0.707095
7965034220,-149.394852,-2.571578,-3.680549,-0.375113,-0.678830,-0.705138
7965054249,-160.667801,2.576374,1.911866,-0.390753,-0.663191,-0.778009
7965074279,-171.155701,7.007570,10.642090,-0.267584,-0.608603,-0.867618
7965094308,-179.749481,9.066156,20.773098,-0.208191,-0.489544,-0.948629
7965114338,-183.113785,9.439905,31.572838,-0.234075,-0.255180,-0.999011
7965134367,-180.486099,7.885564,42.073215,-0.223487,-0.093714,-1.005105
7965174427,-165.390533,3.820786,59.083412,-0.329109,0.083078,-1.126425
7965194456,-160.052994,4.289082,59.620392,-0.305890,0.039420,-1.005122
7965214487,-159.653366,2.311062,65.103889,-0.296705,-0.026822,-0.995360
7965234517,-166.301239,-1.739553,70.154045,-0.181621,-0.196250,-1.023267
7965254546,-178.313965,-6.582725,68.725555,-0.226669,-0.116058,-1.044072
7965274575,-188.311249,-13.492964,71.477966,-0.143279,0.047114,-1.013820
7965294605,-193.106415,-17.536346,63.457409,-0.099282,0.195113,-0.979418
7965314635,-196.145859,-21.596083,55.604626,-0.099067,0.300733,-0.956983
7965334664,-198.386642,-24.147141,47.201237,-0.130715,0.352306,-0.941775
7965354694,-204.359879,-27.680067,41.996357,-0.150924,0.300341,-0.990969
7965374723,-213.252426,-33.436966,40.865170,-0.174823,0.453739,-0.966659
7965394751,-218.072174,-37.394089,38.098263,-0.229121,0.599424,-0.836192
7965414781,-218.989792,-40.785172,35.510464,-0.174024,0.700674,-0.731380
7965434811,-217.903473,-44.367027,33.675865,-0.168028,0.833502,-0.694724
7965454840,-216.358444,-45.340038,29.696594,-0.174426,0.826872,-0.549549
7965474870,-210.621323,-42.149956,23.091311,-0.168055,0.918489,-0.270426
7965494899,-194.489746,-36.234173,14.944162,-0.185443,1.053249,0.055544
7965514929,-175.984955,-42.904125,18.610619,-0.363646,1.054254,0.025908
7965534958,-163.463638,-47.509621,17.859221,-0.141431,0.920560,-0.247699
7965554988,-176.537521,-70.540588,18.357141,-0.172935,0.950929,-0.943863
7965575017,-199.805969,-68.824509,12.129315,-0.214826,0.853426,-0.781938
7965595047,-214.021591,-80.124146,6.735453,-0.008080,0.963298,-0.267960
7965615076,-214.083252,-71.066422,-0.270678,-0.185283,0.942543,0.030056
7965635106,-211.053757,-64.230461,-4.405787,-0.103541,0.922002,0.123401
7965655137,-206.877563,-57.368649,-8.093213,-0.217727,0.922043,0.191568
7965675166,-203.217789,-57.620262,-11.516445,-0.215697,0.894428,0.223572
7965695196,-204.690643,-56.376625,-15.242832,-0.204875,1.025522,0.177031
7965715226,-208.726807,-57.067368,-21.039299,-0.137626,0.984342,0.200749
7965735265,-213.701141,-52.331055,-23.833778,-0.110008,0.932015,0.257316
7965755285,-218.459763,-47.331318,-27.176277,-0.100184,0.862281,0.381630
7965775314,-221.484161,-41.905834,-30.203064,-0.118504,0.839300,0.468944
7965795344,-224.749802,-36.053005,-31.019579,-0.167242,0.748723,0.543271
7965815372,-225.392471,-30.909571,-32.678062,-0.191147,0.665450,0.635323
7965835402,-227.046341,-26.807827,-33.327457,-0.178401,0.679661,0.668619
7965855431,-230.053925,-23.095966,-34.345753,-0.222282,0.578145,0.723478
7965875461,-231.666946,-19.700386,-34.412952,-0.206457,0.485796,0.767158
7965895490,-233.246902,-15.573934,-34.387703,-0.180362,0.449996,0.818285
7965915520,-235.279053,-12.251710,-36.562321,-0.180902,0.330453,0.856883
7965935549,-235.567093,-9.193833,-35.367416,-0.242695,0.193617,0.879993
7965955579,-235.608704,-6.943114,-38.411598,-0.219869,0.155290,0.883478
7965975608,-238.082550,-4.061143,-40.916344,-0.237515,0.138254,0.918639
7965995638,-241.588562,-1.137207,-41.617393,-0.247045,0.093233,0.932948
7966015667,-246.954895,2.023378,-42.783844,-0.183030,0.035562,0.929530
7966035697,-251.623077,6.756099,-43.894920,-0.183551,-0.128209,0.929467
7966055727,-253.434464,10.703742,-43.079742,-0.184029,-0.326193,0.876230
7966075758,-251.414185,14.700108,-42.111481,-0.213506,-0.483393,0.826368
7966095787,-247.761047,18.376259,-40.988102,-0.200962,-0.579482,0.764425
7966115817,-243.504669,22.726828,-39.817017,-0.192348,-0.636027,0.704609
7966135846,-239.772598,27.156313,-38.639267,-0.206022,-0.710314,0.633769
7966155876,-235.035919,30.838129,-36.385674,-0.218745,-0.796048,0.572424
7966175905,-229.681427,35.279026,-33.781796,-0.021741,-0.821640,0.439087
7966195935,-225.660995,62.521194,-43.478653,-0.029170,-1.051564,0.560908
7966215964,-216.983810,57.940983,-38.227085,-0.470495,-0.980830,0.302054
7966235993,-215.467590,63.142365,-35.085537,0.050118,-0.867438,0.531856
7966256022,-217.048141,65.290359,-25.801088,-0.047504,-0.922234,0.252503
7966276052,-206.805481,69.828293,-20.587418,-0.361379,-1.279546,-0.059455
7966296081,-197.377777,75.441757,-20.523842,-0.192026,-0.949929,0.093603
7966316111,-200.227661,87.172501,-15.672599,-0.121939,-0.939046,0.325634
7966336140,-209.260239,96.308426,-8.998016,-0.098504,-0.994212,0.247539
7966356170,-215.381882,105.070824,-0.157987,-0.119091,-1.057517,0.002134
7966376199,-215.932053,111.199036,10.526560,-0.049350,-1.015589,-0.171903
7966396229,-214.260910,114.555183,22.039164,-0.049672,-1.038960,-0.272456
7966416259,-214.945526,118.824539,34.308746,-0.082075,-1.010321,-0.260028
7966436288,-219.481552,119.954437,46.299545,-0.115749,-1.039023,-0.285216
7966456318,-225.253387,120.177917,58.418678,-0.143762,-1.026022,-0.392456
7966476347,-230.352081,118.054939,71.005173,-0.107952,-0.980180,-0.513875
7966496378,-235.302872,112.167358,82.523941,-0.066074,-0.912631,-0.583779
7966516408,-234.843201,100.093681,91.928802,-0.053049,-0.647825,-0.868055
7966536438,-219.338486,85.426620,94.000458,-0.163771,-0.418599,-1.104276
7966556467,-196.365097,69.050896,88.629295,-0.147240,-0.111351,-1.297265
7966576496,-184.331680,61.675209,94.065170,-0.075224,-0.524144,-0.967694
7966596526,-178.228439,50.401943,92.312744,-0.235353,-0.392147,-1.002398
7966616555,-172.485352,43.742229,92.492752,-0.244437,-0.349528,-0.959517
7966636585,-175.003052,38.720272,98.144470,-0.142971,-0.554955,-0.922247
7966656633,-187.595383,31.757708,106.158058,-0.125066,-0.690157,-0.920741
7966676643,-197.511597,20.233231,108.600479,-0.088326,-0.127797,-0.989986
7966696673,-183.106186,12.217873,104.087570,-0.187910,0.429010,-1.023520
7966716702,-157.437546,4.368637,94.271225,-0.162741,0.519098,-0.972431
7966736732,-134.115585,-1.208636,81.834023,-0.254842,0.556099,-1.034479
7966756761,-118.717400,-4.831464,74.502068,-0.171130,0.289058,-0.987020
7966776790,-105.902412,-5.813450,62.953789,-0.301869,0.548398,-0.880937
7966796820,-89.489716,-4.737155,51.200424,-0.253409,0.422618,-0.919108
7966816849,-76.221436,-4.472830,39.763214,-0.279395,0.500235,-0.830258
7966836879,-63.177044,-3.806283,32.151485,-0.283144,0.468088,-0.843123
7966856909,-52.532837,-2.999365,26.288887,-0.227068,0.439552,-0.883101
7966876938,-45.134026,-3.574861,22.983915,-0.282242,0.410970,-0.874403
7966896968,-36.603539,-2.259712,20.065466,-0.322536,0.495873,-0.848619
7966916999,-27.468626,0.408546,10.759394,-0.191486,0.471164,-0.827637
7966937028,-16.934683,0.684794,3.096654,-0.217638,0.539585,-0.802141
7966957058,5.053208,2.692721,-1.231376,-0.222889,0.470410,-0.805331
7966977087,31.413189,3.943444,-4.277140,-0.222570,0.413803,-0.845562
7966997116,52.499535,3.828347,-5.289563,-0.264941,0.340694,-0.868837
7967017149,74.592728,4.514800,-6.293065,-0.291029,0.259117,-0.862986
7967037176,97.703659,3.484931,-6.781244,-0.300948,0.258989,-0.861597
7967057205,115.118202,2.395312,-6.847077,-0.328530,0.267591,-0.870456
7967077235,130.915619,1.006300,-5.682877,-0.308442,0.112697,-0.883978
7967097263,151.559998,-0.290051,-5.548279,-0.320122,0.089343,-0.896617
7967117293,166.630478,-1.510193,-7.380782,-0.340394,0.102197,-0.924033
7967137322,165.483765,-1.918346,-10.600307,-0.326397,0.246124,-0.987841
7967157352,138.852615,-3.361642,-15.468779,-0.309370,0.388499,-1.054535
7967177381,92.873199,-3.496106,-19.243027,-0.301498,0.332818,-1.089705
7967197411,66.760605,-1.519264,-15.761736,-0.284427,-0.101678,-0.995762
7967217440,72.901138,-1.533786,-14.932197,-0.289310,0.053965,-1.002162
7967237470,83.303299,-2.790131,-14.507184,-0.202365,0.033509,-0.991991
7967257499,93.573257,-5.349657,-12.486630,-0.162412,0.014287,-1.018542
7967277529,104.207855,-6.680347,-11.166193,-0.289111,-0.008520,-1.002462
7967297558,115.224556,-6.960485,-13.744012,-0.334903,-0.029652,-0.969076
7967317588,126.802864,-7.349574,-16.146257,-0.299063,-0.062894,-0.976926
7967337617,138.212311,-7.483794,-15.449642,-0.339863,-0.115800,-0.998619
7967357648,149.601807,-6.994061,-14.849261,-0.316191,-0.177992,-0.996162
7967377678,162.273682,-7.227018,-14.363506,-0.259768,-0.199506,-1.037805
7967397707,176.932495,-8.290873,-13.369391,-0.254411,-0.241115,-1.062478
7967417737,193.233673,-9.608113,-12.705969,-0.280567,-0.261430,-1.065282
7967437766,210.906113,-10.201647,-11.972141,-0.271348,-0.359511,-1.031439
7967457796,226.335907,-10.225572,-10.622446,-0.281329,-0.485241,-0.984013
7967477825,239.121490,-8.463853,-7.575464,-0.260902,-0.617403,-0.880920
7967497855,246.615662,-5.604317,-3.296794,-0.233759,-0.756064,-0.716611
7967517883,247.480225,0.637877,2.754811,-0.241188,-0.954039,-0.528032
7967537913,238.676880,8.403239,7.393843,-0.253120,-1.032894,-0.142235
7967577972,214.972275,22.353510,7.879399,-0.560378,-0.684451,-0.448014
7967598001,231.564346,17.187910,0.887015,-0.521468,-0.852876,-0.929236
7967618031,259.849823,2.284445,-4.220993,-0.456382,-0.950669,-0.926435
7967638060,288.301056,-9.018414,-6.735743,-0.392617,-1.051149,-0.741184
7967658090,307.879639,-11.591695,-5.461203,-0.207774,-1.064389,-0.304748
7967678120,313.577545,-8.048112,-2.053505,-0.098604,-0.941274,0.103327
7967698150,311.122711,-0.499957,0.050414,-0.238013,-0.929125,0.309780
7967718179,305.891937,4.541428,-0.699581,-0.264942,-0.837911,0.395454
7967738208,300.965149,5.981496,-1.244803,-0.291632,-0.762778,0.504994
7967778269,289.767120,6.627944,-5.478881,-0.422954,-0.702934,0.598815
7967798299,288.376068,3.447954,-4.884195,-0.404648,-0.669207,0.622066
7967818328,288.125214,-0.395044,-2.721475,-0.381382,-0.616045,0.696975
7967838358,286.976898,-2.857318,-1.086367,-0.359758,-0.460559,0.783850
7967858387,283.500031,-2.867115,-0.420740,-0.283045,-0.292387,0.854392
7967878417,275.365051,-1.371929,1.321822,-0.226791,-0.078165,0.953694
7967898446,263.485779,0.261163,-0.312624,-0.269320,0.073874,0.949479
7967918475,249.038910,2.341331,-2.065796,-0.183198,0.409003,0.853464
7967938504,226.922775,2.739924,-11.201117,-0.365383,0.277183,1.036345
7967958533,235.652863,2.203645,8.361871,-0.521428,-0.982514,0.726184
7967978563,266.904755,-0.189399,15.994350,-0.208912,-0.502999,0.982739
7967998592,274.540710,0.668513,-2.107659,-0.256986,0.080855,0.941893
7968018622,277.008789,0.092985,2.675097,-0.502755,0.238611,0.844869
7968038651,275.391479,-3.301705,2.445026,-0.311804,0.353594,0.854787
7968058681,274.685181,-1.189173,4.807730,-0.174744,0.374008,0.784533
7968078711,273.174438,3.776884,5.629662,-0.179474,0.513664,0.644699
7968098740,269.143005,12.337652,12.121942,-0.288143,0.657888,0.535171
7968118770,260.762726,22.029781,22.257195,-0.302976,1.144748,0.519348
7968138799,240.849197,11.191396,11.488570,-0.142279,0.907108,0.173028
7968158829,235.498917,11.370237,8.701845,-0.375803,0.567603,0.695232
7968178858,246.602234,9.596387,7.994226,-0.314902,0.557314,0.802301
7968198889,251.774841,10.154739,5.618839,-0.174060,0.817607,0.342312
7968218918,229.507248,10.775417,1.182490,-0.221302,1.124167,-0.151072
7968238948,175.652176,10.490803,1.477287,-0.254529,1.229638,-0.318709
7968258978,120.868164,12.658278,2.895946,-0.239523,1.182310,-0.388377
7968279007,87.553864,11.609987,3.116102,-0.281013,1.102470,-0.319859
7968299037,67.364578,8.296285,2.239474,-0.317100,1.073910,-0.225216
7968319066,46.137039,4.518526,2.071377,-0.384204,1.114332,-0.165405
7968339096,16.858118,2.059707,3.427481,-0.326915,1.086622,-0.160622
7968359124,-7.672791,-1.093079,2.820358,-0.231265,1.000160,-0.086558
7968419213,-29.078772,-10.598700,-1.022548,-0.289694,0.975490,-0.042089
7968439242,-28.158257,-12.751828,-1.534772,-0.289763,0.961292,-0.044047
7968459272,-24.739119,-14.464545,-2.959339,-0.283898,0.947729,-0.036226
7968479301,-17.820831,-15.417982,-3.963991,-0.286603,0.959196,-0.078798
7968499331,-6.363761,-16.364702,-4.875520,-0.291424,0.973300,-0.118368
7968519360,7.391791,-16.263596,-5.203331,-0.291266,0.980115,-0.131266
7968539390,15.597046,-15.880721,-5.179831,-0.289265,0.989892,-0.138720
7968559419,15.974259,-14.840335,-5.309699,-0.303507,0.994775,-0.148858
7968579449,14.581092,-12.989142,-4.787586,-0.335244,1.020471,-0.116453
7968599478,7.504249,-9.078101,-2.776676,-0.326473,1.042742,-0.086616
7968619509,-6.085364,-6.419571,-0.947952,-0.288565,1.043424,-0.072026
7968639539,-21.425615,-4.835136,0.138315,-0.282688,1.044836,-0.023258
7968659569,-37.730080,-5.165375,0.747355,-0.265868,1.033426,0.057340
7968679598,-60.680569,-5.956165,1.061346,-0.213470,1.025926,0.163658
7968699628,-92.589966,-6.100766,0.599786,-0.209100,1.005904,0.281861
7968719657,-129.847168,-4.838354,0.419529,-0.272210,0.980484,0.335102
7968739687,-167.664062,-2.788677,0.323376,-0.309601,0.952975,0.281016
7968759716,-193.914749,-2.827812,-0.606423,-0.293647,0.947973,0.152322
7968779744,-210.943878,-2.051362,-2.524287,-0.321980,0.910811,0.182466
7968799774,-225.899689,1.322868,-0.527844,-0.423081,0.823582,0.332568
7968819804,-242.051285,10.124665,6.487297,-0.370975,0.759011,0.385221
7968839833,-245.344467,16.020779,9.453878,-0.309787,0.784078,0.379326
7968859863,-209.768692,10.931464,5.260249,-0.297642,0.886842,0.363219
7968879892,-132.038254,0.761480,-3.775963,-0.367313,0.860023,0.429031
7968899922,-80.190704,-3.146563,-4.536948,-0.335544,0.714764,0.689578
7968919951,-87.870811,-4.327693,-5.705971,-0.202533,0.840258,0.629634
7968939981,-98.411751,-1.853347,-4.048615,-0.279586,0.840247,0.651205
7968960010,-110.383308,-1.449038,-2.268420,-0.332899,0.822932,0.615578
7968980040,-122.196022,-2.198891,-1.661268,-0.364039,0.750417,0.635034
7969000069,-132.594467,-3.277345,-1.475270,-0.341906,0.650528,0.684134
7969020099,-140.864548,-4.771853,-3.961234,-0.304207,0.568590,0.715485
7969040130,-148.118195,-5.092376,-6.585461,-0.299284,0.526239,0.788117
7969060160,-157.029373,-5.541588,-9.345886,-0.246116,0.604581,0.808329
7969080189,-169.013275,-4.643541,-12.429976,-0.248742,0.593846,0.808827
7969100219,-181.353546,-4.080787,-13.919180,-0.279038,0.502941,0.841546
7969120248,-192.156067,-2.519256,-14.763964,-0.264747,0.329716,0.853779
7969140277,-199.223297,-0.161918,-15.272430,-0.254901,0.152752,0.887359
7969160307,-202.179123,0.715677,-14.735317,-0.305817,0.070897,0.936534
7969180337,-205.669113,0.168884,-13.064347,-0.357381,0.000481,0.898527
7969200365,-209.041000,-0.397835,-10.339243,-0.336208,-0.069980,0.900319
7969220394,-215.765930,2.095106,-10.727367,-0.262973,-0.024294,0.923021
7969240424,-224.001526,3.623058,-10.721432,-0.264163,-0.089412,0.969781
7969260454,-230.578827,3.727435,-10.414623,-0.252658,-0.215761,0.896677
7969280483,-234.450760,5.439089,-10.021433,-0.266182,-0.451007,0.795684
7969300513,-232.442062,6.695719,-8.916442,-0.257515,-0.599583,0.725707
7969320542,-229.595490,7.999844,-8.213297,-0.203520,-0.645135,0.700783
7969340572,-228.702911,11.652970,-9.236795,-0.223768,-0.684792,0.665487
7969360601,-228.025040,13.650622,-9.435211,-0.294170,-0.739348,0.614266
7969380631,-229.391220,15.459190,-10.232016,-0.327438,-0.757188,0.632001
7969400660,-232.921463,15.587421,-9.347692,-0.270661,-0.770919,0.582859
7969420690,-235.782898,15.727642,-8.372160,-0.262077,-0.831275,0.441757
7969440719,-236.146408,17.998081,-8.315579,-0.290696,-0.918408,0.293046
7969460750,-233.586578,18.453182,-7.021621,-0.280544,-0.942717,0.201601
7969480780,-231.443451,19.390556,-5.572690,-0.265852,-0.962111,0.153092
7969500809,-230.529938,21.058460,-3.857532,-0.249134,-0.967913,0.114693
7969520839,-231.051178,21.699928,-1.793254,-0.230719,-0.962293,0.036714
7969540869,-230.733719,23.106543,0.507633,-0.274337,-0.992594,-0.079214
7969560898,-228.694885,23.079294,2.411957,-0.266063,-0.974593,-0.176597
7969580928,-226.403915,23.110613,4.020209,-0.280103,-0.993111,-0.251036
7969600957,-223.554657,21.782862,5.268620,-0.281601,-0.948489,-0.373438
7969620986,-216.974365,17.257854,5.514513,-0.282365,-0.900455,-0.535418
7969661044,-206.352448,19.035437,7.604967,-0.383642,-0.768394,-0.565695
7969681074,-198.425446,17.184879,6.244394,-0.174117,-0.814922,-0.777809
7969701104,-191.031677,11.853038,5.511781,-0.329411,-0.819387,-0.689628
7969721133,-194.248978,5.107061,-0.134880,-0.266771,-0.890165,-0.488692
7969741163,-200.280075,1.434059,-1.805349,-0.268949,-0.761471,-0.657344
7969761192,-200.957489,-2.069824,-3.603545,-0.267535,-0.666138,-0.762979
7969781221,-199.614197,-3.358536,-4.441271,-0.256011,-0.580287,-0.799337
7969801251,-196.164124,-5.133098,-6.100349,-0.272363,-0.469069,-0.876356
7969821281,-191.424057,-6.147702,-8.356589,-0.282701,-0.431302,-0.906576
7969841310,-188.445526,-6.796027,-8.584751,-0.311352,-0.396393,-0.864084
7969861340,-187.427841,-5.562027,-6.714257,-0.317965,-0.401128,-0.873000
7969881371,-186.380310,-4.258963,-6.899081,-0.345500,-0.301495,-0.919268
7969901400,-183.608871,-3.956768,-10.008944,-0.296742,-0.200325,-0.966839
7969921430,-179.440735,-4.194611,-10.793469,-0.281797,-0.125690,-0.989003
7969941459,-176.288666,-4.873322,-15.267275,-0.302055,-0.176397,-0.987884
7969961489,-178.795715,-3.837896,-16.892168,-0.316752,-0.251830,-1.016939
7969981518,-185.888168,-2.395166,-17.794817,-0.318277,-0.263443,-1.023370
7970001548,-194.517120,0.019468,-17.303680,-0.319990,-0.193010,-1.009692
7970021578,-200.838440,1.286856,-14.800120,-0.331360,-0.003852,-0.992425
7970041619,-200.252274,2.758064,-15.509746,-0.360377,0.203351,-0.895030
7970061635,-194.807098,3.385074,-15.140854,-0.271368,0.355798,-0.874828
7970081665,-186.255539,-1.496119,-9.045209,-0.149586,0.412352,-0.641900
7970101694,-181.057434,-13.243769,27.882254,-0.601961,0.518907,-1.113134
7970121724,-177.641357,5.704065,-2.429242,-0.404074,0.144981,-0.913900
7970141754,-189.804642,-10.228469,21.180450,0.047004,0.236133,-1.078819
7970161783,-197.489517,-15.394342,21.151869,-0.342668,0.431699,-0.850087
7970181813,-194.040817,-16.586477,22.930182,-0.352588,0.702417,-0.667713
7970201842,-184.824692,-23.316303,28.116650,-0.230959,0.798965,-0.593087
7970221872,-172.613037,-24.949238,25.785812,-0.280349,0.861547,-0.430807
7970241901,-165.812134,-31.424374,28.201504,-0.220932,0.693543,-0.818025
7970261931,-171.817261,-39.418705,31.761078,-0.246695,0.718357,-0.749926
7970281960,-177.522400,-49.619247,36.158184,-0.274655,0.664544,-0.786118
7970301991,-186.056091,-59.185635,36.795460,-0.181976,0.722507,-0.718070
7970322021,-193.639069,-71.470741,36.280792,-0.113059,0.777050,-0.647336
7970342051,-199.719040,-82.538681,33.383430,-0.127649,0.859473,-0.582631
7970362080,-205.512039,-91.282745,29.344549,-0.153602,0.945093,-0.538806
7970382110,-213.268936,-100.335220,23.305622,-0.111695,0.946879,-0.483240
7970402139,-219.560745,-109.033974,16.104376,-0.054591,0.959063,-0.320518
7970422168,-223.396133,-116.386108,5.776760,-0.014195,0.980477,-0.176606
7970462227,-231.348862,-128.535675,-18.456062,0.003018,1.061502,-0.061916
7970482256,-236.470322,-133.304306,-32.164867,0.029844,1.035596,0.057419
7970502285,-241.560242,-138.502411,-49.046955,0.068270,1.027947,0.157300
7970522315,-245.973434,-140.478882,-66.585075,0.115869,0.978696,0.290451
7970542344,-249.142151,-139.027832,-83.764694,0.117358,0.929677,0.417194
7970562374,-252.470901,-133.685242,-100.643440,0.155594,0.889708,0.514582
7970582403,-256.249390,-123.967300,-116.383934,0.180159,0.845420,0.601757
7970602433,-260.340088,-110.716064,-129.932663,0.191121,0.739459,0.689054
7970622462,-263.138428,-95.216705,-140.656357,0.210808,0.621990,0.788072
7970642492,-265.853455,-78.807915,-150.166946,0.185884,0.549106,0.880295
7970662522,-269.890778,-62.491974,-157.675705,0.184702,0.499785,0.904651
7970682551,-276.380768,-43.712566,-160.808685,0.227648,0.441448,0.912935
7970702581,-284.030731,-25.136677,-165.176437,0.265174,0.071258,1.173869
7970722610,-265.185059,-3.176740,-162.697983,0.319299,-2.113886,0.607688
7970742641,-146.642334,7.649292,-120.127693,-0.787542,-2.098611,1.233828
7970762671,-149.155945,8.874763,-121.837578,0.345487,0.195602,1.022950
7970782700,-147.443832,28.491280,-123.419312,-0.407724,-0.626497,0.925871
7970802730,-134.401901,19.913998,-97.918175,-0.402028,-0.644274,0.843635
7970822759,-118.875961,23.874756,-86.237144,0.015217,-0.703260,0.829786
7970842789,-105.126495,30.853313,-80.852722,-0.193370,-0.786695,0.864789
7970862818,-93.286682,29.780325,-68.881004,-0.168273,-0.716584,0.795093
7970882848,-81.738304,29.070454,-60.309250,-0.316338,-0.678754,0.823163
7970902876,-72.799591,27.283176,-54.823219,-0.273683,-0.625508,0.784271
7970922906,-60.388580,25.051767,-49.180141,-0.270590,-0.693207,0.753203
7970942935,-40.946346,19.406620,-40.328094,-0.328769,-0.825913,0.657089
7970962965,-22.320778,14.151184,-30.046692,-0.344078,-0.832155,0.634598
7970982994,-6.821732,8.745891,-19.454678,-0.346082,-0.827899,0.625293
7971003024,7.677199,1.661026,-7.385701,-0.376073,-0.860521,0.612544
7971023053,21.464066,-5.850648,5.664610,-0.326127,-0.802875,0.655336
7971043083,35.448185,-10.879171,14.994096,-0.346837,-0.784944,0.664112
7971063112,48.375214,-10.980141,16.654095,-0.301938,-0.705583,0.737607
7971083142,62.939304,-10.534282,18.264803,-0.317895,-0.542356,0.833438
7971103171,77.746010,-12.649447,19.229904,-0.276497,-0.457474,0.901084
7971123201,95.281097,-11.438024,20.031914,-0.266999,-0.479134,0.887709
7971143230,116.661758,-10.574059,20.899359,-0.308984,-0.465945,0.872998
7971163261,141.048752,-6.557710,15.494128,-0.293816,-0.412140,0.908616
7971183291,168.871246,-4.751811,14.612893,-0.294826,-0.382818,0.910971
7971203320,194.214554,-3.199551,15.893493,-0.338704,-0.292189,0.895576
7971223350,209.612000,-1.402420,15.468831,-0.326592,-0.279091,0.870058
7971243380,205.988144,1.105735,17.705488,-0.290115,-0.289786,0.837412
7971263409,178.222687,2.429304,18.977491,-0.333243,-0.173362,0.849656
7971283438,136.980606,3.262817,18.525953,-0.326482,-0.079282,0.860404
7971303468,97.935394,3.985720,18.068825,-0.341028,-0.122221,0.929520
7971323496,73.615196,3.707951,21.660898,-0.336720,-0.111361,0.984192
7971343526,74.996643,3.702976,22.359161,-0.310498,-0.142925,1.011624
7971363556,89.409607,4.117998,21.346643,-0.290566,-0.191449,1.033044
7971383585,108.779945,3.910317,19.522881,-0.304711,-0.107041,1.006115
7971403614,130.326111,3.949576,17.599533,-0.261841,-0.076311,1.001436
7971423644,152.367798,5.536482,17.187431,-0.209613,-0.052598,0.987349
7971443674,167.254456,7.161938,16.968683,-0.302001,-0.062322,1.004017
7971463703,166.660492,9.038557,17.255924,-0.292323,-0.011022,1.006292
7971483733,159.671860,10.452833,17.111773,-0.308124,0.187271,0.945059
7971503762,164.700882,9.658301,15.111616,-0.320900,0.304795,0.891984
7971523792,171.453583,8.199559,12.973810,-0.350413,0.323246,0.883275
7971543821,179.910141,7.281331,11.279634,-0.289011,0.344465,0.896886
7971563851,190.440033,7.661295,9.567979,-0.239236,0.367149,0.905664
7971583882,203.000824,8.075488,7.652300,-0.271586,0.388315,0.934640
7971603911,217.959839,7.785799,6.183455,-0.285574,0.413847,0.929171
7971623941,234.132874,6.200470,3.876878,-0.265429,0.474162,0.904768
7971643971,249.774887,4.570859,1.145818,-0.224195,0.580941,0.777518
7971664000,261.221100,0.470758,-2.673515,-0.287601,0.742268,0.544451
7971684030,262.523712,-7.411090,-6.230954,-0.292910,0.905590,0.109125
7971704059,250.684052,-10.709462,-7.505526,-0.276200,0.953252,-0.148889
7971724088,240.299683,-5.404840,-3.726121,-0.399422,0.850976,-0.176396
7971744116,232.853043,6.469463,0.355901,-0.566728,1.366111,-0.334023
7971764146,221.664520,-5.763852,7.315017,-0.463666,0.535634,0.144102
7971784176,239.321152,2.738418,7.926974,-0.200870,0.968799,0.703520
7971804206,269.649841,13.858173,5.566058,-0.334476,0.957705,0.702068
7971824235,303.519470,16.699131,2.844185,-0.165875,1.023179,0.492699
7971844264,325.408508,13.846740,-0.555977,-0.137165,0.875575,-0.128359
7971864294,333.589325,12.175232,-4.867371,-0.171550,0.810841,-0.426861
7971884323,336.426636,6.265998,-5.657997,-0.237221,0.748382,-0.581240
7971904353,338.906982,3.545548,-4.913655,-0.244629,0.604777,-0.642851
7971924382,341.862762,-0.427378,-4.651404,-0.244233,0.634924,-0.800048
7971944412,343.939331,-2.541093,-2.934260,-0.312852,0.473248,-0.868573
7971964442,343.517609,-2.772149,-2.136402,-0.365842,0.246994,-1.048728
7971984471,333.660736,-0.844031,-3.393242,-0.336460,-0.001927,-1.240809
7972004502,317.472229,-1.253046,1.144049,-0.219335,-0.192630,-1.246238
7972044561,296.373596,-0.162505,2.474306,-0.298892,-0.147176,-1.066805
7972064591,287.628204,-1.069483,4.198832,-0.205871,-0.450812,-1.033228
7972084620,269.397339,0.294954,7.749734,-0.324545,-0.708005,-0.927800
7972104650,247.449341,1.517884,10.898175,-0.339945,-0.612392,-0.875037
7972124679,242.593674,-0.805847,2.597764,-0.374868,-0.245337,-0.943419
7972144709,246.806793,-6.088275,-11.117377,-0.310471,-0.370826,-0.891495
7972164737,247.784073,-11.386909,-18.889568,-0.246112,-0.443742,-0.842464
7972184766,251.110641,-9.612005,-8.697343,-0.198990,-0.554478,-0.991714
7972204796,253.009872,-6.318587,-4.174811,-0.358493,-0.621382,-0.859902
7972224825,256.705261,-9.686336,-8.405894,-0.323341,-0.670433,-0.842438
7972244855,262.164429,-8.599548,-7.100675,-0.183595,-0.678935,-0.876855
7972264885,271.961365,-9.786887,-5.213187,-0.256504,-0.699084,-0.873935
7972284914,282.975159,-9.742902,-4.207391,-0.312699,-0.800995,-0.769068
7972304944,290.156525,-10.174878,-3.646798,-0.298885,-0.848538,-0.564511
7972324973,290.995544,-8.431735,-2.311413,-0.299152,-0.948034,-0.307348
7972345003,284.759369,-7.785433,-1.023314,-0.287092,-0.925949,-0.028684
7972365032,275.628326,-10.779053,-0.206472,-0.346900,-0.948275,0.052941
7972385062,261.750580,-10.336384,-1.346634,-0.289960,-1.238950,0.356647
7972405093,255.678314,3.099027,-1.697424,-0.402964,-0.828600,-0.262284
7972425122,263.800964,-2.969450,-3.037652,-0.413596,-0.988302,-0.136122
7972445152,271.540436,-7.993266,-2.165277,-0.307659,-0.981361,0.077374
7972465181,267.955444,-8.703858,0.447202,-0.151294,-0.863423,0.542222
7972485211,256.336700,-3.130279,0.766309,-0.233523,-0.662435,0.637508
7972505241,240.234268,1.570659,-0.645728,-0.302481,-0.547082,0.815112
7972525270,218.748962,5.199402,-3.431310,-0.276617,-0.414476,0.963194
7972545299,189.813095,7.759101,-5.377486,-0.246999,-0.380490,0.866670
7972565329,121.077156,3.863548,-6.765539,-0.232644,-0.354759,0.639090
7972585357,44.646965,3.325824,-8.655598,-0.213919,-0.566139,0.629131
7972605387,17.345383,7.069597,-9.026264,-0.287915,-0.585372,0.632316
7972625417,-2.865956,8.562607,-11.118488,-0.331825,-0.589637,0.692364
7972645446,-13.672050,10.639813,-12.543846,-0.340332,-0.596714,0.728130
7972665476,-20.151278,12.441067,-14.518288,-0.331660,-0.599466,0.706426
7972685505,-29.804501,15.653757,-15.998111,-0.288663,-0.598501,0.650988
7972705535,-36.839806,18.720201,-16.095499,-0.310076,-0.636449,0.667909
7972725564,-35.104919,19.489208,-15.562790,-0.339054,-0.615306,0.760023
7972745594,-28.994854,19.138588,-15.132294,-0.346717,-0.578795,0.802140
7972765623,-25.337940,19.478569,-14.655707,-0.330946,-0.541405,0.809133
7972785653,-19.093716,20.062372,-14.559021,-0.337779,-0.547455,0.854522
7972805682,-10.267999,19.909966,-14.288101,-0.375990,-0.540808,0.880072
7972825713,-5.087445,17.884825,-13.032708,-0.372737,-0.526301,0.841094
7972845743,-5.510296,16.156908,-11.441324,-0.373548,-0.529884,0.815759
7972865772,-11.726950,12.663942,-9.655952,-0.393105,-0.545427,0.799504
7972885802,-17.657436,10.012926,-8.302110,-0.383258,-0.560587,0.795781
7972905832,-27.184158,6.937674,-7.484773,-0.395695,-0.586270,0.714272
7972925861,-43.938034,4.852806,-6.482112,-0.362564,-0.605277,0.642056
7972945891,-64.631821,5.457728,-6.322809,-0.316907,-0.648922,0.611263
7972965920,-80.910675,7.050523,-6.495697,-0.317383,-0.699496,0.583947
7972985948,-94.094460,7.296423,-6.200851,-0.316433,-0.719477,0.525624
7973005978,-110.861687,7.609638,-5.112183,-0.295919,-0.735178,0.478065
7973026007,-123.287468,10.995068,-4.858497,-0.276054,-0.752713,0.512005
7973046037,-126.882370,14.345089,-5.752724,-0.287503,-0.781872,0.557561
7973066066,-121.828728,17.354900,-5.912029,-0.284619,-0.809047,0.575707
7973086096,-112.536217,18.656839,-4.758405,-0.339082,-0.869255,0.571069
7973106126,-109.984940,16.262066,-4.388287,-0.396732,-0.830671,0.466323
7973126155,-117.831841,12.337710,-2.167900,-0.332555,-0.812779,0.469266
7973146185,-118.731949,14.187437,-1.304342,-0.349954,-0.866434,0.535953
7973166214,-118.968208,12.232681,-1.234969,-0.414869,-0.856204,0.459219
7973186244,-122.610542,9.164785,-0.278371,-0.434879,-0.870384,0.396957
7973206273,-126.794312,3.197036,-0.101390,-0.462255,-0.879742,0.343475
7973226303,-138.300293,-1.133983,-0.085753,-0.370045,-0.874867,0.283669
7973246334,-149.334671,2.595610,0.582733,-0.350195,-0.964276,0.349992
7973266364,-145.101883,5.380200,0.060980,-0.322299,-1.028709,0.389106
7973286393,-135.480423,8.306254,0.298855,-0.308260,-1.030667,0.303043
7973306423,-129.499252,9.805557,0.600025,-0.317839,-0.999354,0.128167
7973326452,-128.386536,10.393117,0.519809,-0.318031,-0.974528,0.041116
7973346482,-130.006088,10.355947,0.496591,-0.296853,-0.941852,-0.056196
7973366511,-133.030182,9.659318,1.350175,-0.287672,-0.913662,-0.183780
7973386541,-137.057297,8.959779,2.021327,-0.301749,-0.945740,-0.244559
7973406569,-142.267288,8.890020,2.497066,-0.330239,-0.947408,-0.240655
7973426599,-148.584167,8.570667,1.700572,-0.297125,-0.931717,-0.296027
7973446628,-155.600647,9.523988,2.515625,-0.320864,-0.942013,-0.332843
7973466658,-164.725891,11.041453,2.528799,-0.329398,-0.988017,-0.307114
7973486687,-176.876862,9.005477,2.684079,-0.258363,-0.955970,-0.364913
7973506717,-185.694275,9.065504,4.385286,-0.279201,-0.843666,-0.514665
7973526746,-189.789764,6.891080,3.218754,-0.292381,-0.704065,-0.683212
7973546776,-189.062759,3.985808,2.826483,-0.246659,-0.677440,-0.721205
7973586835,-195.023010,3.428447,4.253718,-0.303908,-0.641587,-0.748188
7973606864,-198.482620,2.789702,3.521944,-0.290270,-0.607613,-0.809732
7973626894,-205.184189,3.096149,4.873328,-0.266447,-0.624612,-0.825570
7973646923,-211.684402,2.457767,6.255489,-0.309888,-0.497340,-0.893113
7973666954,-215.288239,2.193835,1.304844,-0.327424,-0.416355,-0.954454
7973686984,-218.926071,1.689279,-0.550295,-0.255140,-0.361958,-0.925023
7973707013,-223.189758,0.281173,1.817502,-0.257249,-0.261993,-0.977357
7973727043,-225.005127,-1.522233,3.666638,-0.285383,-0.107319,-0.948631
7973747073,-224.453094,-0.750247,3.220660,-0.309685,-0.067690,-1.002431
7973767102,-226.897324,-0.878675,6.458117,-0.279109,-0.072065,-1.003161
7973787131,-232.029266,-1.195376,8.323494,-0.277138,-0.027838,-1.045446
7973807161,-237.917282,-3.117282,11.528852,-0.273789,0.081027,-1.036168
7973827189,-240.535095,-4.469007,12.880971,-0.282002,0.277769,-0.979249
7973847219,-239.425293,-4.344870,10.795383,-0.255340,0.387735,-0.933339
7973867248,-238.595734,-4.663476,10.161563,-0.238307,0.425558,-0.908154
7973887278,-238.219940,-4.714645,9.115843,-0.257684,0.476777,-0.876590
7973907307,-239.373901,-6.972495,10.415619,-0.281409,0.547775,-0.842540
7973927337,-239.829269,-8.690536,10.361587,-0.282594,0.612468,-0.766370
7973947367,-239.410873,-10.458518,10.414543,-0.252151,0.691548,-0.691652
7973967396,-238.540634,-13.378628,10.363663,-0.236517,0.747481,-0.615107
7973987426,-236.943039,-15.474601,9.805793,-0.242225,0.799231,-0.516763
7974027485,-233.020233,-19.179081,7.662728,-0.227874,0.859872,-0.402399
7974047514,-232.337982,-20.770464,6.319222,-0.254550,0.920992,-0.358264
7974067544,-232.081619,-22.359461,5.013401,-0.246183,0.906542,-0.278471
7974087575,-232.093643,-24.510347,3.697004,-0.220169,0.942584,-0.207053
7974107604,-232.175293,-26.063541,1.185163,-0.230432,0.933956,-0.105964
7974127634,-231.585693,-26.819977,-1.007013,-0.228399,0.936225,0.003369
7974147663,-229.891129,-25.123791,-3.241994,-0.235633,0.931961,0.086837
7974167693,-227.703827,-23.252909,-4.810977,-0.237339,0.898533,0.198518
7974187723,-224.474579,-20.891111,-5.883160,-0.226467,0.890514,0.266178
7974207752,-222.632599,-20.398621,-8.191366,-0.259116,0.841995,0.311758
7974227782,-220.919510,-18.476505,-8.851156,-0.271996,0.841766,0.380748
7974247810,-219.163239,-14.159818,-8.113176,-0.217159,0.763346,0.525523
7974267839,-215.447113,-18.083551,-12.407820,-0.233191,0.743826,0.531746
7974287869,-213.415680,-17.843679,-14.842709,-0.250425,0.723629,0.608879
7974307898,-211.219208,-19.390961,-18.801678,-0.252915,0.654774,0.673294
7974327928,-208.587204,-20.476496,-22.840137,-0.221606,0.572365,0.729917
7974347957,-204.124100,-20.240637,-27.169348,-0.197108,0.523372,0.795959
7974367987,-205.639679,-23.387074,-37.189957,-0.196722,0.678351,0.678443
7974388016,-211.414993,-22.962223,-42.192928,-0.244119,0.633041,0.704824
7974408046,-217.229050,-24.279301,-51.442440,-0.203744,0.500197,0.762680
7974428076,-220.932663,-23.097452,-61.227493,-0.135154,0.375347,0.825450
7974448105,-222.953506,-20.138687,-71.891006,-0.145171,0.297151,0.890934
7974468135,-225.102264,-16.156363,-81.691246,-0.107508,0.227111,0.912444
7974488164,-227.446060,-9.439445,-91.218842,-0.065687,0.101715,0.956698
7974508195,-227.492065,-0.779716,-98.850937,-0.075216,-0.054180,0.990523
7974528225,-225.504425,9.203204,-103.649864,-0.080081,-0.260270,1.051896
7974548254,-219.667725,19.675966,-106.108177,-0.021524,-0.383478,0.920519
7974568284,-213.116196,29.648098,-106.916618,-0.023162,-0.503840,0.912806
7974588313,-206.602112,40.750801,-111.123779,-0.015701,-0.457424,0.769842
7974608343,-202.454636,49.193352,-111.071350,-0.235890,-0.606808,1.006446
7974628372,-203.337448,54.732529,-108.593452,-0.119751,-0.325192,0.917453
7974648402,-213.677917,65.633057,-108.917427,-0.109028,-0.261546,0.957290
7974668430,-226.985413,74.021599,-104.877213,0.003638,-0.245106,0.860128
7974688460,-241.614014,85.289261,-97.836548,0.073929,-0.427997,0.845793
7974708489,-252.236435,93.823280,-84.765961,-0.004022,-0.708720,0.739498
7974728519,-257.768799,103.763573,-71.037491,0.033451,-0.830567,0.615916
7974748548,-263.374359,110.590767,-57.381489,0.088812,-0.860299,0.563043
7974768578,-271.414581,118.303772,-44.454399,0.029124,-0.960732,0.479344
7974788607,-279.655182,126.081757,-30.625685,-0.027033,-1.132479,0.422158
7974808637,-289.293213,131.328094,-18.080509,0.022568,-1.055336,0.338775
7974828667,-300.103241,139.471039,-1.625108,0.075311,-1.177178,0.103515
7974848697,-296.727539,153.180786,15.298414,0.075086,-0.986554,-0.616221
7974868726,-276.131927,146.293945,30.227135,-0.002793,-0.990118,-0.892497
7974888755,-226.242554,121.276001,41.569111,-0.158523,-0.667116,-1.733678
7974908785,-207.098389,117.789253,48.947124,-0.224714,-0.756396,-0.889194
7974928816,-179.617859,94.084770,51.123215,-0.083983,-0.892982,-0.811940
7974948845,-166.713379,85.026031,50.879482,-0.336025,-0.677637,-1.016169
7974968875,-144.311157,69.915443,47.347446,-0.227807,-0.496488,-1.096908
7974988904,-124.824806,59.807487,44.242092,-0.202033,-0.626573,-0.980654
7975008934,-110.473969,46.948105,38.776569,-0.235427,-0.489304,-0.913647
7975028964,-93.021965,34.470493,31.755009,-0.284997,-0.395568,-0.987625
7975048993,-75.687141,24.167229,23.759792,-0.260335,-0.398377,-0.969357
7975069022,-61.486324,17.275732,18.122776,-0.266454,-0.439604,-0.921726
7975089069,-51.082634,12.394841,13.619520,-0.288124,-0.471569,-0.868145
7975109080,-42.958862,7.853704,9.226043,-0.292883,-0.462378,-0.861564
7975129110,-34.560318,3.730411,5.026326,-0.298775,-0.424162,-0.879748
7975149139,-24.630283,0.971464,1.521029,-0.293540,-0.385417,-0.906784
7975169168,-13.324782,-1.052676,-0.867620,-0.306939,-0.367981,-0.930394
7975189198,-2.101056,-2.757256,-3.425798,-0.324311,-0.389322,-0.891526
7975209228,6.904056,-3.870662,-5.709474,-0.308898,-0.435845,-0.864683
7975229257,14.155901,-5.703871,-7.502700,-0.308337,-0.467296,-0.845063
7975249286,20.216433,-6.577744,-8.834466,-0.319824,-0.496448,-0.831916
7975269316,25.129610,-7.369806,-10.281204,-0.312985,-0.523219,-0.793618
7975289345,28.861202,-8.557526,-11.277849,-0.303221,-0.538170,-0.786112
7975309375,32.577278,-9.943574,-12.424477,-0.298662,-0.539679,-0.782217
7975329405,36.680431,-11.483852,-13.554459,-0.289696,-0.563918,-0.774353
7975349436,40.241879,-13.172198,-14.296772,-0.291559,-0.583194,-0.762602
7975369465,43.120453,-13.948781,-14.341935,-0.293455,-0.613063,-0.730226
7975389495,44.676659,-14.053938,-13.733730,-0.305116,-0.642313,-0.700194
7975409524,45.238548,-13.398830,-12.700211,-0.314275,-0.658716,-0.673380
7975429554,45.474861,-12.452936,-11.722363,-0.309072,-0.676678,-0.660042
7975449584,45.701717,-11.619741,-10.318976,-0.303884,-0.687799,-0.648466
7975469613,46.241020,-10.712517,-9.044957,-0.304919,-0.698822,-0.662735
7975489643,47.694717,-9.361253,-7.834880,-0.291119,-0.704574,-0.659551
7975509672,49.267345,-8.565809,-6.483600,-0.285567,-0.713913,-0.641380
7975529700,50.580799,-8.127553,-5.372075,-0.292001,-0.731662,-0.621108
7975549730,51.516518,-7.024780,-4.175325,-0.299109,-0.741664,-0.600683
7975569759,52.474937,-6.036657,-3.083753,-0.305625,-0.742138,-0.590569
7975589789,54.019714,-4.808019,-1.978752,-0.306535,-0.736739,-0.593820
7975609818,56.691429,-3.533567,-1.320935,-0.317736,-0.750367,-0.603623
7975629848,60.086525,-1.981264,-0.649938,-0.315242,-0.766299,-0.607746
7975649878,63.650566,0.011743,0.055352,-0.317577,-0.777856,-0.591367
7975669907,67.282455,1.424078,0.219638,-0.317486,-0.798159,-0.577312
7975689937,70.761345,2.937548,0.792435,-0.298263,-0.814091,-0.536429
7975709966,72.922791,4.177382,1.670177,-0.295601,-0.821428,-0.483412
7975729996,74.330475,4.864314,2.180673,-0.314063,-0.839458,-0.448822
7975750025,75.275894,5.483357,2.145604,-0.319011,-0.857452,-0.419125
7975770055,75.314690,5.543510,1.985894,-0.322781,-0.865586,-0.379001
7975790086,75.785324,4.999093,1.543348,-0.326140,-0.888388,-0.354434
7975810116,74.908943,3.973954,0.891888,-0.323468,-0.897060,-0.291022
7975830145,72.419533,2.973877,0.626126,-0.317904,-0.919756,-0.215733
7975850175,67.716156,1.673677,0.430051,-0.318906,-0.940151,-0.137425
7975870204,60.869595,0.559766,0.193466,-0.323405,-0.953355,-0.070336
7975890234,52.388908,-1.103988,-0.888489,-0.449026,-1.173471,-0.131290
7975910263,48.443928,6.291382,-1.301268,-0.155215,-0.717010,-0.199254
7975930293,49.101437,2.760895,0.154130,-0.348315,-0.976501,-0.183429
7975950321,47.977627,5.020086,0.195274,-0.326104,-0.868104,-0.207902
7975970350,48.211922,2.620349,-0.034673,-0.303374,-0.931103,-0.127959
7975990380,45.094971,4.990648,0.482248,-0.317188,-0.905342,-0.063036
7976010410,40.460670,6.089342,0.743738,-0.329943,-0.932268,-0.008350
7976030439,34.295937,6.319432,0.602347,-0.323134,-0.949104,0.013150
7976050469,28.051567,5.590549,0.370402,-0.331511,-0.960326,0.009623
7976070498,22.960260,4.040355,-0.081552,-0.317314,-0.957757,-0.008837
7976090528,18.355536,2.693963,-0.277191,-0.315403,-0.947921,-0.010541
7976110558,14.093796,1.742347,-0.240933,-0.314694,-0.937848,-0.004868
7976130587,9.728205,1.400108,-0.240170,-0.316529,-0.936481,-0.002968
7976150617,5.815834,2.281319,-0.135729,-0.313625,-0.927132,-0.016163
7976170646,2.436001,3.381032,0.141523,-0.311707,-0.927618,-0.028735
7976190676,-0.427836,4.196230,0.375921,-0.317907,-0.935755,-0.048174
7976230736,-3.390316,3.032220,0.414590,-0.318361,-0.944908,-0.087248
7976250766,-3.950575,1.504211,0.116283,-0.316746,-0.943644,-0.102913
7976270795,-3.756596,0.520955,0.026065,-0.321938,-0.942370,-0.112845
7976290825,-3.653940,-0.477014,-0.056491,-0.317008,-0.946603,-0.110704
7976310854,-3.473670,-1.094840,-0.149784,-0.315364,-0.941851,-0.115016
7976330884,-3.118764,-1.812719,-0.295227,-0.320178,-0.940211,-0.125760
7976350913,-2.330894,-2.478975,-0.251341,-0.317256,-0.932978,-0.135232
7976370941,-1.458306,-2.917482,-0.254820,-0.316863,-0.935184,-0.132324
7976390971,-0.821735,-3.507278,-0.348127,-0.316613,-0.938747,-0.115007
7976411000,-0.814986,-3.636380,-0.248472,-0.309923,-0.941228,-0.102688
7976431030,-1.362598,-3.663851,-0.225760,-0.313067,-0.943171,-0.094085
7976451059,-2.145733,-3.575595,-0.113148,-0.316450,-0.940218,-0.097034
7976471089,-2.717095,-3.838924,-0.096049,-0.319282,-0.946748,-0.098875
7976491119,-3.287672,-4.026625,-0.223645,-0.316747,-0.948947,-0.099401
7976511148,-3.812276,-4.146142,-0.374537,-0.317404,-0.946918,-0.102954
7976531178,-4.177261,-4.258815,-0.502664,-0.317219,-0.945431,-0.108323
7976551207,-4.238971,-4.548035,-0.591250,-0.316803,-0.940202,-0.115115
7976571237,-4.200756,-4.456720,-0.538924,-0.315491,-0.938469,-0.116995
7976591266,-4.192143,-4.136772,-0.450621,-0.316964,-0.936775,-0.109061
7976611296,-4.540439,-3.807731,-0.483880,-0.318358,-0.939140,-0.108101
7976631327,-4.987566,-3.409382,-0.434367,-0.316416,-0.938140,-0.109886
7976651356,-5.336747,-3.247587,-0.405565,-0.313535,-0.938224,-0.114222
7976671386,-5.395968,-2.813233,-0.356166,-0.314743,-0.937887,-0.123916
7976691415,-5.305923,-2.988294,-0.210593,-0.315652,-0.937757,-0.129590
7976711454,-5.091794,-2.837831,-0.401305,-0.314954,-0.940077,-0.123027
7976731475,-5.516536,-2.530889,-0.335849,-0.314735,-0.941958,-0.097204
7976751504,-7.125100,-1.402116,0.055747,-0.292538,-0.942396,-0.076946
7976771534,-8.909269,1.348630,0.365401,-0.328825,-0.943479,-0.102560
7976791562,-9.938377,2.457381,0.241862,-0.318972,-0.940128,-0.109946
7976811591,-10.764753,3.070839,0.281805,-0.312714,-0.937400,-0.131547
7976831621,-10.800922,3.619473,0.398494,-0.320135,-0.935030,-0.155291
7976851650,-10.140320,3.364614,0.347879,-0.317791,-0.929715,-0.163420
7976871680,-9.417628,3.436801,0.317294,-0.316445,-0.929059,-0.167957
7976891709,-8.938480,3.510533,0.362399,-0.315163,-0.928188,-0.162450
7976911739,-8.672577,3.478755,0.385541,-0.316604,-0.931264,-0.164602
7976931768,-8.338938,3.149231,0.251991,-0.320957,-0.931201,-0.170698
7976951798,-7.925704,1.730393,-0.001270,-0.327870,-0.930437,-0.169525
7976971827,-7.985042,-0.105115,-0.410485,-0.311183,-0.939675,-0.149254
7976991857,-9.115926,-1.423318,-0.331725,-0.299920,-0.938333,-0.125688
7977011887,-11.189280,-0.275767,0.385520,-0.283657,-0.932286,-0.117881
7977031918,-13.375194,3.744679,1.889874,-0.275314,-0.939585,-0.108958
7977051947,-16.778065,9.185981,2.979857,-0.322761,-0.951381,-0.081628
7977071977,-21.734623,13.514669,3.502192,-0.299060,-0.950513,-0.052477
7977092006,-27.675085,19.548475,4.760362,-0.311745,-0.957841,-0.063250
7977112036,-33.691109,23.228149,5.280051,-0.322297,-0.945905,-0.068150
7977132065,-39.981270,27.482971,6.636393,-0.297332,-0.939055,-0.082379
7977152095,-46.001995,33.215790,8.806904,-0.290236,-0.928001,-0.095764
7977172124,-52.401535,39.942898,11.795334,-0.292259,-0.924253,-0.127350
7977192154,-57.897243,46.605011,14.989465,-0.284153,-0.930121,-0.160777
7977212182,-63.631359,52.942490,18.603224,-0.275559,-0.932834,-0.189147
7977232212,-69.178276,58.892105,22.614594,-0.267351,-0.937088,-0.234152
7977252241,-74.651009,64.950203,27.315069,-0.259229,-0.936171,-0.259665
7977272271,-80.810020,70.945206,32.546482,-0.256536,-0.930092,-0.289874
7977292300,-87.026840,76.777039,38.962051,-0.250473,-0.918636,-0.324179
7977312330,-93.308685,81.963821,45.860672,-0.255366,-0.911974,-0.368292
7977332360,-100.166481,86.448662,53.621696,-0.231350,-0.905520,-0.391761
7977352389,-106.406242,89.712799,61.522152,-0.244130,-0.868365,-0.486844
7977372419,-111.140739,91.134773,69.499466,-0.217621,-0.845276,-0.522809
7977392448,-116.338806,90.159065,76.761230,-0.223218,-0.792379,-0.512551
7977432508,-126.387360,84.073059,89.151146,-0.211945,-0.713797,-0.693224
7977452538,-129.734940,79.882187,96.175430,-0.143379,-0.672633,-0.734089
7977472568,-132.545837,77.067459,105.842148,-0.202036,-0.636916,-0.798892
7977492597,-136.080170,74.036079,115.586143,-0.204241,-0.621085,-0.824983
7977512627,-141.125046,69.588638,125.136612,-0.184972,-0.614033,-0.852266
7977532656,-147.366455,63.530075,133.562683,-0.110936,-0.553826,-0.868491
7977552686,-151.761688,55.705223,142.535248,-0.288967,-0.429770,-0.975590
7977572715,-154.402847,47.001740,146.496658,-0.091988,-0.375488,-1.012969
7977592745,-157.714798,36.515266,153.391861,-0.134751,-0.282299,-0.999747
7977612800,-158.986923,25.793926,157.029694,-0.118060,-0.167799,-1.034204
7977632803,-158.770187,14.026427,157.484955,-0.125616,-0.048277,-1.060244
7977652832,-155.904892,0.805264,157.642853,-0.120874,0.064000,-1.028180
7977672861,-152.838806,-11.136171,156.129608,-0.140502,0.114512,-1.015799
7977692891,-149.828156,-22.333740,153.904968,-0.176925,0.171239,-0.989026
7977712920,-147.138840,-31.532864,150.139359,-0.081430,0.252762,-1.044235
7977732950,-145.558807,-41.605759,147.366257,-0.154382,0.351666,-0.978865
7977752979,-142.135284,-50.117611,143.147888,-0.092833,0.397537,-0.928599
7977773009,-139.151535,-59.171051,137.895142,-0.124947,0.447416,-0.919256
7977793039,-137.230438,-67.739136,132.698441,-0.137430,0.472369,-0.905078
7977813068,-137.040375,-75.719635,127.473228,-0.129877,0.501310,-0.893093
7977833098,-137.762482,-83.489120,122.450508,-0.120915,0.558991,-0.859457
7977853127,-137.510300,-90.256081,116.024742,-0.134909,0.658690,-0.790200
7977873158,-135.222397,-96.917389,108.006836,-0.125726,0.710697,-0.720917
7977893188,-132.958496,-102.728912,101.399635,-0.132649,0.757317,-0.663448
7977913217,-130.144974,-107.215782,93.454704,-0.147945,0.785209,-0.618888
7977933247,-127.995255,-111.513306,86.448051,-0.114595,0.804765,-0.571240
7977953277,-126.418930,-117.829918,80.216278,-0.147910,0.851525,-0.509634
7977973306,-123.681038,-122.553749,71.856285,-0.140407,0.862961,-0.479097
7978013365,-123.285370,-130.941193,56.823341,-0.127582,0.927998,-0.398770
7978033394,-122.340126,-132.179672,47.644680,-0.103571,0.953741,-0.308400
7978053423,-118.956398,-133.314301,39.232113,-0.159003,0.977808,-0.189483
7978073452,-115.348488,-135.172287,31.113859,-0.116107,0.953874,-0.144912
7978093482,-112.254471,-136.686707,22.476881,-0.138815,0.977009,-0.104624
7978113511,-108.751022,-136.291443,14.233501,-0.124889,0.966816,0.004878
7978133541,-100.503372,-130.181396,6.171895,-0.164383,0.953603,0.284112
7978153570,-86.249023,-123.621872,0.892056,-0.217366,0.931695,0.364848
7978173600,-74.148117,-115.872131,-4.686940,-0.211097,0.935987,0.261736
7978193629,-67.025688,-110.229797,-8.734226,-0.240238,0.965266,0.175991
7978213659,-65.466568,-107.196831,-12.049575,-0.223671,0.992403,0.080744
7978233688,-64.263458,-103.681831,-15.179588,-0.257585,0.941243,0.206253
7978253718,-60.093807,-99.343155,-17.693350,-0.244022,0.904524,0.303727
7978273748,-54.787254,-95.228554,-19.400978,-0.234885,0.910260,0.325839
7978293778,-49.509125,-88.440750,-20.721634,-0.260767,0.885222,0.367364
7978313808,-42.633671,-78.773018,-20.996618,-0.204085,0.845031,0.451995
7978333837,-32.662983,-68.281754,-20.488482,-0.280483,0.786155,0.602761
7978353867,-19.153929,-56.581570,-17.069670,-0.280423,0.776906,0.548174
7978373896,-13.046787,-54.911552,-17.869278,-0.300031,0.894286,0.385890
7978393926,-9.655732,-57.620026,-18.921556,-0.363271,0.860207,0.408649
7978413956,-5.070049,-54.320663,-17.460949,-0.295011,0.847677,0.438674
7978433985,0.991597,-51.343502,-16.686895,-0.298803,0.811094,0.531302
7978454013,10.948164,-46.753529,-14.567303,-0.303164,0.809592,0.606535
7978474043,20.631630,-41.788208,-12.170454,-0.280557,0.814977,0.533278
7978494072,28.704094,-36.968060,-10.212928,-0.314908,0.815537,0.489086
7978514102,35.184677,-32.740391,-8.129883,-0.309088,0.833556,0.438406
7978534131,40.472752,-28.652809,-6.576985,-0.306625,0.842320,0.400914
7978554161,44.551205,-25.200104,-5.588001,-0.320069,0.847407,0.386227
7978574190,48.522545,-22.204746,-4.959169,-0.319388,0.833295,0.400166
7978594220,53.521240,-18.780132,-4.083236,-0.326321,0.825287,0.421981
7978614249,60.302597,-14.321457,-3.002823,-0.326623,0.812721,0.453083
7978634279,67.916542,-11.009895,-2.200497,-0.299067,0.842420,0.422765
7978654309,75.088776,-8.054479,-1.615275,-0.297089,0.866858,0.400200
7978674338,82.677132,-5.160327,-0.483426,-0.329056,0.868847,0.390022
7978694368,90.724281,-3.532310,0.606202,-0.332114,0.877799,0.357372
7978714399,97.952133,-2.001195,1.013857,-0.296385,0.893080,0.291267
7978734428,104.055702,-0.503329,1.080053,-0.300620,0.909659,0.232741
7978754458,109.573441,0.868141,1.116698,-0.294712,0.912983,0.187220
7978774487,115.259445,2.451692,1.106151,-0.295109,0.936159,0.164970
7978794517,121.259140,4.192103,0.700169,-0.299330,0.936188,0.132949
7978814547,127.885559,7.102935,0.747172,-0.302139,0.959892,0.085193
7978834576,134.262283,9.876248,0.249296,-0.281598,0.940385,0.034131
7978854605,140.209839,13.358417,-0.641426,-0.288117,0.953645,-0.030854
7978874633,145.475037,16.926323,-2.010872,-0.269160,0.937174,-0.101177
7978894663,149.690582,19.766457,-4.155671,-0.242526,0.912542,-0.201760
7978914692,152.904526,18.116018,-3.222824,-0.309015,0.984837,-0.172776
7978934722,161.700012,14.065658,-3.207309,-0.299986,1.009552,-0.030347
7978954752,175.678009,14.224749,-4.051082,-0.228540,0.952859,-0.084852
7978974781,188.480865,14.249062,-6.084683,-0.216579,0.928159,-0.205120
7978994811,198.966995,15.483366,-9.592913,-0.231515,0.886002,-0.349266
7979014840,207.200745,16.830889,-12.405626,-0.248501,0.806733,-0.437005
7979034870,213.676498,17.730844,-15.268505,-0.271265,0.766037,-0.573322
7979054899,216.870865,18.049000,-17.491190,-0.266170,0.667078,-0.729446
7979074929,216.129822,16.283268,-18.598875,-0.227901,0.567157,-0.865045
7979094958,212.765121,13.125823,-18.937931,-0.215626,0.485630,-0.908965
7979114989,210.733765,10.103770,-17.654909,-0.237984,0.440483,-0.922070
7979135019,209.703644,7.804790,-17.075027,-0.244959,0.428961,-0.922473
7979155048,210.581512,5.603254,-13.932291,-0.250736,0.368030,-0.917287
7979175078,213.022736,4.534983,-13.126019,-0.282667,0.335159,-0.916467
7979195107,216.949432,3.807429,-12.784399,-0.296356,0.310019,-0.917470
7979215137,222.432709,3.295274,-13.846525,-0.277534,0.260649,-0.953316
7979235166,228.793533,2.163840,-14.334370,-0.253680,0.184036,-0.945786
7979255196,235.205353,0.713389,-14.538971,-0.267448,0.090865,-0.995896
7979275225,240.087601,-0.834558,-14.455374,-0.260800,-0.048435,-1.013783
7979295254,242.000458,-2.316608,-13.031733,-0.252660,-0.211189,-1.009861
7979315283,241.039673,-3.500922,-11.346606,-0.261451,-0.342240,-0.988758
7979335313,238.554962,-4.161738,-10.311092,-0.267391,-0.445892,-0.951743
7979355342,235.102997,-5.037406,-9.046779,-0.257867,-0.521068,-0.909650
7979375371,231.819351,-5.670419,-7.792003,-0.269683,-0.575185,-0.863417
7979395401,229.267715,-6.248348,-7.113577,-0.274072,-0.609029,-0.818611
7979415431,227.726776,-7.106284,-6.621862,-0.266284,-0.651503,-0.743469
7979435460,226.329941,-7.888205,-5.933583,-0.282627,-0.729017,-0.726101
7979455490,224.480865,-6.799123,-4.139079,-0.294895,-0.767127,-0.643758
7979475519,222.159042,-7.479382,-4.104162,-0.281051,-0.819438,-0.559662
7979495549,218.909424,-7.298439,-2.947189,-0.293483,-0.885738,-0.485342
7979515578,214.931259,-7.099710,-2.177406,-0.306080,-0.919564,-0.403239
7979535609,210.574219,-6.793279,-1.666502,-0.279781,-0.954401,-0.329825
7979555639,205.922729,-5.677185,-0.783434,-0.296721,-0.960533,-0.259313
7979575668,202.112137,-7.604408,-0.420317,-0.290601,-0.953138,-0.206012
7979595698,199.082062,-8.256810,-0.006871,-0.296635,-0.955350,-0.163587
7979615728,197.139694,-6.874756,0.481005,-0.302066,-0.952591,-0.099379
7979635757,194.804871,-6.876954,0.677029,-0.306965,-0.975139,-0.022524
7979655786,191.661301,-5.832587,0.712233,-0.319036,-0.967711,0.044632
7979675816,188.552933,-5.328221,0.933959,-0.318538,-0.943868,0.110775
7979695863,185.070602,-3.704596,0.660850,-0.293851,-0.919319,0.186447
7979715874,181.838593,-2.142833,0.494532,-0.322698,-0.934094,0.236418
7979735903,179.129715,-0.941611,0.323912,-0.309226,-0.912109,0.279018
7979755933,177.138733,-0.641649,0.373505,-0.300452,-0.902871,0.325988
7979775962,175.528107,-0.320942,0.400362,-0.309686,-0.893399,0.351853
7979795992,175.722672,-0.754486,0.805948,-0.316787,-0.873046,0.368177
7979816021,176.403732,-1.358621,1.046396,-0.323798,-0.852556,0.407874
7979836051,177.504456,-1.592035,1.276351,-0.310833,-0.807875,0.464187
7979856081,177.730530,-1.851061,1.566756,-0.319003,-0.766641,0.540940
7979876110,177.190735,-1.932286,1.461027,-0.333217,-0.720929,0.605676
7979896140,176.279755,-1.630762,1.412562,-0.302608,-0.676938,0.636434
7979916169,175.583786,-0.766939,1.412555,-0.304184,-0.648367,0.674742
7979936199,175.304260,-0.308686,1.431318,-0.306877,-0.599324,0.718242
7979956230,174.842850,0.065862,1.170158,-0.318210,-0.546532,0.752782
7979976259,174.196320,0.061928,1.245700,-0.317852,-0.501146,0.779500
7979996289,173.928818,-0.065162,1.512012,-0.323559,-0.460200,0.808908
7980016318,173.729660,-0.246049,1.733315,-0.320797,-0.398302,0.828698
7980036348,173.166534,-0.387764,1.711487,-0.319657,-0.341634,0.856902
7980056377,172.643219,-0.248721,1.490185,-0.326734,-0.288954,0.874712
7980076407,171.768585,-0.320231,1.482780,-0.318044,-0.209798,0.912194
7980096436,169.840118,0.008270,1.062073,-0.313238,-0.144887,0.912872
7980116470,168.063202,0.420561,0.898528,-0.313190,-0.069216,0.932471
7980136494,165.761093,0.293555,0.246420,-0.313139,-0.017064,0.923733
7980156523,163.885010,0.286334,-0.330667,-0.317669,0.013684,0.919562
7980176553,162.592911,0.346254,-0.392452,-0.315380,0.069650,0.926233
7980196583,161.034668,0.185982,-0.710308,-0.325371,0.122365,0.909669
7980216612,159.520081,-0.094807,-0.579787,-0.328342,0.159650,0.907501
7980236641,158.545166,-0.347752,-0.373418,-0.325222,0.201602,0.895250
7980256671,157.829926,-0.427463,-0.304855,-0.318547,0.251928,0.880121
7980276701,156.970596,-0.506818,-0.357679,-0.313015,0.313631,0.867727
7980296730,156.142792,-0.595071,-0.744026,-0.312373,0.348444,0.848157
7980316760,155.489197,-0.691248,-0.948251,-0.316185,0.395638,0.834563
7980336789,154.826187,-1.137102,-1.028232,-0.323736,0.454488,0.809879
7980356819,153.761200,-1.306682,-1.072815,-0.317921,0.502213,0.772985
7980376850,152.345551,-1.725689,-1.145803,-0.314184,0.544584,0.750523
7980396879,151.585876,-1.714666,-1.328233,-0.316151,0.571848,0.731845
7980416909,151.243027,-2.025486,-1.492596,-0.317383,0.603176,0.702809
7980436938,150.808777,-2.228649,-1.475936,-0.309200,0.651013,0.659655
7980456968,149.501953,-2.299065,-1.839918,-0.301571,0.704584,0.602303
7980476997,147.722595,-2.572188,-2.111441,-0.311378,0.750370,0.570797
7980497027,146.033325,-3.028034,-2.252490,-0.317061,0.761068,0.538394
7980517056,144.929047,-3.494208,-2.279438,-0.311912,0.772403,0.510282
7980537089,144.424957,-4.131245,-2.372901,-0.314693,0.787170,0.479881
7980557114,144.475830,-4.534217,-2.157193,-0.314018,0.806824,0.451316
7980577144,144.732925,-4.686996,-1.913159,-0.317812,0.837079,0.405613
7980597173,144.365524,-5.049441,-1.622173,-0.309332,0.850186,0.351005
7980617203,144.219177,-5.283685,-1.339739,-0.316304,0.877214,0.315537
7980637232,144.036636,-4.992180,-0.955587,-0.299578,0.895648,0.275992
7980657262,144.128159,-4.908886,-0.941078,-0.304955,0.904540,0.240565
7980677291,144.545746,-4.902875,-0.758956,-0.304925,0.901630,0.208221
7980697321,145.617920,-4.755837,-0.615612,-0.303447,0.923282,0.164076
7980717350,146.798492,-4.022848,-0.348240,-0.304333,0.920634,0.103236
7980737380,147.285522,-3.765996,-0.160608,-0.304499,0.942268,0.048018
7980757409,147.509888,-2.601692,0.102680,-0.302478,0.942046,0.005688
7980777439,148.190765,-1.356078,0.365507,-0.298768,0.936405,-0.031004
7980797470,149.108246,-0.181443,0.265102,-0.291082,0.926158,-0.062744
7980817499,150.831345,0.790516,0.015147,-0.291006,0.938140,-0.102892
7980837529,152.721664,1.692831,-0.309964,-0.282125,0.922631,-0.155477
7980857558,153.906326,2.880232,-0.721213,-0.285054,0.914141,-0.227634
7980877588,154.869888,3.916572,-1.131300,-0.289442,0.904385,-0.299917
7980897618,154.820312,4.646888,-1.334591,-0.289695,0.883437,-0.363017
7980917647,154.300873,5.378140,-2.000626,-0.281983,0.856560,-0.433071
7980937677,152.768524,5.818412,-2.513065,-0.277336,0.825043,-0.500844
7980957715,150.686829,5.973115,-2.795908,-0.285786,0.808044,-0.560480
7980977735,148.270126,5.877850,-3.243622,-0.282678,0.773099,-0.600922
7980997764,145.945709,6.033253,-3.700977,-0.318710,0.721873,-0.619053
7981017793,143.352448,6.689572,-5.019447,-0.174566,0.633929,-0.750174
7981037823,134.971268,4.703715,-4.392674,-0.352273,0.625007,-0.827732
7981057852,131.267578,7.506258,-7.556990,-0.250160,0.654040,-0.650063
7981077882,134.453796,2.177061,-5.069264,-0.165306,0.743193,-0.595913
7981097912,145.042389,1.886307,-6.949648,-0.394015,0.883668,-0.432541
7981117941,154.310471,4.244709,-6.305326,-0.225966,0.549372,-0.863261
7981137971,150.762695,4.184081,-9.559258,-0.285383,0.501098,-0.894161
7981158000,150.590240,4.495900,-9.910736,-0.283904,0.529040,-0.813358
7981178030,154.253967,5.027644,-11.255464,-0.287244,0.536760,-0.758655
7981198059,160.583847,4.951590,-12.586215,-0.279609,0.529172,-0.809270
7981218090,167.512497,3.896037,-12.247972,-0.270500,0.486710,-0.847858
7981238120,175.305420,3.228125,-12.981642,-0.259033,0.470966,-0.862607
7981258149,184.961700,2.175138,-14.378404,-0.253248,0.481049,-0.879674
7981278179,197.710953,1.382411,-14.994898,-0.260337,0.412411,-1.020834
7981298208,206.506516,1.000592,-15.086006,-0.244930,0.268106,-0.939023
7981318237,213.509995,-0.573887,-15.023909,-0.278717,0.109794,-0.980749
7981338267,216.136826,-1.569803,-12.777553,-0.283717,-0.023492,-0.970926
7981358297,215.331207,-2.161920,-11.302041,-0.279288,-0.188046,-0.951104
7981378332,210.467834,-3.384374,-8.996750,-0.287839,-0.356105,-0.909798
7981398354,202.561829,-5.506570,-9.687890,-0.279841,-0.459260,-0.910531
7981418384,197.012482,-8.650138,-16.146881,-0.283546,-0.417451,-0.875239
7981438413,194.695297,-12.705938,-21.686798,-0.309623,-0.461826,-0.923089
7981458443,193.180328,-12.252791,-25.141195,-0.430145,-0.606210,-1.200904
7981478472,199.239380,-6.673882,-13.470749,-0.173855,-0.184028,-0.892843
7981498502,212.024536,-10.483884,-19.460354,-0.342023,-0.338748,-1.001903
7981518531,225.539032,-9.519852,-14.798916,-0.165415,-0.448420,-0.907658
7981538561,230.991058,-7.791248,-8.244687,-0.259776,-0.682338,-0.726485
7981558591,228.126770,-12.937201,-10.606394,-0.259379,-0.860120,-0.541518
