Timestamp (us),Gyroscope X (deg/s),Gyroscope Y (deg/s),Gyroscope Z (deg/s),Accelerometer X (g),Accelerometer Y (g),Accelerometer Z (g)
7316217149,-2.565466,2.039407,-0.709646,0.926099,0.229459,0.379484
7316237150,-4.397987,1.699129,-1.201289,0.912619,0.227043,0.374916
7316277151,-4.296334,2.123086,-0.162566,0.880316,0.200021,0.363604
7316297152,-3.971249,1.511469,-0.313265,0.871297,0.200050,0.364972
7316317152,-2.380865,0.654232,-0.050667,0.862894,0.194821,0.355573
7316337153,-0.412273,0.661554,1.065009,0.862879,0.187379,0.350031
7316357153,2.535000,-0.367948,1.177802,0.872526,0.207990,0.356288
7316377154,1.690913,-1.419135,0.897648,0.890503,0.215237,0.368399
7316397156,1.513611,-1.756868,0.314840,0.910756,0.218957,0.359788
7316417156,2.347435,-1.182344,-0.246324,0.931201,0.223674,0.363935
7316437157,1.473944,-0.350120,-0.534882,0.926448,0.225311,0.382379
7316457157,0.008414,-0.479118,-1.279937,0.911218,0.220315,0.385495
7316477158,0.012115,0.328674,-1.374807,0.906189,0.215847,0.377121
7316497158,0.170907,1.670298,-1.358817,0.904667,0.223511,0.370421
7316517157,-0.485923,1.496538,-1.408224,0.904701,0.218523,0.364933
7316537158,-0.931310,0.828028,-1.144782,0.901572,0.209187,0.368603
7316557158,-0.465619,0.859488,-0.660694,0.897152,0.207136,0.358465
7316577159,0.556676,0.894681,-0.673123,0.894359,0.205051,0.361114
7316597160,1.578064,0.768295,-0.996387,0.895348,0.205242,0.363219
7316617160,1.148448,0.243221,-1.030041,0.897201,0.220835,0.375677
7316637161,0.887069,-0.198135,-0.996449,0.897775,0.225976,0.373688
7316657161,1.133889,0.337183,-0.513646,0.903647,0.219872,0.375118
7316677162,0.568444,0.117986,-0.441675,0.899188,0.222612,0.382055
7316697162,-0.638654,-0.246474,-0.837274,0.907645,0.223870,0.374550
7316717164,-0.381653,0.903645,-0.950052,0.910512,0.226456,0.375269
7316737165,-1.328275,0.738580,-0.944980,0.897118,0.220821,0.374582
7316757165,-1.384069,0.249539,-1.200886,0.894023,0.218533,0.368931
7316777166,0.296039,0.657304,-1.043223,0.903141,0.224919,0.371296
7316797166,-0.011977,-0.003650,-0.712049,0.897020,0.230967,0.378256
7316817167,-2.246927,0.053738,-1.196057,0.897077,0.214861,0.364548
7316837186,-0.466425,0.844989,-2.127296,0.892789,0.209392,0.363586
7316857167,1.951450,0.763888,-1.712410,0.891747,0.215455,0.372786
7316877167,1.110311,0.279886,-1.364404,0.894413,0.231435,0.375395
7316897167,-0.829233,-0.135268,-1.627239,0.891880,0.228350,0.365657
7316917168,0.449005,-0.803600,-1.918823,0.896690,0.221063,0.371746
7316937168,1.907571,-0.442061,-1.995518,0.903931,0.224013,0.372686
7316957169,0.949644,0.173701,-1.340391,0.897797,0.232273,0.375416
7316977170,0.972440,0.172852,-1.507677,0.889806,0.225024,0.377910
7316997170,0.633980,-0.385080,-1.989959,0.897152,0.233245,0.378861
7317017170,0.214383,-0.406446,-1.919551,0.898194,0.237219,0.372243
7317037173,-0.645535,0.023336,-1.841578,0.897027,0.221596,0.365083
7317057173,0.788673,0.035556,-1.627804,0.897362,0.220699,0.366377
7317077174,0.620251,-0.130216,-1.307111,0.895908,0.239745,0.380208
7317097174,0.503576,-0.625142,-1.228341,0.892410,0.237933,0.369072
7317117174,0.991012,-0.757392,-1.495945,0.897606,0.226050,0.372226
7317137175,-0.045245,-0.517874,-1.446701,0.904971,0.232992,0.379126
7317157176,-0.340944,-0.135653,-1.416686,0.907009,0.235256,0.368804
7317177175,-0.279660,-0.155424,-0.717737,0.894365,0.229168,0.375703
7317197175,-0.143155,-0.265229,-1.287813,0.895242,0.225344,0.370206
7317217176,-0.237202,-0.769804,-1.627066,0.897882,0.240147,0.373107
7317237176,0.876885,-0.674086,-1.685785,0.890322,0.236460,0.364696
7317257177,0.385080,0.196250,-1.748278,0.889188,0.223398,0.371361
7317277177,0.308042,-0.000352,-1.443062,0.889571,0.232822,0.369852
7317297178,-0.236307,-0.615636,-1.270601,0.893945,0.244844,0.365151
7317317178,0.632059,-0.848086,-1.539490,0.901833,0.235160,0.367112
7317337179,1.549417,-0.430608,-1.393587,0.906743,0.237701,0.374146
7317357179,1.471621,-0.802079,-0.981183,0.901080,0.247334,0.378228
7317377181,0.098226,-0.845577,-1.324282,0.895614,0.250220,0.374845
7317397182,-0.379620,-0.264595,-1.294335,0.891585,0.238528,0.371335
7317417182,-0.326519,-0.391624,-0.708853,0.887077,0.237022,0.373776
7317437183,-1.094757,-0.011950,0.121263,0.891753,0.237323,0.369987
7317457184,-0.096809,-0.260195,-0.186144,0.896176,0.239388,0.368358
7317477184,1.604282,-0.234906,-0.277622,0.903125,0.244188,0.364706
7317497183,0.419823,-0.740489,0.140445,0.896344,0.240543,0.373085
7317517184,0.503974,-0.709302,0.337502,0.896315,0.239276,0.373469
7317537185,0.483476,-0.198239,0.365676,0.892114,0.240736,0.367567
7317557185,0.505652,-0.358103,0.434693,0.890276,0.242225,0.373637
7317577185,-0.999374,-0.849951,0.337407,0.897115,0.245368,0.368367
7317597186,0.314775,-0.373809,0.222855,0.897852,0.240506,0.366351
7317617186,0.986895,-0.177860,0.135304,0.898725,0.239141,0.367567
7317637187,0.480560,-0.779747,-0.064837,0.897968,0.246984,0.368168
7317657187,-0.159248,-0.594263,0.081632,0.900775,0.242023,0.368729
7317677188,0.072487,0.001098,0.351451,0.893660,0.236157,0.367562
7317717191,-0.630682,-0.301902,0.356036,0.899318,0.239793,0.363184
7317737191,0.354161,-0.114285,0.305091,0.901712,0.238067,0.366792
7317757191,0.535837,-0.419578,0.351241,0.898319,0.242454,0.369792
7317777192,-0.188475,-0.363441,0.506282,0.897487,0.239006,0.362631
7317817193,0.377486,-0.037319,0.471821,0.894450,0.242361,0.363917
7317837192,-0.148885,-0.065544,0.641539,0.903082,0.249478,0.372195
7317857193,-0.346035,0.120895,1.257141,0.906776,0.239637,0.363353
7317877193,0.824090,0.751687,1.514913,0.910030,0.245851,0.370405
7317897194,0.856996,1.248062,1.694896,0.909644,0.265122,0.376125
7317917194,-1.751699,1.204321,2.185769,0.919529,0.277853,0.378310
7317937195,-4.569902,2.045367,2.612793,0.940535,0.263023,0.376834
7317957195,-7.660492,5.116587,2.035439,0.942472,0.245013,0.385339
7317977196,-10.322108,7.060293,0.298538,0.913511,0.217682,0.376437
7317997196,-10.542498,8.941644,-0.263735,0.875735,0.177828,0.368733
7318017197,-4.867743,8.842411,-0.137220,0.841604,0.172744,0.356701
7318037199,-2.091720,5.295282,1.203662,0.825441,0.173333,0.342208
7318057199,1.930752,0.812686,2.178323,0.842646,0.174907,0.356952
7318077200,5.010777,-2.767120,1.610531,0.871450,0.197743,0.362820
7318097200,5.750679,-4.342919,0.975950,0.893437,0.201004,0.375488
7318117201,7.137401,-4.630960,0.545359,0.891796,0.224120,0.400292
7318137201,6.238914,-5.756743,-1.041294,0.886913,0.242069,0.395862
7318157200,5.115750,-4.430479,-1.817308,0.894470,0.243971,0.400196
7318177201,3.951673,-2.117898,-2.042855,0.892222,0.257307,0.407722
7318197201,0.947816,-1.686818,-2.973405,0.897446,0.272666,0.396046
7318217202,-2.971818,-1.417898,-3.260693,0.908759,0.266115,0.387047
7318237202,-4.407774,-0.230097,-2.856753,0.921658,0.247691,0.389193
7318257203,-4.073944,1.027051,-2.863977,0.926659,0.251679,0.376686
7318277204,-4.449123,2.516128,-4.244493,0.946634,0.267070,0.363789
7318297204,-6.646639,4.177435,-5.761854,0.971807,0.279540,0.376712
7318317205,-8.965527,6.049732,-7.887562,1.007334,0.289458,0.385583
7318337205,-15.726208,9.223593,-11.541546,1.020499,0.274061,0.396351
7318357207,-21.297483,14.160478,-17.382364,1.033309,0.211116,0.400001
7318377207,-20.848911,20.938198,-22.179922,0.997601,0.141173,0.376361
7318397208,-12.234154,26.619368,-23.400127,0.945336,0.114672,0.359185
7318417208,-2.391731,28.524626,-20.961138,0.884561,0.158241,0.353434
7318437209,6.655486,29.713337,-15.703518,0.810480,0.216723,0.353705
7318457210,7.916040,24.976826,-13.620787,0.714741,0.259826,0.384278
7318477210,3.813753,12.162804,-13.695948,0.706233,0.267115,0.385540
7318497209,4.708126,3.943148,-9.893501,0.765705,0.263282,0.415478
7318517210,7.017570,1.133702,-2.740341,0.784272,0.269001,0.429716
7318537210,9.678423,2.162603,0.381366,0.797540,0.275819,0.449356
7318557211,10.138800,1.072198,0.650183,0.811409,0.302479,0.477911
7318597212,4.443498,3.467805,-0.846929,0.842247,0.320792,0.456595
7318617212,3.196334,2.625768,-0.670229,0.828616,0.312231,0.467080
7318637213,4.342407,2.851514,1.002965,0.808196,0.350756,0.454515
7318657213,0.389659,-0.890799,2.215882,0.794810,0.338579,0.447726
7318677214,-3.211999,-2.700290,1.176630,0.814886,0.311021,0.451088
7318697216,-2.832920,-3.065501,-0.054538,0.833528,0.294449,0.445054
7318717216,-0.011764,-1.816717,1.271996,0.825671,0.294320,0.437132
7318737217,-0.773520,-3.437683,3.114264,0.808020,0.315059,0.443568
7318757217,-5.607121,-6.228426,3.468166,0.819111,0.297737,0.412112
7318777218,-3.974544,-7.797419,3.194245,0.813726,0.236146,0.407166
7318797218,-0.095376,-10.398990,5.209742,0.772391,0.160854,0.414292
7318817217,4.528478,-13.802743,8.965721,0.697250,0.090124,0.404315
7318837218,10.153918,-13.331864,11.939628,0.697820,0.130575,0.354168
7318857219,19.032379,-11.909901,13.176914,0.844581,0.267352,0.289419
7318877219,21.288076,-12.556526,14.848995,0.934579,0.301006,0.328757
7318897220,15.478662,-14.966898,12.804240,0.908969,0.321966,0.364299
7318917220,11.747957,-20.812002,4.754485,0.913201,0.331865,0.395295
7318937221,11.318362,-22.793699,3.040381,0.902444,0.231464,0.395634
7318957221,18.306055,-18.305662,8.201262,0.870539,0.179891,0.409879
7318977222,28.350363,-17.774834,15.227955,0.890607,0.248740,0.429182
7318997222,33.462738,-13.739298,26.836092,0.947053,0.313705,0.383418
7319017224,31.798758,-8.648272,38.326008,0.983540,0.353066,0.380170
7319037225,23.209454,-7.609490,43.315304,0.996839,0.332788,0.361369
7319057226,25.123014,-3.480058,48.637772,1.008225,0.262267,0.341679
7319077226,28.964510,9.302130,61.283569,1.075767,0.166197,0.347757
7319097226,33.241238,19.906696,79.735550,1.029431,0.086102,0.342227
7319117227,42.576447,16.585550,92.550835,1.021095,0.048118,0.356318
7319137231,52.918587,34.283859,108.670746,1.135324,-0.064978,0.410652
7319157227,60.057583,50.115211,127.997871,1.235518,-0.196244,0.375093
7319177227,68.738342,55.906464,135.660507,1.271518,-0.188006,0.400596
7319197228,64.754097,60.962059,144.706589,1.179291,-0.163284,0.435136
7319217228,57.186451,61.423691,154.063431,1.078486,-0.138123,0.462285
7319237229,51.512463,67.167053,164.048859,1.036202,-0.164813,0.529222
7319257229,46.180168,74.059944,175.471375,1.069933,-0.194150,0.561938
7319277230,35.954002,80.444435,182.860504,1.099750,-0.161341,0.580160
7319297230,24.322252,84.984818,188.022598,1.053663,-0.178567,0.553234
7319317231,23.085037,83.798027,195.990143,1.002649,-0.201734,0.535837
7319337233,23.493717,82.554810,201.039856,0.911615,-0.213092,0.534730
7319357233,18.387121,79.075188,195.789841,0.794551,-0.214288,0.525452
7319377234,16.211805,75.136932,183.924652,0.683484,-0.199731,0.546002
7319397234,15.890756,69.947670,169.807266,0.611983,-0.198386,0.546721
7319417235,18.438982,67.182922,150.855423,0.582255,-0.143988,0.543305
7319437235,13.587172,64.663254,127.695831,0.494207,-0.067540,0.514244
7319457236,0.455128,45.186790,101.444016,0.423882,-0.000438,0.487147
7319477235,-17.090734,25.473852,67.644501,0.388217,0.019556,0.491133
7319497235,-33.462051,9.517906,29.217379,0.292645,-0.078631,0.463311
7319517236,-41.243660,-19.359341,-9.919936,0.207888,-0.191229,0.365673
7319537236,-33.529961,-53.973686,-35.552410,0.282570,-0.257867,0.349023
7319557237,-12.338757,-60.112999,-37.741592,0.558366,-0.439774,0.522342
7319577237,3.613900,-39.253712,-12.474044,0.749390,-0.735338,0.759037
7319597238,11.477423,-21.167337,31.263813,0.678403,-0.985868,0.953088
7319617239,31.051250,-16.975334,39.377880,0.732163,-0.895592,0.804381
7319637239,44.453140,-19.837519,4.524681,0.768406,-0.315477,0.663933
7319657239,11.536025,-26.794373,-12.574310,0.541294,0.041545,0.729864
7319677241,-41.811577,-21.378983,-13.305090,0.525917,-0.125164,0.777970
7319697242,-57.698387,-3.516342,-7.135234,0.609641,-0.471198,0.771907
7319717242,-43.369770,6.120600,-13.399832,0.664908,-0.528769,0.724820
7319737248,-36.547436,8.453288,-28.944216,0.665558,-0.470791,0.686264
7319757244,-14.438271,8.466812,-37.199356,0.605679,-0.443477,0.663988
7319777244,-4.580515,6.046093,-40.189548,0.605870,-0.344628,0.603089
7319797243,-14.857575,3.110474,-47.979416,0.642807,-0.253813,0.581541
7319817244,-13.919775,0.665567,-56.597858,0.612757,-0.276964,0.640794
7319837244,-7.508485,3.197096,-72.262856,0.658100,-0.272178,0.661245
7319857245,-1.472575,12.404997,-92.067642,0.784392,-0.053519,0.666089
7319877245,-12.411585,24.122826,-110.385193,0.839497,0.191371,0.753186
7319897246,-60.177536,29.254833,-127.554749,0.839168,0.320104,0.823266
7319917246,-123.161499,25.237745,-152.037857,0.829223,0.392645,0.757470
7319937247,-177.883118,8.240243,-175.397980,0.934573,0.378734,0.551317
7319957248,-207.260162,17.310291,-187.289062,1.192829,0.257685,0.402989
7319977248,-182.510056,31.361805,-200.377090,1.157630,0.130243,0.237119
7319997250,-145.955261,44.993950,-216.146484,1.118571,0.127247,0.185873
7320017250,-116.729210,52.913986,-236.522522,1.049588,0.242885,0.204747
7320037251,-115.351837,47.353390,-252.386230,1.038248,0.391447,0.094076
7320057251,-127.365555,35.316456,-262.224335,1.055673,0.508641,-0.063256
7320077252,-143.493240,18.680515,-265.016174,1.112588,0.464625,-0.158058
7320097252,-156.223373,2.904038,-269.484100,1.161342,0.420661,-0.140564
7320117252,-178.125320,-11.915380,-273.732086,1.218903,0.505337,-0.115836
7320157253,-261.597351,-17.756611,-265.337402,1.614447,0.607046,-0.293296
7320177253,-289.219879,-17.689781,-254.633301,1.635723,0.495729,-0.309523
7320197254,-270.457520,-46.789734,-263.554321,1.559579,0.476858,-0.337091
7320217254,-270.149933,-39.165329,-268.370239,1.848628,0.422810,-0.318939
7320237255,-324.991211,-13.053369,-199.547699,1.994314,-0.195393,-0.429656
7320257255,-304.405365,-3.402796,-140.600632,1.850196,-0.975232,-0.423778
7320277256,-195.711716,-2.346623,-97.360168,1.422671,-1.296409,-0.142565
7320297256,-69.379951,-12.858481,-94.165909,1.200837,-0.967581,0.082752
7320317258,-1.198776,-32.720890,-101.941055,1.065041,-0.291731,0.170883
7320337259,-5.124377,-52.138657,-84.128647,0.980935,0.205979,0.242934
7320357259,-43.415058,-64.090096,-62.211056,0.946749,0.423661,0.240340
7320377260,-97.796654,-64.444649,-48.464619,0.941244,0.494228,0.252882
7320397260,-148.581131,-62.774284,-44.653324,0.916541,0.451856,0.323613
7320417261,-187.398209,-66.407608,-54.110703,0.921172,0.373135,0.343477
7320437276,-209.024658,-69.635674,-72.532059,1.001248,0.341129,0.296430
7320457261,-211.141281,-67.555649,-83.900429,1.080181,0.354663,0.222037
7320477261,-197.682541,-62.396751,-79.767662,1.065318,0.328798,0.171294
7320497262,-176.635742,-56.700924,-68.779388,1.036404,0.269443,0.167081
7320517262,-153.638077,-48.106247,-57.957561,1.017602,0.251009,0.185053
7320537263,-140.064728,-36.651077,-50.920517,0.967150,0.270079,0.204229
7320557263,-139.593964,-27.433733,-49.277401,0.904146,0.295205,0.214975
7320577264,-155.032684,-21.887421,-54.650341,0.914872,0.345390,0.205829
7320597264,-180.051758,-16.196037,-60.846508,0.971053,0.374038,0.181873
7320617265,-205.870743,-13.940607,-63.649338,0.982209,0.354140,0.135680
7320637266,-225.973633,-16.192060,-64.763199,0.994095,0.308552,0.092989
7320677268,-218.246506,-15.018635,-60.305012,1.065455,0.126287,0.052816
7320697268,-194.612991,-13.261322,-56.758057,1.052894,0.068964,0.068712
7320717269,-166.383209,-12.255460,-52.977901,1.033891,0.050347,0.111770
7320737269,-145.256500,-9.954994,-48.928001,1.026344,0.077240,0.156706
7320757270,-138.330643,-7.084489,-45.651737,1.021130,0.132568,0.197398
7320777269,-143.420929,-4.420486,-44.835033,1.000580,0.167139,0.225941
7320797269,-154.290146,-2.417974,-47.081856,1.021610,0.167191,0.248044
7320817270,-167.640610,0.772771,-49.459530,1.057472,0.145635,0.249557
7320837270,-176.775070,4.621629,-47.178249,1.034449,0.107966,0.257566
7320857271,-180.582199,10.539714,-42.719276,1.028000,0.062436,0.255373
7320877272,-179.063339,18.616957,-39.669899,1.026310,0.002436,0.259106
7320897272,-168.174774,22.527254,-38.301086,1.010784,-0.034901,0.263354
7320917272,-155.566467,27.201820,-37.148781,1.042318,-0.021799,0.279068
7320937273,-146.834030,32.941120,-32.404305,1.038281,0.003690,0.313663
7320957274,-143.681000,36.360214,-28.224176,1.034596,0.012666,0.319235
7320977276,-145.460068,40.807278,-27.301491,1.028227,0.015840,0.315656
7320997276,-149.565674,45.530895,-28.960808,1.000269,0.002121,0.306555
7321017276,-153.052063,47.446266,-32.358067,0.997278,-0.014226,0.309603
7321037277,-153.758362,50.131485,-35.771511,1.018358,-0.041152,0.314152
7321057278,-151.882523,53.546074,-38.196949,0.982254,-0.105587,0.331836
7321077278,-143.738464,56.532177,-40.436295,0.929212,-0.166495,0.348474
7321097277,-132.553024,59.161980,-43.660637,0.907236,-0.161034,0.379912
7321117278,-127.419655,59.555618,-47.698315,0.927553,-0.125211,0.410398
7321137278,-128.533554,59.922131,-51.509758,0.954222,-0.073429,0.403029
7321157279,-134.390076,59.029766,-55.073444,0.901669,-0.049152,0.401762
7321177279,-144.147644,55.858582,-59.125740,0.864452,-0.064143,0.398061
7321197280,-149.498642,54.001816,-64.792381,0.864808,-0.107468,0.369449
7321217281,-143.652893,55.333858,-71.542938,0.864255,-0.139453,0.369570
7321237281,-135.933014,56.121078,-77.904411,0.876995,-0.128883,0.396536
7321257282,-136.275009,55.385475,-83.758614,0.919125,-0.122354,0.413370
7321277282,-137.668701,54.916866,-90.217148,0.913533,-0.144584,0.408000
7321297284,-132.517029,56.156380,-95.976204,0.882476,-0.145453,0.409252
7321317284,-133.162781,57.124458,-99.678520,0.861226,-0.122841,0.426934
7321337285,-141.544922,56.158794,-104.127052,0.884522,-0.125999,0.418642
7321357286,-148.931747,56.056622,-109.207207,0.876104,-0.162609,0.388927
7321377286,-148.989380,53.918953,-113.065315,0.854203,-0.193421,0.375863
7321397287,-147.982025,49.411049,-116.043617,0.901626,-0.227917,0.366927
7321417286,-140.363312,49.186665,-117.050117,0.939955,-0.264790,0.362680
7321437286,-127.461342,48.038147,-115.211609,0.898969,-0.285997,0.382753
7321457287,-120.979111,42.606415,-113.537140,0.883514,-0.299734,0.403605
7321477287,-116.629974,37.884460,-113.003647,0.898932,-0.296373,0.407175
7321497288,-108.968666,35.078247,-111.711243,0.874284,-0.267367,0.421988
7321517288,-107.931137,29.938784,-109.511681,0.836300,-0.229448,0.442733
7321537289,-115.248451,24.501677,-109.126831,0.864529,-0.219694,0.441955
7321557289,-119.096298,23.590008,-107.471268,0.894795,-0.233441,0.434535
7321577290,-116.358864,23.011068,-104.084244,0.874363,-0.247764,0.438837
7321597290,-114.134300,20.631779,-102.814529,0.863763,-0.242902,0.445314
7321617292,-114.229729,17.978292,-101.244209,0.892550,-0.234520,0.451130
7321637293,-113.977386,17.647001,-96.942627,0.901503,-0.241594,0.440110
7321657293,-109.354141,17.509556,-94.212166,0.867704,-0.251945,0.441753
7321677294,-108.237671,11.740757,-96.090950,0.863908,-0.207504,0.447964
7321697294,-116.750587,5.649632,-100.933617,0.865899,-0.194139,0.425613
7321717295,-125.171913,1.220313,-105.814644,0.858629,-0.207635,0.424653
7321737296,-129.048294,-4.146408,-104.617508,0.860507,-0.188014,0.432762
7321757294,-132.035080,-7.153633,-100.539787,0.858552,-0.183968,0.413981
7321777295,-129.814224,-10.355539,-99.083939,0.817908,-0.110142,0.367194
7321797296,-128.979492,-12.598742,-102.147720,0.846648,-0.076254,0.421054
7321817296,-108.634483,0.322090,-97.200066,0.983026,-0.308736,0.512746
7321837297,-60.893799,20.178654,-87.849403,1.058354,-0.447703,0.518376
7321857297,-32.516342,34.931736,-84.109451,1.013195,-0.340943,0.574660
7321877298,-50.656914,35.591282,-77.912102,0.946510,-0.296350,0.663517
7321897298,-95.071449,32.986702,-48.569168,1.014110,-0.544729,0.596956
7321917299,-117.950935,23.026466,-9.047347,0.884108,-0.782711,0.424258
7321937300,-109.450165,11.536623,12.525223,0.841249,-0.904522,0.367411
7321957302,-69.078362,4.726467,39.759686,0.906267,-1.210625,0.354343
7321977302,13.873072,9.119110,86.385551,0.976552,-1.467728,0.317406
7321997303,103.303101,25.695307,131.771484,1.060859,-1.338976,0.444254
7322017303,144.901184,51.001038,177.526337,1.123231,-0.941912,0.586278
7322037304,136.867783,71.908897,224.796936,1.074244,-0.580897,0.737769
7322057304,108.766968,91.586411,256.198547,0.963142,-0.371093,0.775843
7322077303,84.633453,89.259583,249.601517,0.977562,-0.081754,0.757951
7322097304,63.706261,41.237865,199.721191,0.897280,0.304161,0.405047
7322117304,48.782829,-19.984150,151.499527,0.193563,0.915726,0.133706
7322137304,15.320367,-74.005295,45.612942,-0.453262,1.541914,0.117208
7322157305,-40.038494,-115.978058,-149.649597,-0.350881,1.904242,0.394075
7322177305,-184.843140,-103.812836,-255.266830,1.607620,0.734572,1.918961
7322197306,-220.982315,-1.331956,-166.068893,1.895225,-1.040428,0.753551
7322217307,-127.122589,6.311946,-178.942017,0.992877,1.363418,0.109243
7322237307,-200.579651,-10.240396,-178.759415,1.347714,0.938292,0.371196
7322257308,-123.813164,26.194527,-182.550568,1.323521,0.655369,0.734055
7322277310,-110.554077,60.408600,-221.591232,1.176589,1.475856,0.640884
7322297310,-206.055756,68.721046,-268.832916,1.245888,1.490175,0.092511
7322317311,-233.770813,71.771393,-317.903015,1.125924,1.818681,-0.093714
7322337311,-286.941223,53.688313,-340.938568,1.359226,1.816684,-0.548330
7322357312,-299.490723,43.529751,-371.680847,1.619191,1.351631,-0.879262
7322377312,-285.382385,34.850723,-404.269104,1.895344,1.416001,-0.723679
7322397311,-336.212616,28.613445,-418.492981,2.290176,1.532826,-0.887696
7322417312,-436.802521,46.105427,-384.409760,3.118893,1.502885,-1.301226
7322437312,-543.047363,53.530594,-308.572662,2.754025,0.991629,-1.847901
7322457313,-662.511536,-6.471456,-323.523621,2.893971,-0.026331,-1.938214
7322477313,-692.331909,4.614589,-219.562302,3.725946,-3.061919,-1.724298
7322497314,-324.748779,76.822227,-46.502842,1.683922,-5.005968,-0.830550
7322517315,47.535625,48.684429,-49.709705,1.353362,-2.514563,-0.054948
7322537315,145.163849,38.154232,-15.591740,1.734440,-0.546245,0.141580
7322557316,96.448196,41.886871,63.403774,1.223036,0.525402,0.555526
7322577316,-55.035210,35.615196,43.294384,0.713396,0.783454,0.458953
7322597318,-192.154236,-23.082903,-6.622339,0.399343,0.548884,0.035968
7322617318,-239.773880,-96.161819,-27.298489,0.591826,0.111101,0.094071
7322637319,-110.453362,-115.128082,-39.840580,0.625974,-0.079697,0.355398
7322657320,49.713772,-63.172970,-25.434271,0.265573,0.297273,0.550577
7322677320,40.743942,-33.548714,-54.944614,0.414298,2.055568,1.106109
7322697321,-247.705688,-22.103500,-86.371231,0.898764,3.538291,0.568453
7322717336,-524.186401,23.235767,-201.477249,0.847958,2.497371,-0.398925
7322737321,-667.405945,59.554249,-290.447083,1.692205,1.833921,-1.270871
7322757321,-687.960876,102.041580,-313.944122,2.852063,1.213119,-1.667975
7322777321,-534.187805,156.179153,-247.706223,2.977475,-0.683848,-2.353709
7322797322,-309.532715,179.390411,-207.155289,1.850533,-1.479337,-1.778258
7322817323,-230.581665,129.162354,-254.654907,1.275680,-0.104920,-0.552667
7322837323,-240.199524,108.116165,-255.815048,1.697614,-0.103540,-0.720566
7322857324,-281.708496,90.688194,-197.175949,1.725639,-0.643855,-0.435231
7322877324,-316.087097,87.837891,-124.774300,1.235011,-1.009887,-0.459814
7322897325,-356.762573,75.731705,-65.729965,1.076558,-1.331648,-0.792781
7322917327,-291.186890,82.595596,-40.747238,1.177869,-2.064410,-0.563954
7322937327,-130.050262,58.562767,8.933250,1.019149,-2.983880,-0.388877
7322957328,41.932098,17.437237,62.395752,1.221300,-2.748010,-0.104410
7322997329,123.777000,-14.013098,165.713013,1.487847,-1.884505,0.422637
7323017329,127.544632,-26.935186,192.846024,1.573273,-1.685664,0.297026
7323037330,132.363861,-43.779575,208.570206,1.572309,-1.535310,-0.098620
7323057329,146.716187,-71.745216,232.402130,1.404235,-1.489966,-0.584001
7323077330,186.745667,-103.563354,264.721466,1.360493,-1.527901,-1.158889
7323097330,262.065948,-141.573242,301.877655,1.609747,-1.558762,-1.586721
7323117331,360.936310,-177.103165,351.925079,1.925352,-1.156618,-1.927863
7323137331,467.005768,-184.748917,414.344482,2.439065,-0.588177,-1.960796
7323157332,534.188965,-160.912323,475.970612,3.041920,-0.044233,-1.693174
7323177333,518.814087,-134.770767,543.867981,3.054937,0.784656,-1.171888
7323197333,450.379547,-126.138306,576.233398,2.888045,1.403254,-0.423329
7323217333,330.333252,-157.771378,537.408630,2.036256,1.695601,0.111998
7323237334,235.586304,-197.026093,442.898499,1.354119,1.262864,0.224341
7323257336,204.936646,-153.344238,326.593414,0.961910,1.331499,0.424666
7323277336,59.412178,-125.729889,209.358490,0.401344,1.181908,0.022704
7323297337,-76.505211,-179.748138,63.800228,0.129297,0.859277,-0.482151
7323317342,-100.177055,-245.667786,-30.465347,0.616214,0.081584,-0.687321
7323337338,16.425482,-262.351746,-53.378384,1.362007,-1.160240,-0.677790
7323357338,206.402390,-248.983154,-77.279572,1.582888,-1.216414,-0.489899
7323377337,290.266510,-273.390320,-43.180214,1.764326,-0.686727,0.170948
7323397338,269.695007,-234.990860,-16.457458,1.945280,-0.467775,0.677483
7323417339,223.830154,-145.998322,14.916275,2.024819,-0.332616,0.755839
7323437339,149.653244,-121.771248,88.083710,1.507998,-0.465222,0.354148
7323457340,131.117172,-106.890106,117.031586,1.224621,-0.699399,-0.103836
7323477340,160.712067,-103.504974,68.017334,1.534574,-0.533711,-0.434833
7323497341,218.083206,-116.810867,27.531506,1.233361,-0.432175,-0.532193
7323517341,294.282898,-167.298874,62.810005,1.715095,-1.693072,-0.607670
7323537342,334.330353,-90.424667,128.947571,3.140457,-1.123190,-0.434420
7323557342,327.510468,-50.677296,155.419022,1.929736,0.236869,-1.052569
7323577344,350.469849,-94.310333,147.411041,1.485282,0.517226,-0.980442
7323597345,446.608704,-89.098701,108.275253,1.334304,1.252684,-1.031026
7323617345,445.619965,-65.568306,109.252205,1.165374,2.163801,-0.235901
7323637346,304.596558,-46.776028,119.956306,1.076052,2.258839,0.384202
7323657346,130.145477,-21.847427,115.115463,1.102635,1.804894,0.610821
7323677347,20.652010,-4.788539,88.887413,1.033011,1.077067,0.626410
7323697346,-4.395943,0.113956,47.768406,0.937161,0.436368,0.485238
7323717347,27.284065,5.861179,12.663498,0.930131,0.171361,0.435695
7323737347,68.785461,19.876444,-14.377266,0.819194,0.223371,0.500823
7323757348,83.074211,25.001190,-43.054466,0.587144,0.467991,0.467637
7323777348,60.651543,10.550106,-69.886978,0.491293,0.695902,0.510421
7323797348,3.725676,-5.655267,-84.995338,0.628314,0.680033,0.576443
7323817349,-40.959270,-16.477497,-92.782249,0.783510,0.531795,0.573442
7323837349,-76.778137,-19.498617,-91.837410,0.911335,0.353594,0.526112
7323857350,-97.481888,-19.808355,-92.250580,1.015695,0.157026,0.488223
7323877350,-104.169632,-11.239259,-91.673737,1.095545,-0.074934,0.456378
7323897352,-87.795769,0.627413,-86.262405,1.150619,-0.258071,0.413773
7323937353,-42.238960,11.650512,-75.767410,1.142182,-0.214206,0.429980
7323957354,-31.224974,4.077022,-67.940872,0.988211,-0.069101,0.489049
7323977355,-33.891201,-0.642098,-62.876545,0.834426,0.029437,0.521287
7323997355,-40.677998,2.607619,-58.498260,0.799917,0.041172,0.496131
7324017371,-41.646828,11.269966,-47.612854,0.799574,0.000404,0.435548
7324037355,-35.733604,12.418170,-39.863354,0.761727,-0.056960,0.392082
7324057356,-25.328966,10.489195,-36.847202,0.743450,-0.089126,0.366030
7324077356,-10.107383,4.707202,-36.335770,0.792726,-0.110276,0.352257
7324097356,9.029594,-2.470605,-33.571297,0.848597,-0.089356,0.359613
7324117357,22.294315,-11.502427,-26.439970,0.864851,-0.032739,0.369761
7324137358,24.869865,-19.458269,-19.029118,0.884513,0.037805,0.398885
7324157358,19.856228,-25.295898,-14.868511,0.891476,0.079574,0.418564
7324177359,14.339737,-29.107323,-13.070590,0.906908,0.099582,0.416587
7324197359,13.773346,-29.868523,-9.880430,0.895075,0.101659,0.410781
7324217361,17.148392,-26.435555,-4.234706,0.909917,0.118822,0.418785
7324237362,20.872740,-20.147871,2.255208,0.928050,0.142127,0.428917
7324257362,23.061749,-15.807007,7.301887,0.946130,0.141782,0.431567
7324277363,23.126669,-10.510195,11.677595,0.932767,0.138559,0.421631
7324297363,22.568645,-7.934567,15.878500,0.890408,0.127405,0.398936
7324317364,25.923721,-6.972585,19.780071,0.895288,0.135828,0.378515
7324337364,29.873446,-6.110128,23.952951,0.919152,0.152516,0.360346
7324357364,33.928375,-5.305902,25.526644,0.947596,0.174820,0.341226
7324377364,34.192642,-5.703567,23.809792,0.971660,0.213319,0.341880
7324397365,29.160864,-7.922384,19.176840,0.980887,0.240871,0.349759
7324417365,23.453096,-9.441047,13.852268,0.972376,0.229340,0.338084
7324437366,16.300144,-10.180914,9.511078,0.980619,0.241186,0.326856
7324457366,13.985508,-8.777305,5.001282,0.888954,0.274363,0.311467
7324477366,7.045243,-10.536645,-6.859600,0.879354,0.323535,0.315723
7324497367,-6.058899,-9.034348,-19.558235,0.976242,0.264613,0.318516
7324517367,-9.209105,-6.990596,-23.018408,1.053657,0.095426,0.305476
7324537368,3.977548,-4.049708,-23.745518,1.060561,0.051774,0.276389
7324557370,15.940729,1.744720,-26.448202,0.993030,0.169636,0.313030
7324577371,10.709489,6.902756,-25.573765,0.894462,0.253918,0.345678
7324597371,-1.023010,5.009938,-24.865648,0.906518,0.255361,0.343680
7324617372,-12.243614,5.106174,-25.703949,0.971310,0.252927,0.314085
7324637372,-19.433779,7.105639,-23.141993,0.886527,0.203287,0.334245
7324657373,-14.569945,4.361180,-18.485777,0.892241,0.132709,0.352991
7324677372,-5.394216,8.218923,-9.836341,1.004792,0.185390,0.338720
7324697373,-2.640103,12.344727,-1.531153,1.027491,0.298241,0.355823
7324717373,-8.755189,15.954826,0.425846,0.992840,0.330630,0.401588
7324737373,-18.680416,20.880955,-2.188117,0.924502,0.277562,0.416219
7324757374,-23.819466,21.542585,-4.014280,0.908731,0.207749,0.380373
7324777374,-26.878664,21.744507,-6.691386,0.966586,0.184363,0.369183
7324797375,-33.129269,21.307400,-9.343418,0.918125,0.201446,0.373084
7324817376,-40.055576,18.315786,-12.429145,0.819085,0.119866,0.388939
7324837376,-25.127720,21.431030,-10.702811,0.818620,-0.031301,0.350939
7324857377,1.427236,21.036142,-2.569445,0.874420,0.011215,0.329959
7324877379,17.979538,16.745621,6.227621,0.910997,0.169682,0.353524
7324897380,19.957247,13.450553,10.435957,0.866652,0.228930,0.381539
7324917380,11.572384,8.253304,9.297123,0.842010,0.216332,0.404836
7324937380,0.826729,3.944690,7.625491,0.851550,0.195134,0.398782
7324957381,-2.776726,1.607524,7.880526,0.828659,0.158551,0.381235
7324977381,3.307779,-0.590156,7.915890,0.863092,0.121639,0.374760
7324997381,15.019180,-0.028520,7.875046,0.879495,0.122805,0.397985
7325017381,24.190359,3.744760,8.264410,0.853963,0.144937,0.426577
7325037382,25.723137,6.716231,10.326157,0.835993,0.181861,0.445532
7325057382,20.716438,6.039582,10.998036,0.860667,0.227600,0.444895
7325077383,13.760319,4.525737,10.831491,0.882997,0.253390,0.425203
7325097383,6.626643,0.951949,10.302729,0.887652,0.257447,0.410684
7325117384,-0.318029,-3.127180,11.067280,0.844730,0.228513,0.402487
7325137384,-2.191377,-7.581748,12.859076,0.769585,0.152317,0.379003
7325157385,2.751191,-14.229082,12.919827,0.813458,0.150875,0.362227
7325177385,3.336998,-19.375027,11.838575,0.854409,0.215627,0.342215
7325197387,-2.130308,-22.476311,13.883834,0.850888,0.216657,0.364512
7325217388,-4.643065,-23.462734,16.658340,0.864369,0.141300,0.378393
7325237388,-6.592680,-27.639240,15.911047,0.881771,0.110408,0.354506
7325257388,-5.828645,-30.127199,11.017262,0.817785,0.192403,0.323047
7325277389,-9.666978,-33.930607,-2.360790,0.835727,0.330059,0.325856
7325297390,-27.088440,-37.100811,-17.305923,0.874452,0.427630,0.302581
7325317400,-45.796478,-46.518085,-30.241037,0.914450,0.414071,0.284675
7325337389,-52.841961,-49.917282,-39.016270,0.884030,0.341755,0.299984
7325357390,-49.913464,-46.264130,-43.598217,0.906620,0.304874,0.341643
7325377390,-52.004669,-34.894356,-44.650909,1.018805,0.347540,0.382982
7325397391,-66.911385,-18.876947,-44.397049,1.068864,0.346324,0.378488
7325417391,-82.584442,-15.155298,-43.893967,1.032665,0.269050,0.375479
7325437392,-88.797127,-20.900452,-43.497578,1.096745,0.113450,0.345586
7325477393,-49.293095,-17.494410,-0.787617,1.243938,-0.297169,0.284599
7325497394,9.764708,33.388470,20.294069,1.347407,-0.138123,0.377880
7325517396,30.982498,64.645927,14.074777,1.088423,0.268520,0.446468
7325537396,-4.538302,45.823483,-4.827969,0.874507,0.438926,0.336067
7325557397,-42.688030,27.258743,-20.756132,0.738957,0.372680,0.289474
7325577397,-60.981525,11.013347,-26.116047,0.753210,0.219519,0.260957
7325597398,-55.085526,6.699209,-17.361387,0.857439,0.073431,0.218369
7325617399,-29.546572,7.143856,-4.789173,0.846257,0.006564,0.242726
7325637399,-9.139591,3.713964,1.227826,0.837766,0.033576,0.269135
7325657398,0.028210,-1.625035,3.147981,0.876194,0.091194,0.274109
7325677399,8.259665,-4.654626,2.675753,0.927613,0.135983,0.272114
7325697399,12.150858,-4.166756,0.102390,0.928113,0.141824,0.350658
7325717399,9.335135,-4.351111,-0.248680,0.884655,0.146149,0.391567
7325737400,3.595916,-4.925600,-0.994992,0.896821,0.175552,0.412400
7325757401,1.755589,-2.105301,-0.672599,0.911643,0.186919,0.396503
7325777401,2.659419,0.084128,1.722337,0.888088,0.180774,0.402289
7325797402,3.918081,-1.602133,2.233387,0.916548,0.209652,0.397845
7325817402,1.402194,-1.232757,1.445274,0.965414,0.215857,0.401981
7325837403,-2.147317,3.161135,1.350378,0.918453,0.200495,0.421447
7325857405,-4.829450,2.519378,-2.152953,0.905550,0.199158,0.404189
7325877405,-8.659142,0.827291,-2.682540,0.908903,0.171300,0.380935
7325897406,-7.355620,1.980681,0.156027,0.903095,0.126916,0.358115
7325917416,0.086779,4.618734,1.325966,0.880348,0.150348,0.348313
7325937407,2.767066,3.736036,0.063834,0.872907,0.182690,0.335792
7325957408,2.489365,-0.103515,-0.996598,0.882463,0.178497,0.336500
7325977407,4.601293,-1.911160,-1.469210,0.884920,0.159848,0.358247
7325997407,6.653240,-1.974764,-0.794354,0.878178,0.189851,0.354891
7326017408,5.605237,-2.773328,0.642728,0.877628,0.206812,0.364111
7326037408,4.623378,-4.032988,1.352062,0.901151,0.205119,0.388638
7326057409,4.405834,-4.922943,1.683861,0.908753,0.226174,0.378357
7326077409,2.805760,-4.464164,0.997551,0.924010,0.224463,0.389391
7326097410,0.163848,-3.374813,0.822297,0.925334,0.217512,0.388417
7326117410,-1.378987,-2.150973,0.717406,0.921989,0.207492,0.394740
7326137411,-2.052704,-0.977445,0.160412,0.917729,0.204046,0.395389
7326157411,-2.217836,-0.434119,0.477876,0.909879,0.210071,0.379163
7326177413,-2.527516,0.149557,1.183383,0.899332,0.199136,0.361711
7326197414,-2.725410,0.300120,0.651651,0.892616,0.207098,0.368180
7326217414,-3.853481,-0.992510,-0.880002,0.890751,0.206297,0.360238
7326237415,-5.873501,-3.866543,-1.967249,0.907876,0.180704,0.350496
7326257415,-4.623110,-4.072463,-1.227293,0.917905,0.158471,0.349023
7326277416,-0.132790,-1.441832,-0.157825,0.906695,0.161693,0.347948
