Timestamp (us),Gyroscope X (deg/s),Gyroscope Y (deg/s),Gyroscope Z (deg/s),Accelerometer X (g),Accelerometer Y (g),Accelerometer Z (g)
5902886973,0.211125,-0.103125,-0.033681,0.995101,0.005795,-0.108468
5902907018,0.104949,0.034359,0.036695,0.993121,0.006969,-0.111704
5902927064,-0.018924,0.011141,-0.044884,0.992007,0.002880,-0.108047
5902947109,0.080451,-0.026909,-0.038913,0.989885,0.002693,-0.109191
5902967155,0.034989,0.087405,-0.007802,0.991034,0.003055,-0.111208
5902987201,0.086792,-0.019596,-0.100074,0.991040,0.003692,-0.110846
5903007247,0.165098,-0.049724,0.020921,0.990790,0.005241,-0.109483
5903027292,0.125639,-0.095323,-0.024010,0.991082,0.005334,-0.108489
5903047337,-0.097585,-0.057293,-0.103754,0.995731,0.006614,-0.108934
5903067382,-0.035230,-0.018951,-0.051295,0.993468,0.007067,-0.107807
5903087428,0.095116,0.011673,-0.030919,0.994102,0.006067,-0.108179
5903107474,0.117823,0.019265,-0.023764,0.993178,0.004518,-0.108796
5903127520,-0.080789,0.011548,-0.012119,0.992098,0.004427,-0.107960
5903147565,-0.210306,0.049572,-0.002124,0.991710,0.002513,-0.109312
5903167611,-0.074229,0.033998,-0.111525,0.991500,0.005058,-0.110584
5903187657,0.057602,0.041745,-0.014568,0.992993,0.005063,-0.108884
5903207702,0.140960,-0.034472,-0.038861,0.992700,0.005334,-0.109878
5903227748,-0.173332,0.011130,-0.086165,0.993416,0.005243,-0.110707
5903267841,-0.186893,0.087480,-0.009606,0.993521,0.005062,-0.109983
5903287887,0.079476,-0.057482,-0.075336,0.990972,0.005787,-0.109487
5903307933,0.019660,0.011320,0.002129,0.991997,0.005244,-0.108414
5903327978,-0.055995,0.011399,0.049393,0.993808,0.006974,-0.109174
5903348024,0.111211,0.003695,-0.007361,0.992550,0.004245,-0.108240
5903368070,0.172567,0.034103,0.014287,0.991988,0.005698,-0.108868
5903388116,-0.132847,-0.026758,0.050837,0.994353,0.003972,-0.109541
5903408160,0.157274,-0.026780,0.022164,0.992842,0.004611,-0.107247
5903428206,0.065084,-0.080052,0.016484,0.992365,0.003426,-0.108417
5903448251,0.009553,-0.125701,-0.081574,0.992926,0.003337,-0.107700
5903468297,-0.005733,-0.034089,-0.081321,0.990092,0.005152,-0.107746
5903488343,0.116321,-0.094840,-0.098508,0.991440,0.006244,-0.108860
5903508388,0.048770,-0.003063,-0.013425,0.992643,0.003972,-0.108150
5903528434,0.010368,0.057763,-0.020411,0.992235,0.005332,-0.110324
5903548480,-0.011987,-0.056448,0.018581,0.992279,0.004245,-0.108054
5903568526,0.172693,0.073330,0.090865,0.991977,0.004788,-0.109502
5903588572,0.086941,-0.033615,0.016281,0.993247,0.004971,-0.109978
5903608617,0.078529,-0.003245,-0.014267,0.993332,0.004151,-0.110341
5903628664,-0.045004,0.034677,-0.080567,0.992366,0.004972,-0.108238
5903648710,-0.097988,-0.087107,-0.056029,0.991584,0.004421,-0.111038
5903668756,0.231786,0.004622,-0.001460,0.991428,0.003513,-0.109672
5903688801,0.046254,-0.086916,-0.081586,0.994097,0.002882,-0.108627
5903708847,0.102028,0.050558,0.046817,0.992633,0.003789,-0.108695
5903728893,0.009900,0.042787,0.033253,0.995538,0.005248,-0.109564
5903748939,0.098287,-0.010962,-0.143926,0.993175,0.005791,-0.108889
5903768998,-0.005954,0.057965,0.018512,0.992418,0.006606,-0.110239
5903789029,0.086432,0.012161,0.054953,0.991823,0.005700,-0.107958
5903809074,0.106661,0.042308,-0.075400,0.990641,0.005153,-0.107664
5903829120,0.016635,0.004408,0.033441,0.991741,0.002872,-0.112491
5903849166,-0.001322,-0.034137,-0.126391,0.991591,0.004239,-0.110675
5903869211,0.076661,-0.010852,-0.028351,0.992181,0.004426,-0.108416
5903889257,0.137368,-0.109806,-0.036822,0.992433,0.005243,-0.109511
5903909303,-0.039362,0.012172,-0.079498,0.992097,0.005427,-0.107962
5903929349,0.061632,-0.048575,0.010521,0.993300,0.006249,-0.107076
5903949395,-0.144219,0.096175,0.036864,0.993534,0.004335,-0.109346
5903969440,0.053611,-0.170613,-0.019603,0.992759,0.002974,-0.106880
5903989487,0.069340,-0.033049,0.010226,0.992718,0.005063,-0.108971
5904009533,0.076847,-0.063400,0.010145,0.990991,0.004060,-0.108576
5904049625,0.121842,-0.009995,-0.021577,0.992397,0.004512,-0.111506
5904069671,-0.046591,0.035614,-0.026056,0.993336,0.005244,-0.110071
5904089716,0.036516,0.027912,-0.080876,0.992424,0.005879,-0.109965
5904109762,0.092526,0.028117,0.063169,0.992979,0.004152,-0.109700
5904129808,-0.032142,0.103846,-0.056981,0.990705,0.002876,-0.109296
5904149852,0.005868,-0.033467,-0.072345,0.992363,0.003516,-0.108508
5904169898,0.095308,-0.041272,-0.188332,0.993424,0.007154,-0.110166
5904189944,0.037842,-0.010188,0.019269,0.994010,0.006067,-0.108177
5904209989,0.014630,0.104042,0.011614,0.990422,0.004421,-0.109657
5904230035,-0.130774,0.050414,-0.000655,0.992445,0.005517,-0.108876
5904250081,-0.167717,0.057894,0.038305,0.991282,0.005700,-0.107585
5904270126,0.076133,0.004421,-0.012299,0.991568,0.003700,-0.107042
5904290172,0.192899,0.012352,0.122853,0.992540,0.000878,-0.108961
5904310218,0.027950,-0.018633,-0.103105,0.991032,0.004692,-0.111211
5904330263,0.014446,-0.094431,0.012195,0.992148,0.003513,-0.110229
5904350309,0.092053,-0.048407,0.071496,0.994799,0.004154,-0.110094
5904370356,0.106736,-0.071113,0.055866,0.992439,0.003788,-0.109327
5904390425,0.021935,-0.063413,0.019126,0.991704,0.005697,-0.109408
5904410448,-0.016334,-0.048077,0.027382,0.992511,0.005333,-0.110238
5904430494,0.296719,-0.055522,0.013712,0.993434,0.003971,-0.109798
5904450540,0.012645,0.028229,-0.026916,0.993690,0.005243,-0.110712
5904470585,0.067011,0.035839,0.025465,0.993058,0.005971,-0.110249
5904490631,0.096423,-0.002345,-0.028498,0.992431,0.005607,-0.109602
5904510675,-0.009507,-0.040263,0.042521,0.991340,0.005788,-0.109311
5904530721,0.011136,0.005140,-0.087976,0.994153,0.005517,-0.110357
5904550767,0.073264,-0.093642,-0.027525,0.992271,0.004153,-0.108507
5904570813,0.119236,0.043636,-0.013602,0.990730,0.004607,-0.107847
5904590858,0.095313,0.005356,-0.051122,0.992247,0.004151,-0.109778
5904610904,0.028467,0.089337,0.064542,0.992866,0.003695,-0.110877
5904630950,0.019821,0.028126,0.011269,0.993892,0.005791,-0.109627
5904650995,0.095459,-0.109055,-0.020184,0.991966,0.006879,-0.109959
5904671041,0.012185,0.104550,0.034191,0.993205,0.006058,-0.112158
5904691087,0.019947,0.104155,0.033902,0.992150,0.004696,-0.110050
5904731179,0.033636,0.088641,-0.027385,0.990581,0.003054,-0.111019
5904751225,-0.049409,-0.017954,0.035738,0.991341,0.005788,-0.109311
5904771271,-0.057400,0.088465,0.004965,0.993054,0.004787,-0.110519
5904791317,-0.095805,-0.010727,-0.016932,0.993075,0.005062,-0.109430
5904811362,0.104201,-0.033260,0.055656,0.993487,0.005795,-0.106897
5904831408,0.003897,0.088505,0.003632,0.992531,0.004243,-0.109238
5904851454,-0.048909,0.073023,0.042860,0.992841,0.007067,-0.107160
5904871498,0.156195,-0.087096,-0.021767,0.993015,0.005520,-0.107705
5904891544,0.110328,-0.147709,0.009900,0.993330,0.003696,-0.110522
5904911590,0.048639,-0.010349,-0.019880,0.991338,0.002057,-0.109668
5904931635,-0.218370,0.058128,0.000365,0.993108,0.005148,-0.112518
5904951681,-0.142034,0.035067,-0.031632,0.993336,0.005062,-0.110070
5904971727,-0.025144,-0.010325,0.080889,0.991577,0.005330,-0.111312
5904991773,-0.095437,-0.048607,-0.001863,0.992248,0.005971,-0.109599
5905011818,0.056009,-0.033379,-0.088711,0.991973,0.004241,-0.109773
5905031864,-0.049666,0.065726,-0.025706,0.993851,0.004513,-0.111894
5905051910,0.119554,0.080946,0.039710,0.995738,0.006432,-0.108570
5905071956,-0.179634,-0.056487,-0.015156,0.992458,0.007702,-0.108063
5905092003,-0.070794,0.035276,0.066347,0.990436,0.004423,-0.108931
5905112048,-0.040345,-0.025790,0.050595,0.990969,0.006605,-0.109579
5905132094,-0.072178,0.080710,-0.025665,0.992182,0.003880,-0.108415
5905152140,-0.254030,-0.018358,0.046993,0.992070,0.003332,-0.109501
5905172186,-0.084400,0.042778,0.096811,0.993875,0.001240,-0.110799
5905192231,0.120657,0.004496,0.024072,0.992543,0.004153,-0.108603
5905212277,0.036213,0.034915,0.017877,0.991890,0.007426,-0.109142
5905232321,-0.001761,-0.109823,0.034406,0.990450,0.007881,-0.107938
5905252367,-0.192487,-0.056325,0.052956,0.991814,0.007246,-0.108323
5905272413,-0.344085,-0.040812,0.078732,0.991965,0.009427,-0.109873
5905292459,-0.330267,-0.079143,-0.043771,0.993829,0.005339,-0.108173
5905312504,-0.625215,0.050651,0.060930,0.993563,0.003792,-0.107803
5905332550,-0.287792,0.096343,0.054038,0.994363,0.004155,-0.108997
5905352596,-0.509551,0.141533,0.004672,0.990184,0.005425,-0.107657
5905372641,-0.570419,0.011606,-0.054796,0.991919,0.011432,-0.107333
5905392687,-1.077932,0.126007,0.099878,0.995233,0.027725,-0.104966
5905412733,-2.173223,0.148483,0.204810,0.998990,0.028460,-0.104305
5905432779,-2.907176,0.171083,0.317922,0.992009,0.017983,-0.106983
5905452826,-3.319983,0.071720,0.265042,0.989334,0.012700,-0.108744
5905472872,-3.738448,0.041394,0.380244,0.989670,0.010613,-0.105569
5905492917,-4.067187,-0.095856,0.387079,0.993180,0.014253,-0.108086
5905512963,-4.487104,-0.012066,0.417873,0.998129,0.016263,-0.107084
5905533009,-5.019234,0.232043,0.580215,0.997802,0.023545,-0.104640
5905553055,-5.845577,0.155542,0.550655,0.994283,0.036372,-0.101515
5905613190,-9.509087,0.178268,0.912042,0.990891,0.044828,-0.101652
5905633236,-11.291861,0.102413,1.267829,0.996591,0.038289,-0.100105
5905653282,-12.817857,0.163380,1.442424,0.995339,0.047760,-0.093200
5905673327,-14.451525,0.026108,1.589203,0.989694,0.058026,-0.096480
5905693373,-16.429846,-0.149435,1.704590,0.987577,0.054663,-0.092716
5905713419,-18.208700,-0.225772,1.853983,0.988880,0.050846,-0.091643
5905733465,-20.091715,-0.385586,2.166146,0.993314,0.062850,-0.098002
5905753510,-22.274757,-0.332351,2.368799,0.994420,0.075317,-0.096680
5905773556,-24.626953,-0.340246,2.521448,0.996111,0.080146,-0.093902
5905793602,-27.248716,-0.217929,2.984552,1.001697,0.085432,-0.092826
5905813648,-30.293173,-0.042665,3.325778,0.995734,0.094602,-0.098459
5905833695,-33.506542,0.010538,3.632479,1.003353,0.098239,-0.105948
5905853741,-36.749367,0.315349,3.992405,0.988747,0.101229,-0.100439
5905873786,-39.760208,0.033796,4.517895,0.985628,0.093490,-0.101643
5905893832,-43.111382,-0.065468,4.820137,0.995491,0.094497,-0.106534
5905913878,-46.376209,-0.057734,5.242610,0.986085,0.088296,-0.106817
5905933924,-49.582932,-0.058001,5.495871,0.990121,0.088477,-0.110789
5905953969,-52.459541,0.063918,5.818734,0.994208,0.086388,-0.112127
5905974014,-55.345352,0.109430,6.057974,0.999628,0.091850,-0.115042
5905994059,-58.420536,0.254186,6.392256,0.988968,0.084649,-0.114031
5906014105,-60.617195,0.338116,6.686769,0.994385,0.076554,-0.117923
5906034151,-62.708355,0.444737,6.895104,0.992089,0.073183,-0.118786
5906054197,-64.822250,0.391349,7.119694,0.987302,0.072535,-0.120791
5906074242,-66.635956,0.422126,7.452802,0.995874,0.063448,-0.122102
5906094288,-67.996330,0.398978,7.486917,0.993181,0.052341,-0.125124
5906114334,-69.346649,0.482829,7.650386,0.986052,0.056424,-0.125101
5906134379,-70.797951,0.162570,7.740745,0.978184,0.065493,-0.134967
5906154425,-72.711128,0.002803,8.076417,0.981149,0.064938,-0.142460
5906174471,-73.910751,-0.317471,8.131328,0.989702,0.069331,-0.134262
5906194518,-75.382378,-0.431647,8.358941,0.986025,0.068488,-0.145273
5906214564,-76.886253,-0.591771,8.495636,0.983016,0.066656,-0.149939
5906234609,-78.460358,-0.843540,8.557584,0.981540,0.067744,-0.150642
5906254655,-80.411491,-0.789913,8.900924,0.984778,0.063195,-0.153594
5906274701,-81.586227,-0.835596,9.053775,0.990704,0.046818,-0.160113
5906294747,-82.722420,-0.538312,9.212379,1.003460,0.054558,-0.166153
5906314792,-84.022972,-0.218703,9.160135,0.990342,0.034543,-0.155820
5906334837,-84.059166,-0.294652,9.275713,0.985109,0.021969,-0.162881
5906354882,-83.837936,-0.317519,9.248571,0.990734,0.020245,-0.164972
5906374928,-83.004532,-0.286813,9.247581,0.992630,0.011512,-0.166714
5906394974,-82.158379,0.353191,9.083843,1.003003,0.001086,-0.154891
5906415020,-80.337433,0.445281,9.147542,0.976704,-0.035609,-0.151931
5906435065,-77.609970,0.193271,8.614044,0.975357,-0.052887,-0.146886
5906455111,-74.430161,0.002509,8.147982,0.985698,-0.053234,-0.145882
5906475157,-70.873550,-0.317420,7.804942,0.980776,-0.078525,-0.142034
5906495203,-67.109146,-0.294202,7.525500,0.994140,-0.080951,-0.135813
5906535294,-60.785210,0.338097,6.697671,1.005826,-0.027784,-0.123119
5906555341,-58.869247,0.559190,6.514569,0.983352,0.018103,-0.135067
5906575387,-58.667889,0.102357,6.672654,0.963049,0.055332,-0.158385
5906595433,-59.742714,-0.644302,6.879390,0.990652,0.038203,-0.143940
5906615479,-60.085670,-0.369919,6.930980,0.994578,0.017482,-0.135621
5906635524,-59.662029,-0.080820,6.669630,1.000225,0.007273,-0.151677
5906655570,-58.985188,0.238943,6.456754,0.995084,0.039537,-0.165622
5906675616,-59.663948,0.429493,6.545704,0.986170,0.046243,-0.172925
5906695666,-60.817600,0.299752,6.599088,0.977458,0.038783,-0.165502
5906715706,-62.443550,-0.195665,6.762192,0.967127,0.039140,-0.161151
5906735752,-63.587902,-0.561419,6.915520,0.976742,0.041959,-0.169399
5906755798,-64.726685,-0.706452,6.945741,0.987170,0.055333,-0.177496
5906775843,-65.577621,-0.683117,7.244908,0.980031,0.064064,-0.172850
5906795889,-66.598679,-0.743900,7.440677,0.990842,0.062164,-0.176118
5906815948,-67.469170,-0.484894,7.494913,0.983069,0.061888,-0.171718
5906835980,-68.391273,-0.278995,7.657308,1.001662,0.054797,-0.184097
5906856026,-69.500076,0.002642,7.639678,0.999087,0.051690,-0.190039
5906876072,-70.116173,0.650621,7.794664,0.996314,0.022586,-0.183861
5906896117,-70.016716,0.841166,7.792099,0.984424,-0.002189,-0.191061
5906916163,-69.284126,0.963103,7.708706,0.975772,-0.005483,-0.194812
5906936210,-68.201607,0.841052,7.535277,0.980555,-0.028855,-0.194491
5906956256,-66.745056,0.848568,7.323594,0.981876,-0.032935,-0.187608
5906976302,-64.241409,0.451443,6.680302,0.934677,-0.114192,-0.210724
5906996348,-58.597813,-0.637625,6.345175,0.996328,-0.096790,-0.195374
5907016393,-56.898743,0.802299,5.963546,1.051996,0.009638,-0.142850
5907036439,-57.802391,2.082088,5.839275,1.053406,0.089594,-0.096892
5907056485,-62.479095,3.629091,6.352793,1.025420,0.175141,-0.054618
5907076529,-67.825470,3.316963,7.107098,0.927133,0.131753,-0.125492
5907096575,-71.362007,0.839864,7.390287,0.894816,0.079143,-0.166702
5907116621,-72.892471,-0.882909,7.379871,0.964568,0.049789,-0.155678
5907136666,-72.808754,-1.507805,7.380327,1.016412,0.028011,-0.115313
5907156712,-73.462204,-0.524424,7.573128,1.027315,0.044788,-0.102818
5907176758,-75.630524,0.466043,7.711243,1.017371,0.075748,-0.129388
5907196803,-78.449966,0.861791,7.802842,0.961969,0.081378,-0.141344
5907216849,-81.427681,-0.136728,8.070266,0.951822,0.086432,-0.156066
5907236895,-84.363396,-1.005199,8.542761,0.952436,0.084338,-0.157526
5907256941,-86.550262,-1.995456,8.993489,0.979468,0.085725,-0.167430
5907276986,-88.150406,-2.254261,9.308133,0.979311,0.070550,-0.157326
5907297034,-89.440437,-2.467702,9.433215,0.992689,0.066726,-0.169893
5907317079,-90.716263,-1.904003,9.471377,1.002077,0.058021,-0.161778
5907337125,-91.605598,-1.492064,9.747072,0.996956,0.058203,-0.157243
5907357171,-92.810547,-1.149070,9.906858,0.980766,0.030527,-0.155287
5907377216,-93.100853,-1.606335,9.936937,0.964536,0.026785,-0.149104
5907397262,-92.823990,-2.497633,10.056797,0.964771,0.002290,-0.162411
5907417308,-91.754364,-2.764162,10.021645,0.977615,0.014779,-0.158657
5907457398,-85.719543,-2.336511,9.704442,1.028450,-0.132597,-0.097096
5907477444,-82.409248,-2.177631,8.829686,0.953672,0.048233,-0.152313
5907497489,-83.351288,-3.395361,9.631448,0.907775,0.132847,-0.212582
5907517535,-87.748466,-5.155947,10.074141,0.962101,0.161839,-0.221727
5907537581,-89.994789,-5.001953,11.003624,1.024998,0.058549,-0.191219
5907557627,-91.044395,-3.942291,11.272631,1.027370,0.066137,-0.171482
5907577673,-91.654053,-3.431630,11.366816,1.003208,0.046759,-0.204353
5907597719,-91.166527,-2.692562,11.240274,0.995765,0.022144,-0.227697
5907617764,-90.785385,-2.052500,11.154333,0.992424,0.014327,-0.221272
5907637810,-90.819748,-1.230004,10.915377,1.012767,0.009111,-0.203546
5907657857,-90.749992,-0.025850,10.925297,1.040838,0.016161,-0.201585
5907677903,-91.102081,1.505694,10.850616,1.038924,0.029342,-0.205387
5907697948,-91.712364,3.304110,10.864111,1.027474,0.041324,-0.211203
5907717994,-92.245201,4.973130,10.937667,0.993709,0.050864,-0.189492
5907738040,-91.653465,3.579155,11.152428,0.931950,0.012387,-0.187649
5907778131,-89.079903,0.827509,10.653163,0.949795,0.008561,-0.205558
5907798179,-87.657112,0.187867,10.711740,0.976803,-0.018879,-0.208787
5907818221,-85.968079,0.439697,10.662847,0.988360,-0.010354,-0.181402
5907838267,-84.696198,0.698483,10.377495,0.995977,-0.031902,-0.180860
5907858313,-82.530693,1.277439,10.027889,0.996539,-0.055538,-0.171844
5907898404,-76.757660,1.368495,9.197268,0.979136,-0.064393,-0.174982
5907918450,-73.522995,1.109335,8.806784,0.984865,-0.082220,-0.177410
5907938496,-69.832802,1.032768,8.231097,0.983850,-0.094280,-0.154406
5907958542,-65.814468,1.261020,7.609822,0.983477,-0.087467,-0.159222
5907978587,-61.213108,0.659064,7.125185,0.952433,-0.155872,-0.182272
5907998633,-54.470020,-0.606167,6.287899,0.955990,-0.213411,-0.210378
5908018679,-48.331127,-0.498930,5.816914,1.015810,-0.056642,-0.142849
5908038726,-45.589211,0.452971,5.195073,1.010895,-0.064828,-0.137578
5908058772,-42.677914,1.009802,5.075596,1.022716,-0.053872,-0.125179
5908078817,-41.630936,1.603410,4.602458,0.988476,-0.011324,-0.112139
5908098863,-40.025494,1.268520,4.602987,0.964148,-0.065969,-0.126884
5908118909,-36.049751,0.224591,4.208375,0.947591,-0.120104,-0.116889
5908138954,-31.718821,-0.659757,3.577098,0.972404,-0.092139,-0.116905
5908159000,-28.736704,-0.995217,3.176484,0.998131,-0.043321,-0.105805
5908179044,-27.255827,-0.728424,3.032238,1.009912,-0.020377,-0.104501
5908199090,-25.993393,-0.148829,3.059303,1.023386,-0.032453,-0.102804
5908219136,-24.634457,0.491380,2.923821,1.009614,-0.039850,-0.107005
5908239182,-22.550886,0.720060,2.706877,0.987119,-0.066989,-0.105124
5908259228,-19.415157,0.491416,2.341134,0.984367,-0.071461,-0.110880
5908279273,-16.066832,0.194052,1.895080,0.987085,-0.073005,-0.112194
5908299319,-12.970330,0.125295,1.468434,0.993973,-0.083273,-0.110842
5908319365,-9.191375,0.049356,1.150833,0.998122,-0.108192,-0.110327
5908339410,-5.566219,0.026604,0.782549,0.977045,-0.098130,-0.113343
5908359456,-2.607626,-0.377522,0.352054,0.981242,-0.083485,-0.117524
5908379502,0.590713,-0.461176,0.061028,0.993991,-0.078648,-0.119293
5908399549,3.657082,-0.247930,-0.350689,0.997225,-0.080658,-0.127151
5908419595,7.163305,-0.286505,-0.953498,0.983221,-0.092162,-0.139148
5908439641,10.973604,-0.697632,-1.217101,0.976238,-0.088801,-0.136221
5908459687,13.763885,-0.903687,-1.660272,0.982199,-0.038387,-0.131867
5908479732,14.392859,-1.209063,-1.961835,0.981728,0.005928,-0.125034
5908499778,14.140662,-1.155773,-1.957119,0.996271,0.003850,-0.129000
5908519824,13.759856,-0.957554,-1.881616,1.003815,0.001683,-0.126220
5908539868,12.798669,-0.355520,-1.780914,1.008961,0.026258,-0.123081
5908559914,11.555615,0.193231,-1.621074,1.012384,0.026176,-0.120779
5908579960,11.127544,0.589386,-1.629370,0.994807,0.001863,-0.119531
5908600005,11.268095,0.483119,-1.463631,0.983009,0.005939,-0.120063
5908620051,10.640215,0.429489,-1.512401,0.982154,0.037960,-0.119829
5908640097,9.478493,0.040600,-1.473281,0.982871,0.046239,-0.120037
5908660142,8.022849,-0.058241,-1.207821,0.992097,0.052613,-0.124471
5908680188,6.234278,-0.042414,-0.752888,0.997567,0.050527,-0.125196
5908700234,4.764684,0.026562,-0.418944,0.985798,0.062422,-0.128556
5908720279,2.794224,-0.004164,-0.296550,0.978496,0.055753,-0.138406
5908740325,1.896918,-0.400025,-0.010370,0.977310,0.033444,-0.149423
5908760372,0.482944,-0.590844,0.025344,0.985587,0.029449,-0.151555
5908780418,0.119546,-0.537132,0.223253,0.994021,0.010822,-0.146221
5908800464,-0.132763,-0.438134,0.220177,0.995274,0.006553,-0.142967
5908820509,-0.047956,-0.125586,0.248057,0.992401,-0.001734,-0.145719
5908840556,-0.431635,-0.125869,0.171447,0.979761,0.010154,-0.151696
5908860601,-1.020853,-0.362320,0.153102,0.977793,0.029617,-0.153147
5908880647,-1.623298,-0.613747,0.249685,0.981774,0.014442,-0.146381
5908900694,-1.729741,-0.834688,0.290693,0.986278,-0.018029,-0.146858
5908920737,-1.018842,-0.941204,0.284894,0.987757,-0.028670,-0.146593
5908940783,0.300563,-0.910802,0.098721,0.994055,-0.028579,-0.151694
5908960828,1.597174,-0.644157,-0.087797,0.988845,-0.031962,-0.156955
5908980874,3.160765,-0.347041,-0.310163,0.996363,-0.026589,-0.159997
5909000920,4.235610,-0.034738,-0.500171,1.012402,-0.016205,-0.166188
5909020966,4.812809,0.505956,-0.734773,1.003360,-0.015391,-0.161224
5909041011,5.494235,0.872037,-0.695724,0.985982,-0.016428,-0.167371
5909061057,6.126472,0.483261,-0.813678,0.968692,-0.003164,-0.163104
5909081103,6.219388,-0.072847,-0.729574,0.964981,0.010382,-0.165333
5909101149,6.447511,-0.674955,-0.777844,0.973361,0.002022,-0.167096
5909121194,6.812091,-1.071429,-0.898221,0.982490,-0.003862,-0.157983
5909141241,7.087618,-1.147523,-0.880389,0.984027,-0.002753,-0.149024
5909161287,7.458511,-1.460345,-1.077581,0.987590,-0.009315,-0.159150
5909181333,8.225307,-1.238864,-0.963293,0.991351,0.003412,-0.167224
5909201379,7.849891,-0.880908,-1.018331,1.007063,0.022468,-0.156267
5909221424,6.926991,0.323150,-0.935659,1.040242,0.029541,-0.144952
5909241470,6.193093,2.571959,-0.585040,1.074970,0.036135,-0.148460
5909261516,5.230115,6.054248,-0.684927,1.089686,0.028151,-0.148426
5909281560,4.325795,7.128199,-0.839067,0.923144,0.024777,-0.013862
5909301606,4.463614,4.294488,-0.305047,1.008789,-0.009975,-0.085890
5909321652,4.630593,4.652529,-0.385894,0.985871,-0.000810,-0.079977
5909341698,4.159018,4.004003,-0.649677,0.968276,0.048463,-0.084842
5909361743,2.345097,2.929802,-0.289962,0.937233,0.089725,-0.081567
5909381789,-0.585974,1.626583,0.031061,0.962573,0.103958,-0.078664
5909401834,-3.651787,1.421030,0.473308,1.016658,0.059375,-0.075972
5909441926,-8.852306,2.357760,0.792703,1.004819,0.090022,-0.072190
5909461972,-11.866374,2.212954,1.134404,0.970074,0.065121,-0.080452
5909482018,-13.240868,1.344097,1.263307,0.963862,0.017966,-0.093159
5909502065,-13.776791,0.505624,1.253573,0.966179,-0.001208,-0.082818
5909522110,-14.192183,-0.279708,1.141985,0.957089,0.010528,-0.074875
5909542156,-14.781000,-1.255280,1.171941,0.970205,0.001355,-0.077444
5909562202,-14.708601,-1.452924,1.377513,1.000715,-0.023802,-0.078921
5909582248,-14.417655,-1.300387,1.394284,1.003793,0.000483,-0.083734
5909602293,-14.400162,-1.056246,1.507754,1.014880,0.017152,-0.080864
5909622339,-14.703974,-0.598844,1.603824,1.013543,0.024532,-0.073773
5909642385,-14.971579,-0.278862,1.592668,1.008327,0.021529,-0.069594
5909662429,-14.426725,-0.080328,1.696056,0.998448,0.001216,-0.076473
5909682475,-14.142893,-0.202056,1.752086,0.988669,-0.020362,-0.078086
5909702521,-12.892425,-0.430781,1.568112,0.988063,-0.050855,-0.087920
5909722566,-11.235977,-0.552614,1.421754,0.984727,-0.079533,-0.097074
5909742612,-8.504530,-0.575494,1.101378,1.000869,-0.107144,-0.085593
5909762658,-4.339829,-0.278478,0.538165,1.016626,-0.128456,-0.060137
5909782703,-1.696262,-0.439037,0.013634,0.950121,0.031490,-0.099301
5909802749,-4.547352,-1.910418,0.112063,0.941989,0.169024,-0.154130
5909822795,-9.297443,-2.260499,0.862564,1.000026,0.086517,-0.147629
5909842841,-12.440658,-1.993735,1.235967,1.028470,0.093874,-0.125795
5909862886,-15.555132,-1.079473,1.484394,1.020000,0.082525,-0.105752
5909882934,-18.958963,-0.675698,1.816549,0.985293,0.098570,-0.109453
5909902980,-23.421112,-0.576440,2.407138,1.004200,0.137422,-0.121641
5909923025,-29.796261,0.032671,2.895605,1.016972,0.204635,-0.089200
5909943071,-38.471378,0.924297,3.878605,1.006836,0.246878,-0.062136
5909963117,-46.486813,0.879076,5.012394,0.971117,0.172104,-0.081556
5909983162,-52.264759,0.491180,6.004569,1.002566,0.160373,-0.105130
5910003208,-57.361710,0.841714,6.576074,1.010277,0.176591,-0.097209
5910023252,-63.153881,1.001626,7.184628,1.003478,0.186586,-0.098744
5910043298,-70.397064,1.108028,7.890289,1.016807,0.194395,-0.118047
5910063344,-77.728958,1.785334,8.320679,1.029595,0.159477,-0.120204
5910083390,-84.867775,2.577247,8.853920,1.026772,0.160275,-0.129417
5910103435,-91.316254,3.200992,9.091593,0.986525,0.129948,-0.114882
5910123481,-96.743271,2.773996,9.618602,0.949814,0.132426,-0.123973
5910143527,-102.726212,1.942270,9.859727,0.944944,0.143721,-0.163670
5910183619,-118.075363,-0.945484,11.871222,0.927581,0.275828,-0.296945
5910203664,-126.748123,-2.431096,13.068411,0.948638,0.235450,-0.306587
5910223710,-134.915863,-2.232429,14.227268,0.978967,0.158557,-0.291726
5910243756,-141.316177,-1.890324,14.602489,1.005113,0.106150,-0.318047
5910263803,-145.313278,-0.762373,15.081292,1.010913,0.023119,-0.359675
5910283848,-147.861130,-0.336546,14.968843,0.967095,0.021536,-0.343765
5910303894,-149.206894,-0.716943,15.401219,0.947287,0.015512,-0.338606
5910343986,-149.577866,-1.578653,15.212608,0.960905,-0.076905,-0.343859
5910364031,-148.545349,-1.837426,15.239285,0.992670,-0.079466,-0.325787
5910384077,-146.729919,-1.830868,14.577436,0.976540,-0.098532,-0.290894
5910404121,-144.655258,-1.740512,13.872073,0.996308,-0.127259,-0.295541
5910424167,-141.896851,-0.420693,14.150377,1.002572,-0.093746,-0.280907
5910444213,-139.109100,-0.975628,14.426714,0.964204,-0.074819,-0.245970
5910464259,-136.670715,-0.906478,14.386809,0.954359,-0.061449,-0.239198
5910484304,-133.670502,-1.537772,14.575221,0.987788,-0.091185,-0.260597
5910504350,-130.465973,-0.783375,14.174305,1.000449,-0.106552,-0.214854
5910524396,-127.200844,-1.012062,13.775485,0.991924,-0.143083,-0.184692
5910544441,-122.647751,-0.660807,13.548421,0.989915,-0.095221,-0.176839
5910564487,-120.230049,-0.607602,13.210954,0.975268,-0.032072,-0.208648
5910584533,-119.094879,-1.147879,13.427611,0.939726,-0.017857,-0.218051
5910604579,-117.510437,-1.626318,13.963928,0.971194,-0.006286,-0.234311
5910624624,-118.030014,-1.816921,13.989927,0.974798,0.064109,-0.247198
5910644671,-119.525078,-1.854965,14.187176,1.003011,0.021453,-0.265038
5910664717,-118.873642,-0.596243,14.651756,1.028325,-0.026821,-0.267387
5910684763,-117.615219,1.407835,14.406704,1.058806,-0.031220,-0.259366
5910704809,-115.914062,3.831053,14.105818,1.043135,-0.100434,-0.237197
5910724854,-113.113914,5.080772,13.734024,0.956047,-0.073344,-0.227860
5910744900,-112.634094,2.876397,12.860926,0.911910,-0.000476,-0.243840
5910764946,-113.050552,1.514757,13.981550,0.958770,-0.038915,-0.362768
5910784990,-113.762245,0.765710,13.126728,0.952955,0.000221,-0.295558
5910805036,-114.897095,0.994585,13.361947,1.030115,-0.008559,-0.282789
5910825082,-115.741592,1.443511,13.155239,0.986037,-0.006897,-0.231931
5910845127,-116.323029,1.671919,13.127554,0.961445,-0.008200,-0.228241
5910865173,-117.186790,1.578289,12.296425,0.914413,-0.032660,-0.234116
5910885219,-117.122314,0.076538,12.109137,0.900222,-0.086744,-0.248944
5910905264,-115.688377,-1.287570,11.963591,0.942041,-0.103599,-0.245998
5910925310,-113.398529,-1.462735,11.751629,0.979914,-0.112255,-0.233739
5910945356,-110.747452,-1.523254,11.639256,0.994018,-0.117144,-0.232065
5910985448,-105.239059,-0.982284,10.957462,0.979192,-0.076872,-0.235964
5911005495,-102.672638,-0.837147,10.807839,0.996360,-0.104168,-0.252461
5911025540,-99.968864,-0.364335,10.631538,0.998809,-0.086365,-0.218219
5911045586,-97.460236,-0.601777,9.834789,0.959855,-0.069767,-0.214586
5911065632,-95.394066,-0.457200,9.503839,1.015810,-0.086825,-0.183649
5911085678,-93.703079,0.184515,9.973227,0.987934,-0.017281,-0.136448
5911105723,-95.598396,0.213609,9.597269,0.978346,0.014177,-0.139242
5911125769,-97.282394,-0.754872,9.526190,0.944145,0.003354,-0.161426
5911145815,-98.283066,-1.143653,9.592750,0.955499,-0.048629,-0.192307
5911165859,-96.428513,-2.003704,9.857644,0.961665,-0.093626,-0.178085
5911185905,-93.516602,-2.300271,9.802127,1.008601,-0.098091,-0.169346
5911205950,-90.736519,-1.575987,9.608224,1.028098,-0.071219,-0.165548
5911225996,-88.869171,-0.882802,9.256383,1.007724,-0.074889,-0.166011
5911246042,-87.301750,-0.630909,9.248055,0.982292,-0.080132,-0.178096
5911266088,-85.155060,-0.798216,9.153467,0.977048,-0.055891,-0.149452
5911286133,-83.496353,-1.072163,9.137476,0.990671,-0.057855,-0.139151
5911306179,-81.373833,-1.003406,8.966156,1.002227,-0.051110,-0.141084
5911326225,-79.073654,-0.812442,8.890322,0.990107,-0.076483,-0.126583
5911346271,-76.614891,-0.857923,8.712858,0.989779,-0.055116,-0.132967
5911366316,-74.821945,-0.918902,8.502517,0.996026,-0.043202,-0.140083
5911386363,-73.204697,-0.850365,8.295155,0.985888,-0.051050,-0.145344
5911406409,-70.948433,-0.628677,8.327050,0.989244,-0.071419,-0.143007
5911426455,-68.392342,-0.590575,8.032798,1.001391,-0.073056,-0.152925
5911446501,-66.344193,-0.164404,7.540790,1.013246,-0.060402,-0.158050
5911466547,-64.623314,0.520966,7.123044,1.013372,-0.046396,-0.160163
5911486592,-63.320385,0.657896,6.868062,0.991531,-0.040615,-0.165247
5911506638,-62.144848,0.878950,6.752818,0.979555,-0.032618,-0.160427
5911526682,-61.706474,0.451668,6.485925,0.974887,-0.008044,-0.149676
5911546728,-61.651783,0.116540,6.562394,0.977200,-0.021776,-0.148967
5911566774,-60.859306,-0.013143,6.417543,0.978775,-0.053268,-0.159471
5911586820,-58.780788,-0.309931,6.362917,0.981079,-0.088829,-0.155730
5911606865,-55.468746,-0.363201,6.016093,0.981417,-0.114917,-0.144163
5911626911,-51.629601,-0.660241,5.652212,0.986774,-0.126541,-0.136882
5911646957,-46.974583,-1.003074,5.165671,0.980242,-0.122998,-0.134326
5911667002,-42.344910,-1.231922,4.541696,0.989484,-0.142982,-0.124919
5911687048,-37.444332,-1.079253,4.086948,0.992581,-0.131216,-0.110104
5911707094,-33.303112,-1.026164,3.502079,0.994940,-0.094366,-0.108662
5911727139,-30.272894,-0.812658,3.205684,1.007847,-0.069524,-0.115368
5911747186,-28.057354,-0.400796,3.092549,1.013255,-0.061417,-0.113840
5911767233,-25.957916,0.361386,2.888803,1.019962,-0.037211,-0.115175
5911787278,-23.880587,0.872199,2.739814,1.004273,-0.033601,-0.118635
5911807324,-22.446953,1.131182,2.520097,0.993485,-0.029515,-0.114010
5911827370,-20.897022,1.138934,2.398298,0.980840,-0.042994,-0.112138
5911847416,-19.248993,0.628361,2.222832,0.979624,-0.059747,-0.119533
5911867461,-17.198093,0.330958,1.908934,0.984299,-0.070202,-0.119323
5911887507,-14.952836,0.216913,1.766407,0.986156,-0.073281,-0.112995
5911907551,-12.235269,0.003704,1.530990,0.988850,-0.073538,-0.105778
5911927597,-10.016963,0.087259,1.159085,0.995207,-0.064789,-0.102361
5911947643,-7.231707,0.117773,0.852770,0.999590,-0.067322,-0.097711
5911967689,-4.270704,0.544577,0.526443,1.005145,-0.060028,-0.093279
5911987734,-2.171721,0.758037,0.316891,0.992643,-0.037126,-0.096100
5912007780,-0.904046,0.514325,0.239614,0.982710,-0.005576,-0.097798
5912027826,-0.461882,0.201841,0.178584,0.984851,0.005621,-0.094948
5912047871,-0.392456,0.110495,0.215748,0.998906,0.000455,-0.095906
5912067917,-0.277457,0.240112,0.228368,1.002052,0.004822,-0.098327
5912087963,-0.388533,0.353864,0.000902,1.002017,0.012560,-0.094889
5912108008,-0.600176,0.636077,0.126332,0.999243,0.001826,-0.092464
5912128056,-1.267146,0.742352,0.024298,0.995534,0.014288,-0.089789
5912148102,-1.930096,0.887252,0.143660,0.990832,0.014369,-0.092069
5912168147,-2.564175,0.468033,0.187926,0.982140,0.016910,-0.087840
5912188193,-3.567123,-0.058212,0.132724,0.975358,0.018991,-0.088908
5912208239,-4.161557,-0.629644,0.260783,0.975453,0.015807,-0.088905
5912228284,-4.697725,-0.934725,0.218713,0.985347,0.008728,-0.087791
5912248330,-4.613949,-1.216698,0.210384,0.994282,0.006374,-0.088847
5912268376,-4.726696,-1.025968,0.311276,1.005872,-0.001443,-0.094750
5912288420,-4.153620,-0.599123,0.275810,1.010298,-0.011359,-0.097987
5912308466,-3.527042,-0.172266,0.239307,1.003549,-0.013369,-0.097596
5912328511,-2.593033,0.094852,0.296708,0.998781,-0.014015,-0.098603
5912348557,-1.648432,0.109893,0.102576,0.996103,-0.016569,-0.100278
5912368603,-0.746830,0.064333,0.069949,0.989295,-0.013672,-0.102708
5912388649,0.078397,0.117827,0.038476,0.988902,-0.012219,-0.104066
5912408695,0.451627,0.033920,-0.037260,0.989162,-0.011765,-0.104797
5912428740,1.016700,-0.164152,-0.070490,0.987593,-0.007766,-0.105412
5912448786,1.535454,-0.202266,-0.133919,0.992154,-0.007040,-0.110575
5912468832,2.045876,-0.240471,-0.235394,0.993453,-0.003861,-0.114143
5912488877,2.267384,-0.255682,-0.247283,0.990723,0.000139,-0.113376
5912508925,2.137457,-0.240469,-0.244812,0.990554,0.005327,-0.112293
5912528971,1.800502,-0.415896,-0.268256,0.986368,0.017513,-0.110698
5912549016,0.983516,-0.629339,-0.198202,0.987159,0.035717,-0.106385
5912569062,-0.299595,-0.644741,-0.119763,0.997972,0.065842,-0.107527
5912589108,-2.961724,-0.423648,0.221533,1.005654,0.075763,-0.111306
5912609154,-6.033828,0.041562,0.715158,0.998248,0.086669,-0.111016
5912629199,-9.150596,0.086808,0.867183,1.004867,0.102778,-0.112608
5912649244,-12.558897,0.498615,1.375152,1.003237,0.103513,-0.106953
5912669289,-15.585570,0.697068,1.853501,0.987531,0.072640,-0.113442
5912689335,-18.203175,0.514119,2.134146,0.982424,0.071797,-0.122795
5912709381,-20.830965,0.224154,2.277799,0.986402,0.073983,-0.124863
5912729427,-23.431660,-0.011922,2.649990,0.983642,0.069519,-0.126170
5912749472,-25.699507,-0.027383,2.816311,0.984931,0.059240,-0.126266
5912769518,-27.792646,-0.241074,2.926411,0.985313,0.051700,-0.120995
5912789564,-29.707394,-0.027651,3.161532,0.992330,0.038433,-0.117825
5912809610,-31.249302,-0.096314,3.306302,0.992065,0.043546,-0.107299
5912829655,-32.528404,0.140275,3.597785,1.000950,0.029723,-0.111694
5912849701,-33.379074,0.133163,3.912332,0.957600,0.017531,-0.076439
5912869746,-33.171715,-2.557632,3.634532,0.941466,0.016459,-0.103849
5912889794,-33.169655,-2.701159,4.177513,1.008248,0.018525,-0.122602
5912909840,-34.647350,-1.755905,4.455208,1.042534,0.103869,-0.144752
5912929885,-38.392265,-0.316461,4.492517,1.009169,0.102620,-0.102423
5912969977,-43.609421,1.733652,5.121828,1.014879,0.060045,-0.107443
5912990023,-45.090797,1.802089,5.226759,0.965546,0.026946,-0.109905
5913010068,-45.267445,0.796055,5.218253,0.942362,-0.003310,-0.120625
5913030112,-44.769188,-0.629642,4.915315,0.944726,-0.024870,-0.122536
5913050158,-43.717842,-1.544292,4.737489,0.978882,-0.025441,-0.113132
5913070204,-42.720612,-1.857027,4.505219,0.985012,-0.046348,-0.109026
5913090250,-40.185856,-1.933029,4.303458,1.004496,-0.083620,-0.109841
5913110295,-36.374062,-1.421901,4.090245,1.013789,-0.119313,-0.084160
5913130341,-30.330734,-0.475955,3.801719,1.003910,-0.122761,-0.070550
5913150387,-28.127741,-1.398292,3.464025,0.897528,0.135090,-0.169564
5913170432,-34.217346,-4.408421,4.226451,0.942399,0.196511,-0.198663
5913190478,-39.560814,-4.453458,5.132639,1.003675,0.120120,-0.131226
5913210524,-43.993702,-5.307899,5.259707,0.994208,0.104377,-0.125592
5913230570,-47.124283,-5.811129,5.513165,0.986244,0.080880,-0.186328
5913250617,-48.950188,-6.420063,6.039675,0.936653,0.078400,-0.210352
5913270663,-51.502007,-7.882610,6.621321,0.914089,0.092361,-0.219340
5913290708,-54.927479,-9.795256,7.106795,0.918798,0.097013,-0.216342
5913310754,-58.223671,-11.775546,7.979701,1.079486,0.088487,-0.284064
5913330800,-61.909935,-7.507283,8.625410,1.031229,0.151276,-0.233055
5913350846,-67.087555,-4.854984,9.305440,1.045915,0.135357,-0.244808
5913370891,-71.087021,-2.217522,10.023789,1.029683,0.099347,-0.274791
5913390937,-73.158607,0.091938,10.392522,1.012608,0.031888,-0.288367
5913410981,-73.741135,2.355825,10.656097,1.028490,-0.012563,-0.282028
5913431027,-73.481911,4.824788,10.528226,1.029819,-0.035607,-0.246700
5913451073,-72.227219,7.064611,10.068502,1.033242,-0.036399,-0.234775
5913471119,-70.613869,9.944545,9.546197,1.121166,-0.086730,-0.269052
5913491164,-68.353416,14.106493,9.671873,1.076084,-0.036004,-0.200557
5913511210,-70.186943,18.822189,9.164492,1.135364,0.140678,-0.189696
5913531256,-76.179047,24.711401,9.085403,1.171689,0.173053,-0.174665
5913551302,-82.947449,13.662529,7.259104,0.422431,0.176212,0.176705
5913571347,-86.184036,4.901938,9.131532,0.884036,0.041598,-0.246884
5913591393,-88.339058,0.291204,9.356810,0.913385,0.036878,-0.265079
5913611439,-88.329376,-1.561264,9.110621,0.932410,-0.041871,-0.210261
5913631486,-87.445770,-2.131991,9.370468,0.983813,-0.039058,-0.152954
5913651532,-88.076180,-0.973324,9.562239,0.996854,-0.061559,-0.077703
5913671578,-88.997467,-4.679526,8.637272,0.871382,0.046544,-0.113053
5913691623,-89.646828,-1.245521,10.663425,1.117095,0.043273,-0.263842
5913711669,-93.369217,0.404271,9.400550,0.977456,0.086995,-0.167488
5913731714,-95.413383,-0.295715,10.122634,0.966535,0.049407,-0.167694
5913751760,-97.307678,-1.666648,10.698857,0.982726,0.052120,-0.190578
5913771806,-99.325615,-1.528955,11.150194,0.997022,0.049043,-0.193177
5913791850,-101.371521,-0.782294,11.302029,1.001198,0.035832,-0.156461
5913811896,-102.707405,-0.271812,11.402665,1.036608,0.025699,-0.153871
5913831942,-103.969254,1.137577,11.338404,1.023007,0.020610,-0.139106
5913851987,-104.326233,1.716937,11.450380,1.000371,0.010446,-0.158311
5913872033,-104.482132,2.525255,11.679959,1.006742,0.017044,-0.188297
5913892079,-104.102951,2.416284,10.664291,0.924593,0.043871,-0.125121
5913912125,-102.317612,4.241497,12.083090,1.010349,-0.110186,-0.115979
5913932170,-98.826935,-1.347696,10.391052,0.810912,-0.002387,-0.159871
5913952216,-99.915886,-3.206777,10.701104,0.945860,0.180838,-0.268232
5913972262,-102.641586,-3.983285,11.367896,0.968646,0.061543,-0.200430
5913992308,-104.138908,-3.897713,12.283074,0.989994,0.058265,-0.168018
5914012355,-105.732269,-3.280292,12.518256,1.063355,0.027033,-0.193545
5914032400,-106.224792,-1.680567,12.285602,1.033773,0.052043,-0.225308
5914052446,-106.824951,-0.361908,12.453327,0.973467,0.039878,-0.212549
5914072492,-107.439529,-0.255764,12.289146,0.994618,0.011320,-0.226207
5914092538,-106.800774,0.292618,12.076248,0.993265,-0.004105,-0.201921
5914112583,-106.148727,0.459726,11.765022,1.004092,-0.018858,-0.219692
5914132629,-105.370628,1.068336,11.220637,1.006835,-0.025496,-0.220000
5914152673,-104.605537,1.685854,11.226661,1.016769,-0.029412,-0.231147
5914172719,-103.446838,2.484858,10.582559,0.984966,-0.027052,-0.207551
5914192765,-102.113449,2.637018,10.319294,0.983231,-0.028618,-0.217323
5914212811,-100.447617,1.836210,9.869357,0.935308,-0.008214,-0.214361
5914232856,-100.402794,0.417712,9.437647,0.991512,0.024968,-0.274016
5914252902,-99.931839,0.592704,9.259814,0.985292,-0.009043,-0.261962
5914272948,-99.130157,0.539429,9.198586,0.990245,-0.009918,-0.246340
5914292994,-98.373787,0.470974,9.168856,0.966310,0.040095,-0.238572
5914313039,-97.682343,-0.161890,8.951225,0.883213,-0.077956,-0.307765
5914333085,-90.062233,-3.034078,8.469061,0.926744,-0.175370,-0.281839
5914353131,-87.805367,-2.284525,9.362671,1.063559,-0.021185,-0.195375
5914373178,-87.540924,-0.325446,9.542053,1.016446,-0.000241,-0.144406
5914393224,-87.837914,0.268023,9.163768,0.980333,0.014260,-0.145267
5914413270,-88.187683,-0.058501,9.706544,0.976221,0.030969,-0.158932
5914433315,-88.448730,-0.516923,9.239365,0.948723,-0.008631,-0.151862
5914453361,-86.403915,-1.484715,9.034799,0.966844,-0.065167,-0.138914
5914493453,-82.332504,-0.927840,8.801112,1.049493,-0.010905,-0.131517
5914513499,-81.523514,0.596253,8.665718,1.029209,-0.010753,-0.131807
5914533543,-81.073387,1.764142,9.417240,0.989989,0.018904,-0.151249
5914553589,-81.596642,1.772183,9.656610,0.964526,0.029132,-0.159184
5914573634,-81.382011,0.903591,9.716470,0.948056,0.010545,-0.161868
5914593680,-80.173775,0.286692,9.748569,0.970241,-0.034525,-0.150642
5914613725,-76.378937,0.066048,9.469348,0.998132,-0.153600,-0.117423
5914633771,-71.635582,-0.421992,8.798182,0.941073,-0.041724,-0.133248
5914653817,-70.314911,-1.785947,8.731248,0.941414,0.001448,-0.156202
5914673863,-69.824776,-2.609701,8.380614,0.972966,0.001455,-0.178436
5914693908,-69.443405,-2.556377,8.327188,1.014579,-0.031636,-0.148498
5914713954,-68.320000,-1.618845,8.264061,1.018844,-0.031872,-0.130597
5914734000,-67.330521,-1.154321,7.998788,0.998836,-0.002631,-0.143557
5914754047,-67.002594,-0.979075,7.945992,0.993877,0.040716,-0.166602
5914774093,-67.712517,-0.864812,8.005237,0.994458,0.050512,-0.183695
5914794138,-68.848557,-0.544648,8.171401,1.011422,0.046630,-0.180437
5914814184,-69.818550,-0.041830,8.211474,1.017186,0.020073,-0.181581
5914834230,-70.048836,0.643821,8.137245,1.015815,-0.011955,-0.183592
5914874321,-67.452194,1.984319,7.501647,0.990066,-0.054256,-0.161387
5914894366,-64.692413,1.915433,7.058610,0.964884,-0.070476,-0.156029
5914914411,-62.178329,1.335785,6.576194,0.953687,-0.073599,-0.163912
5914934457,-59.144596,0.696269,6.504173,0.954906,-0.081635,-0.182165
5914954503,-57.879631,0.063569,6.290697,0.957163,-0.028154,-0.190009
5914974549,-57.191772,-0.721177,6.302887,0.970399,-0.018028,-0.184986
5914994594,-56.404388,-0.972456,6.303728,0.975980,-0.039201,-0.176059
5915014640,-53.065041,-1.910103,5.806489,0.944112,-0.192593,-0.209303
5915034686,-46.563652,-1.886184,5.512144,1.038203,-0.133215,-0.146826
5915054732,-43.908283,0.040778,4.720624,1.058926,-0.086948,-0.081443
5915074777,-39.328308,0.673511,4.278141,0.984245,-0.179806,-0.109518
5915094823,-31.910919,0.208786,3.493878,0.976671,-0.240510,-0.117730
5915114870,-23.735575,-0.073709,2.335152,0.969065,-0.249878,-0.109869
5915134916,-15.096759,-0.507875,1.443030,0.984828,-0.192375,-0.118131
5915154962,-9.625249,-1.254578,0.880859,0.962445,-0.088896,-0.126545
5915175007,-6.073333,-1.718911,0.706503,0.976201,-0.084196,-0.103911
5915195053,-2.817243,-2.191630,0.239898,0.993354,-0.077168,-0.104488
5915215099,0.356282,-1.955480,-0.166333,0.987915,-0.089272,-0.103013
5915235145,3.736945,-2.298329,-0.513524,0.996544,-0.059647,-0.128082
5915255210,6.232749,-2.222029,-0.760885,0.994354,-0.042843,-0.141508
5915275235,7.713169,-2.267729,-0.919364,0.988733,-0.041127,-0.144047
5915295281,9.231554,-2.511581,-1.085561,0.984004,-0.032961,-0.152150
5915315326,9.743523,-3.320231,-1.497800,0.957298,-0.013681,-0.133299
5915335372,9.926666,-4.790953,-1.465892,0.957668,-0.006592,-0.137493
5915355418,10.058490,-6.063275,-1.319026,0.954737,0.026512,-0.140766
5915375464,8.656479,-7.237547,-1.433100,0.949805,0.059489,-0.162977
5915395509,6.609676,-8.448439,-0.839167,0.955434,0.062769,-0.164622
5915415555,4.604796,-9.309297,-0.476458,0.967685,0.054509,-0.164545
5915435601,3.332156,-9.682486,-0.228918,0.962365,0.042762,-0.166432
5915455646,2.105878,-9.423110,0.023256,1.101432,0.026920,-0.237949
5915475693,1.371754,-5.650264,0.307675,1.074632,0.050385,-0.219012
5915495739,0.124592,-2.175840,0.136913,1.045359,0.059959,-0.181855
5915515785,-1.100222,1.108998,0.363704,1.061961,0.034126,-0.194350
5915535831,-2.204353,4.233627,0.504631,1.041579,0.027081,-0.200345
5915555876,-3.080354,6.527539,0.605689,1.026349,0.018318,-0.204428
5915575922,-4.227885,7.830225,0.524280,1.030001,0.034774,-0.213233
5915595968,-5.365045,10.040088,0.561913,1.072124,0.031982,-0.232102
5915616014,-6.370034,11.823530,0.735947,1.028153,0.026905,-0.185682
5915636058,-7.278256,12.928449,0.788099,1.000447,0.017971,-0.173213
5915656104,-7.690543,13.469460,0.801940,1.007497,0.007867,-0.182666
5915676149,-7.681445,12.675152,0.063187,0.796176,-0.009078,0.032567
5915696195,-6.997277,2.464562,0.626447,0.916853,-0.079694,-0.184969
5915716241,-5.229050,2.732010,0.728792,0.908957,-0.023258,-0.159329
5915736287,-4.481804,0.947794,0.254104,0.986316,-0.023865,-0.154928
5915756332,-3.038458,0.490736,0.174129,0.962453,-0.037738,-0.108383
5915776378,-1.454807,0.216951,0.236008,0.998295,-0.031660,-0.096387
5915796424,0.079964,0.925787,0.096887,1.024351,-0.030255,-0.095018
5915816469,0.886856,2.152413,-0.144456,1.031168,-0.009231,-0.095532
5915836515,0.945308,2.502612,-0.307226,0.993120,0.058547,-0.113423
5915856562,-0.490390,2.250981,-0.202116,0.979763,0.070501,-0.133277
5915876608,-2.303444,1.725558,0.186321,0.971510,0.065508,-0.120692
5915896654,-3.765501,0.887702,0.546063,0.964183,0.036059,-0.099276
5915916700,-5.002951,0.285518,0.633211,0.974772,0.010633,-0.081713
5915936746,-5.387224,-0.027276,0.534729,0.963988,-0.020962,-0.088830
5915956791,-4.156265,-0.537512,0.550749,0.989728,-0.059619,-0.106815
5915976836,-2.378483,-0.407972,0.340068,0.999303,-0.078804,-0.108853
5915996881,0.143027,-0.400881,-0.175012,0.998903,-0.064879,-0.104966
5916016927,2.072798,-0.355244,-0.434212,0.996927,-0.035765,-0.101349
5916036972,3.578217,-0.400670,-0.478555,0.986256,-0.014745,-0.089492
5916057018,4.387338,-0.812126,-0.538734,0.981629,0.006194,-0.076830
5916077064,4.616391,-0.758764,-0.558639,1.000476,0.003967,-0.065619
5916097110,5.134620,-0.751224,-0.652776,0.999380,0.004909,-0.046084
5916117156,5.740024,-0.628958,-0.580875,1.007103,0.003469,-0.043490
5916137201,5.947114,-0.331625,-0.555317,1.005909,0.006288,-0.043656
5916157247,6.090568,-0.049870,-0.666019,1.013078,0.001662,-0.041592
5916177293,6.464628,0.110181,-0.704376,1.002565,-0.010620,-0.033132
5916197339,6.968402,0.125445,-0.752409,1.000461,-0.034062,-0.015265
5916237431,4.756062,0.139746,-0.900565,0.961732,0.298808,-0.033585
5916257477,-6.595867,-1.164098,0.118762,0.916959,0.213397,-0.093137
5916277523,-6.803204,-4.080874,1.018904,0.881153,-0.133043,-0.177736
5916297569,-2.782942,-5.780317,0.572121,1.004633,-0.077042,-0.145893
5916317614,-1.471953,-4.934641,0.314623,1.067384,-0.010815,-0.146710
5916337660,-0.807054,-3.128482,0.234577,1.036713,0.011732,-0.129703
5916357705,-1.518700,-3.121127,0.202512,0.964139,0.021851,-0.160799
5916377750,-3.090442,-3.342108,0.394217,0.955299,0.023293,-0.213120
5916397796,-4.237978,-3.967367,0.380358,0.947798,0.046490,-0.207402
5916417841,-5.693387,-5.094923,0.695087,0.945667,0.045344,-0.184760
5916437887,-6.973318,-6.534915,0.999809,0.951175,0.049375,-0.173332
5916457933,-8.201254,-7.959851,1.219416,0.950988,0.054617,-0.192673
5916477979,-9.357894,-9.338722,1.575033,0.949933,0.035479,-0.211142
5916498024,-10.145833,-10.527761,1.594281,0.955052,0.011368,-0.217272
5916518070,-10.645660,-11.457944,1.469530,0.964260,-0.003185,-0.223940
5916538116,-10.675750,-11.816044,1.509513,0.974787,-0.018544,-0.223731
5916558161,-10.715078,-11.831437,1.449196,0.979431,-0.022360,-0.224712
5916578207,-10.351137,-12.380402,1.298774,1.094040,-0.024216,-0.289390
5916598254,-10.811985,-7.663808,1.016922,1.070626,0.016055,-0.235045
5916618300,-11.478788,-4.767476,1.249462,1.029001,-0.000272,-0.224868
5916638346,-12.023882,-2.160765,1.457680,1.013273,0.032044,-0.199508
5916658392,-12.635799,0.743379,1.765543,1.057840,0.025615,-0.219774
5916678438,-13.050382,4.348458,1.967905,1.048404,0.015351,-0.202439
5916698483,-13.241224,6.924120,1.894260,1.032395,-0.010289,-0.180973
5916718529,-12.685181,8.630950,1.717318,1.021168,-0.040004,-0.153226
5916738573,-11.483490,9.667805,1.751679,1.116225,-0.046280,-0.179528
5916758619,-10.126902,13.896887,1.359770,1.090758,-0.051615,-0.140051
5916778665,-8.502353,16.983032,1.027597,1.126863,-0.052618,-0.119332
5916798711,-7.272066,21.296385,0.836535,1.059247,0.024351,-0.110954
5916818756,-8.815655,25.258661,0.746316,1.126656,0.048318,-0.143552
5916838802,-11.669441,22.898008,-1.391188,0.568335,-0.002444,0.322844
5916858848,-11.219849,4.643576,0.861599,0.903016,0.009368,-0.225550
5916878893,-10.753187,2.982502,0.934488,0.765273,0.005860,-0.191695
5916898939,-10.643150,-1.817892,1.269276,0.900613,0.004036,-0.203078
5916918985,-10.597479,-3.822055,1.328552,0.949188,-0.021200,-0.108457
5916939031,-10.537977,-3.326933,1.218769,1.009984,-0.029955,-0.067268
5916959078,-9.735236,-1.779800,1.159834,1.072230,-0.030770,-0.065060
5916979124,-8.930962,0.650499,0.731140,1.078177,-0.032389,-0.059802
5916999169,-8.503225,2.791872,0.631655,1.010566,-0.023681,-0.069921
5917019215,-7.212915,1.313632,0.580973,0.951756,-0.016993,-0.097887
5917039261,-6.562220,-0.271120,0.680603,0.928654,0.012370,-0.090824
5917059307,-6.408336,-1.855983,0.789874,0.978303,-0.002167,-0.069588
5917079353,-6.230194,-2.091869,0.924749,1.031058,-0.022961,-0.039044
5917099398,-5.293818,-1.170086,0.666625,1.061810,-0.020576,-0.001627
5917119443,-5.505661,1.642052,0.691940,1.173872,0.080515,0.125380
5917139488,-8.103814,6.098450,0.192617,1.013134,-0.020855,0.139818
5917159534,-5.840868,0.430486,0.801817,0.604916,0.005249,-0.199309
5917179579,-8.327958,-7.344196,0.532095,0.902226,0.050698,-0.260191
5917219671,-8.844429,-5.628319,1.086588,1.104290,-0.067340,-0.091689
5917239717,-7.500174,-4.416510,0.964772,1.028073,-0.044576,-0.068006
5917259762,-6.561949,-4.699492,0.427890,0.965422,-0.019146,-0.143687
5917279808,-5.121114,-3.906149,0.588327,0.968636,0.004073,-0.238551
5917299854,-4.899868,-3.418452,0.544203,0.974129,0.022097,-0.236769
5917319899,-5.310225,-3.357272,0.681867,0.994370,0.014350,-0.210049
5917339947,-5.648914,-3.326183,0.978710,0.994942,0.003278,-0.194881
5917359992,-6.310955,-3.280230,1.151874,0.990756,0.004274,-0.193994
5917380038,-6.412212,-3.699617,1.063538,0.956146,0.013670,-0.202679
5917400084,-7.045179,-4.819762,1.194171,0.934960,0.028652,-0.201435
5917420130,-7.787994,-6.328938,1.183043,0.939112,0.018199,-0.199854
5917440175,-8.023820,-7.266147,1.282437,0.960891,-0.014264,-0.209522
5917460221,-8.122390,-7.807110,1.347282,0.971216,-0.003976,-0.213528
5917480265,-8.388347,-8.454697,1.461579,0.959740,0.006681,-0.196556
5917500311,-8.760474,-8.850727,1.615306,0.966421,0.001696,-0.191306
5917520357,-8.996482,-9.147852,1.682006,0.975382,0.009162,-0.195193
5917540403,-9.074544,-9.102358,1.591672,0.991272,-0.000268,-0.191091
5917560448,-8.321520,-7.928141,1.756546,1.131747,-0.029454,-0.246905
5917580494,-7.702501,-3.623516,1.164736,1.064013,-0.063070,-0.217553
5917600540,-6.110123,-0.438518,0.741161,1.027667,-0.089886,-0.175041
5917620586,-4.012772,2.449467,0.346984,1.090360,-0.066145,-0.176694
5917640632,-2.393994,6.053048,-0.323023,1.055560,-0.032364,-0.130768
5917660677,-0.879034,8.827395,-0.361656,1.158495,-0.033383,-0.175005
5917680723,0.090681,15.038057,-0.653317,1.168813,-0.022292,-0.135621
5917700770,1.590392,22.674181,-0.860669,1.238096,-0.057834,-0.125668
5917720816,4.303016,31.232328,-1.255097,1.261481,-0.075252,-0.116960
5917740862,6.336218,31.945135,-3.008608,0.341787,-0.094599,0.564061
5917760907,10.398613,2.258703,-1.406822,0.882175,-0.065164,-0.274726
5917780953,13.148344,3.027739,-2.012923,0.655353,0.026455,-0.236061
5917800999,12.618211,-3.427160,-1.927657,1.000606,0.039888,-0.333565
5917821045,12.455072,-2.998815,-1.238186,0.989791,0.057751,-0.149676
5917841089,11.716510,-1.908904,-1.105221,1.006047,0.064660,-0.061911
5917861135,10.763258,-0.560038,-1.014800,1.057054,0.058287,-0.055417
5917881181,10.348660,0.621772,-0.727955,1.011762,0.007587,-0.033500
5917901227,11.046947,1.811057,-0.630843,0.990637,-0.002149,-0.069435
5917921272,11.933057,0.927230,-0.645095,0.980033,0.007377,-0.127640
5917941318,12.732329,0.035405,-0.810464,0.963607,-0.001827,-0.122533
5917961364,13.957417,-1.092843,-1.097930,0.965786,-0.007596,-0.094420
5917981409,15.136037,-2.220187,-0.994784,0.997309,-0.014223,-0.060269
5918001455,16.005747,-1.923011,-1.111988,1.043373,-0.010289,-0.034282
5918021501,16.834103,-0.368895,-1.446535,1.057375,0.016400,-0.026304
5918041546,17.107887,1.558933,-1.595812,1.051823,0.014244,-0.005963
5918061594,17.003471,2.466065,-1.482184,1.012969,0.052206,-0.010265
5918081639,16.293108,2.305940,-1.437301,1.000777,0.072905,0.027581
5918101685,15.629648,2.046896,-1.331868,1.010326,-0.019926,0.048814
5918121731,14.627159,2.076995,-1.381288,0.931152,0.188232,0.018954
5918141777,6.358475,-1.628161,-1.017470,0.812794,0.269598,-0.174153
5918161822,2.585162,-5.543552,0.176794,0.895413,-0.105325,-0.258091
5918181868,5.586615,-6.403294,0.442356,1.066033,0.020747,-0.148645
5918201914,5.018976,-3.577532,-0.182636,1.148885,0.034220,-0.108686
5918221958,5.081173,0.408054,-0.265884,1.100181,-0.011847,-0.088171
5918242004,5.163587,3.273103,-0.460417,1.051867,-0.023682,-0.156682
5918262050,5.231397,5.062778,-1.002592,0.983099,-0.039745,-0.181263
5918282095,6.364629,4.414574,-1.312799,0.957992,-0.052791,-0.181449
5918302141,7.491779,3.362692,-1.522205,0.969039,-0.006787,-0.154571
5918322187,8.185919,2.135792,-1.569797,0.954127,0.037969,-0.143316
5918342232,7.561447,1.053860,-1.393607,0.952996,0.066962,-0.157960
5918362278,6.266927,-0.370804,-1.050445,0.936692,0.061376,-0.165571
5918382324,5.675603,-1.048516,-0.746340,0.968506,0.039299,-0.175245
5918402370,5.126357,-0.629381,-0.691229,0.997687,0.011349,-0.160083
5918422415,5.421790,-0.210541,-0.858826,1.015036,-0.011381,-0.166695
5918442463,6.104627,0.589090,-1.180396,0.986494,-0.004842,-0.149153
5918462508,7.023551,0.726686,-1.106988,1.005069,-0.029021,-0.153787
5918482554,8.727839,1.412875,-1.172909,1.029826,-0.041407,-0.130042
5918502600,10.656237,2.289942,-1.113909,1.000003,-0.033884,-0.068816
5918522646,12.483637,2.137037,-1.530931,0.982437,-0.007584,-0.049224
5918542692,13.234484,1.687839,-1.429384,0.975969,0.037609,-0.055271
5918562737,11.912827,0.857009,-1.339840,0.945798,0.120726,-0.100193
5918582781,8.971829,0.004083,-0.737390,0.961537,0.133760,-0.151409
5918602827,5.843230,-1.002825,-0.780310,0.967660,0.073374,-0.145240
5918622873,3.871468,-1.512809,-0.289506,1.025592,0.051957,-0.111424
5918642919,2.548934,-0.271022,-0.321468,1.025880,0.013524,-0.083860
5918662964,3.306715,0.201751,-0.291897,1.002641,-0.038100,-0.089097
5918683010,4.677454,0.056615,-0.593104,0.974748,-0.050046,-0.081884
5918703056,6.116684,-0.126646,-0.910797,0.973300,-0.026690,-0.094335
5918723102,7.171309,-0.377901,-0.930424,0.980131,0.008836,-0.073722
5918743147,7.653058,-0.949290,-0.907304,0.987880,0.024784,-0.063804
5918763193,7.825359,-0.925852,-0.681482,1.018086,0.028249,-0.084569
5918783239,7.810712,-0.293284,-0.668021,1.008264,0.024469,-0.053349
5918803286,8.108759,-0.361806,-0.673576,1.003133,0.008182,-0.050330
5918823332,8.896185,-0.064415,-0.689846,1.024361,0.000136,-0.039149
5918843378,9.992768,0.575413,-0.957780,1.024211,-0.031688,-0.029653
5918863424,12.612655,1.368285,-1.133520,1.032256,-0.103384,0.009998
5918883471,17.985260,2.610527,-1.738601,1.019394,-0.072285,0.012889
5918903515,14.237006,0.170787,-1.749444,0.870255,0.430418,-0.076361
5918923560,-0.645645,-1.530042,-0.622078,1.014824,0.317447,-0.031253
5918943605,-6.098042,-1.968635,1.464317,0.915794,0.027593,-0.166611
5918963651,-5.719684,-4.134212,0.898718,0.953520,-0.092431,-0.164241
5918983696,-3.223995,-3.159718,0.189882,1.060786,0.031199,-0.150117
5919003742,-2.967201,-1.932195,0.394773,1.057809,0.001671,-0.125688
5919023788,-3.243731,-0.140664,0.684550,1.028463,0.019541,-0.130755
5919043834,-5.033557,0.948476,0.608673,1.009329,0.017306,-0.196420
5919063879,-6.339682,1.504583,0.662732,0.973837,0.020244,-0.203808
5919083925,-7.588240,1.215372,0.970656,0.958254,0.024873,-0.196742
5919103971,-8.612782,0.376862,1.000969,0.970111,0.028115,-0.173166
5919124016,-9.580829,-0.057370,1.181670,0.990033,0.016045,-0.173395
5919144062,-10.104548,-0.156075,1.398480,0.966761,0.016948,-0.157658
5919164110,-10.164791,-0.026426,1.445066,0.996650,-0.019556,-0.144309
5919184155,-9.724516,0.453360,1.251530,1.005047,-0.031551,-0.091872
5919204201,-8.327809,0.796326,1.101023,0.994471,-0.036129,-0.047385
5919224247,-6.894582,0.346564,0.883674,0.975810,-0.053783,-0.035327
5919244292,-5.807894,-0.430293,0.964513,0.928841,0.037100,-0.098766
5919284384,-12.255819,-2.915573,1.342430,0.963731,0.056568,-0.180367
5919304429,-13.688776,-3.677410,1.617298,1.032282,0.012679,-0.156408
5919324474,-14.220979,-2.358844,1.737857,1.064034,-0.011411,-0.120871
5919344520,-13.933873,-0.148323,1.893039,1.051350,-0.063402,-0.084530
5919364565,-13.109273,0.871880,1.369306,1.009609,-0.062354,-0.074651
5919384611,-11.696873,1.443513,1.233016,0.997300,-0.064173,-0.063817
5919404657,-10.247685,1.207212,1.045212,0.977250,-0.055836,-0.065759
5919444748,-8.096563,-0.476958,0.825683,0.988318,-0.004703,-0.071479
5919464794,-7.695934,-0.805122,0.582117,0.980779,0.006779,-0.053940
5919484840,-7.621546,-1.003500,0.474354,0.999120,-0.010292,-0.051138
5919504886,-7.213747,-0.850651,0.611119,1.010859,-0.029658,-0.054665
5919524931,-6.444566,-0.424103,0.426662,1.013026,-0.032089,-0.041626
5919544979,-5.215594,0.162731,0.293881,1.021677,-0.040242,-0.028960
5919565024,-3.461956,0.581681,0.006290,1.044363,-0.099657,-0.001652
5919585070,1.388483,2.030233,-0.306612,1.095060,-0.187037,0.085410
5919605116,4.040038,3.768176,-0.455546,0.961268,0.259035,0.060807
5919625162,-6.293684,-0.859677,-0.094434,0.748251,0.183818,-0.167826
5919645207,-5.750545,-5.489684,1.354675,0.885598,-0.133068,-0.247438
5919665253,-4.121346,-5.688287,0.972216,1.058836,-0.008012,-0.149383
5919685297,-2.916534,-3.882365,0.728865,1.134883,-0.040914,-0.143907
5919705343,-1.309233,-0.505911,0.701718,1.116996,0.004330,-0.111088
5919725389,-1.147753,2.998614,0.205506,1.067783,0.004756,-0.139117
5919745435,-1.088361,4.743457,0.045716,0.984608,-0.006860,-0.157288
5919765480,-1.554287,4.224218,-0.333228,0.938703,-0.015129,-0.165387
5919785526,-1.279853,2.486749,-0.317486,0.923222,-0.012955,-0.157865
5919805572,-0.912499,0.680873,-0.234546,0.954128,-0.008449,-0.155857
5919825617,-0.578521,-0.485265,-0.328842,0.952744,0.005858,-0.141152
5919845663,-0.751338,-1.780375,-0.114858,0.955711,0.005138,-0.138841
5919865709,-0.827213,-2.489010,-0.057536,0.988031,0.002628,-0.144653
5919885754,-0.318006,-5.189847,-1.403321,0.761411,0.033116,0.051699
5919905802,-0.294763,-7.142274,1.223746,1.208932,-0.029005,-0.314853
5919925847,-2.049635,-0.424107,-0.078898,1.056628,0.098691,-0.099867
5919945893,-3.037096,1.420594,0.216855,1.056763,0.024266,-0.053540
5919965939,-3.054938,2.730956,0.029444,1.007339,-0.056815,-0.078434
5919985985,-0.690593,3.035639,-0.307823,0.989948,-0.046730,-0.123452
5920006031,0.634285,2.410412,-0.591259,0.995098,-0.032347,-0.174218
5920026076,1.897839,2.296702,-0.477853,1.013635,-0.024529,-0.193429
5920046121,2.704281,3.326134,-0.313534,1.036110,-0.036287,-0.120989
5920066167,2.051598,1.214765,-0.393179,0.994611,0.056784,-0.238356
5920086212,2.806615,7.876875,0.112534,0.932659,0.028024,0.118414
5920106258,1.546587,-0.097110,-0.791650,0.972813,0.034191,-0.082445
5920126304,1.748978,0.628335,-0.194318,0.926741,-0.014563,-0.092199
5920146349,1.872296,-0.568889,-0.521307,0.991418,0.000203,-0.129819
5920166395,2.284885,-0.103975,-0.553786,0.995443,-0.002427,-0.076234
5920186441,3.257266,-0.286428,-0.472707,1.009011,-0.006315,-0.073826
5920206487,3.445415,-0.111499,-0.645053,1.012980,-0.011201,-0.062176
5920226533,3.810724,0.520867,-0.761227,1.011926,0.001729,-0.054281
5920246578,4.232413,1.359368,-0.726352,1.024493,0.011669,-0.050881
5920266626,4.463337,1.550139,-0.647412,1.000224,0.006129,-0.025404
5920286671,4.639189,1.169169,-0.634273,0.990277,0.017224,-0.019352
5920306717,4.525680,0.994024,-0.562714,1.008962,0.056370,-0.019100
5920326763,3.765765,1.230657,-0.311872,1.020670,0.067613,0.001924
5920346808,2.086615,2.092680,0.245101,1.055845,0.083135,0.056763
5920366854,0.851316,3.312036,0.387275,0.957401,0.020215,0.054098
5920386900,0.012017,-0.383825,0.614543,0.771383,0.128034,-0.145797
5920406944,-5.126941,-5.200380,1.158216,0.925873,0.036160,-0.217905
5920426990,-3.523293,-4.819191,1.034132,1.019510,-0.041185,-0.202670
5920447036,-2.445123,-2.799501,0.968280,1.152106,-0.005458,-0.119568
5920467081,-1.655888,0.745380,1.361444,1.095946,-0.012775,-0.094906
5920487127,-1.870784,3.762870,1.210380,1.072020,0.016675,-0.141388
5920507173,-2.641646,5.446937,1.227373,0.966014,-0.000043,-0.144999
5920527219,-2.415570,3.922501,1.098157,0.944458,-0.028710,-0.185615
5920547265,-1.762085,2.527627,0.922008,0.942092,-0.024238,-0.175143
5920567310,-1.285882,1.185864,0.665067,0.954571,-0.001410,-0.136723
5920587356,-1.406458,0.468756,0.364136,0.992199,0.004294,-0.131746
5920607402,-1.116319,0.179208,0.351829,0.982487,-0.002330,-0.114321
5920627449,-0.976648,-0.018618,0.472041,0.982337,-0.006231,-0.107958
5920647494,-0.802018,0.354667,0.390995,1.006841,-0.007689,-0.077600
5920667540,-0.986653,0.910755,0.308670,1.027058,0.013650,-0.064908
5920687586,-1.562376,1.154155,0.173844,0.985723,0.023735,-0.037713
5920707631,-1.561482,0.552265,0.244603,0.976613,0.017950,-0.061059
5920727678,-2.327688,0.263269,0.589015,0.989702,0.038167,-0.111879
5920747723,-3.092593,-0.026549,0.581898,0.983728,0.012910,-0.139695
5920767769,-2.813288,0.233143,0.797216,1.064760,-0.000791,-0.135062
5920787813,-2.891149,2.305671,0.646639,1.059053,-0.014821,-0.089644
5920807859,-2.396652,3.555217,0.464772,1.014541,-0.026500,-0.072435
5920827905,-1.856669,3.196832,0.317941,0.944490,-0.021763,-0.061989
5920847951,-1.227730,1.870326,0.050344,0.931229,-0.028385,-0.092434
5920867996,-0.634352,0.125039,-0.054698,0.916886,-0.010656,-0.086591
5920888042,0.101584,-1.352859,0.104054,0.951336,-0.045971,-0.073412
5920908088,1.413257,-2.435039,-0.047700,0.967868,0.011784,-0.094215
5920928133,1.126335,-3.129089,-0.246141,0.972688,0.014064,-0.095209
5920948179,1.152443,-3.357280,-0.062493,0.991146,0.006821,-0.090428
5920968225,1.198038,-3.098213,-0.087165,1.016814,-0.005242,-0.091118
5920988271,1.467237,-2.564511,-0.017751,1.022579,0.009234,-0.089697
5921008318,1.228957,-1.535992,-0.123532,1.031775,0.011263,-0.081415
5921028364,1.389790,-0.972010,-0.128530,1.014813,0.006618,-0.070497
5921048409,1.504192,-0.202362,-0.171520,1.015842,0.005819,-0.059529
5921068455,1.624939,-0.492109,-0.249312,0.987565,-0.002134,-0.057945
5921088501,1.827299,-0.643998,-0.046414,0.994337,0.004801,-0.051989
5921108547,1.870661,-0.911025,-0.176271,0.987925,0.018752,-0.027757
5921128592,0.743803,-1.132694,-0.329421,1.014879,0.061025,-0.015033
5921148636,-1.062957,-0.408556,-0.059888,1.019696,0.027227,0.005911
5921168682,-0.598662,-0.567740,0.252574,0.962089,-0.064789,-0.022457
5921188728,2.292105,-2.175768,-0.080900,0.920816,-0.075322,-0.080741
5921208774,4.715418,-4.218418,-0.457345,0.925614,-0.035181,-0.124281
5921228820,5.742455,-5.377102,-0.702660,1.001437,0.031842,-0.148833
5921248865,3.779623,-4.234298,-0.622529,1.084006,0.072509,-0.112545
5921268911,2.063350,-1.574734,-0.491100,1.096887,-0.005202,-0.083224
5921288957,2.195227,1.321275,-0.488018,1.063052,-0.010524,-0.080732
5921309003,2.804350,2.052660,-0.655101,1.011598,0.001440,-0.115550
5921329048,3.155233,2.502246,-0.716897,0.982821,0.014672,-0.119802
5921349094,3.389704,1.564676,-0.825305,0.966859,0.025776,-0.103299
5921369141,3.312263,0.872069,-0.431783,0.983970,0.023001,-0.092148
5921389187,3.216746,0.605835,-0.207441,0.984289,0.010566,-0.075975
5921409233,3.132683,0.148598,-0.189005,0.992703,0.013846,-0.080027
5921429279,2.995371,0.133362,-0.171007,0.999680,0.011304,-0.083228
5921449325,3.016865,0.514197,-0.264389,1.009227,0.007245,-0.071220
5921469370,2.818791,0.925735,-0.238991,0.988455,0.010430,-0.053533
5921489416,3.235127,0.232845,-0.023161,0.967006,-0.006474,-0.078012
5921509460,3.950666,-0.300799,-0.180456,0.970476,-0.003990,-0.116837
5921529506,4.442938,-1.002349,-0.416916,0.977266,0.027551,-0.137521
5921549551,4.137324,-1.040504,-0.403218,1.019562,0.012155,-0.133405
5921569597,3.918467,-0.011445,-0.280134,1.036891,0.015115,-0.119998
5921589643,3.660764,1.360440,-0.203286,1.019257,0.007952,-0.091545
5921609689,3.527229,1.573312,-0.407723,0.995443,0.007084,-0.099943
5921629734,3.642468,1.641998,-0.379622,0.971510,0.001126,-0.105244
5921649780,3.547761,1.001480,-0.520839,0.952449,0.013119,-0.098039
5921669826,3.449383,-0.164325,-0.423352,0.963729,-0.013964,-0.092468
5921689871,4.220852,-1.032936,-0.435430,0.980985,-0.003204,-0.092235
5921709917,4.178480,-1.307817,-0.655294,0.988636,0.016475,-0.082413
5921729965,4.003544,-1.490633,-0.597801,0.999267,0.016220,-0.080597
5921750010,4.152081,-1.002468,-0.434197,1.014071,0.014994,-0.065687
5921770056,3.958907,-0.804654,-0.553370,1.014505,0.026482,-0.051643
5921790102,3.636314,-0.323857,-0.227770,1.027382,0.038775,-0.055877
5921810147,2.437554,0.377106,-0.160994,1.017939,0.040495,-0.052724
5921830193,1.544051,0.735161,-0.114283,1.023833,0.046885,-0.044937
5921850239,0.681383,1.070396,-0.052811,0.995876,-0.010193,-0.043912
5921870305,1.583346,0.933439,-0.062215,0.996647,-0.035829,-0.033624
5921910375,2.156025,1.046806,-0.532192,0.995065,0.002288,-0.032844
5921930421,2.004640,1.222232,-0.453424,0.995521,-0.013269,-0.033824
5921950466,2.637119,1.016376,-0.564350,0.987376,-0.027692,-0.054994
5921970512,4.092052,0.596942,-0.850995,0.971246,-0.039730,-0.058602
5921990558,5.986616,-0.119072,-0.915939,0.965139,-0.015315,-0.085591
5922010603,6.469935,-0.835043,-0.800671,0.965851,0.045344,-0.097414
5922030649,4.761466,-1.254073,-0.552164,1.005073,0.085602,-0.102688
5922050695,2.785350,-0.705396,-0.339892,1.039842,0.026454,-0.088658
5922070741,2.502368,0.658557,-0.392432,1.041102,0.007365,-0.081114
5922090787,2.609385,1.397755,-0.419894,1.010277,0.006762,-0.088303
5922110833,3.012753,1.275696,-0.519012,0.982416,0.005265,-0.088461
5922130879,2.917188,0.925632,-0.294390,0.973423,0.028895,-0.094066
5922150925,2.100108,0.308300,-0.215349,0.974164,0.021636,-0.084263
5922170971,1.635187,-0.278399,-0.112677,0.987607,0.019018,-0.083580
5922191016,1.452090,-0.164090,-0.094221,0.981091,-0.006816,-0.077071
5922211063,2.470613,-0.438932,-0.418728,0.974901,-0.048882,-0.093145
5922231108,4.645517,-0.637020,-0.643666,0.993151,-0.045963,-0.103628
5922251152,6.001358,-0.347750,-0.938389,1.011118,-0.018588,-0.122862
5922271198,6.705719,0.269808,-0.908263,1.019123,0.012901,-0.122687
5922291244,6.612512,0.559167,-0.999115,1.003671,0.036177,-0.117197
5922311289,5.821280,0.940483,-0.793995,0.995036,0.048269,-0.114165
5922331335,4.563014,0.658623,-0.600529,0.982614,0.047912,-0.099610
5922351381,3.648485,0.491117,-0.429397,0.985118,0.039731,-0.098096
5922371427,2.856512,0.064581,-0.236856,0.985355,0.034186,-0.095549
5922391472,2.084872,0.155896,-0.206904,0.979947,0.020819,-0.087628
5922431564,1.746274,-0.476965,-0.305207,0.995065,-0.001718,-0.086577
5922451609,1.839066,-0.530148,-0.245699,0.999959,0.003770,-0.073689
5922471657,1.931168,-0.583420,-0.224385,0.996311,0.005312,-0.073266
5922491702,1.901645,-0.674734,-0.162376,0.995140,0.020961,-0.071456
5922511748,1.742319,-0.537450,-0.098610,1.006040,0.021434,-0.069827
5922531794,1.596966,-0.286028,-0.111910,1.007691,0.020081,-0.064679
5922551840,1.306906,0.140696,-0.100060,0.999029,0.019459,-0.049280
5922571886,1.177268,0.178807,-0.082389,0.997530,0.012001,-0.046882
5922611976,0.468394,0.689464,0.021364,1.023260,0.029083,-0.027922
5922632021,-0.779083,1.458629,-0.071613,1.018050,0.045685,0.002096
5922652067,-0.307096,1.383277,0.240421,0.970979,-0.070249,-0.030951
5922672113,1.600166,0.003960,0.055175,0.929831,-0.016429,-0.068828
5922692158,1.772962,-1.375671,-0.065848,0.965973,0.027731,-0.077415
5922712204,1.183384,-1.756955,-0.098987,1.030145,0.033643,-0.079246
5922732250,0.002316,-0.468910,0.080113,1.058244,0.032532,-0.061749
5922752296,-0.906517,1.253176,0.076732,1.056140,0.016425,-0.062867
5922772341,-1.103163,2.708886,0.144474,1.029573,0.001029,-0.053401
5922792387,-0.403509,3.051500,-0.076562,0.994958,-0.010568,-0.049070
5922812433,0.464214,2.533042,-0.275068,0.974213,-0.006852,-0.039644
5922832480,0.599323,1.595451,-0.381549,0.966625,0.006676,-0.048888
5922852526,0.876579,0.688965,-0.238723,0.975058,-0.005509,-0.052915
5922872572,1.437894,0.293268,-0.049620,0.971492,-0.004869,-0.048225
5922892618,1.736243,-0.209573,-0.023169,0.986042,0.007346,-0.046043
5922912663,2.009084,-0.400322,-0.150092,0.995469,0.008428,-0.059549
5922932709,1.865069,-0.461160,-0.078322,0.995364,0.004332,-0.060539
5922952755,1.642825,-0.766099,-0.095918,0.970764,0.035467,-0.079598
5922972816,0.351541,-1.703633,-0.014251,0.967643,0.050339,-0.103807
5922992845,0.148430,-1.794700,0.173389,1.004942,-0.010735,-0.101074
5923012890,0.361360,-1.276610,0.091118,1.037619,-0.000300,-0.091935
5923032936,0.863960,-0.187030,-0.059809,1.031563,-0.003670,-0.088740
5923052982,0.979067,0.369339,-0.056253,1.001000,0.003468,-0.091226
5923073028,0.986360,0.239750,-0.071246,0.977437,0.012606,-0.100189
5923093074,0.415234,0.087490,0.062606,0.984093,0.020712,-0.100316
5923113120,0.019024,-0.156288,0.147521,0.988458,0.016284,-0.087039
5923133165,-0.032295,-0.194117,0.270906,0.999628,0.007296,-0.086216
5923153211,0.050584,-0.118051,0.200271,0.998527,0.007749,-0.086470
5923173257,0.435807,-0.071846,0.360754,0.990501,0.010939,-0.075899
5923193302,0.028549,-0.239865,0.254594,0.981717,0.011843,-0.071757
5923213349,0.239625,-0.444956,0.518632,0.991415,0.013943,-0.075648
5923233395,0.001399,-0.521379,0.454736,0.989204,0.013483,-0.076699
5923253441,-0.249563,-0.719400,0.536680,0.997976,0.008856,-0.076840
5923273486,-0.577076,-0.643121,0.603912,0.999031,0.003958,-0.069588
5923293532,-0.356820,-0.437504,0.514898,0.997563,0.000597,-0.065291
5923313578,-0.581053,-0.605536,0.382262,1.003044,0.001862,-0.074918
5923333624,-0.404855,-0.384455,0.393390,1.004673,0.000953,-0.075761
5923353668,-0.673341,-0.156031,0.336708,1.003305,0.007403,-0.080106
5923373714,-0.931550,0.095599,0.424937,0.997385,0.009952,-0.074200
5923393760,-0.646266,-0.140246,0.565373,0.993077,0.009307,-0.075033
5923413805,-1.075689,-0.178625,0.497419,0.985620,0.014221,-0.068106
5923433851,-1.480814,-0.475913,0.513912,0.985675,0.012671,-0.070101
5923453897,-1.854901,-0.681689,0.552421,0.986187,0.010402,-0.067292
5923473943,-1.661860,-0.871900,0.663931,0.995797,0.004123,-0.076432
5923493988,-1.733187,-0.727459,0.519646,1.002697,-0.001065,-0.083804
5923514034,-1.873254,-0.499203,0.376417,1.004070,-0.003064,-0.083824
5923534080,-1.630703,-0.438450,0.256886,0.997012,-0.007080,-0.085331
5923554126,-1.395275,-0.430974,0.168237,0.998288,-0.019808,-0.081428
5923574172,-0.853227,-0.316629,0.119131,0.998753,-0.014885,-0.075816
5923614264,-0.338540,-0.233346,-0.173867,0.997449,-0.000241,-0.076272
5923634310,-0.152050,-0.202427,-0.009477,0.997174,0.007211,-0.080728
5923654356,-0.243410,-0.057615,0.007097,1.003569,0.005855,-0.080744
5923674402,-0.053942,0.254652,-0.096958,1.008209,-0.004494,-0.072636
5923694447,0.289083,0.330812,-0.157358,1.000912,-0.005323,-0.072147
5923714492,0.462324,0.444824,-0.306287,0.990880,0.005400,-0.070632
5923734537,0.471361,0.231638,-0.221696,0.989818,0.007031,-0.073612
5923754583,-0.017514,0.262048,-0.197028,1.002384,0.018799,-0.065222
5923774629,-0.717594,0.376600,-0.015713,0.999160,0.020901,-0.056819
5923794675,-0.979572,0.307685,-0.125022,0.987223,-0.010246,-0.066912
5923814721,-0.057512,0.040819,-0.287213,0.984139,-0.026196,-0.081358
5923834766,1.126251,-0.157168,-0.355373,0.996038,-0.020263,-0.079664
5923854812,1.860387,-0.210297,-0.346517,1.000566,-0.016430,-0.076661
5923874858,2.469052,-0.035257,-0.519381,1.000658,-0.011062,-0.076308
5923894903,2.827591,-0.042887,-0.564520,0.998084,-0.008983,-0.081896
5923914949,3.155744,0.033323,-0.601707,0.994691,0.003111,-0.081858
5923934996,3.460723,-0.073391,-0.645477,0.996779,0.004751,-0.082441
5923955042,3.552606,-0.027627,-0.639770,0.996177,0.006027,-0.080345
5923975088,3.994114,-0.043003,-0.747625,0.997014,0.002672,-0.074908
5923995134,4.263288,-0.035107,-0.661177,0.990457,-0.006161,-0.074418
5924015179,5.073975,-0.118685,-0.646064,0.988532,-0.012906,-0.080093
5924035225,5.834998,-0.347554,-0.835822,0.988765,-0.013546,-0.082274
5924055271,6.384579,-0.423730,-0.884440,0.989260,-0.013004,-0.085098
5924075319,6.918817,-0.598981,-0.932430,0.993066,-0.002084,-0.085998
5924095361,7.017025,-0.446702,-1.003616,0.993205,0.010559,-0.087564
5924115406,6.787507,-0.591569,-1.006321,0.997238,0.021748,-0.091011
5924135452,6.435875,-0.424005,-1.007698,1.000926,0.024305,-0.088990
5924155498,6.079471,-0.301792,-0.848360,1.002854,0.024854,-0.088479
5924175544,5.836642,-0.126351,-0.752535,0.998471,0.021573,-0.088580
5924195589,5.233171,-0.004515,-0.725947,0.997193,0.015938,-0.084010
5924215635,5.139718,-0.141927,-0.815374,0.988123,-0.000363,-0.086461
5924235681,5.422442,-0.035189,-0.828857,1.002124,-0.007627,-0.090410
5924255727,6.188506,0.109994,-0.752508,0.993736,-0.023924,-0.090603
5924275772,7.415099,-0.080756,-0.989634,0.995326,-0.028376,-0.088898
5924295818,8.673061,0.155342,-1.198225,0.998859,-0.035445,-0.076328
5924315866,10.510398,0.155144,-1.493685,0.994499,-0.030900,-0.074718
5924335911,12.024479,-0.034934,-1.476583,0.980276,-0.024194,-0.077755
5924355957,13.207047,-0.393104,-1.605318,0.979870,-0.005547,-0.078777
5924376002,13.657475,-0.827430,-1.627895,0.980436,0.004182,-0.082071
5924396048,13.916882,-1.155107,-1.647121,0.987429,0.021921,-0.088030
5924416094,13.703115,-1.208466,-1.627512,0.998889,0.027384,-0.095133
5924436140,13.207008,-0.941773,-1.588208,1.006207,0.029488,-0.094444
5924456184,12.732757,-0.629493,-1.610611,1.010844,0.024944,-0.095878
5924476230,12.328437,-0.240846,-1.573493,1.004818,0.021040,-0.086237
5924496276,11.857002,0.178485,-1.443478,1.000775,0.013225,-0.078257
5924516321,11.695739,0.064046,-1.478175,1.003077,0.016067,-0.067408
5924536367,11.117353,0.338574,-1.337962,1.000643,0.027001,-0.055311
5924556413,10.025904,0.369012,-1.232828,1.000051,0.046392,-0.046709
5924596504,7.101860,0.391652,-0.992770,0.991211,0.041278,-0.050817
5924636596,6.592026,-0.705496,-0.818754,0.982975,0.024581,-0.072072
5924656641,5.781950,-0.515154,-0.803669,1.022568,0.045395,-0.063704
5924676689,4.417164,0.285112,-0.619380,1.046508,0.049633,-0.053317
5924696734,2.940024,1.481909,-0.319610,1.037665,0.067570,-0.036674
5924716780,0.175744,2.129356,-0.145863,1.005098,0.079553,-0.023975
5924736826,-1.638842,1.817103,0.150196,0.981206,0.053013,-0.042949
5924756872,-2.607537,1.215140,0.300901,0.977816,0.034802,-0.049488
5924776918,-3.456979,0.605189,0.281208,0.981207,0.021732,-0.035091
5924796963,-4.427067,0.216414,0.347174,0.985663,0.021282,-0.036164
5924817008,-5.388185,-0.019780,0.481232,0.993077,0.024652,-0.040018
5924837053,-6.268263,-0.020119,0.437179,1.005601,0.022834,-0.049307
5924857099,-7.228441,0.178168,0.607979,1.006326,0.035117,-0.048885
5924877145,-8.000168,0.360916,0.629987,1.005253,0.037765,-0.042608
5924897190,-9.352930,0.284423,0.664132,0.989368,0.048925,-0.046350
5924917236,-10.833793,0.040492,0.808301,0.991959,0.049270,-0.059103
5924937282,-12.405349,-0.096641,1.007364,0.994103,0.046101,-0.052145
5924957328,-14.152376,-0.149947,1.224836,0.990821,0.058280,-0.055922
5924977373,-16.067646,-0.363330,1.446106,0.987162,0.057629,-0.061123
5924997419,-17.846584,-0.828315,1.604436,0.986837,0.058360,-0.058940
5925017465,-19.615171,-0.896689,1.898791,0.994739,0.063016,-0.056178
5925037512,-21.429768,-0.987954,2.186473,0.993486,0.062801,-0.074221
5925057558,-23.146904,-1.033722,2.365133,0.995711,0.057340,-0.077699
5925077603,-24.596527,-1.071810,2.538576,0.993622,0.027496,-0.078885
5925097649,-24.655083,-1.124829,2.685076,0.989302,0.006115,-0.076779
5925117695,-24.763174,-1.330743,2.634369,0.994878,-0.001701,-0.077042
5925137741,-24.197592,-1.368721,2.623521,0.993331,-0.012638,-0.087165
5925157786,-23.654650,-1.376186,2.628293,0.995071,0.003460,-0.090762
5925177831,-23.481501,-1.178361,2.471446,1.004596,0.013402,-0.083951
5925197877,-22.883215,-0.865520,2.565775,1.012209,-0.003316,-0.078425
5925217922,-21.981789,-0.735836,2.517286,1.001749,-0.009613,-0.081322
5925237968,-21.158043,-0.621571,2.401583,0.992290,-0.018267,-0.079694
5925258014,-19.637276,-0.560301,2.356587,0.998748,-0.015067,-0.076088
5925278060,-18.662817,-0.347217,2.115367,0.999009,-0.006433,-0.081099
5925298105,-17.899843,-0.301500,2.023995,1.002802,-0.006704,-0.083433
5925318151,-17.385326,-0.171526,2.143483,1.006283,-0.001149,-0.082594
5925338197,-17.149557,-0.049700,2.069730,0.992054,0.005739,-0.085903
5925358243,-17.244228,-0.149169,1.911427,0.992325,0.016930,-0.085381
5925378289,-17.312595,-0.133889,1.935627,0.994774,0.015848,-0.081518
5925398336,-17.373781,-0.202490,1.937043,0.993909,0.004371,-0.089382
5925418381,-17.172031,-0.217293,2.101290,0.996546,0.005084,-0.099686
5925438427,-17.515825,-0.194490,2.115526,0.991866,0.014083,-0.100256
5925458473,-17.464634,-0.377666,1.992880,0.992548,0.009903,-0.098264
5925478518,-17.364716,-0.369951,2.021481,0.995347,-0.001742,-0.100743
5925498564,-16.792524,-0.278516,1.948942,0.994507,-0.001381,-0.101637
5925518610,-16.230589,-0.179802,1.731390,0.995356,-0.013032,-0.105808
5925538654,-15.467826,-0.256038,1.632787,0.987890,-0.007499,-0.109049
5925558700,-15.023488,-0.385351,1.685727,0.985608,-0.006601,-0.113732
5925578746,-14.242936,-0.667008,1.732651,0.985064,-0.003061,-0.118177
5925598792,-13.747694,-0.758545,1.639290,0.986253,-0.006599,-0.113471
5925618837,-12.902218,-0.812079,1.462592,0.997873,-0.006125,-0.112399
5925638883,-12.199806,-0.469107,1.394330,0.999365,-0.006302,-0.110790
5925658929,-11.655940,-0.308803,1.444375,0.999705,-0.001391,-0.111802
5925678975,-11.313197,-0.004070,1.360295,0.999023,0.014435,-0.113088
5925699021,-12.000585,0.155870,1.396025,0.998164,0.026357,-0.109462
5925719067,-12.715775,0.339024,1.585046,0.996967,0.025817,-0.105174
5925739112,-13.411130,0.415096,1.605927,0.998882,0.016895,-0.110729
5925759159,-13.625834,0.407338,1.571912,0.991043,0.012973,-0.110135
5925779205,-13.755964,0.308219,1.567125,0.984029,0.010061,-0.104383
5925799250,-13.842192,0.163134,1.454660,0.985597,0.003978,-0.099134
5925819296,-13.644590,0.124930,1.389821,0.993902,0.004891,-0.104270
5925839342,-13.589998,0.102223,1.449969,0.995246,0.005154,-0.110557
5925859388,-13.712411,0.132661,1.444602,0.990339,0.004231,-0.114103
5925879433,-13.711912,0.041282,1.475462,0.989021,0.002142,-0.111444
5925899486,-13.329734,-0.172000,1.476398,0.992614,-0.001308,-0.110047
5925919524,-13.026662,0.002990,1.317105,0.996196,-0.001937,-0.109018
5925939569,-12.504078,0.148262,1.459310,0.997184,0.013439,-0.108970
5925959615,-13.107122,0.293014,1.508737,0.996939,0.032556,-0.101372
5925979661,-13.872372,0.368927,1.469843,0.994608,0.040281,-0.103433
5925999707,-15.137442,0.582496,1.692358,0.996300,0.049932,-0.100301
5926019752,-16.686686,0.567213,1.852375,0.999864,0.058953,-0.094748
5926039798,-18.417534,0.628331,2.115001,0.998715,0.053869,-0.088184
5926059844,-20.079674,0.788519,2.368322,0.999247,0.039228,-0.085083
5926079889,-21.499119,0.773247,2.518179,0.988764,0.038214,-0.083994
5926099935,-22.592188,0.628206,2.539872,0.981632,0.041032,-0.079339
5926119982,-23.539133,0.376630,2.612575,0.989094,0.042587,-0.080739
5926140028,-24.835550,0.445305,2.797972,0.998666,0.042963,-0.081720
5926160074,-26.033697,0.292871,2.928709,0.995630,0.037671,-0.088105
5926180120,-27.371330,0.422110,2.946593,0.994008,0.050318,-0.086101
5926200166,-28.577173,0.422074,3.069331,0.993150,0.044590,-0.083535
5926220211,-30.080341,0.307765,3.244066,0.990224,0.039399,-0.084021
5926240257,-31.655689,0.284444,3.228864,1.010238,0.067443,-0.086588
5926260303,-33.590569,0.574430,3.616950,0.997520,0.079159,-0.087026
5926280347,-35.820030,0.619963,3.789964,0.998304,0.076982,-0.084312
5926300393,-37.978142,0.559159,4.107135,0.991016,0.075335,-0.083368
5926320438,-40.605225,0.543617,4.280426,0.998357,0.095340,-0.094964
5926340484,-43.848637,0.558781,4.618403,0.988256,0.108331,-0.096992
5926360530,-46.940105,0.398589,4.908167,0.982181,0.115587,-0.103891
5926380576,-50.436844,0.184943,5.198333,0.979643,0.119225,-0.102583
5926400621,-54.304264,0.169842,5.701348,0.979916,0.099400,-0.099014
5926420667,-56.931007,-0.219052,5.906442,0.984678,0.067265,-0.114928
5926440713,-58.856705,-0.234670,5.966784,0.989171,0.054610,-0.124515
5926460758,-60.744217,-0.311246,6.026589,0.991085,0.042040,-0.135239
5926480806,-61.675117,-0.212185,6.128378,0.986655,0.014652,-0.134482
5926500852,-62.226471,-0.578218,6.094447,0.975286,0.052108,-0.139343
5926520898,-63.462891,-0.829733,6.226256,0.990363,0.063378,-0.157775
5926540943,-64.555923,-0.677577,6.239318,0.985219,0.058381,-0.149872
5926560989,-65.299438,-0.661785,6.559351,1.011902,0.047867,-0.149946
5926581034,-65.954498,-0.090113,6.677139,0.999179,0.001735,-0.144478
5926601080,-65.688873,-0.114151,6.144804,0.963529,0.033260,-0.139112
5926621130,-66.166672,-0.457681,5.948900,0.997054,0.001787,-0.165230
5926641170,-65.190094,-0.548145,6.258834,0.989724,-0.022046,-0.158167
5926661216,-63.812119,-0.418998,5.926008,0.993493,-0.030847,-0.147686
5926681261,-61.586311,-0.486875,5.974741,0.996953,-0.038403,-0.153633
5926701307,-59.333237,-0.532313,5.839476,0.988117,-0.033848,-0.142324
5926721353,-56.904942,-0.387279,5.661969,0.982183,-0.031118,-0.137144
5926741399,-54.467724,-0.653575,5.569715,0.984003,-0.043126,-0.138245
5926761445,-51.778370,-0.599772,5.456219,0.989740,-0.050289,-0.129888
5926781491,-48.541576,-0.751970,5.179958,0.989242,-0.068928,-0.123494
5926801536,-45.196571,-0.721098,4.962120,0.991961,-0.101052,-0.131476
5926821582,-41.005222,-0.667444,4.613160,0.989873,-0.113609,-0.131601
5926841629,-36.512726,-0.675280,4.006394,0.952984,-0.075367,-0.133396
5926861675,-32.822018,-1.292825,3.478349,0.975273,-0.067097,-0.157119
5926881721,-30.552696,-1.489549,3.824683,1.042454,-0.031495,-0.142801
5926901766,-31.593935,0.491278,3.677823,1.074252,0.125707,-0.064446
5926921813,-36.523109,2.091535,4.180779,1.017562,0.110598,-0.073349
5926941858,-40.965042,1.786568,4.634777,0.970305,0.106082,-0.119105
5926961904,-44.747593,1.122867,4.779157,0.972088,0.105146,-0.136109
5926981948,-46.882339,0.620145,5.135552,0.972271,0.026662,-0.121457
5927001994,-46.670952,0.376001,4.994718,1.005759,-0.005978,-0.086480
5927022040,-46.623466,0.702905,4.648843,0.999771,0.010329,-0.068704
5927042085,-47.072952,0.626793,4.741874,0.985416,0.031662,-0.082746
5927062131,-48.033127,0.344999,4.929555,0.979565,0.047242,-0.116078
5927082177,-50.266045,0.123370,4.920131,0.983944,0.086279,-0.113948
5927102223,-52.857887,0.077962,5.352647,0.991212,0.091142,-0.096288
5927122268,-55.778854,-0.059025,5.768930,0.989601,0.095510,-0.094271
5927142314,-59.151054,-0.219010,6.178763,0.994673,0.113056,-0.105189
5927162360,-62.780666,-0.165363,6.722785,0.985497,0.115131,-0.107305
5927182405,-66.145660,-0.371126,7.109704,0.983140,0.115593,-0.101456
5927202453,-69.318657,-0.637689,7.546593,0.995182,0.109886,-0.097749
5927222498,-71.967125,-0.371082,7.795774,1.011750,0.094446,-0.096825
5927242544,-74.959183,-0.195949,8.074851,1.001851,0.109896,-0.097681
5927262590,-78.484673,0.108817,8.447905,1.005746,0.105224,-0.119163
5927282644,-81.753380,0.329417,8.648143,0.989072,0.101482,-0.112336
5927302681,-84.608299,0.222571,8.910215,0.982197,0.101743,-0.113581
5927322727,-87.890755,-0.013854,9.211580,0.982868,0.120554,-0.125334
5927342779,-90.306458,0.055126,9.655581,0.991829,0.103538,-0.135626
5927362818,-93.506142,0.435798,9.861589,1.009738,0.105524,-0.159446
5927382863,-94.621460,0.283220,9.921946,0.944188,0.034803,-0.176639
5927402909,-94.177742,-0.792087,9.550125,0.968451,0.043437,-0.202212
5927422955,-94.166550,-1.332668,9.765670,0.973589,0.051544,-0.200497
5927443000,-94.445000,-0.714918,9.990618,1.000013,0.045844,-0.204297
5927463046,-94.951004,-0.539964,9.908156,0.987631,0.057055,-0.182046
5927483092,-96.779755,-0.105283,10.240211,0.979550,0.058759,-0.189082
5927503137,-98.097778,-0.708022,10.099681,0.971905,0.060744,-0.192314
5927523183,-98.604973,-0.585574,10.376567,0.978970,0.022726,-0.193007
5927543229,-98.000137,-0.714851,10.426392,0.991241,0.023623,-0.210738
5927563276,-97.125290,-0.456100,10.171669,0.994980,0.020378,-0.196635
5927583322,-95.619766,-0.097636,10.118339,0.992397,-0.007634,-0.190008
5927603368,-93.792641,0.008516,9.677534,0.983195,-0.026370,-0.180198
5927623413,-91.754715,-0.113322,9.485566,0.991717,-0.019011,-0.192883
5927643459,-89.910072,0.259833,9.158154,0.989176,-0.013438,-0.177053
5927663505,-88.664291,0.374407,9.125958,0.983359,0.004298,-0.174442
5927683551,-87.346451,0.092172,8.864442,0.974217,0.002365,-0.179820
5927703596,-85.900658,-0.189300,8.913739,0.969616,-0.004651,-0.182090
5927723641,-84.405716,-0.616113,8.725681,0.983534,-0.010749,-0.195208
5927743686,-82.379974,-0.600384,8.701604,0.983710,-0.013371,-0.186038
5927763732,-80.698868,-0.592442,8.646032,0.990541,-0.005075,-0.181720
5927783778,-78.843597,-0.546571,8.495258,0.982541,-0.007440,-0.174953
5927803824,-77.185806,-0.729193,8.425490,0.970740,-0.010990,-0.166394
5927823870,-75.808273,-0.804862,8.498352,0.985755,-0.005969,-0.169110
5927843915,-73.295212,-0.882695,7.517591,0.889004,-0.118475,-0.177077
5927863961,-63.095917,-3.678653,6.748239,1.009468,-0.296654,-0.256995
5927884007,-59.523296,-1.665669,6.786835,1.084865,0.047815,-0.136393
5927904053,-62.085564,-0.059572,6.258099,1.011322,0.091875,-0.110067
5927924098,-64.073921,0.376184,7.067017,0.970029,0.113997,-0.118750
5927944145,-67.421158,0.147885,7.591214,1.022111,0.073852,-0.125200
5927964191,-69.645782,0.589312,7.594704,0.973052,0.031647,-0.133098
5927984237,-68.267174,-0.119698,7.325787,0.967879,-0.006786,-0.153099
5928004283,-67.017952,-0.112353,7.064638,1.006056,0.009017,-0.147513
5928024329,-66.427315,-0.043365,7.167569,1.007861,0.018506,-0.133489
5928044374,-66.600845,0.536036,7.275988,1.002700,0.050016,-0.109669
5928064420,-68.354340,0.841036,7.545883,1.003515,0.059107,-0.114328
5928084464,-70.279106,0.756956,7.659925,0.985806,0.072331,-0.132385
5928104510,-72.383789,0.322757,7.984945,0.979806,0.057742,-0.146329
5928124556,-73.145210,0.338205,8.160138,0.983298,0.054028,-0.140572
5928144601,-73.527481,0.170460,8.168114,1.001509,0.050856,-0.148685
5928164647,-74.137550,0.414354,8.247913,0.982531,0.050193,-0.147634
5928184693,-75.101463,0.124455,8.229375,0.973647,0.074942,-0.137629
5928204739,-77.007675,-0.035400,8.526705,0.991929,0.076946,-0.151379
5928224785,-78.731461,-0.256308,8.767208,0.973638,0.052426,-0.163826
5928244830,-79.288582,-0.492555,8.832296,0.966842,0.027277,-0.181914
5928264876,-78.695084,-1.056674,8.692753,0.960842,0.006973,-0.186499
5928284922,-77.759041,-1.445632,8.461924,0.984742,0.002356,-0.193344
5928304969,-76.730072,-0.912351,8.264429,0.992980,-0.000880,-0.178047
5928325014,-76.031593,-0.691815,7.982690,0.995355,-0.002580,-0.163560
5928345060,-75.224068,-0.516713,7.813608,0.996246,-0.018593,-0.165727
5928365106,-74.363152,-0.311132,7.635748,0.984679,-0.007689,-0.163279
5928385157,-73.029068,-0.151261,7.410652,1.004577,-0.031490,-0.160674
5928405197,-71.175591,0.161090,7.152044,0.987019,-0.027299,-0.142044
5928425243,-69.425774,0.016629,7.095648,0.992436,-0.010490,-0.158958
5928445288,-67.323051,0.017206,7.100692,0.987804,-0.026144,-0.158490
5928465333,-64.817665,0.109000,6.960074,0.992722,-0.058328,-0.151531
5928485379,-61.543388,0.139605,6.636629,0.994870,-0.067965,-0.149645
5928505425,-58.194580,0.200460,6.204656,0.997960,-0.074860,-0.141153
5928525470,-54.843136,0.292139,5.917716,0.994526,-0.063935,-0.133669
5928545516,-52.004082,0.360805,5.625514,0.980619,-0.035571,-0.133116
5928565562,-50.049496,0.094259,5.481493,0.971132,-0.020117,-0.131527
5928585608,-48.546062,-0.530571,5.347420,0.970192,-0.013686,-0.147136
5928605653,-45.643387,-1.200742,5.216913,0.972415,-0.089221,-0.164750
5928625699,-42.862728,-1.139352,5.078696,0.988631,-0.084643,-0.161857
5928645745,-37.312786,-1.399069,4.184800,0.960626,-0.173323,-0.179932
5928665791,-31.379301,-1.306993,3.771342,1.037782,-0.050683,-0.134973
5928685838,-30.218018,0.003900,3.675671,1.031950,-0.025107,-0.122934
5928705884,-28.896963,0.499357,3.564332,0.996460,-0.025528,-0.125596
5928725929,-28.129656,0.544645,3.289483,0.966866,-0.021056,-0.144707
5928745975,-27.614840,-0.103608,3.029483,0.967113,-0.003598,-0.149914
5928766021,-26.700991,-0.637261,2.845415,0.973463,-0.018960,-0.148363
5928786067,-25.379868,-0.980033,2.767431,0.988444,-0.033950,-0.149229
5928806112,-24.322689,-0.628949,2.868012,1.019151,-0.000636,-0.112317
5928826157,-23.742569,0.194077,2.785242,1.013073,-0.029292,-0.106991
5928846202,-22.576023,0.719768,2.585103,1.014749,-0.018923,-0.109488
5928866248,-21.640640,1.351849,2.282114,1.009013,-0.021486,-0.113562
5928886294,-20.725479,1.420373,2.149507,0.986331,-0.033522,-0.110976
5928906339,-18.930138,0.948206,2.085675,0.964681,-0.048558,-0.107133
5928926385,-17.167402,0.292879,1.916107,0.980548,-0.045560,-0.122931
5928946431,-15.466636,0.132753,1.684960,0.997497,-0.034903,-0.129320
5928966477,-13.949074,0.376495,1.456024,0.996850,-0.025897,-0.129142
5928986522,-12.094183,0.483280,1.282129,0.992953,-0.042086,-0.123693
5929006569,-10.055288,0.376809,1.143582,0.984072,-0.045021,-0.129800
5929026614,-8.117749,0.399602,0.891949,0.983968,-0.047760,-0.135513
5929046662,-5.952444,0.155536,0.560370,0.977459,-0.063538,-0.152351
5929066707,-3.506217,-0.133441,0.544431,1.002622,-0.045474,-0.144005
5929086753,-2.691423,0.346428,0.343629,1.011161,-0.008758,-0.119974
5929106799,-2.584487,0.704598,0.325078,0.992487,0.000426,-0.106962
5929126845,-2.683097,0.575128,0.373271,0.980586,-0.021247,-0.109719
5929146890,-1.361917,0.095198,0.303384,0.970960,-0.055474,-0.113673
5929166936,1.322323,-0.110755,-0.084240,0.984514,-0.068188,-0.112612
5929186980,4.074418,-0.263472,-0.526847,0.986781,-0.063282,-0.118015
5929207026,6.769104,-0.392857,-0.762100,0.992746,-0.071732,-0.117104
5929227071,9.337090,-0.407544,-0.819522,0.986978,-0.056920,-0.121751
5929247117,10.318295,-0.796582,-1.089434,0.957077,0.005561,-0.158473
5929267163,8.807339,-1.886314,-0.888375,0.951618,0.084425,-0.210798
5929287209,7.076711,-2.404313,-0.593260,0.995603,0.006136,-0.174109
5929307254,6.755212,-1.802441,-0.634874,1.003952,0.011428,-0.171809
5929327300,6.500542,-1.734231,-0.767705,1.001951,0.010499,-0.181123
5929347346,6.279764,-1.170262,-0.734733,0.986374,0.007899,-0.198464
5929367392,5.952400,-0.834872,-0.668366,0.989541,0.015162,-0.209333
5929387438,4.755277,-0.644258,-0.492942,0.983874,0.017246,-0.209421
5929407485,3.639660,-0.842597,-0.447710,0.971850,0.010417,-0.203214
5929427530,2.844906,-1.071366,-0.416244,0.974956,0.011596,-0.207989
5929447576,2.236283,-1.414048,-0.235181,0.965774,0.011950,-0.205654
5929467622,1.975481,-2.313427,-0.250051,0.959182,0.002403,-0.197356
5929487667,2.538518,-3.654813,-0.355849,0.939478,-0.003893,-0.191472
5929507713,3.049823,-5.034082,-0.361179,0.941610,0.001555,-0.199234
5929527759,3.347981,-6.588556,-0.308299,0.939847,0.003461,-0.200568
5929547803,3.964755,-8.242333,-0.391176,0.938998,0.001547,-0.202094
5929567849,3.972090,-9.735957,-0.355780,0.939063,0.003637,-0.203370
5929587895,3.841609,-11.404911,-0.324767,0.940268,0.006998,-0.207117
5929607941,3.463337,-12.175137,-0.498258,1.052551,0.004142,-0.269213
5929627986,2.902326,-9.469446,-0.328268,1.052751,0.007718,-0.253518
5929648032,2.253040,-7.351087,-0.368570,1.033243,0.002558,-0.222584
5929668078,2.201472,-4.706591,-0.353449,1.039455,0.003039,-0.212796
5929688124,2.140645,-1.513642,-0.446955,1.054118,0.008598,-0.219592
5929708169,2.402247,1.496673,-0.462053,1.014916,-0.013686,-0.236406
5929728215,2.524273,2.952150,-0.530398,0.989568,0.002610,-0.208677
5929748261,2.393245,3.211071,-0.597490,0.968323,0.010787,-0.196437
5929768308,2.186492,2.540385,-0.591246,0.970150,-0.006332,-0.207242
5929788354,2.196358,1.610995,-0.435514,0.965031,0.000865,-0.197272
5929808400,1.849791,0.170334,-0.523332,0.952541,0.009856,-0.195440
5929828445,1.692007,-1.086703,-0.325049,0.951366,0.019682,-0.194165
5929848491,1.141946,-2.085057,-0.265203,0.976486,0.020810,-0.194051
5929868537,1.037596,-2.023773,-0.118195,1.007814,0.013495,-0.189761
5929888583,0.823535,-0.431177,-0.172833,1.012931,-0.016761,-0.172097
5929908627,1.658113,1.634310,-0.180621,1.051670,-0.015131,-0.156874
5929928673,1.754310,4.522028,-0.459552,1.068785,-0.002331,-0.134856
5929948719,1.790375,7.837595,-0.272613,1.092249,0.008563,-0.115303
5929968764,1.977791,12.357011,-0.214881,1.191503,0.011838,-0.146140
5929988810,2.399828,18.598377,-0.350829,1.143979,-0.022887,-0.091351
5930008856,2.185499,24.039207,-0.555820,1.115143,0.059069,-0.177143
5930028901,0.079470,19.281128,-1.423729,0.470458,0.021317,0.258478
5930048947,0.353123,3.204069,-0.099393,0.997816,0.008817,-0.255488
5930068993,0.156843,2.899529,0.050617,0.828871,0.026013,-0.164854
5930089038,-0.383644,-0.255127,0.293209,0.968227,0.019894,-0.191276
5930109084,-0.458151,-1.702758,0.452303,0.944749,-0.007994,-0.095967
5930129132,-0.490508,-1.687756,0.353543,0.985444,-0.022874,-0.055423
5930149177,-0.011948,-0.849797,0.150430,1.046627,-0.020264,-0.070723
5930169223,0.825302,0.483493,-0.107139,1.045571,-0.027302,-0.088485
5930189269,1.633382,1.618830,-0.279428,0.985209,-0.013022,-0.091656
5930209314,2.416141,0.993554,-0.521779,0.975557,-0.006178,-0.123638
5930229360,3.111539,0.033528,-0.509152,0.970710,-0.005142,-0.099591
5930249406,3.162141,-1.070794,-0.208441,0.970070,0.007373,-0.069645
5930269450,2.758022,-1.535598,-0.130279,1.000375,0.009541,-0.051193
5930289496,2.658627,-1.352736,-0.136600,1.011614,-0.009398,-0.018128
5930309542,2.900115,-0.743457,-0.334351,1.035583,-0.007176,-0.015999
5930329588,3.609196,0.544311,-0.489943,1.048119,-0.001216,0.000117
5930349633,4.436955,1.405891,-0.409535,1.020085,0.000217,0.010397
5930369679,4.576270,2.267245,-0.346333,1.043656,0.029723,0.061054
5930389725,1.193429,2.555477,-0.541461,0.887569,0.137133,-0.033504
5930409770,-0.110958,-3.593094,0.268465,0.719208,-0.039052,-0.293232
5930429816,0.735307,-7.068056,0.255971,1.048034,0.041166,-0.162171
5930449862,-1.482078,-5.551220,0.622530,1.048553,0.029390,-0.081822
5930469907,-2.457801,-7.342870,0.425826,0.992904,-0.006250,-0.075458
5930489953,-2.339714,-7.701545,0.203127,0.957701,-0.037955,-0.176567
5930530046,-0.832542,-9.119395,-0.119415,0.920161,0.006453,-0.241814
5930550092,-0.677677,-10.437419,0.034797,0.939785,0.008724,-0.208383
5930570138,-0.853361,-11.443329,0.079762,0.970949,0.011815,-0.183048
5930590183,-1.393833,-12.174716,0.237872,0.976363,0.008798,-0.196480
5930610229,-1.828528,-13.363460,0.341962,1.024748,0.002867,-0.246859
5930630275,-1.905372,-10.002961,0.202361,1.028010,-0.000465,-0.282494
5930650319,-1.973151,-8.486399,0.206268,1.052946,0.002880,-0.262863
5930670365,-2.213772,-5.910264,0.339907,1.013991,-0.000215,-0.231329
5930690411,-2.007718,-3.578436,0.236448,1.020540,-0.008834,-0.223620
5930710456,-1.569822,-1.139542,0.265680,1.049607,0.008381,-0.236036
5930730502,-2.126774,1.329453,0.245343,1.021669,0.011178,-0.225488
5930750548,-2.116411,2.701469,0.347555,0.988105,0.016147,-0.217662
5930770594,-2.651102,2.808078,0.372858,0.980703,-0.001524,-0.223770
5930790640,-2.563261,2.640939,0.585671,0.963558,-0.008799,-0.208215
5930810686,-2.506898,1.756372,0.350637,0.953079,0.001469,-0.206237
5930830731,-2.668889,0.376863,0.320166,0.945299,0.004103,-0.202024
5930850777,-3.048551,-0.788809,0.507167,0.967700,0.006495,-0.205587
5930870823,-3.275385,-1.299102,0.666096,0.998273,0.002906,-0.202381
5930890870,-3.067953,-0.887420,0.706549,0.982057,-0.001745,-0.195470
5930910915,-3.472273,-0.742623,0.752120,0.987489,0.009805,-0.202208
5930930961,-3.847951,0.118241,0.664846,1.001594,0.002360,-0.205523
5930951007,-3.885035,1.368114,0.684329,0.998514,-0.011398,-0.214707
5930971053,-3.605349,1.946918,0.485939,0.985419,-0.007326,-0.216215
5930991098,-3.666849,2.769855,0.438544,0.980190,-0.004433,-0.222122
5931011142,-3.971640,3.204268,0.481219,1.002818,-0.010060,-0.233483
5931031188,-3.246925,3.897699,0.365509,1.002074,-0.042301,-0.202189
5931051234,-1.863618,4.644784,0.305614,0.983445,-0.021732,-0.181208
5931071280,-1.150327,5.338715,0.404085,1.034587,0.014561,-0.174606
5931091326,-1.435994,7.412003,0.601403,1.047381,0.029396,-0.129642
5931111371,-1.978628,10.217161,0.938817,1.127193,0.028748,-0.150246
5931131417,-2.588395,16.519262,0.822688,1.144132,0.028115,-0.162698
5931151463,-4.093092,22.615328,0.694044,1.193498,0.066739,-0.226150
5931171508,-5.545227,29.817226,0.896923,1.225332,-0.013687,-0.204318
5931191554,-6.246926,21.050898,0.030391,0.363859,-0.031631,0.293971
5931211600,-4.934391,8.143062,0.766192,0.975482,-0.037396,-0.236511
5931231646,-4.427395,3.929458,1.045474,0.784483,0.006775,-0.204733
5931251693,-4.695722,0.119125,1.139781,0.817437,0.015538,-0.215023
5931271738,-4.992918,-2.990914,0.880809,0.984658,-0.028304,-0.194835
5931291784,-5.303117,-2.130466,0.608872,1.030525,-0.060504,-0.074557
5931311830,-4.142058,-0.019467,0.472334,1.072094,-0.052402,-0.054219
5931331876,-2.998316,2.159848,0.221283,1.081007,-0.030699,-0.084091
5931351921,-2.335782,3.211287,0.036815,0.970384,-0.010572,-0.083237
5931371967,-1.828231,1.778187,-0.174582,0.912815,-0.001711,-0.117945
5931392011,-1.217860,-0.835594,-0.154799,0.928682,-0.007820,-0.139175
5931412057,-1.189017,-2.405601,-0.195981,0.971087,-0.003966,-0.103775
5931432103,-1.441937,-2.649598,-0.220827,1.027322,-0.002090,-0.066429
5931452149,-1.330601,-1.833635,-0.011743,1.054148,-0.011059,-0.015038
5931472195,-1.002793,0.521011,-0.148206,1.075949,-0.000251,0.008356
5931492240,-1.000492,1.885350,-0.068737,1.029397,0.002487,0.000521
5931512286,-0.573936,2.212930,-0.169802,0.976952,0.002310,-0.005120
5931532332,-0.480311,1.451164,-0.039178,0.973613,0.006369,-0.022136
5931552377,-0.257902,0.605455,0.028095,0.956712,-0.005177,-0.003582
5931572423,0.204683,-0.233153,-0.153843,0.983613,-0.007854,0.003589
5931592469,0.435428,-0.354840,-0.073859,0.984935,-0.023497,0.004954
5931612516,0.952222,-1.162863,-0.218743,0.936841,0.007988,-0.054010
5931632562,0.343794,-2.946755,-0.399676,0.888443,0.003686,-0.184805
5931652608,0.934600,-5.360982,0.223497,0.978070,-0.008461,-0.131030
5931672654,1.724061,-5.360520,0.330440,1.065459,-0.045107,-0.090883
5931712745,5.112817,-5.369998,-0.850937,0.985335,-0.017578,-0.148386
5931732791,6.334249,-5.560427,-0.950418,0.942150,-0.009254,-0.190601
5931752848,7.252213,-6.611729,-0.888316,0.913146,0.001591,-0.207100
5931772880,7.203462,-8.180912,-0.568846,0.935899,0.011386,-0.191437
5931792926,6.273189,-9.248672,-0.814691,0.982606,0.019961,-0.164923
5931812972,5.303622,-8.966790,-0.743326,1.006269,0.019268,-0.164690
5931833018,4.522977,-8.365092,-0.806596,1.009309,0.024145,-0.187354
5931853063,3.805387,-7.321152,-0.780864,0.995840,0.031349,-0.218273
5931873109,3.750753,-6.306814,-0.454599,1.006789,0.026409,-0.243506
5931893155,3.591490,-4.622594,-0.441832,1.018397,0.004408,-0.244484
5931913201,3.539060,-2.755484,-0.447031,1.034921,0.004705,-0.244948
5931933246,3.633773,-0.667103,-0.356483,1.052351,0.012115,-0.235635
5931953292,3.445415,1.672652,-0.284203,1.048986,0.022029,-0.234232
5931973340,2.773610,3.783439,-0.301119,1.055114,0.024950,-0.233615
5931993385,2.158881,6.115693,-0.128843,1.041026,0.013216,-0.220919
5932013431,1.939603,8.569700,-0.079268,1.039183,0.001202,-0.222502
5932033477,1.844368,10.711529,0.075920,1.052207,-0.004696,-0.224893
5932053522,1.712051,13.523095,-0.152475,1.080522,0.004924,-0.209778
5932073568,1.628675,16.898975,-0.230869,1.101745,-0.003751,-0.194058
5932093614,2.008026,21.120361,-0.542659,0.966095,0.034294,0.138531
5932113678,0.046264,4.870723,-1.061810,0.642497,-0.037092,-0.044287
5932133704,1.292133,3.432745,-0.187148,0.943986,0.029328,-0.134233
5932153749,0.751331,-0.134443,-0.371098,0.824882,0.027699,-0.134015
5932173795,0.906755,-3.837559,-0.101976,0.860373,-0.005415,-0.215992
5932193841,1.363223,-6.337204,-0.140719,0.970665,-0.008822,-0.175111
5932213886,1.245820,-5.133574,-0.333484,1.117914,-0.008291,-0.150480
5932233933,1.433152,-1.239036,-0.258387,1.162314,-0.016190,-0.126261
5932253978,1.868785,2.540744,-0.401687,1.067298,0.006011,-0.096809
5932274024,1.707340,2.830159,-0.460650,0.913926,0.015465,-0.077234
5932294070,1.819411,0.369473,-0.095484,0.871169,0.015433,-0.111726
5932314115,2.393476,-2.998481,0.057418,0.865154,-0.015244,-0.117746
5932334161,3.064566,-5.498991,-0.375200,0.948604,-0.036117,-0.106425
5932354208,3.911356,-6.382970,-0.449820,1.022315,-0.025066,-0.091270
5932374254,4.685258,-5.658614,-0.383192,1.034677,-0.000281,-0.078359
5932394300,4.992587,-4.180985,-0.776148,1.048732,0.002550,-0.083687
5932414345,5.053228,-2.900821,-0.850359,1.025242,-0.003018,-0.075107
5932434391,5.640947,-2.634084,-0.916142,0.995634,-0.004038,-0.061256
5932454437,6.603440,-1.925250,-0.990668,1.053858,-0.005712,-0.078768
5932474483,7.176965,-0.821129,-1.448677,1.025321,0.005328,-0.036360
5932494527,7.740242,-0.203066,-1.186573,1.031977,-0.011487,-0.033178
5932514573,8.494739,0.451176,-1.768858,0.973413,-0.005086,0.034531
5932534619,8.811333,-1.621067,-1.523576,1.042531,-0.037524,-0.105029
5932554664,9.988934,1.953203,-1.642382,1.039076,0.022955,-0.008120
5932574710,9.858093,1.715834,-2.105181,1.039607,0.008397,-0.009920
5932594756,9.345987,2.660640,-2.128956,1.009316,0.046057,0.013682
5932614801,8.709846,2.836531,-1.796257,0.987977,0.057268,-0.008032
5932634847,7.371974,1.214054,-1.306408,0.912611,0.107053,-0.088075
5932654893,3.683819,-1.506769,-0.943050,0.883588,0.100940,-0.126060
5932674938,1.709065,-3.761207,-0.133081,0.949932,0.087466,-0.135066
5932694984,0.732326,-4.204189,-0.433594,0.982262,-0.086274,-0.204411
5932715031,3.258706,-3.776354,-0.270080,1.096996,-0.007520,-0.160201
5932735077,3.719218,-1.162228,-0.264795,1.081123,-0.012642,-0.110812
5932755123,3.864162,1.230554,-0.367271,1.061579,0.009709,-0.162712
5932775169,3.473596,4.225160,-0.507208,1.032424,0.020398,-0.216427
5932795215,3.063759,6.389621,-0.414764,1.008987,0.054361,-0.231788
5932815260,1.266792,7.631231,-0.468085,0.981273,0.041425,-0.166479
5932835306,-0.310442,4.094690,-0.463913,0.879643,0.058436,-0.134455
5932855350,-1.441833,2.190321,0.038150,0.940476,0.028506,-0.185007
5932875396,-2.758796,0.651410,0.412694,0.931866,0.029293,-0.195936
5932895442,-3.219548,-0.597716,0.769658,0.944387,0.018187,-0.210837
5932915487,-3.676271,-2.000708,0.508099,0.928268,-0.004907,-0.190190
5932935533,-3.144606,-3.532714,0.365337,0.949936,-0.031441,-0.190788
5932955579,-2.134471,-4.142948,0.011544,0.979904,-0.043721,-0.215425
5932975625,-1.281852,-4.105101,-0.196163,0.973973,-0.034640,-0.219424
5932995670,-0.668452,-4.089472,-0.101137,0.973525,-0.012738,-0.232162
5933015716,-0.297279,-3.914556,-0.299958,0.997622,-0.011323,-0.223316
5933035762,0.709316,-2.664897,-0.491763,1.048065,-0.035307,-0.194452
5933055808,2.083151,0.177541,-0.726562,1.101471,-0.024883,-0.156436
5933075855,2.956337,4.841622,-0.804882,1.141855,0.019719,-0.123974
5933095901,2.288834,10.839340,-0.720199,1.157183,0.058259,-0.103058
5933115946,1.532520,17.576590,-0.498710,1.088573,0.098529,0.093217
5933135992,-3.380563,5.404031,-0.737282,0.557601,0.080370,-0.068270
5933156038,-3.517740,1.855952,0.683219,1.025250,0.031478,-0.325347
5933176083,-4.406762,0.072283,0.629994,0.952966,0.034030,-0.210193
5933196129,-4.165855,-0.088167,0.427176,1.028262,-0.043156,-0.140452
5933216173,-3.779321,0.696389,0.210744,1.027125,-0.032489,-0.073910
5933236219,-2.838884,1.489155,0.182215,0.955429,-0.091836,-0.033464
5933256265,-0.543821,1.656592,-0.176176,0.967077,-0.065697,-0.077915
5933276311,1.250121,1.626223,-0.333148,0.983460,-0.023679,-0.097872
5933296356,2.090655,0.757662,-0.331283,0.932145,0.028588,-0.079019
5933316403,1.951317,-1.238133,0.067779,0.930654,0.076489,-0.101949
5933336448,1.054394,-3.127530,0.427697,0.954347,0.070670,-0.119863
5933356494,-0.664078,-3.949753,0.983399,0.983474,0.060092,-0.106544
5933376540,-1.776669,-4.162940,1.196734,1.002584,0.027948,-0.088026
5933396585,-2.727532,-3.797778,1.030574,1.005757,0.003319,-0.076238
5933416631,-2.545086,-2.783369,1.359880,1.057426,-0.016914,-0.088886
5933436678,-2.138850,-0.658048,0.917001,1.074695,-0.037226,-0.065545
5933456724,-0.870244,1.093897,0.397499,1.066858,-0.065597,-0.051748
5933476770,0.476948,2.274615,0.015920,1.031468,-0.042062,-0.037839
5933496815,1.204454,2.441613,-0.350259,0.975735,-0.005155,-0.007175
5933516861,0.989409,1.123113,-0.356980,0.960393,0.016840,-0.005588
5933536907,0.723996,-0.019724,-0.195196,0.994418,0.007307,-0.023219
5933556952,1.121609,0.026108,-0.195422,0.981016,-0.013073,-0.013425
5933576997,1.925004,-0.271787,-0.576809,0.992133,-0.003688,-0.014265
5933597042,2.207653,-0.774686,-0.572978,0.955607,0.034390,-0.006443
5933617088,-0.710243,-1.538125,-0.811834,0.997341,0.130442,-0.049617
5933637134,-2.568010,-2.395728,0.923472,0.926248,-0.048185,-0.174016
5933657180,-1.723753,-4.567873,0.753851,0.945307,0.066710,-0.139401
5933677225,-5.886781,-3.945587,0.106621,1.135110,0.082263,-0.143662
5933697271,-6.388913,-0.042794,0.531293,1.102826,-0.011124,-0.093210
5933717317,-6.738533,2.182521,0.568876,1.041450,-0.026996,-0.118191
5933737363,-6.281796,3.988402,0.393530,1.006960,-0.002693,-0.134164
5933757408,-6.472385,3.301601,0.025084,0.897432,0.021117,-0.108825
5933777454,-6.389462,0.681066,0.475403,0.916023,0.007897,-0.141074
5933797501,-6.529634,-1.086228,0.820231,0.942464,0.001744,-0.144056
5933817547,-7.468884,-2.450364,0.934695,0.981569,0.003514,-0.153077
5933837593,-8.353571,-2.930392,1.075723,0.981269,0.011691,-0.158805
5933857639,-8.946296,-3.166307,1.286688,0.986499,0.009202,-0.182038
5933877684,-9.057435,-2.099029,1.445762,1.039083,-0.010692,-0.209136
5933897730,-8.848783,0.195035,1.487566,1.051910,-0.014184,-0.187835
5933917776,-8.444683,2.305830,1.350434,1.059855,-0.014172,-0.187880
5933937821,-8.380813,4.301733,1.006326,1.050767,-0.020459,-0.185808
5933957866,-7.458893,5.467472,0.785878,1.015410,-0.041361,-0.143776
5933977911,-6.299849,4.796786,0.635716,0.940196,-0.046601,-0.112165
5933997957,-5.279271,3.539189,0.459629,0.972032,-0.031919,-0.118360
5934018003,-4.791388,2.982846,0.398524,0.968228,-0.000755,-0.085577
5934038049,-5.221689,2.136597,0.310352,0.932976,0.018252,-0.059771
5934058106,-7.055124,0.321679,0.038671,0.898785,0.049694,-0.103086
5934078140,-8.459068,-1.849124,0.699739,0.947213,-0.007142,-0.183520
5934098186,-8.191086,-1.169801,1.120199,1.049271,-0.024815,-0.178241
5934118232,-7.567256,0.468331,0.888680,1.094046,-0.040545,-0.158825
5934138277,-6.328651,2.974757,0.374890,1.075123,-0.067817,-0.132132
5934158323,-4.252048,4.384676,0.154148,0.982674,-0.075048,-0.079708
5934178371,-2.320404,2.891248,0.052865,0.897170,-0.050301,-0.059137
5934198416,-1.436274,0.483096,-0.017405,0.908236,0.011482,-0.112897
5934218462,-0.828096,-0.804039,0.257812,0.936986,-0.002671,-0.114997
5934238508,-0.383033,-2.412595,-0.020561,0.958997,-0.014714,-0.101282
5934258553,0.264041,-3.342469,-0.144643,0.971155,0.000598,-0.094979
5934278599,0.115122,-3.433434,0.080152,1.012549,0.011444,-0.117762
5934298645,0.238138,-2.175958,0.073578,1.018380,0.013131,-0.094171
5934318689,-0.239242,-1.544030,-0.133223,1.036530,-0.006770,-0.096808
5934338735,0.222132,-0.172898,-0.460040,1.049256,-0.021487,-0.096183
5934358780,0.431013,0.977153,-0.788863,1.022709,-0.021447,-0.050614
5934378826,0.867057,0.436256,-0.757316,0.991930,-0.008555,-0.039944
5934398872,1.471187,0.261163,-0.745531,0.988155,-0.005933,-0.046238
5934418918,1.948895,-0.143103,-0.952133,0.993648,-0.021027,-0.046488
5934438963,2.862189,-0.204368,-1.183611,0.991733,-0.001409,-0.011085
5934459009,3.099839,-0.409972,-1.141689,1.011526,0.015193,-0.001828
5934479055,2.445212,-0.043993,-0.992659,1.013488,0.051155,0.012422
5934499101,1.833196,1.252248,-0.633592,1.033286,0.018579,0.043184
5934519146,2.604539,1.122793,-0.678694,0.937968,-0.033319,-0.006303
5934539193,4.151541,-2.283746,-0.842559,0.819261,0.028429,-0.180308
5934559239,3.854133,-5.659533,-0.680362,0.929667,0.042903,-0.214894
5934579285,3.953243,-5.513766,-0.277773,1.097911,0.000763,-0.106127
5934599331,3.675061,-5.018898,-0.457418,1.052648,0.019471,-0.034671
5934619376,3.091907,-4.782100,-0.156515,1.023271,0.026973,-0.090646
5934639422,2.222614,-3.395128,-0.075492,1.017805,0.059939,-0.170492
5934659468,1.414059,-2.136750,0.409778,0.974041,0.046796,-0.210755
5934679516,0.905679,-2.144001,0.625986,0.957673,0.042610,-0.197397
5934699558,0.133759,-2.060343,0.640686,0.997519,0.023135,-0.182884
5934719604,0.021363,-1.259941,0.739541,1.021816,-0.006473,-0.174989
5934739650,0.389776,-0.025164,0.774130,1.035017,-0.016673,-0.192535
5934759695,0.473221,1.514080,0.683331,1.031833,-0.001144,-0.205488
5934779741,0.381216,3.655337,0.593931,1.049108,0.012075,-0.204080
5934799787,0.384215,6.711481,0.652472,1.084132,0.014711,-0.182350
5934819833,-0.370911,11.337059,0.590593,1.128247,0.029681,-0.137829
5934839878,-1.161281,14.688435,-0.108241,0.839825,0.029273,0.233558
5934859924,-1.346020,2.594751,0.248905,0.888896,-0.032422,-0.128925
5934879970,0.125980,1.916461,0.069772,0.835611,-0.023839,-0.222439
5934900015,-0.250641,-2.457968,0.114567,0.916497,0.031797,-0.260221
5934920063,-0.598789,-4.385545,0.379908,0.952505,0.027322,-0.196285
5934940108,-1.170783,-3.066200,0.837460,1.133348,0.008412,-0.183633
5934960154,-1.915216,0.866325,0.968718,1.121575,-0.012980,-0.077459
5934980200,-1.251818,3.899164,0.762353,1.048076,-0.033942,-0.038226
5935000246,-0.272376,4.759632,0.350769,0.952776,-0.014483,-0.067770
5935020291,-0.163117,2.715715,-0.301711,0.862064,0.004564,-0.076785
5935040337,0.496521,-0.926358,-0.057859,0.878467,-0.031927,-0.149172
5935060382,1.039264,-3.677169,0.032465,0.918717,0.014902,-0.143128
5935080427,0.265721,-4.872947,0.425887,0.990677,0.065477,-0.102046
5935100473,-1.040770,-5.329400,0.918887,1.019282,0.040534,-0.083338
5935120519,-1.974004,-3.767538,0.840098,1.084127,0.009669,-0.100279
5935140564,-2.056528,-1.069756,0.832718,1.072649,-0.012676,-0.070816
5935160610,-2.116432,0.370636,0.852009,1.037338,0.015381,-0.071894
5935180656,-2.391856,0.865861,0.825139,1.000778,0.013970,-0.068364
5935200701,-2.274075,0.933885,0.570459,1.006882,-0.016013,-0.051624
5935220747,-1.927855,-0.011656,0.299439,0.983470,-0.032649,-0.024963
5935240793,-1.366897,-0.172161,0.036920,1.007929,-0.023872,-0.020674
5935260839,-1.399735,-0.035296,-0.092803,1.010416,-0.019226,-0.019272
5935280886,-1.067098,0.543448,-0.322787,1.015745,-0.036443,0.015343
5935300932,-0.248324,0.885676,-0.721886,1.021174,-0.054395,0.045509
5935320977,1.640739,1.975958,-0.731606,1.036754,-0.023268,0.040471
5935341023,2.465971,0.840681,-0.720915,0.815326,0.008019,-0.143079
5935361069,2.430643,-4.447465,-0.374041,0.902763,0.042140,-0.212709
5935381115,1.611473,-3.662927,-0.460097,1.123365,-0.004513,-0.127522
5935401160,2.379616,-0.485572,-0.798880,1.096864,-0.023250,-0.051512
5935421206,2.797213,-0.151537,-1.396487,1.036264,0.000023,-0.061956
5935441251,3.105628,1.639659,-1.316737,1.013816,0.008665,-0.147735
5935461296,3.448006,3.332238,-1.046282,0.985472,0.012274,-0.192737
5935481342,4.128865,4.255522,-0.634646,0.974468,0.014944,-0.165684
5935501388,3.934427,2.494745,-0.754916,0.897005,0.023749,-0.111908
5935541479,3.898021,-0.591264,-0.545258,0.986952,-0.006009,-0.192914
5935561525,4.195255,-0.156950,-0.613603,1.032164,0.015941,-0.215961
5935581571,3.928851,0.574687,-0.572662,0.983057,0.026031,-0.179465
5935601616,3.514646,0.041973,-0.203703,0.976011,0.049228,-0.173846
5935621662,2.792926,0.720591,0.029644,1.015745,0.048303,-0.164174
5935641708,1.942790,1.643229,0.341085,1.004645,0.058110,-0.112621
5935661755,0.569913,2.146243,0.511238,0.974370,0.042333,-0.057430
5935681801,0.039903,1.041827,0.838499,0.947229,0.018546,-0.059561
5935701846,-0.266683,-0.071913,0.412593,0.922221,-0.045698,-0.101330
5935721892,1.828981,-2.754613,0.121050,0.903727,-0.044236,-0.186166
5935741938,2.625040,-4.195520,-0.202899,1.001387,-0.011233,-0.227102
5935761984,3.442364,-2.915187,-0.291794,1.100593,-0.019473,-0.183391
5935782030,3.865098,-0.362967,-0.682925,1.082424,-0.019197,-0.114908
5935802074,4.044948,0.352920,-0.910400,0.967223,-0.004023,-0.080924
5935822120,4.422020,-0.004821,-0.763697,0.949594,-0.016365,-0.101119
5935842165,5.383414,-1.652798,-1.663274,0.825873,-0.032134,0.036547
5935862211,5.584303,-9.910933,-0.409405,0.998854,-0.053794,-0.320761
5935882257,6.667581,-3.189823,-0.781384,1.031782,0.147396,-0.111507
5935902303,4.885533,-4.881094,-0.328536,1.038576,0.040653,-0.135683
5935922349,3.853167,-3.159197,-0.398292,0.958988,0.061860,-0.063010
5935942395,2.972991,-3.227140,-0.021838,1.062695,0.037658,-0.203718
5935962440,3.590870,2.212766,-0.716745,1.088732,-0.041954,-0.023656
5935982486,3.299888,-0.745050,-1.060399,0.929278,-0.029415,-0.055362
5936002532,5.091207,1.000769,-1.001632,1.095107,-0.048749,-0.117435
5936022579,5.600319,1.700574,-1.625157,0.994895,-0.022054,-0.062848
5936042624,6.717570,2.104874,-1.587050,1.012099,-0.020810,-0.041629
5936062670,7.453349,2.409122,-1.923281,1.038848,0.022925,-0.025091
5936082716,7.529826,2.965430,-1.941900,0.997477,0.016829,0.008939
5936102762,7.325748,2.766561,-2.227653,1.007959,0.024095,-0.006411
5936122807,7.268667,3.361462,-2.022207,0.993975,0.026812,-0.001820
5936142853,7.174455,3.102026,-2.149420,0.996342,0.002812,0.005986
5936162899,8.741653,2.241320,-2.131116,0.993675,-0.037339,0.041411
5936182943,10.337062,1.586063,-2.251589,0.937107,0.122420,-0.008453
5936202989,2.676951,-1.896358,-1.220232,0.846326,0.297522,-0.152530
5936223035,1.088433,-4.020636,-0.196589,0.995650,-0.152615,-0.176569
5936243080,3.308894,-2.451827,-0.924987,1.099816,0.025984,-0.095581
5936263126,3.677179,-0.105491,-1.360225,1.101811,0.001380,-0.068704
5936283172,4.704356,2.304143,-0.876201,1.046004,0.016971,-0.106449
5936303218,3.518361,4.240269,-0.569259,0.983680,0.092143,-0.142186
5936323263,1.481490,3.174463,0.146261,0.948961,0.064845,-0.168691
5936343309,0.246228,2.062001,0.372612,0.931882,0.057559,-0.159310
5936363355,-0.665150,0.796584,0.333377,0.972700,0.047146,-0.165435
5936383402,-0.949063,0.164881,0.723062,0.974547,0.020410,-0.161155
5936403448,-1.428386,0.157439,0.854651,0.982910,-0.002352,-0.179325
5936423494,-0.526866,0.927244,0.788746,1.021123,-0.013939,-0.178323
5936443540,0.045866,1.956051,0.713076,1.007203,-0.029089,-0.142295
5936463585,1.217609,2.298537,0.383541,0.995643,-0.048348,-0.117011
5936483631,2.389949,2.481073,0.092734,0.993567,-0.024511,-0.114201
5936503677,2.857271,3.167149,0.119590,0.987651,0.031760,-0.080424
5936523722,1.600682,2.099620,0.009981,0.922653,0.088424,-0.084675
5936543767,-1.764665,0.575494,0.424222,0.913916,0.162926,-0.131854
5936563812,-5.189553,-0.932204,1.351541,0.968457,0.060146,-0.166837
5936583858,-6.307027,-1.381263,1.726226,1.055485,0.033366,-0.155023
5936603904,-7.220014,0.309801,1.493786,1.108423,-0.003755,-0.149781
5936623950,-6.829000,3.129570,1.453886,1.068560,-0.037031,-0.105201
5936643995,-5.717265,3.533153,1.186444,0.951759,-0.094450,-0.068528
5936664041,-3.720586,1.985910,0.877759,0.923513,-0.108183,-0.094803
5936684087,-1.810168,0.956547,0.431478,0.946733,-0.059713,-0.124782
5936724178,0.015477,-0.568247,-0.034434,0.978640,0.005265,-0.085219
5936744224,0.073971,-0.521864,0.239369,1.009747,0.040691,-0.090075
5936764271,-1.038020,-0.171067,0.466097,0.982269,0.058072,-0.063855
5936784317,-2.345448,-1.298233,0.930782,0.965725,0.072505,-0.068408
5936804363,-3.457450,-1.686610,1.182896,0.991631,0.038412,-0.077235
5936824409,-3.953294,-1.442744,1.237555,1.025592,-0.007534,-0.056768
5936844455,-3.442002,-1.404633,1.181658,1.008997,-0.047818,-0.033361
5936864500,-2.396892,-1.177043,0.618078,1.008714,-0.052130,-0.053593
5936884546,-0.912166,0.027552,0.654030,1.042110,-0.079527,-0.037686
5936904590,1.346659,0.415236,-0.025331,1.041263,-0.090406,-0.015413
5936924636,4.280755,1.359701,-0.589745,1.035125,-0.100556,0.012214
5936944682,7.229290,2.029727,-1.191733,1.004865,-0.050801,0.033345
5936964728,6.847034,0.565534,-1.561513,0.916420,0.158847,0.030329
5936984773,-2.453415,-1.842401,-0.371999,0.874522,0.396975,-0.060402
5937004819,-9.439174,-5.916848,1.611067,0.891032,-0.042426,-0.181141
5937024865,-6.235184,-6.315176,0.373439,1.051898,-0.110891,-0.189580
5937044910,-4.801875,-4.463585,0.079653,1.113559,0.014513,-0.060030
5937064956,-4.154561,-1.857593,-0.155544,1.072941,-0.025917,-0.099848
5937085002,-3.623165,0.322462,-0.020285,1.047821,-0.021887,-0.167691
5937105048,-4.644234,2.402992,0.099582,0.998480,0.032668,-0.194355
5937125095,-6.608894,2.388261,0.542751,0.917075,0.061861,-0.183846
5937145140,-8.731308,0.109621,0.797840,0.936666,0.033772,-0.188128
5937165186,-9.704531,-1.071085,1.141596,0.967554,0.016779,-0.202969
5937185232,-9.829000,-0.917997,1.441518,1.013194,-0.003082,-0.205893
5937205278,-9.171318,-0.285315,1.426650,1.019825,-0.025506,-0.184909
5937225324,-7.981603,0.751966,1.644638,1.029208,-0.045807,-0.148633
5937245369,-6.553434,1.817994,1.093758,1.040352,-0.080950,-0.121623
5937265413,-4.172684,3.213526,1.203386,1.011270,-0.043253,-0.077435
5937285459,-3.823720,2.725562,1.068334,0.940053,0.023726,-0.057087
5937305505,-5.921376,0.744357,1.413650,0.892853,0.136358,-0.116927
5937325551,-10.061615,-1.786205,1.716373,0.926179,0.099322,-0.202582
5937345596,-12.577812,-2.487048,2.126679,1.026372,0.024134,-0.207706
5937365642,-13.698909,-1.084837,2.235462,1.088461,-0.005790,-0.152524
5937385688,-13.149271,1.094614,2.110561,1.065669,-0.068859,-0.095749
5937405734,-11.711836,3.067675,1.617613,1.051322,-0.161120,-0.092083
5937425780,-8.463261,3.296042,1.133537,0.956253,-0.169329,-0.077013
5937445825,-5.045263,2.753966,0.320156,0.961965,-0.116449,-0.119773
5937465871,-3.035406,1.481776,0.308316,0.909119,-0.043330,-0.088765
5937485918,-2.265533,-0.964452,0.263314,0.914861,0.010456,-0.081236
5937505964,-2.583769,-2.946441,0.069769,0.970071,0.026328,-0.102447
5937526009,-3.118546,-2.748399,0.087128,0.999352,0.024963,-0.075529
5937546055,-3.807681,-2.648658,0.451674,0.999722,0.029092,-0.055571
5937566101,-4.775198,-2.160760,0.629294,1.021494,0.050308,-0.062241
5937586147,-5.906121,-1.093137,1.052682,1.028356,0.016053,-0.044327
5937606192,-6.275519,-0.682048,0.905652,1.011070,-0.016173,-0.042618
5937626237,-5.714319,-0.079496,1.053227,1.023340,-0.034366,-0.051874
5937646283,-5.353987,0.529362,0.662135,1.008650,-0.023218,-0.011428
5937666329,-4.656383,0.049705,0.780100,0.980644,-0.025431,-0.004774
5937686374,-4.133853,-0.720463,0.527999,1.019346,-0.027586,-0.020953
5937706420,-3.848312,0.345812,0.213250,1.037549,-0.002958,0.001390
5937726466,-4.503486,1.199422,0.314819,1.047260,-0.000053,0.041979
5937746511,-4.261384,1.679235,0.155695,0.934878,-0.135487,-0.006897
5937766557,3.313644,-1.520536,-0.271015,0.900753,-0.222699,-0.117282
5937786603,7.220777,-2.359701,-1.085257,0.925485,0.109045,-0.156290
5937806649,1.176801,-4.677391,-0.784509,1.031501,0.101753,-0.148736
5937826694,1.006598,-2.282926,-0.132013,1.088887,0.002845,-0.104978
5937846740,0.297650,0.154674,-0.523727,1.080175,-0.023829,-0.108507
5937866787,1.431500,2.601399,-0.485101,1.028013,-0.017787,-0.147298
5937886833,3.060984,2.898154,-0.869215,0.985995,0.000297,-0.175388
5937906879,3.680896,3.104146,-0.843722,0.943259,0.023684,-0.187861
5937926924,3.455828,1.588198,-0.551574,0.957599,-0.002632,-0.213842
5937946970,3.564748,0.977852,-0.849673,0.976542,-0.004841,-0.192647
5937967016,3.613856,0.871600,-0.666877,1.016964,0.011591,-0.193908
5937987062,3.356842,2.243574,-0.551836,1.046939,0.053811,-0.161356
5938007106,1.380523,3.638081,-0.380583,1.033416,0.092742,-0.100823
5938027152,-0.252460,4.209589,-0.220895,0.948366,0.013912,-0.057666
5938047198,-0.028874,3.013497,-0.076063,0.909461,-0.045382,-0.065800
5938067243,2.978734,-0.057326,-0.238822,0.858070,-0.108450,-0.140800
5938087289,5.991968,-2.664560,-0.953418,0.946671,-0.038542,-0.243462
5938107335,7.670938,-3.015052,-1.114734,1.044375,-0.021827,-0.234444
5938127381,8.378372,-1.712256,-1.362042,1.060051,0.007881,-0.166405
5938147426,7.665195,-0.295339,-1.528674,0.999981,0.045556,-0.108798
5938167472,6.379316,0.253796,-1.199893,0.967297,0.050639,-0.088188
5938187518,5.481869,-0.385934,-0.912898,0.940469,0.054432,-0.081655
5938207563,4.507746,-0.836196,-1.068251,0.971951,0.028420,-0.104389
5938227610,4.276809,-1.186004,-0.718740,0.976165,0.018180,-0.084926
5938247656,4.440884,-2.656229,-0.472502,0.979051,0.030481,-0.076372
5938267702,4.316136,-3.090935,-0.590897,1.020683,0.012400,-0.098022
5938287748,4.438152,-2.610862,-0.625429,1.009223,0.006616,-0.066589
5938307793,4.965235,-2.656506,-0.650788,1.000329,0.004988,-0.053908
5938327839,5.191247,-2.374930,-0.847147,1.020330,-0.001062,-0.044707
5938347885,5.632646,-1.276759,-0.576634,1.065899,0.018556,-0.048966
5938367930,5.072575,0.186938,-0.310830,1.034685,0.068959,-0.020195
5938387975,3.812174,0.850714,0.154621,1.025918,0.091567,-0.038148
5938408021,2.598580,1.484142,0.672755,1.000067,0.079298,-0.009818
5938428067,1.048276,0.348532,0.813599,0.966696,0.038660,-0.018804
5938448112,0.089984,-0.353127,0.696983,0.975872,0.032192,-0.031568
5938468158,-0.434809,-0.162399,0.844078,0.995733,0.012663,-0.030694
5938488204,-0.778979,-0.551142,0.852050,0.980781,-0.010687,-0.001442
5938508250,-0.786167,-0.926465,0.043446,0.988752,-0.014602,-0.010104
5938528295,-0.314997,-0.742832,0.301142,1.037594,-0.083615,-0.030340
5938548341,0.676996,0.155385,-0.263640,1.035886,-0.026111,0.028145
5938588432,0.924193,-4.036397,-0.399669,0.895867,0.015252,-0.236240
5938608479,2.600054,-3.456620,-0.342420,1.134410,-0.087186,-0.176775
