Timestamp (us),Gyroscope X (deg/s),Gyroscope Y (deg/s),Gyroscope Z (deg/s),Accelerometer X (g),Accelerometer Y (g),Accelerometer Z (g)
10088082344,-0.212287,0.297415,-0.123511,0.963556,-0.123804,0.244451
10088102345,1.092807,0.424623,0.143527,0.958852,-0.122055,0.245380
10088122345,1.601641,-0.079094,0.348668,0.955259,-0.114403,0.247506
10088142347,1.974793,-0.151375,-0.207460,0.957675,-0.106324,0.250234
10088162348,1.547769,-0.039356,-0.965951,0.961197,-0.103898,0.259810
10088182348,-0.090850,0.291656,-1.279138,0.963899,-0.100491,0.260515
10088202348,-1.629616,0.672409,-0.681087,0.963013,-0.104309,0.259196
10088222348,-2.628452,0.693444,-0.045875,0.955196,-0.109077,0.257458
10088242349,-2.659891,0.444052,0.411359,0.952586,-0.114090,0.252674
10088262352,-2.079308,0.632921,0.385053,0.955703,-0.117994,0.251306
10088282348,-0.819331,0.941471,0.271508,0.955539,-0.125325,0.253333
10088302348,0.253394,0.350717,0.140097,0.953379,-0.120776,0.250413
10088322349,-0.092994,-0.348752,0.365231,0.955766,-0.111115,0.249285
10088342349,-0.353416,-0.562292,0.200203,0.958151,-0.110166,0.249295
10088362349,0.093102,0.313652,0.270186,0.957518,-0.114817,0.260032
10088382350,-0.661935,0.302180,0.623256,0.958794,-0.112662,0.253718
10088402350,-0.839204,-0.049876,0.238096,0.958294,-0.116528,0.249576
10088422350,0.121046,-0.169818,-0.373694,0.955301,-0.114028,0.254707
10088442351,0.302893,-0.422415,-0.472171,0.957114,-0.113395,0.257179
10088462352,-0.724871,0.000217,-0.393398,0.960423,-0.110211,0.249501
10088482353,-1.165642,0.337705,-0.233329,0.957305,-0.106306,0.250960
10088502353,-1.319942,-0.094050,0.286088,0.955232,-0.113973,0.252060
10088522353,-1.085262,-0.527227,0.735341,0.956015,-0.120735,0.250804
10088542354,-0.206579,-0.202133,0.669058,0.961825,-0.125760,0.251305
10088562354,1.213987,0.189977,0.584799,0.961831,-0.121132,0.250777
10088582355,2.304891,0.231923,0.427639,0.958209,-0.116067,0.249933
10088602353,2.173354,-0.149800,0.247586,0.953763,-0.109088,0.254616
10088622354,1.065219,-0.574790,0.011395,0.953374,-0.100411,0.256850
10088642354,-0.040707,-0.548819,0.008730,0.956956,-0.100743,0.251692
10088662355,-0.687648,-0.249263,0.086321,0.958263,-0.104436,0.249664
10088682355,-1.227968,0.041191,-0.087313,0.954786,-0.112567,0.254406
10088702355,-1.854709,-0.202204,-0.334124,0.957356,-0.116267,0.253759
10088722355,-1.570926,0.088624,0.066026,0.959638,-0.116236,0.252961
10088742356,-0.647344,0.215807,0.099227,0.960369,-0.120049,0.254395
10088762356,0.024189,0.253027,0.308772,0.964024,-0.120158,0.252153
10088782357,-0.806254,0.432282,0.638524,0.962535,-0.108973,0.250233
10088802359,-1.614645,0.428621,0.999403,0.957300,-0.116048,0.249924
10088822359,-0.752167,0.526013,1.147008,0.960158,-0.118180,0.251262
10088842359,-0.858908,0.526743,1.238684,0.956148,-0.116176,0.245627
10088862360,-0.623059,0.425599,0.949291,0.956195,-0.114002,0.245138
10088882360,-0.479822,0.183516,-0.182567,0.953223,-0.113351,0.254494
10088902360,-0.199718,-0.201689,-0.858441,0.956562,-0.114221,0.255818
10088922361,-1.327041,0.137281,-0.794034,0.956664,-0.115281,0.251730
10088942360,-1.829323,0.339015,-0.351892,0.957828,-0.112425,0.249782
10088962360,-1.630012,0.464223,0.452159,0.958841,-0.114562,0.254386
10088982360,-1.415971,0.526219,0.792871,0.957022,-0.119636,0.252895
10089002360,-1.309824,0.454409,0.177165,0.957376,-0.120474,0.251999
10089022361,-0.944904,0.223278,-0.112229,0.958604,-0.123057,0.251231
10089042361,-0.379801,0.322474,0.241909,0.955862,-0.120502,0.247789
10089062362,0.381063,-0.091456,0.232710,0.949531,-0.119116,0.246335
10089082362,1.415184,-0.766651,-0.042529,0.953616,-0.121940,0.251984
10089102362,1.613928,-0.690360,0.085406,0.957655,-0.117188,0.259705
10089122363,1.065852,-0.452190,0.140025,0.962111,-0.112452,0.260589
10089142364,0.915173,-0.069560,0.344161,0.958697,-0.111422,0.257620
10089162365,0.424640,-0.600839,0.576790,0.957355,-0.111342,0.254869
10089182365,0.179432,-0.807475,0.267274,0.960106,-0.114950,0.254587
10089202365,0.585533,-0.324521,-0.565097,0.958527,-0.121099,0.254484
10089222366,0.806104,-0.440444,-0.763162,0.956728,-0.122043,0.249372
10089242366,0.598058,-0.919042,-0.509264,0.957086,-0.119474,0.245231
10089262365,1.065142,-0.509694,-0.741234,0.954522,-0.122802,0.250273
10089282365,2.454421,-0.321762,-0.482455,0.954425,-0.122222,0.252544
10089302366,2.359907,-0.998606,-0.159783,0.953860,-0.118760,0.252211
10089322366,2.274338,-1.334817,-0.363050,0.960364,-0.121550,0.251134
10089342366,3.144103,-1.262422,-0.663725,0.958796,-0.120343,0.256937
10089382367,2.550933,-0.945025,-0.001312,0.963770,-0.104380,0.255374
10089402368,1.372749,-0.137449,0.775541,0.968536,-0.103890,0.252222
10089422368,-0.182175,0.023334,1.610243,0.960750,-0.110149,0.254338
10089442368,-0.283894,-0.576635,2.061788,0.956699,-0.123874,0.248487
10089462370,1.246757,-1.064041,1.479456,0.954797,-0.129717,0.243906
10089482371,3.725644,-1.021144,0.730802,0.957437,-0.127494,0.237969
10089502371,5.062949,-0.447620,0.258534,0.950391,-0.117041,0.246495
10089522371,5.335771,-0.756627,-0.432851,0.948229,-0.101038,0.249876
10089542372,3.394174,-1.489771,-1.841734,0.951239,-0.082650,0.249715
10089562372,-0.100002,-1.471109,-3.208937,0.955115,-0.081234,0.246448
10089582372,-2.349641,-1.357455,-3.085186,0.959509,-0.103733,0.243463
10089602371,-2.792150,-1.481335,-2.125086,0.969314,-0.133353,0.240003
10089622372,-0.027142,-0.790535,-1.122537,0.975846,-0.151550,0.242264
10089642372,2.815310,0.158969,-0.189908,0.974343,-0.137224,0.250147
10089662373,4.148940,-0.199327,0.626352,0.977192,-0.108080,0.251735
10089682373,4.387930,0.246510,1.535160,0.981153,-0.076720,0.244725
10089702373,1.892564,1.708028,1.137168,0.982912,-0.055328,0.249340
10089722373,-3.088298,5.118846,0.300932,0.977030,-0.047241,0.265758
10089742374,-8.491803,7.852538,-0.469509,0.966500,-0.035322,0.269939
10089762374,-14.156598,8.776578,-3.563549,0.962099,-0.030695,0.262799
10089782374,-18.398100,9.098788,-7.314906,0.961523,-0.042642,0.259237
10089802376,-21.439592,9.644097,-8.298997,0.969530,-0.090748,0.263615
10089842377,-18.696629,5.945058,4.532920,0.937913,-0.182937,0.241544
10089862377,-13.611756,1.741678,7.150518,0.936410,-0.176931,0.239703
10089882378,-7.267632,-0.417723,7.374507,0.945980,-0.161740,0.241846
10089902378,-2.769354,-0.675882,5.424898,0.948639,-0.155781,0.242967
10089922378,-0.670984,-0.382925,4.114498,0.930119,-0.159830,0.250232
10089942377,1.368138,-1.369984,2.977358,0.934705,-0.159055,0.247621
10089962378,3.929334,0.078709,1.249240,0.945321,-0.140198,0.253367
10089982378,6.014462,2.423917,0.172777,0.939630,-0.122849,0.269371
10090002379,4.713112,1.319155,1.202040,0.924509,-0.122222,0.284442
10090022379,2.163992,-0.764605,2.469421,0.938437,-0.134950,0.285964
10090042379,2.811376,0.637809,2.733683,0.946594,-0.127185,0.275254
10090062379,1.893621,2.148698,-0.825463,0.957193,-0.091981,0.267158
10090082380,-1.139337,4.984848,-5.969216,0.960833,-0.075594,0.274240
10090102380,-3.216632,6.059416,-5.706220,0.942428,-0.100250,0.283647
10090122380,-6.055185,2.084880,-1.313218,0.931508,-0.138735,0.278016
10090142382,-5.799667,-2.354695,1.699878,0.943213,-0.168094,0.276579
10090162383,-1.967756,-5.371435,4.583797,0.952823,-0.186294,0.257708
10090182383,2.461007,-6.294932,7.052736,0.943897,-0.180008,0.251775
10090202383,9.752404,-4.660857,5.416162,0.958708,-0.158319,0.252047
10090222384,13.498938,1.011582,1.041713,0.965182,-0.116550,0.264606
10090242384,8.718990,5.292842,-2.671935,0.943318,-0.068316,0.286813
10090262383,0.907478,3.779068,-4.962387,0.935103,-0.046866,0.287040
10090282383,-5.657187,1.238364,-5.984791,0.944721,-0.060536,0.267188
10090302383,-7.970896,0.506378,-4.116666,0.955952,-0.104051,0.266784
10090322384,-7.917050,0.144793,0.109958,0.958191,-0.151208,0.278112
10090342384,-6.991945,-1.434383,3.745373,0.962123,-0.174722,0.273405
10090362385,-2.688034,-2.835750,5.046751,0.959550,-0.179051,0.265600
10090382385,2.775401,-4.049459,4.784118,0.955061,-0.168827,0.249253
10090402386,6.232366,-3.606571,3.740409,0.955685,-0.156970,0.246523
10090422386,8.988754,-1.146184,1.611649,0.953487,-0.127637,0.253895
10090442386,8.690826,0.556026,0.199416,0.946289,-0.095940,0.266562
10090462388,4.431749,0.017037,-0.219447,0.944107,-0.079520,0.273676
10090482388,-0.562847,-1.323681,0.311002,0.947336,-0.086408,0.273541
10090502388,-3.920359,-1.669224,1.034643,0.953947,-0.106848,0.271641
10090522394,-4.299198,-1.155686,1.376016,0.955280,-0.133512,0.265314
10090542389,-2.593275,-0.122475,1.591520,0.952157,-0.157437,0.265832
10090562389,-0.522298,0.717336,1.433866,0.954607,-0.158234,0.264592
10090582390,1.926484,0.829725,0.852220,0.959312,-0.135162,0.257626
10090602389,2.990662,1.841097,-0.722689,0.980078,-0.103626,0.243304
10090622389,3.242824,8.263677,1.557243,0.995506,-0.086914,0.233351
10090642390,3.804439,13.355026,9.571694,0.953734,-0.115122,0.277604
10090662390,1.997599,14.050612,20.238661,1.014354,-0.179686,0.226209
10090682391,8.575150,21.556841,31.383610,1.022696,-0.271534,0.191856
10090702391,24.273788,25.559971,40.800526,0.910206,-0.469201,0.302217
10090722391,51.577065,19.747135,54.988907,0.853637,-0.656724,0.397479
10090742392,87.259598,2.797939,73.369125,0.892650,-0.641694,0.381222
10090762392,122.916260,-11.074145,87.761070,1.047338,-0.531291,0.340126
10090782392,144.080505,-10.065735,102.486130,1.130927,-0.422644,0.287031
10090802394,144.550278,-7.074591,129.250473,1.083266,-0.396469,0.304940
10090822394,130.777466,-10.636998,153.191483,1.044125,-0.415355,0.292978
10090842395,122.076393,-9.289167,160.604050,0.995675,-0.348865,0.236556
10090862395,116.140457,-7.661096,157.888031,0.919049,-0.347681,0.205756
10090882395,103.092819,-6.891267,158.134125,0.822988,-0.339588,0.222452
10090902395,101.885437,-15.982252,161.858932,0.804382,-0.284373,0.241758
10090922396,97.403442,-17.934334,155.899979,0.794917,-0.172553,0.215316
10090942395,13.763075,-16.422148,125.786652,0.697658,0.247381,0.245283
10090962395,-27.857159,-43.073563,93.868790,0.737612,-0.030445,0.436857
10090982396,-63.559166,-47.137531,78.996002,0.638794,-0.166318,0.343541
10091002396,-71.581306,-71.723862,37.674530,0.455932,-0.243927,0.290351
10091022396,-67.290840,-85.830376,-6.988016,0.554201,-0.294583,0.231186
10091042396,-59.178513,-63.587082,-37.637234,0.902516,-0.441607,0.332365
10091062397,-31.471479,-29.503345,-43.769787,1.251539,-0.752002,0.446459
10091082397,-28.657501,9.132486,-22.542858,1.129716,-0.676564,0.474631
10091102398,-39.947010,34.816208,-17.326178,0.936778,-0.444386,0.481162
10091122398,-46.634796,18.638237,-15.983602,0.896257,-0.400669,0.318811
10091142400,-38.200459,16.876711,-19.091875,0.987166,-0.399601,0.216909
10091182401,-27.279781,39.718151,-37.574898,0.906561,-0.134898,0.382149
10091202401,-48.791950,40.934456,-36.623421,0.933737,-0.095516,0.417392
10091222401,-75.616333,45.578613,-28.193071,0.977943,-0.140705,0.431484
10091242401,-96.954002,54.749847,-26.693306,0.961195,-0.151796,0.438419
10091262402,-111.575867,69.111534,-36.259174,0.941610,-0.119657,0.419120
10091282401,-121.949142,83.233887,-43.913147,0.958183,-0.039529,0.344808
10091302401,-132.847900,92.183105,-47.726395,1.015486,0.042661,0.303349
10091322402,-147.024918,98.411522,-53.229782,1.089184,0.049754,0.311096
10091342402,-166.622467,118.812660,-62.427940,1.208984,0.038046,0.286577
10091362402,-187.080109,147.866867,-87.050049,1.176416,0.107682,0.232091
10091382402,-212.763199,143.731476,-109.522003,1.204438,0.161513,0.115792
10091402403,-234.937820,132.477295,-127.638496,1.183549,0.167991,0.022989
10091422403,-257.120056,129.708160,-133.079727,1.223354,0.089233,-0.079205
10091442403,-272.885986,135.203613,-136.482712,1.228190,0.181480,-0.168963
10091462404,-260.055969,128.403122,-149.725754,1.264403,0.126116,-0.286968
10091482405,-260.784576,134.231293,-165.851822,1.331765,0.100032,-0.275672
10091502406,-273.375793,147.218582,-174.607605,1.252876,0.152957,-0.245172
10091522406,-260.827332,148.000946,-180.740356,1.117232,0.040722,-0.246820
10091562407,-228.802628,121.619324,-174.383621,1.326891,0.104969,-0.268226
10091582407,-210.988541,102.364044,-157.674347,1.467770,0.038484,-0.347608
10091602421,-234.889114,87.758156,-133.834641,1.771544,-0.000398,-0.600910
10091622407,-331.026947,93.932175,-76.474075,1.640791,-0.524902,-1.167464
10091642407,-358.190521,80.926178,11.800465,0.931374,-1.334630,-1.095577
10091662407,-288.785065,22.390438,65.050522,0.728983,-1.936117,-0.363292
10091682408,-196.116547,26.250252,54.267025,0.952177,-1.845357,0.357352
10091702408,-68.999626,29.674219,49.240433,1.001326,-1.293437,0.412853
10091722409,5.370316,34.954216,57.175266,1.090415,-0.663988,0.227940
10091742409,17.218788,52.876011,63.316948,1.007066,-0.335639,0.129471
10091762409,8.691717,49.182171,68.874557,0.896289,-0.226280,0.124030
10091782410,-23.143726,45.690140,77.478676,0.879967,-0.212391,0.117541
10091802410,-59.987469,46.294277,85.038399,0.826313,-0.195695,0.213798
10091822412,-100.619003,44.740520,88.696335,0.762977,-0.203369,0.333320
10091842412,-132.506866,47.337906,88.511047,0.682051,-0.344790,0.380651
10091862413,-138.555740,42.187447,90.621445,0.645919,-0.571303,0.392524
10091882413,-117.941803,32.653736,94.316971,0.719151,-0.769659,0.374144
10091902413,-78.454674,35.753155,91.128410,0.835841,-0.789889,0.353008
10091922414,-22.544197,46.533157,78.748810,0.851928,-0.739239,0.346097
10091942412,18.090643,56.933220,60.741196,0.810493,-0.592290,0.332294
10091962413,24.016907,67.229202,40.384830,0.752734,-0.357800,0.338508
10091982413,-9.785406,70.064903,23.199888,0.705958,-0.092278,0.369715
10092002413,-69.392334,64.309547,10.548992,0.752040,-0.003893,0.382503
10092022413,-123.448303,70.678841,3.053716,0.835518,-0.172926,0.351096
10092042414,-150.228485,91.460899,-4.015942,0.874277,-0.382484,0.267503
10092062414,-152.634430,118.271202,-15.023933,0.896315,-0.514958,0.215942
10092082415,-144.132782,143.066574,-23.154472,0.908714,-0.579624,0.174919
10092102415,-137.811874,161.434021,-30.987530,0.910814,-0.524919,0.094011
10092122415,-150.849350,173.632782,-55.323944,0.922528,-0.340890,0.012125
10092142416,-192.666367,189.161163,-94.195511,0.902375,-0.115937,-0.020632
10092162417,-249.125671,196.375366,-140.850601,0.926612,0.040039,-0.100501
10092182418,-300.665802,207.910095,-183.535324,1.131333,0.056897,-0.181889
10092202418,-311.689209,232.316116,-198.596680,1.497918,-0.355891,-0.259971
10092222418,-302.081726,228.235107,-137.895782,1.243175,-0.860711,-0.746437
10092242419,-257.479187,223.306564,-118.258125,1.116221,-0.647099,-0.973931
10092262419,-193.865158,246.151184,-182.532272,1.133601,-0.473166,-0.552362
10092282418,-157.644043,236.841034,-240.524475,1.030696,-0.380821,-0.248511
10092302418,-106.737564,227.432892,-248.807648,1.005858,-0.417309,-0.249660
10092322419,-86.684685,207.850159,-251.804611,1.121708,-0.184232,-0.199261
10092342419,-101.925049,176.629425,-266.693329,1.302322,0.133978,-0.240369
10092362419,-135.790604,147.221741,-263.844360,1.465209,0.291387,-0.243336
10092382420,-164.232330,129.867004,-250.055771,1.631520,0.248499,-0.325926
10092402420,-221.498932,124.065735,-249.957870,1.745410,0.192512,-0.429548
10092422420,-334.214905,108.824417,-227.875366,1.838324,-0.138952,-0.756917
10092442421,-430.579163,91.118896,-142.599548,1.465387,-0.660183,-1.008890
10092462421,-429.143402,61.500702,-48.004505,1.047374,-1.106198,-0.867688
10092482421,-350.235809,68.206604,-9.691930,1.014537,-1.372059,-0.449719
10092502423,-249.756332,95.518440,-24.432280,0.923060,-1.332211,0.014044
10092522424,-139.645828,78.268021,-43.566620,0.819393,-1.018677,0.158782
10092542424,-48.437607,46.275425,-48.678997,0.923257,-0.655224,0.122682
10092562424,3.837110,28.522957,-50.189995,1.123428,-0.361592,0.089081
10092582425,8.519302,36.864281,-53.972866,1.223845,-0.094894,0.128319
10092602425,-41.967102,60.832527,-57.589775,1.101612,0.107560,0.220759
10092622424,-118.132095,65.623138,-57.263580,0.891459,0.167471,0.309851
10092642425,-187.032730,48.650146,-48.117466,0.828386,0.044836,0.298877
10092662425,-229.658890,31.956520,-33.560333,0.904117,-0.160854,0.210033
10092682425,-224.175980,31.184664,-14.378360,0.998593,-0.344703,0.188633
10092722426,-128.866119,37.051247,5.997059,0.976835,-0.446842,0.298987
10092742426,-95.175705,28.262682,7.326878,0.909148,-0.313966,0.266527
10092762426,-83.587738,20.841068,2.352821,0.877069,-0.082874,0.238573
10092782427,-96.684555,24.801060,-3.312406,0.906714,0.094767,0.232311
10092802427,-126.362320,35.506905,-6.386695,0.915798,0.205400,0.239368
10092822429,-161.862091,45.977310,-11.127975,0.917257,0.127497,0.248150
10092842429,-191.619904,51.738552,-21.528044,0.994336,0.032733,0.213531
10092862429,-214.585648,64.806473,-32.319027,1.090505,-0.034948,0.181242
10092882430,-224.087173,82.744064,-40.488224,1.112018,-0.097578,0.143562
10092902430,-218.334427,96.996788,-48.072056,1.137704,-0.117611,0.077632
10092922431,-218.015671,110.536407,-54.883102,1.161905,-0.159137,0.006726
10092942431,-217.085297,119.109764,-58.589096,1.133257,-0.237562,-0.033770
10092962430,-217.149292,119.845985,-56.099560,1.124878,-0.300169,-0.088717
10092982430,-213.531479,121.473396,-51.601856,1.114965,-0.354575,-0.112792
10093002430,-206.127594,123.728035,-47.663845,1.065252,-0.369361,-0.088984
10093022431,-198.809921,122.698059,-48.285351,1.029586,-0.341010,-0.098171
10093042431,-197.407623,119.857315,-54.859905,1.052119,-0.284840,-0.135385
10093062431,-198.329559,120.490204,-58.658230,1.078430,-0.262491,-0.160913
10093082432,-202.069931,124.649124,-56.942547,1.076204,-0.242668,-0.151114
10093102432,-207.190292,127.273422,-54.856434,1.066054,-0.244444,-0.137781
10093122433,-214.462387,128.375015,-55.192982,1.071316,-0.266867,-0.146870
10093142433,-220.919312,129.187073,-54.999981,1.058521,-0.327903,-0.168500
10093182435,-216.852936,119.603317,-40.999931,1.004964,-0.444715,-0.171349
10093202435,-209.119675,115.479370,-36.114990,1.018702,-0.479054,-0.143045
10093222436,-196.754639,116.831734,-32.993481,1.030659,-0.510017,-0.122746
10093242436,-183.955170,116.562355,-30.732933,1.004799,-0.526030,-0.092111
10093262437,-175.082550,111.653816,-28.251030,1.005832,-0.492420,-0.079664
10093282437,-169.199890,113.335320,-25.496567,1.022971,-0.444266,-0.087894
10093302436,-169.985947,121.158920,-22.633093,1.014345,-0.444722,-0.126194
10093322436,-177.006561,126.723114,-19.145752,0.941488,-0.480156,-0.162869
10093342437,-186.650223,126.036789,-16.811190,0.869433,-0.531923,-0.158147
10093362437,-188.148300,122.208717,-17.782505,0.859200,-0.576797,-0.151905
10093382437,-185.773376,124.713341,-20.464476,0.887376,-0.608826,-0.194822
10093402438,-168.413086,128.018738,-22.253410,0.840129,-0.634554,-0.188700
10093422438,-153.162125,125.476402,-23.557842,0.812409,-0.640740,-0.185600
10093442438,-138.863693,119.936462,-25.642262,0.826238,-0.650843,-0.153289
10093462438,-131.870819,114.602158,-25.650026,0.844530,-0.652104,-0.087227
10093482439,-130.195557,110.452148,-23.450258,0.861090,-0.646822,-0.062057
10093502441,-129.355270,108.821342,-21.121307,0.838815,-0.654911,-0.050481
10093522441,-129.388519,106.514183,-20.457153,0.817090,-0.683502,-0.022348
10093542441,-131.683167,105.024445,-19.193626,0.821381,-0.714612,-0.011063
10093562442,-125.780869,105.997162,-16.352449,0.837791,-0.747815,-0.007287
10093582442,-116.583260,110.145576,-12.370420,0.862980,-0.748037,-0.017246
10093602442,-110.248848,113.641350,-7.817604,0.792380,-0.731439,-0.022864
10093622455,-107.348747,108.253235,-0.617454,0.694017,-0.727035,-0.000570
10093642442,-107.482712,97.839470,11.102943,0.673402,-0.762776,0.018653
10093662442,-99.773323,94.556885,21.410103,0.763834,-0.791347,0.017357
10093682443,-90.257477,101.642731,24.343853,0.774266,-0.824959,0.028104
10093702443,-80.871246,104.023056,25.376894,0.680628,-0.803800,0.059400
10093722443,-77.482185,99.254402,28.384766,0.628797,-0.807762,0.067788
10093742444,-70.205872,95.445114,31.803696,0.656446,-0.838152,0.049742
10093762444,-60.678238,96.945694,33.934383,0.629084,-0.871783,0.041227
10093782444,-50.391769,94.194130,37.076393,0.563434,-0.880485,0.047358
10093802445,-45.693153,88.713120,41.806557,0.499980,-0.861982,0.052091
10093822445,-41.492065,78.058342,45.376961,0.437914,-0.850851,0.058227
10093842447,-33.404716,70.088600,46.622437,0.398946,-0.844257,0.054723
10093862447,-22.133339,62.862431,47.363644,0.379111,-0.800176,0.062877
10093882447,-20.147545,51.680691,49.426682,0.339956,-0.728199,0.111363
10093902448,-27.289482,39.713463,49.247578,0.295344,-0.755460,0.160408
10093922448,-18.973158,25.602789,46.773373,0.310423,-0.684353,0.114132
10093942448,-24.276459,12.702885,40.670216,0.363849,-0.564992,0.117032
10093962448,-49.028137,4.886303,38.630100,0.394672,-0.574184,0.142933
10093982448,-70.760323,2.306114,31.476105,0.394112,-0.591231,0.170555
10094002448,-87.252266,5.111730,19.881338,0.439269,-0.627914,0.189634
10094022448,-100.845566,12.419386,12.356565,0.439094,-0.725732,0.170155
10094042449,-107.975189,12.950192,12.333532,0.530705,-0.927216,0.201812
10094062449,-86.501961,22.648270,15.261612,0.602414,-1.127101,0.245831
10094082450,-73.761124,31.109570,17.505653,0.595888,-1.136436,0.149219
10094102450,-75.261803,29.326637,-7.511621,0.832094,-1.072786,0.106379
10094122450,-70.440147,40.395821,-1.853925,0.922988,-1.324618,0.042660
10094142451,-59.634090,49.658592,28.687647,0.579817,-1.181700,-0.051927
10094162452,-43.936634,52.676773,29.688967,0.342328,-0.931503,-0.154487
10094182452,-33.403164,55.332344,3.920260,0.325900,-0.687955,-0.127381
10094202453,-29.029116,60.387974,-21.048460,0.366449,-0.671814,-0.070119
10094222453,-24.988281,52.922104,-31.854525,0.429306,-0.628579,-0.049444
10094242458,-24.186790,48.225590,-32.900803,0.489172,-0.606356,0.054895
10094262454,-27.639490,44.768250,-25.900772,0.579279,-0.632684,0.089136
10094282454,-31.619520,43.961174,-15.027081,0.626810,-0.752224,0.115259
10094302453,-27.514940,39.808125,-5.512634,0.673378,-0.818610,0.087285
10094322453,-14.951056,45.291622,-9.120975,0.675480,-0.747276,0.094784
10094342454,4.453119,52.240124,-14.917813,0.637926,-0.722072,0.097941
10094362454,27.014318,44.915264,-12.191110,0.593676,-0.766022,0.092972
10094382455,30.047485,42.263714,-8.332484,0.640767,-0.802936,0.143270
10094402455,11.409553,46.855049,-11.140709,0.593122,-0.709895,0.202750
10094422455,1.398304,38.960449,-20.983925,0.576977,-0.625940,0.213976
10094462456,-31.494310,38.013325,-29.667408,0.583238,-0.595860,0.235287
10094482456,-42.649464,38.585152,-41.246025,0.605983,-0.645992,0.177086
10094502458,-53.261147,42.054543,-60.614384,0.647902,-0.661610,0.164157
10094522458,-57.869617,45.449780,-79.189102,0.625338,-0.652089,0.141800
10094542459,-50.664562,42.229103,-101.519058,0.665564,-0.649126,0.090805
10094562459,-41.087330,45.859081,-126.573471,0.769267,-0.679343,0.064036
10094582459,-38.216221,60.958557,-153.693466,0.849006,-0.687260,0.156177
10094602460,-44.492992,82.527695,-183.886337,1.028829,-0.744498,0.228009
10094622460,-37.304234,123.680252,-223.363892,1.239984,-0.739678,0.223311
10094642459,-35.413303,182.760345,-254.372070,1.308944,-0.587188,0.105908
10094662460,-19.061523,233.220947,-254.637482,1.248497,-0.399359,-0.058766
10094682460,42.228168,218.527252,-226.102570,1.362627,-0.258652,-0.233911
10094702460,104.197227,103.222366,-254.018494,1.866921,-0.811018,-0.510781
10094742461,-177.723343,-76.610870,-53.489258,0.812512,-3.323861,-0.484704
10094762461,-114.389030,45.251808,126.069649,0.687524,-2.888089,0.820589
10094782462,179.659698,1.441727,107.849350,0.741932,-1.498956,0.519211
10094802462,315.099915,1.753065,118.848648,1.115113,-0.566149,0.056566
10094822463,247.397949,19.465595,128.614777,1.380500,-0.250528,-0.090737
10094842464,132.716614,8.918543,127.795761,1.130858,0.031989,-0.277835
10094862465,31.457443,-20.758898,115.648743,0.695576,0.090048,-0.308650
10094882465,-37.842197,-64.337669,107.811188,0.353055,-0.208859,-0.238364
10094902465,-88.310699,-93.403450,113.462616,0.198851,-0.517483,-0.187012
10094922465,-99.637016,-97.251434,151.148499,0.251108,-0.898845,-0.065694
10094942466,1.736238,-99.045975,195.096497,0.402927,-1.325252,0.193506
10094962466,171.056778,-152.178741,208.371918,0.643486,-1.448228,0.265500
10094982465,314.990509,-201.533310,184.479004,1.075782,-1.064419,-0.034232
10095002466,372.940186,-174.366882,147.371185,1.450962,-0.140137,-0.263759
10095022466,279.872894,-78.346542,127.154396,1.276185,0.317908,-0.334492
10095042466,204.195114,-49.776886,133.586823,0.990192,0.632104,0.317024
10095062466,48.881763,-62.824989,144.173767,0.638315,0.679793,0.472834
10095082467,-55.007088,-106.437134,127.998283,0.549611,0.326805,0.494057
10095102467,-89.093689,-112.118637,94.355103,0.762931,-0.092700,0.367467
10095122467,-118.485237,-70.740143,43.728210,0.875571,-0.360632,0.367062
10095142468,-108.900566,-27.238760,-0.748501,0.935971,-0.367883,0.362765
10095162468,-112.097054,-3.770759,-20.910128,0.948534,-0.337403,0.370541
10095182470,-127.683044,24.854776,-31.584969,1.063904,-0.298795,0.355329
10095202470,-145.103210,62.443512,-40.908981,1.123497,-0.529294,0.357464
10095222470,-163.549667,74.201302,-32.435154,1.074750,-0.814531,0.191966
10095242471,-136.511215,85.904633,6.334877,1.000336,-1.331310,0.210559
10095262471,-63.293423,61.718735,73.113403,0.786817,-1.381150,0.076820
10095282472,-9.389380,85.727440,59.398712,0.798930,-0.550311,0.046937
10095302486,-2.895839,98.442116,7.187570,0.658056,0.051477,0.186597
10095322471,-9.714611,88.828278,-24.282545,0.552429,0.069272,0.206423
10095342471,-13.859940,77.822144,-35.605122,0.385701,-0.078951,0.165883
10095362472,-56.768478,54.966766,-9.999725,0.580238,-0.437777,0.268676
10095382472,-100.013329,60.473186,-4.773591,0.504389,-0.519846,0.157706
10095402472,-98.754562,47.732635,-23.370356,0.482275,-0.514667,-0.002316
10095422473,-96.019722,42.538605,-43.178371,0.519908,-0.545690,0.039040
10095442473,-88.380867,39.821819,-56.978546,0.511972,-0.526446,0.044411
10095482473,-30.999176,41.641296,-94.751625,0.589786,-0.653949,0.098873
10095502474,-40.893055,68.313316,-144.625778,0.871701,-0.743402,0.135285
10095522476,-67.023209,119.607430,-202.379898,1.367849,-0.908231,0.126029
10095542476,-83.775787,198.995987,-240.637146,1.664203,-0.949024,0.001388
10095562477,-37.970165,277.006927,-247.363068,1.609058,-0.886509,-0.139506
10095582478,6.025747,310.535156,-196.321701,1.620608,-0.531330,-0.249017
10095602477,153.740921,138.434982,-229.083466,1.274861,-0.768845,-0.213182
10095622477,0.950687,-61.150444,-335.718079,1.585924,-1.578680,-0.390258
10095642477,-151.029861,-122.534187,-77.743675,0.768914,-3.014066,-1.103061
10095662477,-46.835281,17.204857,159.576065,0.369210,-3.010730,0.323050
10095682477,211.931061,-23.536232,106.363693,0.654142,-1.776455,0.906430
10095702477,340.541626,-71.240234,100.064980,1.496547,-0.656340,0.176177
10095722478,265.210907,12.588343,119.878540,1.733054,-0.045312,-0.137409
10095742478,153.073593,57.753384,113.316238,1.225538,0.045279,-0.041018
10095762478,21.405313,31.171841,94.355904,0.847201,0.002442,0.019592
10095782479,-81.505280,-18.896576,80.834602,0.659938,-0.213054,-0.057794
10095802479,-141.621628,-39.099537,68.243919,0.556539,-0.469921,-0.132331
10095822479,-158.654922,-40.290684,78.821800,0.465322,-0.695433,-0.055899
10095842481,-125.664345,-53.564980,110.154541,0.439560,-0.964665,0.067107
10095862482,-37.575211,-86.746552,132.563797,0.407016,-1.233443,0.116518
10095882482,85.470070,-128.200623,135.396576,0.485268,-1.298407,0.101429
10095902482,193.304825,-160.521622,128.758255,0.674736,-0.992614,0.025208
10095922483,252.814072,-158.986420,122.703964,0.861899,-0.673180,-0.104971
10095942483,298.980072,-138.175690,116.699249,1.007185,-0.326361,-0.105006
10095962483,278.918488,-108.421928,114.664986,1.013628,0.009408,0.003373
10095982482,197.801392,-93.224854,106.797333,0.873588,0.249158,0.210814
10096002483,93.578400,-104.762917,100.911880,0.790569,0.285100,0.503144
10096022483,3.813095,-106.828011,104.287430,0.886260,0.169835,0.537257
10096042483,-46.620155,-74.810463,101.758492,0.883086,-0.142618,0.443147
10096082484,-69.095619,-29.905704,59.283695,0.616652,-0.563432,0.327436
10096102484,-62.260117,-27.794001,56.788319,0.644829,-0.675019,0.347039
10096122484,-41.869884,-26.135780,58.397511,0.732999,-0.840776,0.329129
10096142485,-10.486452,-16.226189,47.326988,0.763947,-0.902060,0.240716
10096162487,7.888196,6.833047,14.712156,0.778077,-0.631794,0.210800
10096182487,1.484387,27.890190,-20.675758,0.803977,-0.301922,0.259902
10096202487,-27.965143,56.725098,-40.544209,0.991308,-0.307782,0.445588
10096222488,-80.829376,81.300278,-15.336325,0.831854,-0.468682,0.489236
10096242488,-105.374847,93.761620,-6.830231,0.789855,-0.492052,0.401057
10096262488,-104.664307,92.179276,-20.261930,0.952583,-0.637052,0.235351
10096282489,-88.598305,130.106628,-33.236134,0.797747,-0.554410,0.082745
10096302488,-64.922424,125.334061,-82.330757,0.461242,-0.143405,0.010923
10096322488,-87.242218,82.344574,-126.596436,0.482621,-0.085504,-0.002339
10096362489,-130.277222,55.922882,-152.649780,0.543569,-0.410784,0.105891
10096382489,-123.669403,58.652065,-158.566605,0.614118,-0.496823,0.067788
10096402489,-113.352196,68.553764,-180.696701,0.853646,-0.571165,0.036497
10096422490,-114.623161,98.470436,-208.275299,1.112621,-0.699932,-0.014833
10096442490,-110.367661,150.431992,-219.290955,1.234298,-0.767852,-0.051423
10096462490,-79.067963,202.425858,-208.832977,1.359895,-0.708094,-0.098144
10096482491,-13.433702,239.089081,-175.481934,1.553388,-0.676500,-0.322625
10096502492,117.209015,179.767685,-189.663376,1.438220,-1.068337,-0.495272
10096522493,99.085754,58.408524,-281.879150,1.281873,-1.510385,0.031249
10096542493,-16.350409,-76.106865,-169.632187,0.927033,-1.912157,-0.237794
10096562494,-3.235319,-96.459518,68.844521,0.686082,-2.022252,-0.207788
10096582494,58.156277,-6.219856,105.254974,0.974000,-1.571339,0.620079
10096602494,117.437820,-3.655316,61.648750,1.137161,-0.635710,0.558089
10096622495,130.219849,11.990432,64.285599,1.078986,0.012323,0.100585
10096642493,80.418152,6.102361,74.745682,1.023203,0.089886,-0.152197
10096662494,-15.947714,-21.198135,63.469864,0.870366,-0.018189,-0.155359
10096682494,-66.343567,-48.418045,44.901112,0.771506,-0.233433,-0.122307
10096702494,-51.491837,-57.189621,35.305470,0.770624,-0.493068,-0.060495
10096722495,7.458718,-43.942062,38.760605,0.738699,-0.677712,0.113690
10096742495,80.315239,-48.067432,51.486965,0.705643,-0.893557,0.259336
10096782496,167.658890,-95.355682,26.178947,0.985658,-0.420083,0.136482
10096802496,149.324188,-75.377930,-1.010686,1.130568,-0.023265,0.231178
10096822498,142.426987,-44.260784,-18.233944,1.082386,0.056957,0.372397
10096842498,118.371246,-27.623514,-14.855769,1.042058,0.008269,0.493145
10096862499,73.841393,-12.358829,-15.641076,1.027817,0.023994,0.446514
10096882499,29.612942,3.303032,-27.486595,0.992906,0.094066,0.355511
10096902499,-24.404186,12.348666,-43.095074,0.943818,0.084678,0.255643
10096922500,-73.363655,15.814753,-52.006348,0.896517,-0.010956,0.217322
10096942500,-94.941505,21.881363,-44.411938,0.878608,-0.189761,0.197723
10096962499,-85.500343,31.274143,-29.245781,0.859031,-0.417439,0.184423
10096982499,-48.407787,32.190231,-26.288439,0.852706,-0.573366,0.173529
10097002500,-5.718535,26.080076,-38.645073,0.834291,-0.627981,0.154024
10097022500,21.155672,12.701807,-49.422249,0.821794,-0.542611,0.167819
10097042500,25.985956,1.367137,-47.371510,0.830358,-0.413524,0.218645
10097062501,24.426636,-1.517646,-42.343342,0.856784,-0.307812,0.275940
10097082502,24.437860,0.833720,-41.723312,0.901054,-0.267598,0.280328
10097102502,20.519278,7.619033,-39.387978,0.953919,-0.252062,0.262743
10097122502,11.665177,18.822254,-32.855289,0.964770,-0.236064,0.265982
10097142503,2.988370,23.790302,-25.778399,0.934216,-0.229031,0.292931
10097162504,0.315529,19.321466,-21.003942,0.898340,-0.236646,0.311113
10097182504,5.622978,10.386477,-17.507189,0.896336,-0.247465,0.295387
10097202505,10.996744,5.852094,-13.757108,0.918876,-0.221072,0.273681
10097222505,11.948930,6.863495,-10.513526,0.923430,-0.177779,0.256552
10097242505,9.498079,9.653599,-10.492180,0.871365,-0.129619,0.254193
10097262506,8.174637,7.735044,-15.538596,0.832837,-0.082864,0.262664
10097282509,7.693661,3.691057,-24.546080,0.883306,-0.043501,0.286649
10097302505,5.821053,5.126550,-30.121944,1.012379,-0.034744,0.257621
10097322505,-1.667184,16.608021,-25.223015,0.997943,-0.027977,0.270781
10097342505,-10.198650,13.469314,-18.360813,0.920961,-0.030503,0.310545
10097362506,-19.496178,1.879143,-15.849213,0.921494,-0.014793,0.329191
10097382506,-30.153503,-1.578915,-16.575188,0.961887,0.013687,0.333720
10097402507,-40.440060,5.958948,-18.553396,0.977769,0.042880,0.332702
10097422507,-54.850933,15.643761,-20.454102,0.947717,0.044787,0.294333
10097442507,-67.185944,20.560036,-21.734728,0.939571,0.013301,0.254599
10097462508,-72.911644,23.029839,-23.687996,0.985557,-0.033639,0.199776
10097482509,-77.031746,27.826008,-24.519245,0.976003,-0.058863,0.169966
10097502510,-79.053749,24.598103,-26.273623,0.959390,-0.078189,0.173380
10097522510,-76.095291,18.284649,-31.000500,0.977170,-0.075738,0.186748
10097542510,-72.285706,14.642068,-36.389317,1.049440,-0.044710,0.194205
10097562511,-73.003036,18.241905,-39.890457,1.080281,-0.008286,0.218766
10097582511,-77.965263,22.136024,-38.464363,1.062212,0.021433,0.254979
10097602511,-85.296188,21.595650,-34.514771,1.057726,0.038542,0.255948
10097642511,-105.651268,28.066938,-26.069061,1.051592,0.120299,0.191965
10097662511,-114.348228,32.669701,-25.358660,1.012246,0.153748,0.177828
10097682511,-119.873398,33.467999,-22.662073,0.996049,0.183130,0.148754
10097702512,-125.996864,30.432745,-21.564034,1.042814,0.211234,0.117414
10097722512,-131.290649,32.480820,-25.386801,1.091611,0.185955,0.119298
10097742512,-130.813538,40.215302,-27.764639,1.074576,0.143563,0.117406
10097762513,-127.695175,41.497452,-27.275539,1.079988,0.205531,0.085221
10097782513,-134.942734,39.772861,-28.655691,1.130203,0.336545,0.040112
10097802514,-144.933807,42.198059,-32.922264,1.148935,0.401689,0.046323
10097822516,-151.815033,45.619461,-35.892879,1.165998,0.398062,0.065889
10097842516,-163.455811,44.130005,-38.545921,1.178661,0.383475,0.049912
10097862516,-178.952103,40.213379,-40.775177,1.198205,0.384942,0.009860
10097882517,-192.366272,40.892998,-40.473808,1.218798,0.388751,-0.030126
10097902517,-203.724411,47.194824,-38.383469,1.233630,0.373911,-0.079553
10097922517,-214.384979,55.873981,-36.231106,1.255241,0.365457,-0.130105
10097942522,-224.929596,61.652916,-34.590477,1.232238,0.338592,-0.154826
10097962516,-230.934006,62.939308,-33.786148,1.234327,0.304611,-0.194965
10097982517,-235.767487,66.766357,-33.576233,1.277746,0.257370,-0.236492
10098022517,-232.525192,76.584381,-32.260075,1.263315,0.089492,-0.230591
10098042518,-221.853485,74.260582,-25.474085,1.228154,0.050757,-0.232448
10098062518,-214.407837,68.949150,-20.331669,1.227781,0.055422,-0.230973
10098082519,-205.541840,69.363251,-19.393730,1.268675,0.064868,-0.234537
10098102519,-199.061646,78.055389,-15.579473,1.276499,0.054096,-0.238763
10098142521,-195.486908,83.336655,-9.160307,1.242209,-0.069526,-0.244323
10098162521,-190.268936,86.650108,-8.386034,1.248860,-0.158516,-0.253014
10098182522,-175.138763,93.152687,0.361003,1.248642,-0.267230,-0.271687
10098202522,-154.832794,96.880875,12.448280,1.150132,-0.372234,-0.221170
10098222522,-134.673752,89.246468,19.268200,1.099600,-0.472041,-0.206463
10098242523,-114.410217,87.996147,23.322947,1.109092,-0.524291,-0.216328
10098262523,-91.382980,90.184982,30.723579,1.071712,-0.581761,-0.145858
10098282522,-77.672699,86.639511,38.975502,1.058300,-0.589931,-0.069611
10098302522,-79.477913,85.283844,41.482475,1.068836,-0.599269,-0.033148
10098322523,-86.025551,90.737343,46.039665,1.043427,-0.565244,-0.024532
10098342523,-85.696869,96.789146,52.226986,0.976996,-0.494108,0.007366
10098362523,-102.087158,95.489792,53.120876,0.879196,-0.626157,-0.020506
10098382523,-89.983772,75.413269,52.252277,0.844952,-0.736434,-0.020889
10098402524,-65.104370,65.096710,50.908710,0.868885,-0.819641,-0.025481
10098422524,-42.929558,65.458252,48.617165,0.818369,-0.677439,0.015700
10098442525,-52.137951,65.710625,43.254955,0.708256,-0.691655,-0.054515
10098462525,-39.175381,49.378090,47.806587,0.631325,-0.749159,-0.057689
10098482527,-27.828724,33.060669,54.614933,0.565441,-0.785092,-0.068108
10098502527,-38.981804,23.440928,50.187878,0.541005,-0.665717,-0.046107
10098522527,-26.322893,14.740261,47.897297,0.563986,-0.785131,-0.022149
10098542527,-11.472618,4.844667,45.761703,0.539033,-0.764111,-0.000557
10098562528,-20.891638,-7.334580,39.651283,0.559747,-0.649695,0.053079
10098582528,-33.179035,-16.507305,35.561756,0.566413,-0.617258,0.017347
10098602528,-42.953106,-21.657934,32.149254,0.602809,-0.655426,-0.010433
10098622528,-55.528896,-18.791796,26.053444,0.644175,-0.639425,0.070008
10098642528,-74.993866,-9.644609,20.294998,0.656519,-0.598440,0.074611
10098662528,-97.270424,-1.787318,17.458191,0.691309,-0.625799,0.081949
10098682529,-107.437714,12.782879,20.881088,0.702538,-0.799909,0.141383
10098702529,-105.800446,24.240461,31.035177,0.761379,-0.946204,0.118773
10098722529,-97.348312,28.913689,34.288696,0.812709,-1.068152,0.083856
10098742530,-91.188568,38.020264,18.967407,0.869874,-1.016209,0.005826
10098762530,-66.646400,67.541435,-4.304505,1.152608,-0.993365,0.051740
10098782530,-25.452726,97.390701,29.622221,0.893316,-1.001157,0.095040
10098802532,-13.191833,116.310043,27.595814,0.627819,-0.415394,0.061019
10098822532,-27.567282,149.363144,-28.434660,0.469704,0.008537,-0.132803
10098842533,-24.501095,124.026833,-83.208618,0.230301,0.104480,-0.027501
10098862533,-70.162903,82.207237,-78.965202,0.464819,-0.394677,0.244504
10098882533,-111.269112,65.415405,-74.688858,0.484318,-0.698276,0.078516
10098902534,-99.703133,45.382565,-82.827766,0.615272,-0.770170,-0.095018
10098922534,-105.473244,59.602119,-99.516022,0.650736,-0.678901,-0.055290
10098942533,-96.149986,61.699696,-114.918777,0.546572,-0.643133,-0.117729
10098962533,-70.143616,55.004860,-138.382767,0.612557,-0.720981,-0.098447
10098982534,-55.713211,60.852821,-180.233536,0.752215,-0.849439,-0.019083
10099002534,-44.796547,91.586151,-249.128311,1.065404,-1.011069,0.044841
10099022534,-57.941685,167.574066,-317.730774,1.569669,-0.960722,0.085722
10099042535,-42.728638,243.025909,-340.552734,1.739518,-0.704858,-0.122740
10099062535,36.061661,294.037537,-276.921875,1.700279,-0.345725,-0.209015
10099082535,173.871964,162.990845,-271.577026,1.635941,-0.668077,-0.037328
10099102536,16.855503,-33.144333,-365.304321,2.334487,-2.073688,-0.235645
10099122536,-142.179153,-66.838676,-86.494644,0.812051,-3.421558,-0.629519
10099142538,-115.410263,55.328468,186.504181,0.257898,-2.579530,0.560403
10099162538,129.245071,10.712774,170.131790,0.663401,-1.444223,0.612992
10099182539,255.454102,-10.801469,152.204727,1.405926,-0.703107,0.089875
10099202539,196.572220,25.624779,130.285706,1.562736,-0.358055,-0.188136
10099222539,92.864014,29.305824,127.892998,1.064288,-0.044186,-0.280802
10099242540,4.658245,-28.421215,120.889862,0.587734,-0.088474,-0.289206
10099262538,-43.010029,-88.582687,111.729156,0.294347,-0.371994,-0.271567
10099282539,-59.829857,-114.897293,111.226151,0.128986,-0.610600,-0.184552
10099302540,-24.641783,-114.492416,138.991135,0.273559,-0.851307,0.024289
10099322540,90.410851,-115.971863,185.162613,0.511493,-1.105567,0.256534
10099342540,230.721008,-163.482910,204.267349,0.855019,-1.074606,0.171949
10099362541,291.155487,-192.725708,183.362473,1.246035,-0.565311,-0.065727
10099382541,283.397583,-158.837463,158.174088,1.405755,-0.023241,-0.140861
10099402541,254.171448,-99.892342,152.910828,1.323153,0.264304,0.035867
10099422541,178.764679,-65.508247,144.139786,1.078966,0.366083,0.313157
10099442542,80.056313,-73.032082,130.923187,0.911253,0.371884,0.571712
10099462543,0.386130,-74.630737,106.474922,0.864012,0.275512,0.627994
10099482544,-70.979134,-62.896133,76.646751,0.803256,0.125287,0.541028
10099502544,-128.805222,-40.798611,56.687687,0.807065,-0.114277,0.335314
10099522544,-137.316055,-11.037282,43.680378,0.854988,-0.425698,0.249273
10099542545,-114.148560,11.512831,20.818708,0.855321,-0.645939,0.315144
10099562545,-90.770996,28.980667,-7.659589,0.844894,-0.557648,0.339223
10099582545,-86.619461,57.894882,-27.871872,0.961788,-0.527645,0.258574
10099602544,-96.021919,92.755234,-25.593155,1.160024,-0.704344,0.287092
10099622545,-120.046585,115.777504,10.949829,0.825361,-0.741888,0.350340
10099642545,-106.320183,109.781464,28.339588,0.691790,-0.792546,0.335088
10099662545,-85.140511,85.036102,53.554413,0.712219,-0.869556,0.097672
10099702546,-63.844688,120.594833,-19.133326,0.466423,-0.124979,0.035686
10099722546,-37.305004,99.697449,-64.459465,0.197775,-0.025515,0.038750
10099742547,-44.584816,53.996651,-73.003876,0.358534,-0.259766,0.138286
10099762547,-91.828499,61.400330,-73.718353,0.491352,-0.450996,0.197930
10099782547,-118.013260,43.939323,-91.005661,0.445311,-0.507780,0.017638
10099802549,-126.108475,34.690636,-100.653923,0.497463,-0.496390,-0.023971
10099822549,-114.317513,32.146008,-111.023743,0.565276,-0.578534,-0.086152
10099842550,-92.506577,41.747585,-133.356949,0.697473,-0.764239,-0.060623
10099862550,-85.501190,81.932983,-164.553604,0.935994,-0.997577,0.046341
10099882550,-69.311699,146.356934,-206.769135,1.348916,-1.120711,0.127552
10099902550,-32.767937,261.213745,-238.135239,1.392817,-0.975349,0.065740
10099922550,20.526594,320.123840,-238.805328,1.646750,-0.507782,-0.203689
10099942550,235.078033,190.906357,-241.274200,1.964834,-1.034021,-0.271030
10099962550,117.623528,8.946863,-337.123535,1.676181,-1.826087,0.286263
10099982551,-89.024399,-127.695610,-94.091316,0.747739,-2.787379,-0.723829
10100002551,-113.315521,3.790973,186.067078,0.567542,-2.537883,-0.059947
10100022551,9.585401,34.304649,178.125168,0.747151,-1.718305,0.718111
10100042552,182.070816,-35.157753,143.531158,1.614482,-1.106536,0.228339
10100062553,192.335236,-3.665785,120.589096,1.549036,-0.658786,-0.152093
10100082553,137.394226,11.722772,120.466324,1.085039,-0.358596,-0.101447
10100122555,43.010208,-86.154579,105.473740,0.485811,-0.445861,-0.264582
10100142555,-12.444308,-89.508484,106.608566,0.268158,-0.512500,-0.320571
10100162555,-49.825962,-97.182541,137.158264,0.224154,-0.646173,-0.204301
10100182556,-6.550154,-107.384880,176.090225,0.418375,-0.934269,0.107931
10100202556,104.465378,-135.086197,187.396454,0.646490,-1.163894,0.274753
10100222556,199.249008,-177.853104,171.373566,0.885844,-0.949962,0.123094
10100242557,251.837540,-174.981415,148.611069,1.051852,-0.514940,-0.041547
10100262555,280.324005,-137.001465,139.660736,1.126955,-0.215164,-0.066103
10100282556,264.203857,-90.977448,134.806549,1.059361,-0.007829,0.079899
10100302556,188.758179,-67.952782,123.138657,0.909238,0.256624,0.359742
10100322557,87.698914,-71.084137,111.873505,0.756207,0.490306,0.606733
10100342557,9.592030,-83.117744,107.026100,0.765699,0.405539,0.617892
10100362557,-72.210190,-59.754791,87.262001,0.764930,0.110023,0.376869
10100382557,-122.644089,-26.224991,54.366871,0.752885,-0.322681,0.328119
10100402558,-105.949402,-2.705234,44.160469,0.768671,-0.561365,0.360405
10100422558,-87.144760,11.252173,25.324532,0.739960,-0.616029,0.353932
10100442559,-63.265804,11.970900,10.788659,0.823801,-0.671236,0.393753
10100462560,-46.582607,26.902761,11.495892,0.868242,-0.751594,0.415320
10100482561,-43.059834,45.574394,3.438654,0.848829,-0.549016,0.370144
10100502561,-61.701923,65.264641,-10.441834,0.937305,-0.446396,0.385968
10100522561,-96.888344,88.000862,-5.824571,1.027135,-0.422499,0.410221
10100542562,-127.086327,127.777466,7.986648,1.054966,-0.602531,0.518805
10100562562,-130.842575,150.645401,48.161427,0.780177,-0.813419,0.277920
10100582561,-85.365280,131.838181,24.146629,0.392446,-0.319249,0.059362
10100602561,-95.823189,90.034721,-30.012144,0.423757,-0.134196,-0.093491
10100622561,-113.289688,67.104141,-73.501793,0.271276,-0.341436,-0.025254
10100642562,-99.192749,41.523510,-94.082428,0.185303,-0.508546,-0.084394
10100662562,-91.619225,40.819641,-104.684502,0.238963,-0.529074,-0.029173
10100682562,-77.126877,50.293236,-132.683197,0.310925,-0.444308,-0.122974
10100702563,-78.079956,58.183319,-174.290573,0.450433,-0.525552,-0.054189
10100722563,-94.216446,92.005203,-220.277786,0.968346,-0.821163,0.028266
10100742563,-106.610046,178.706909,-273.642365,1.747445,-1.262217,-0.137084
10100762564,-58.592182,309.366577,-295.663757,1.778678,-1.095570,-0.350223
10100782566,85.409523,325.487244,-257.797577,1.473487,-0.918997,-0.571462
10100802566,227.773407,103.856949,-342.198578,1.086725,-1.502906,0.334654
10100822566,85.650406,-135.512711,-332.857391,1.826312,-2.183548,-0.197570
10100842567,-96.192116,-142.350021,15.628272,0.983835,-2.539281,-0.639977
10100862567,-144.433945,85.378258,152.789856,1.277884,-1.873822,1.194788
10100902568,155.328018,-6.658880,48.730000,0.837937,-0.212298,-0.427356
10100922566,50.438732,-21.856009,41.017536,0.916342,-0.295444,-0.404127
10100942567,-30.565168,-43.848454,9.904408,0.741891,-0.260440,-0.058795
10100962567,-1.078625,-51.707912,-14.299748,0.732531,-0.481578,0.057070
10100982568,55.901546,-23.221010,-4.528850,0.623508,-0.685921,0.068143
10101002568,94.527618,-12.576345,15.422693,0.576014,-0.736100,0.182091
10101022568,127.491272,-19.783535,-17.197569,0.939521,-0.573377,0.288697
10101042569,145.166550,-8.504169,-72.850189,1.188203,-0.115081,0.246670
10101062569,123.375366,18.689812,-107.975243,1.003461,0.351308,0.191579
10101082569,63.202183,5.021904,-127.009125,0.774721,0.381245,0.172306
10101102569,-14.272766,-16.076912,-126.407600,0.845080,0.043511,0.116633
10101122571,-79.255005,2.282036,-99.109955,0.925944,-0.440544,0.098340
10101142572,-60.872513,15.156961,-67.722656,0.833817,-0.816672,0.206266
10101162572,22.206367,9.180882,-66.296814,0.833595,-0.887087,0.297559
10101182572,83.213699,-0.323708,-85.842316,0.836360,-0.605431,0.214631
10101202573,99.829041,-7.015249,-96.344559,0.808697,-0.330718,0.014289
10101222573,102.191734,-0.332388,-86.073349,0.660944,-0.163281,0.080375
10101242572,79.755310,5.929759,-58.428860,0.683089,0.028367,0.184194
10101262572,46.373032,11.925877,-58.311157,0.603897,0.273027,0.234185
10101282572,67.299751,22.578169,-104.271431,0.418548,0.245288,0.485963
10101302573,75.788353,36.773895,-101.228432,0.323076,0.426457,0.534576
10101322573,27.872097,-68.625465,-64.769295,1.867048,-0.029353,0.070939
10101342573,-18.240398,-15.528925,-42.799271,2.141348,-0.970381,-0.638108
10101362574,-27.050219,121.854507,9.767948,0.303315,-0.190242,0.880898
10101382574,44.949253,14.632589,-2.271823,0.918613,0.615527,0.767715
10101402574,33.963291,-7.937072,-25.069323,1.347804,0.616553,0.439810
10101422574,-32.287819,-2.817004,-2.197080,1.232889,0.323025,0.162215
10101442576,-41.428059,-27.803349,11.986310,1.133317,-0.224035,0.085790
10101462577,-57.962547,-36.053673,32.951813,1.498945,-0.369008,0.108118
10101482577,-56.440407,-11.112856,38.645294,1.444390,-0.394576,0.025684
10101502577,-47.004749,3.834201,21.983080,0.769528,-0.599101,0.062441
10101522578,-12.346686,-6.250530,2.765755,0.588333,-0.448486,0.091323
10101542578,1.622822,-7.846230,-7.192757,0.554517,-0.229820,0.113620
10101562579,-14.605719,10.447505,-1.980811,0.497628,0.039197,0.062758
10101582577,-47.516109,34.658241,-5.139550,0.195826,0.429513,0.095865
10101602578,-96.657181,36.795818,-29.174248,-0.003700,0.629569,0.198418
10101622578,-135.558563,-8.131632,-52.738396,0.376616,0.610742,0.468980
10101642578,-137.682983,-82.705208,-39.661755,1.986017,-0.270375,-0.040643
10101662579,-158.397491,-0.120785,7.744334,1.867738,-0.788559,-0.140779
10101682579,-103.515610,9.490785,23.636654,1.343919,-0.929360,0.037085
10101702579,-35.708149,-14.443688,38.337708,1.417618,-0.881856,-0.129738
10101722580,7.300427,-14.354399,42.510464,1.213266,-0.795917,-0.214208
10101742580,51.612206,-23.853149,41.849560,1.088463,-0.754439,-0.136925
10101762580,110.367554,-23.795923,51.878006,1.082551,-0.619809,-0.082408
10101782582,148.020340,-20.242107,82.710396,1.344100,-0.511231,-0.016405
10101802583,150.494720,16.395370,129.626099,1.250827,-0.345325,0.118665
10101822583,126.605423,32.817257,192.879669,0.984404,-0.262036,0.144531
10101842589,88.294823,36.186447,246.128326,0.837208,-0.167740,0.137860
10101862584,61.732071,42.302013,275.813751,0.723592,-0.152780,0.182824
10101882584,48.157997,30.311241,302.535370,0.840111,-0.186305,0.172563
10101902583,57.994312,15.790786,307.898621,0.937598,-0.257442,0.218330
10101922583,15.653266,16.580030,288.216187,0.986940,0.102769,0.071816
10101942583,24.713520,-29.183588,237.033554,1.065933,-0.054629,0.154388
10101962584,-21.745018,-62.463097,170.887253,0.966259,0.112083,0.202907
10101982584,-28.196617,-103.166183,109.880966,0.748723,0.352222,0.360853
10102002584,-54.481392,-135.804398,64.135002,0.701510,0.342642,0.415528
10102022584,-99.362686,-121.181564,7.552290,1.064218,0.006490,0.528697
10102042585,-144.352844,-59.569122,13.671965,1.321733,-1.079853,0.541230
10102062585,-152.681152,-43.912075,84.130470,1.004155,-1.264913,0.542610
10102082586,-108.117676,28.037210,75.081894,1.043860,-0.664902,0.533426
10102102587,-124.591972,43.001060,77.369110,0.863396,-0.326010,0.163907
10102122588,-121.732430,17.653793,81.939369,0.537118,-0.388327,-0.011459
10102142588,-92.267181,-8.536160,93.489693,0.420447,-0.629333,-0.000903
10102162588,-73.118874,-30.721909,105.593330,0.314111,-0.693270,-0.065208
10102182589,-49.480797,-53.424458,101.233849,0.441892,-0.735280,-0.175290
10102202589,-19.405294,-47.969715,93.859970,0.604519,-0.750510,-0.077459
10102222601,1.760783,-39.789669,91.583191,0.678825,-0.724783,0.108885
10102242588,1.122646,-38.402893,99.125969,0.695096,-0.687469,0.148611
10102262588,-9.750376,-29.851950,104.707184,0.667038,-0.649499,0.168542
10102282589,-32.349686,-17.366873,99.928230,0.658027,-0.668279,0.132436
10102302589,-54.142422,-4.565439,88.297173,0.604839,-0.757908,0.117497
10102322590,-45.368893,0.062489,78.828140,0.547382,-0.912769,0.073598
10102342590,-17.321938,6.184733,66.239761,0.480346,-0.957588,0.024902
10102362591,16.067265,16.882414,47.192394,0.472715,-0.941009,0.054125
10102382591,54.388371,29.639359,32.839954,0.503083,-1.019931,0.167931
10102402591,64.478256,46.832027,22.274441,0.499105,-1.017612,0.158916
10102422593,73.078171,40.229115,-16.415529,0.400901,-0.759860,0.149041
10102442593,45.561523,43.749748,-54.507656,0.420326,-0.746588,0.304831
10102462593,14.493139,50.043747,-82.169846,0.452495,-0.777442,0.254639
10102482593,3.227695,48.092659,-122.887566,0.497372,-0.717531,0.035524
10102502594,-27.989386,49.585991,-174.381622,0.583279,-0.666674,0.025847
10102522594,-50.824951,43.023018,-215.268784,0.676062,-0.716583,0.029829
10102542595,-47.175987,43.009613,-254.976715,0.892144,-0.940802,0.016567
10102562593,-30.931667,74.618584,-294.915894,1.359776,-1.110898,0.136997
10102582594,-11.460270,157.431534,-321.043243,1.541125,-1.001227,0.325683
10102602594,36.618511,221.414062,-319.569458,1.470335,-0.751383,0.223073
10102622594,100.284370,223.056427,-282.380188,1.547807,-0.477864,-0.019246
10102662595,46.679626,54.335049,-325.059082,1.527426,-1.532708,-0.262846
10102682595,-180.652649,-65.333900,-157.789856,0.718946,-2.754031,-0.888274
10102702596,-243.142349,-8.009471,188.560242,0.145942,-2.782945,-0.117619
10102722596,-37.836086,30.894821,242.085297,0.336613,-1.871068,0.450154
10102742597,233.173340,-48.519569,212.595840,1.072212,-1.204907,0.072242
10102762598,310.816223,-48.821121,167.178482,1.387948,-0.823007,-0.279442
10102782599,233.341461,-71.889420,155.918762,1.021891,-0.335376,-0.459096
10102802599,116.950226,-118.123367,163.400635,0.719653,-0.072563,-0.430329
10102822599,43.864281,-125.681793,166.299316,0.561021,-0.128951,-0.177934
10102842600,10.359563,-111.289154,194.299484,0.429308,-0.333285,0.022458
10102862600,50.012951,-109.534668,245.884674,0.432044,-0.791833,0.203390
10102882599,126.533401,-133.760376,267.120667,0.856840,-0.845862,0.258849
10102902599,196.656601,-159.821396,234.590927,1.406695,-0.485170,0.144183
10102922599,197.937866,-130.351120,189.767380,1.282270,0.070743,0.088142
10102942600,177.851440,-114.320305,158.872375,1.013446,0.472981,0.355277
10102962600,89.941750,-106.293442,118.695076,0.942553,0.814916,0.443263
10102982600,-39.958752,-81.331833,45.142574,0.834258,0.866060,0.667787
10103002601,-146.102371,-31.353359,-9.428340,0.850578,0.496100,0.713132
10103022601,-214.119202,22.589111,-34.842743,0.927707,-0.055593,0.638192
10103042602,-230.391907,56.944859,-53.238552,1.162544,-0.525437,0.354514
10103062602,-205.735809,103.870071,-56.102074,1.620204,-1.269521,0.148624
10103082604,-134.725372,102.578583,36.283714,1.005899,-2.043970,0.018882
10103102604,-19.925175,102.087509,71.934372,0.693350,-1.253669,-0.046850
10103122604,31.552017,118.986290,15.364751,0.650280,-0.191000,0.115903
10103142605,43.521576,106.839554,-21.408049,0.525415,0.198319,0.303320
10103162605,38.476460,85.584648,-28.561218,0.383909,0.268025,0.378176
10103182605,-41.753952,32.665344,4.228343,0.281922,0.015453,0.320098
10103202606,-148.367676,15.723406,26.663029,0.329053,-0.231440,0.187267
10103222604,-205.389740,20.008730,10.383121,0.363840,-0.509194,-0.074833
10103242605,-194.561691,28.830339,-17.383110,0.378387,-0.879805,-0.141144
10103262605,-142.428375,39.174789,-43.612270,0.343302,-1.111745,-0.125802
10103282605,-47.197121,50.575809,-78.858322,0.354954,-1.108534,-0.106488
10103302606,34.539730,67.493698,-135.976624,0.502567,-0.982335,0.005621
10103322606,76.102287,101.915916,-214.489258,0.825853,-0.936252,0.172814
10103342606,84.172066,150.689301,-301.486023,1.422677,-0.887579,0.392616
10103362607,54.926426,219.222641,-358.034973,1.783672,-0.602860,0.285791
10103382607,38.697163,264.792480,-332.968018,1.996623,-0.123094,-0.017715
10103402607,118.262848,175.302948,-237.083008,2.008988,0.158153,-0.095980
10103422609,-20.163980,-13.925314,-332.955597,1.977729,-1.253286,-0.226393
10103442609,-341.334747,-83.736809,-201.284195,1.277116,-3.867499,-1.315792
10103462610,-301.675903,20.456179,144.052475,0.017222,-3.967536,0.181784
10103482610,70.650833,36.494106,166.178940,0.504679,-2.367686,0.801174
10103502610,429.355408,-69.481796,164.078476,1.361759,-1.386893,-0.184203
10103522611,363.728546,-15.190001,125.155167,1.656572,-0.748993,-0.356777
10103542610,203.081177,-3.805426,118.390030,1.330051,-0.068793,-0.431448
10103562610,79.762451,-26.643034,104.450928,0.801881,0.136239,-0.436267
10103582610,-27.595011,-48.666878,75.236572,0.412559,-0.076319,-0.245639
10103602610,-85.994644,-77.119408,63.815350,0.225836,-0.336343,-0.054341
10103622611,-118.591263,-93.450935,103.068466,0.366269,-0.675122,-0.009319
10103642611,-70.572510,-83.233665,162.723572,0.492364,-1.108047,0.067562
10103682612,213.162216,-185.129181,177.696014,0.632964,-1.109068,0.052026
10103702612,286.960022,-209.809982,158.776428,1.021133,-0.637467,-0.105012
10103722613,331.489410,-172.635239,160.091568,1.292282,-0.165816,-0.215978
10103742614,328.688721,-122.529083,165.447540,1.281301,0.161861,-0.076363
10103782615,73.153595,-128.012970,138.765289,0.947058,0.448894,0.739913
10103802615,-4.748208,-124.843506,143.559967,1.094972,0.329502,0.683672
10103822616,-63.875481,-82.478897,109.790581,1.016886,0.097656,0.578357
10103842616,-84.743469,-25.693291,75.028717,1.022558,-0.162098,0.489090
10103882615,-96.330765,61.967857,23.495138,0.768727,-0.292030,0.359004
10103902615,-111.695457,86.030853,-5.535223,0.789671,-0.233773,0.274674
10103922616,-121.881264,107.052567,-37.736778,0.975739,-0.327464,0.292216
10103942616,-126.804283,122.776428,-37.185219,1.055311,-0.584503,0.324332
10103962617,-111.773430,158.097641,-6.530295,0.990309,-0.775655,0.394935
10103982617,-70.729218,188.077209,32.336094,0.679795,-0.641515,0.256207
10104002617,-45.365578,137.376389,1.490374,0.422765,-0.007878,-0.072547
10104022617,-103.296692,110.357407,-47.047047,0.419711,0.110991,0.041076
10104042618,-146.598816,70.723785,-72.803696,0.249576,-0.188282,0.036208
10104062619,-146.888443,53.846279,-83.471321,0.212756,-0.556590,-0.053278
10104082620,-151.202026,61.068974,-97.049179,0.339095,-0.612225,-0.107523
10104102620,-144.872955,76.715302,-124.179848,0.390862,-0.605155,-0.203800
10104122620,-103.650284,82.999031,-178.997864,0.551776,-0.907671,-0.148092
10104142621,-102.384537,141.594238,-250.376236,1.452968,-1.236942,-0.001423
10104162621,-103.120491,301.917908,-296.140900,1.792487,-1.209853,-0.095658
10104182622,7.405295,378.170166,-276.496033,1.608492,-0.458055,-0.349234
10104202620,185.437653,256.067017,-247.141144,1.635121,-0.940167,-0.617033
10104222621,147.050064,-6.145480,-428.989502,1.694287,-2.193440,-0.004456
10104242621,-33.630432,-164.767487,-176.195923,1.064491,-3.548374,-0.643181
10104262622,-32.220791,50.891682,181.288284,0.727317,-3.143159,0.708972
10104282622,162.837540,26.513893,174.473907,1.239878,-1.463824,1.208995
10104302622,271.030914,-36.008026,158.631287,1.910320,-0.086004,0.070421
10104322623,150.117706,17.838921,125.038872,1.651174,-0.147606,-0.215929
10104342623,-33.974880,54.108452,106.838615,1.049158,-0.363814,-0.030123
10104362623,-126.844162,-2.386909,97.905777,0.594449,-0.481846,-0.077310
10104382624,-134.351318,-45.722351,55.413055,0.438029,-0.683794,-0.293060
10104402625,-113.881516,-44.500065,37.273182,0.207903,-0.708632,-0.368607
10104422626,-95.782021,-47.013496,87.760284,0.058815,-0.789136,-0.269080
10104442626,-55.232128,-89.322762,159.603363,0.013552,-1.051563,-0.125030
10104462626,30.630611,-159.322357,174.803146,0.296318,-1.273402,-0.095514
10104482627,138.984955,-219.718231,140.886520,0.646554,-1.163735,-0.184160
10104502627,224.134842,-218.478500,98.566399,0.892277,-0.798592,-0.273223
10104522626,285.820648,-178.239136,74.255493,1.037963,-0.477135,-0.215397
10104542627,309.751251,-139.604599,70.460159,1.093848,-0.227016,-0.098454
10104562627,277.957001,-119.319557,77.975983,0.991827,0.092454,0.095101
10104582627,195.747101,-132.275696,98.343300,0.901428,0.285364,0.361867
10104602627,91.397972,-156.111298,121.991989,0.912113,0.192383,0.582140
10104622627,17.424248,-152.075607,133.376221,1.092800,-0.042987,0.563039
10104642628,-26.267338,-118.237144,126.446228,1.108668,-0.419275,0.406888
10104662628,-37.239418,-75.858437,108.293816,1.053360,-0.564846,0.310236
10104682628,-28.244190,-36.959358,86.912247,0.982176,-0.498929,0.319818
10104702629,-22.361666,-8.544310,70.235603,0.832447,-0.353233,0.350187
10104722631,-24.703083,13.415074,65.465569,0.752848,-0.216103,0.362238
10104742631,-35.334221,44.911716,52.133316,0.795404,0.000850,0.365262
10104762631,-69.501518,92.433502,19.267628,0.901432,0.136032,0.338347
10104782631,-124.597977,156.844650,-29.385628,1.043393,0.076054,0.404002
10104802632,-173.359482,188.006577,-67.042450,0.993509,-0.169931,0.356107
10104822632,-178.205597,186.485260,-57.780228,0.888836,-0.592471,0.251447
10104842632,-124.239609,142.702789,-20.515528,0.550977,-0.742193,0.017834
10104862631,-88.887062,119.751335,-41.668728,0.539964,-0.527246,-0.300368
10104882632,-96.380928,120.707558,-102.425911,0.351918,-0.282846,-0.144015
10104902632,-92.569069,72.567078,-162.807007,0.232434,-0.249489,-0.092734
10104922632,-90.046074,57.142433,-175.789062,0.371066,-0.476023,-0.121973
10104942633,-95.729034,92.244522,-181.522934,0.690199,-0.654125,0.000278
10104982633,-146.534103,254.619003,-260.626862,1.572479,-0.710440,0.021063
10105002634,-113.716576,342.485504,-262.877319,1.517029,-0.432731,-0.271460
10105022634,1.601489,320.805267,-215.391968,1.900429,-0.541349,-0.807758
10105042636,94.675804,142.961533,-305.731812,2.006124,-1.952690,-1.007942
10105062636,-112.039375,-14.751165,-320.236420,1.090121,-3.494271,-1.068003
10105082637,-4.886850,-61.111935,83.738510,0.412856,-4.278258,-0.019987
10105102637,259.733795,26.506384,112.241142,0.539611,-2.069288,1.090932
10105142638,320.807343,-38.950008,118.809509,2.477001,0.371477,0.169344
10105162638,53.074196,67.588043,118.082870,1.747348,0.367823,0.084520
10105182637,-90.551155,80.116837,93.976700,0.895336,0.233956,0.044705
10105202637,-170.996902,35.782608,74.452492,0.601403,-0.296793,-0.164550
10105242637,-292.907623,-22.168266,105.213440,0.186662,-1.052368,-0.490239
10105262638,-251.472244,-61.443443,180.701614,-0.013844,-1.344095,-0.304977
10105282639,-115.863602,-113.429810,205.236053,0.160503,-1.600862,-0.081725
10105302639,51.042801,-191.430557,167.643677,0.479220,-1.671969,-0.119019
10105322639,189.229141,-228.508545,114.357552,0.797083,-1.321768,-0.313119
10105342639,264.912659,-197.684235,102.077942,0.973941,-0.827908,-0.364900
10105362640,294.618378,-157.072952,111.903259,1.039644,-0.438929,-0.262032
10105382642,279.233826,-124.444328,115.982460,0.978864,-0.043826,-0.109085
10105402642,209.625320,-110.201767,113.089745,0.816193,0.221003,0.089533
10105422642,108.422035,-112.401131,110.241089,0.645527,0.223344,0.356047
10105442643,13.082993,-130.066467,110.369095,0.559625,-0.041550,0.546976
10105462643,-28.819366,-144.092224,113.785416,0.656908,-0.403091,0.512828
10105482643,-17.168037,-129.908554,111.274101,0.758417,-0.735119,0.317636
10105502642,20.406008,-92.274460,95.809189,0.891630,-0.821115,0.191136
10105522642,45.012775,-51.341965,65.372269,0.906639,-0.672699,0.293541
10105542643,51.883060,-28.762081,34.210442,0.859615,-0.408014,0.411961
10105562643,37.582634,-9.078495,23.137100,0.943467,-0.130815,0.455340
10105582643,-10.595419,28.095989,-1.911946,1.073376,0.197008,0.464473
10105602644,-87.751770,85.862045,-49.955555,0.941809,0.383005,0.498419
10105622644,-164.936554,129.840927,-103.157280,0.988248,0.314755,0.505135
10105642644,-213.351913,141.830505,-125.013336,1.172527,-0.153053,0.384103
10105662645,-221.680878,159.430984,-88.912643,1.021410,-0.806978,0.259543
10105702647,-151.078384,111.526505,-104.444641,0.851564,-0.646839,-0.401296
10105722647,-146.373352,162.815430,-170.843246,0.626697,-0.277267,0.093913
10105742647,-52.704754,132.959091,-232.758789,0.479996,-0.358568,0.026915
10105762648,24.672985,137.821671,-261.639343,0.736732,-0.570268,0.129259
10105782648,34.767998,194.414246,-276.722748,1.262149,-0.576637,0.170404
10105802648,11.212083,244.742126,-303.205383,1.261230,-0.170333,0.006803
10105822658,-20.539240,230.839752,-319.427094,1.002165,0.264366,-0.213012
10105862648,-74.025040,32.264183,-365.801239,2.727281,0.367415,-0.436124
10105902649,-371.987823,113.210686,5.234905,0.785779,-3.466478,-0.898000
10105922649,18.617788,74.934883,93.395126,-0.056776,-3.783023,0.470462
10105942649,496.710907,-74.760361,-12.297066,0.235924,-1.560004,0.071012
10105962649,437.372925,-76.568863,-27.026506,1.257975,-0.350609,0.249166
10105982650,251.967178,-33.341541,24.737587,2.150592,0.386213,0.080270
10106002651,184.395233,20.731016,48.480663,1.929590,0.886308,-0.264951
10106022652,50.943081,60.440132,26.644197,1.415891,0.883632,0.032119
10106042652,-85.285278,52.245068,-7.493733,1.139677,0.506930,0.335503
10106062653,-196.035385,28.506542,-17.397709,0.996585,0.148827,0.166435
10106082653,-275.794891,25.784843,3.177996,0.856819,-0.241370,-0.067782
10106102653,-296.713440,37.935280,36.997517,0.715630,-0.643446,-0.105168
10106122654,-250.158783,43.588352,63.919262,0.563197,-0.964480,-0.009915
10106142654,-131.406113,18.404594,72.017426,0.463145,-1.193529,0.104794
10106162653,9.697309,-24.355862,62.371521,0.534004,-1.245822,0.182841
10106182653,128.117737,-67.282707,58.932255,0.693944,-1.078540,0.128520
10106202653,205.560699,-100.080521,67.360016,0.909060,-0.804768,-0.051029
10106222654,231.684097,-124.198074,73.315491,1.020750,-0.449717,-0.224384
10106242654,200.991318,-135.107819,71.514130,1.008027,-0.111562,-0.276228
10106262654,165.283859,-133.018051,64.858757,1.013043,0.054842,-0.106882
10106282655,138.019592,-114.225006,69.115738,1.151312,0.104770,0.061308
10106302655,119.615013,-88.043732,88.368240,1.064630,-0.009775,0.307477
10106322656,94.236931,-92.051842,94.855377,0.939767,-0.110738,0.467947
10106342656,73.917023,-97.074028,66.975014,0.963454,-0.206095,0.382630
10106362657,92.321701,-71.195511,22.575897,1.247120,-0.210997,0.250652
10106382658,106.321518,2.546114,-30.721310,1.317953,-0.052081,0.362762
10106402658,100.671616,11.094979,-74.498825,0.885520,0.212657,0.428500
10106422659,52.657616,13.392890,-73.415985,0.771322,0.276457,0.359782
10106442659,10.575400,19.187752,-64.518410,0.693380,0.189410,0.317098
10106462659,-10.124622,9.951064,-66.152618,0.705586,0.099146,0.246729
10106482658,-32.091759,6.593384,-78.271988,0.800590,0.022450,0.154454
10106502658,-54.970272,12.611530,-93.180656,0.863098,-0.035713,0.133903
10106522659,-62.425335,14.525633,-100.853394,0.889214,-0.102864,0.193667
10106542659,-51.663555,12.473793,-99.434181,0.909541,-0.175600,0.223084
10106562659,-32.947041,9.863901,-95.176231,0.880383,-0.199140,0.237382
10106582660,-15.005228,-3.065255,-95.207169,0.885697,-0.222818,0.299462
10106602660,-8.685615,-13.385695,-98.745743,0.973704,-0.196943,0.363985
10106622660,-12.084063,-8.104229,-94.840515,1.019179,-0.162028,0.444541
10106642661,-11.750378,1.176242,-78.188354,0.998426,-0.168987,0.473811
10106662661,-8.125051,7.533532,-56.910000,0.960952,-0.204434,0.450536
10106682663,1.894034,11.588090,-41.555099,0.988579,-0.265370,0.368743
10106702663,20.056547,14.289127,-35.160469,0.982827,-0.315611,0.254342
10106722664,36.554710,13.315125,-28.095646,0.841680,-0.286960,0.167011
10106742664,51.796337,-8.234962,-24.245113,0.791392,-0.222743,0.164970
10106762664,67.878250,-29.910276,-31.964039,0.919909,-0.188778,0.213266
10106782665,81.600273,-30.166477,-45.856346,0.972084,-0.126591,0.310073
10106802680,82.965126,-14.534596,-54.649883,0.922082,0.012255,0.416075
10106822664,79.040092,-7.095489,-55.987957,0.902943,0.043594,0.430543
10106842664,65.487083,-4.254026,-48.415585,0.943128,0.011839,0.411824
10106862664,55.662994,-0.604245,-35.339199,1.090026,-0.077131,0.377271
10106882665,43.204723,10.270054,-18.179886,1.007770,-0.145434,0.329421
10106902665,55.423000,11.367579,-1.195362,0.935598,-0.250304,0.352107
10106922666,76.273506,4.937744,4.377249,0.941439,-0.254644,0.292485
10106942666,93.344635,5.102852,2.664664,0.884414,-0.176205,0.257868
10106962666,114.534348,-0.260356,-9.635147,0.886364,-0.050467,0.261793
10106982666,126.442429,-0.739632,-18.525398,0.900782,0.019279,0.284583
10107002668,132.482437,-2.589580,-19.160147,1.000959,-0.009789,0.269346
10107022668,127.366203,-3.361198,-7.909060,0.961873,-0.011961,0.212158
10107042669,128.890015,-6.723643,4.425344,0.882068,0.027702,0.267390
10107062669,141.981522,-9.522721,3.990666,0.907887,0.078139,0.329906
10107082669,154.110748,-4.828548,-7.226645,1.043025,0.089510,0.346416
10107102670,153.923157,5.231963,-18.047251,1.141089,0.119298,0.299057
10107122670,143.885941,14.864727,-13.789441,1.034886,0.150713,0.253356
10107142669,144.017609,9.196123,-3.018885,0.960712,0.130248,0.295157
10107162669,143.911728,7.616056,-1.818143,0.980408,0.143280,0.288497
10107182669,141.503418,23.274475,-5.586599,0.978380,0.151824,0.279041
10107202670,149.644012,35.043652,-4.765215,0.951970,0.102182,0.328339
10107222670,160.986252,32.887085,-0.939188,1.067935,0.071738,0.303886
10107242671,151.887329,32.805004,2.119684,1.051918,0.117517,0.201315
10107262671,148.875534,32.889889,3.782112,0.953336,0.129517,0.201415
10107282671,165.658401,24.872322,4.919691,0.994908,0.135482,0.241512
10107322672,181.786316,32.191750,3.087792,1.070405,0.109277,0.224614
10107342674,190.766144,37.672497,1.623651,1.061080,0.156594,0.258455
10107362674,185.135056,41.904072,4.692722,1.022720,0.214008,0.249707
10107382674,172.174957,46.350483,8.531435,1.027247,0.202723,0.223747
10107402675,162.382904,53.195545,10.330978,1.070637,0.170608,0.178339
10107422675,154.173264,60.622562,13.602527,1.068241,0.109876,0.142579
10107442675,155.283234,60.764103,20.063847,1.051150,0.073981,0.118148
10107462687,166.339584,55.606026,29.178728,1.022229,0.066078,0.107488
10107482674,190.626205,45.054935,34.381958,0.995157,0.065175,0.099567
10107502675,218.095108,38.707973,33.950886,1.008159,0.106544,0.125607
10107522675,235.767502,34.973850,35.239765,1.046864,0.168533,0.175943
10107542676,242.727417,36.689636,41.074482,1.100413,0.231073,0.191484
10107562676,238.713425,43.026276,54.993679,1.121331,0.302521,0.190414
10107582676,218.655930,51.775219,72.904076,1.103375,0.384218,0.206309
10107602677,189.924026,57.416260,86.270592,1.099418,0.406922,0.281448
10107622677,161.185638,59.354610,90.527107,1.128448,0.322384,0.331202
10107642677,125.798737,68.429482,95.579590,1.092139,0.206105,0.346579
10107662679,95.590622,71.741043,107.238365,1.064387,0.051142,0.320494
10107682679,97.132301,59.200348,118.428795,1.028322,-0.112556,0.287893
10107702679,129.578171,40.554646,132.439087,1.026289,-0.278403,0.238062
10107722680,179.242661,21.283283,142.049530,1.058019,-0.373264,0.161210
10107742680,230.320786,10.320148,140.482819,1.093348,-0.359967,0.088206
10107762680,269.235992,5.744144,132.696060,1.108773,-0.281251,0.040540
10107782681,289.620575,1.782934,129.459579,1.126412,-0.177638,0.052535
10107802679,282.549713,-3.860708,136.356873,1.129554,-0.085673,0.131150
10107822680,256.253845,-13.939737,148.491623,1.088066,-0.060401,0.241173
10107842680,203.905167,-21.103201,156.993317,1.100709,0.336396,0.538681
10107862681,24.639452,18.859165,147.067947,0.802978,0.030341,0.194857
10107882681,-2.273381,-21.457600,136.681366,0.946653,-0.019444,0.670392
10107902681,-59.306320,-11.171995,149.548157,0.988448,-0.270114,0.303868
10107922681,-72.023476,2.684273,155.296143,0.888799,-0.331837,0.181857
10107942682,-45.185638,-20.228046,160.156189,0.751473,-0.595216,0.192822
10107962682,23.512484,-58.140244,163.760727,0.723683,-0.853093,0.197872
10107982682,79.147720,-92.164314,169.162735,0.838914,-0.887451,0.083077
10108002684,128.631134,-110.591751,174.886917,0.774933,-0.799668,-0.026734
10108022685,167.768265,-125.557220,158.194229,0.709916,-0.685451,0.051127
10108042685,177.476273,-140.618088,140.914490,0.740889,-0.497302,0.145876
10108062685,162.425232,-143.121826,131.305420,0.748548,-0.337838,0.158189
10108082685,132.698898,-141.605652,116.478836,0.704514,-0.260580,0.181005
10108102686,100.222549,-142.020248,96.399628,0.650589,-0.274772,0.221089
10108122685,78.031189,-141.708572,74.757889,0.628010,-0.335382,0.252898
10108142685,67.490822,-140.719971,53.234642,0.604772,-0.431046,0.267178
10108162685,66.129684,-140.704834,31.248310,0.641779,-0.472360,0.280955
10108182686,71.052139,-137.911316,10.398582,0.748845,-0.489990,0.344696
