Timestamp (us),Gyroscope X (deg/s),Gyroscope Y (deg/s),Gyroscope Z (deg/s),Accelerometer X (g),Accelerometer Y (g),Accelerometer Z (g)
5969031407,-0.197841,-1.070096,-0.424859,0.964897,-0.155809,0.188858
5969051407,0.101316,-0.756331,-0.002085,0.970203,-0.157506,0.192495
5969071406,0.369224,-0.566006,0.094620,0.970412,-0.163823,0.196060
5969091406,0.369072,-0.567360,-0.194148,0.970799,-0.157253,0.198335
5969111406,-0.050743,-0.612596,-0.336412,0.968059,-0.154609,0.194800
5969131406,-0.170840,-0.222108,-0.064058,0.968186,-0.153546,0.193052
5969151407,0.058913,-0.031818,0.002424,0.963121,-0.157191,0.191324
5969171407,0.317421,-0.215439,0.024874,0.963264,-0.161271,0.185915
5969191408,0.661713,-0.009760,0.189554,0.965940,-0.155911,0.183306
5969211408,0.981186,-0.230609,0.439874,0.966521,-0.148141,0.187114
5969231408,0.277763,-0.565106,0.231822,0.967931,-0.148180,0.192876
5969251408,-0.287466,-0.694659,-0.091780,0.965558,-0.156451,0.195807
5969271409,-0.538161,-0.465560,-0.167667,0.966200,-0.161398,0.194065
5969291409,-0.025395,-0.100951,-0.156463,0.965088,-0.162375,0.194069
5969311410,0.364607,0.126012,-0.303661,0.967725,-0.154092,0.192326
5969331410,0.158512,0.088757,-0.241756,0.966970,-0.151648,0.190456
5969351412,-0.116534,-0.031392,-0.011975,0.968046,-0.155622,0.193903
5969371410,-0.718523,0.099970,-0.002221,0.968208,-0.156908,0.193195
5969391411,-0.673240,0.007810,-0.116000,0.965592,-0.156988,0.190069
5969411410,-0.192851,-0.031532,-0.087619,0.966847,-0.155171,0.185492
5969431410,0.449268,0.227531,0.257843,0.966905,-0.159467,0.190302
5969451410,0.288351,0.053329,0.411354,0.966912,-0.157592,0.194287
5969471410,-0.223521,-0.098644,0.216799,0.966576,-0.156694,0.192993
5969491411,-0.459748,-0.022795,-0.010446,0.966243,-0.154953,0.193510
5969511411,-0.382647,0.181680,-0.262503,0.969336,-0.156152,0.190550
5969531411,0.181858,0.209761,-0.439994,0.969107,-0.158984,0.189222
5969551411,0.754904,0.414079,-0.428339,0.972401,-0.158430,0.188335
5969571411,0.710355,0.680896,-0.467342,0.966739,-0.154381,0.189766
5969591412,0.999355,0.482402,-0.346173,0.971461,-0.147184,0.197822
5969611413,0.396905,0.470783,0.066996,0.964868,-0.151412,0.203841
5969631413,-1.365475,0.377507,0.257853,0.959175,-0.160266,0.199267
5969651414,-1.205925,0.254452,0.128494,0.967293,-0.160464,0.184757
5969671414,0.420195,0.583984,-0.169203,0.973752,-0.154830,0.187837
5969691414,1.260385,0.891407,-0.774782,0.969573,-0.151731,0.194862
5969711414,0.642683,0.945640,-0.962190,0.967048,-0.156076,0.192441
5969731415,0.642526,0.907695,-0.924020,0.959268,-0.157518,0.194483
5969751413,0.060380,0.375963,-0.842957,0.957542,-0.153034,0.194032
5969771414,-0.130403,0.324555,-0.537879,0.961474,-0.149555,0.188818
5969791414,0.139025,0.813489,-0.176558,0.964876,-0.151599,0.190800
5969811414,0.397173,0.568194,-0.298215,0.969896,-0.153738,0.194896
5969831414,0.281534,0.316404,-0.402936,0.972305,-0.155775,0.195864
5969851414,0.418518,0.262037,-0.532504,0.971642,-0.157127,0.195696
5969871415,0.502794,0.330885,-0.434410,0.972189,-0.153539,0.193092
5969891415,0.869908,0.514016,-0.186139,0.967276,-0.152205,0.196488
5969911415,1.129871,0.613827,0.116195,0.964246,-0.153032,0.197748
5969931416,0.840439,0.676893,0.383208,0.965665,-0.147487,0.193481
5969951417,0.282920,0.518814,0.485262,0.963703,-0.144972,0.194791
5969971418,-0.343675,0.298650,0.314338,0.963274,-0.147104,0.197647
5969991418,-0.886060,0.124815,0.317603,0.964519,-0.153227,0.197206
5970011418,-0.839684,0.247073,0.400430,0.960942,-0.155830,0.194200
5970031418,-0.382858,0.062855,0.414377,0.959717,-0.158272,0.193313
5970051418,-0.085419,0.061620,0.329431,0.964980,-0.158737,0.194012
5970071418,-0.000893,0.198485,0.298027,0.971249,-0.154593,0.194285
5970091417,0.427497,0.456800,0.355694,0.968712,-0.153615,0.195339
5970111417,0.472893,0.394889,0.188582,0.966376,-0.151733,0.196381
5970131418,-0.277117,-0.129526,0.103193,0.961944,-0.153589,0.199831
5970151418,-0.886776,-0.020446,0.234673,0.963545,-0.156764,0.196339
5970171418,-0.924355,0.079674,0.424374,0.961461,-0.157113,0.194316
5970191418,-0.123356,0.085457,0.511881,0.962132,-0.160982,0.191737
5970211419,0.433630,0.107217,0.608029,0.960472,-0.161471,0.193187
5970231419,0.334025,0.015824,0.570902,0.959120,-0.156258,0.193367
5970251419,0.058087,-0.251154,0.383389,0.963390,-0.152266,0.192802
5970271419,0.102949,-0.434775,0.277626,0.965358,-0.153754,0.193392
5970291421,-0.117911,-0.350669,0.194661,0.963095,-0.157047,0.194970
5970311421,0.149839,-0.183681,0.192681,0.964097,-0.160673,0.197134
5970331421,-0.270006,-0.265724,0.331758,0.960562,-0.155131,0.198016
5970351421,-0.964395,-0.346490,0.578475,0.960679,-0.149317,0.197928
5970371422,-1.566837,-0.350734,0.938415,0.967179,-0.160058,0.200257
5970391422,-1.789090,-0.549489,0.697152,0.967185,-0.171614,0.193137
5970411440,-0.070931,-0.076843,0.079215,0.968223,-0.172839,0.185322
5970431421,1.554573,0.159483,-0.582825,0.962027,-0.157351,0.191224
5970451421,1.393653,0.021802,-0.771449,0.955336,-0.149719,0.193685
5970471421,-0.353930,-0.177943,-0.511782,0.951494,-0.154425,0.195816
5970491422,-1.020448,-0.830542,-0.239803,0.951453,-0.160592,0.196823
5970511422,-0.862129,-1.220390,-0.352749,0.960506,-0.161536,0.188719
5970531422,-0.104671,-0.741459,-0.206393,0.968599,-0.157250,0.188917
5970551422,0.522208,-0.423741,-0.370283,0.969871,-0.155671,0.193193
5970571422,0.658725,-0.584605,-0.446171,0.972722,-0.161863,0.196692
5970591423,0.589709,-0.646156,-0.605162,0.972550,-0.160841,0.197951
5970611423,0.820590,-0.219215,-0.478964,0.968563,-0.156050,0.196469
5970631425,0.766553,-0.385597,-0.219585,0.967002,-0.153802,0.192497
5970651425,0.843035,-0.391301,0.236051,0.965298,-0.151736,0.194546
5970671426,0.477608,-0.267022,0.503134,0.960849,-0.156391,0.193022
5970691426,0.271406,-0.319847,0.496716,0.961541,-0.150738,0.188837
5970711426,0.019033,-0.456557,0.460492,0.961969,-0.147565,0.188884
5970731426,-0.621748,-0.455169,0.372221,0.962832,-0.153362,0.191627
5970751428,-0.972814,-0.499710,0.419622,0.962535,-0.158235,0.193706
5970771425,-0.759602,-0.569365,0.327772,0.965291,-0.162323,0.191607
5970791425,0.018354,-0.557637,0.042990,0.966268,-0.159736,0.189662
5970811425,0.308813,-0.414194,-0.088176,0.966781,-0.156838,0.189622
5970831426,0.347545,-0.277449,-0.172565,0.969942,-0.157145,0.191939
5970851426,0.211017,-0.080135,-0.454012,0.968887,-0.159096,0.193783
5970871426,0.287367,-0.035850,-0.720538,0.974838,-0.158729,0.190097
5970891426,1.081159,0.061417,-0.641012,0.972036,-0.158420,0.188514
5970911427,1.883456,0.341903,-0.509160,0.967291,-0.162552,0.191266
5970931427,2.555490,0.515157,-0.558612,0.965380,-0.162887,0.190431
5970951428,2.892115,0.720501,-0.469888,0.964407,-0.151563,0.192619
5970971429,1.582206,1.151984,-0.298675,0.965199,-0.136476,0.199875
5970991429,-0.478703,0.889421,-0.614842,0.972596,-0.135273,0.199657
5971011429,-0.814855,0.819862,-1.015756,0.980383,-0.152783,0.194531
5971031431,0.388241,1.976850,-0.722523,0.970455,-0.164298,0.200993
5971051429,0.675855,3.105861,-0.440180,0.969228,-0.156229,0.204050
5971071430,-1.023679,3.452616,-0.684767,0.961658,-0.137545,0.196207
5971091428,-2.432510,2.356603,-1.106525,0.956857,-0.140422,0.197662
5971111429,-4.299215,1.157704,-0.978574,0.950602,-0.164587,0.202257
5971131429,-4.550769,1.167181,-0.734289,0.960114,-0.190353,0.188154
5971151429,-1.157439,2.627128,-1.189569,0.971825,-0.188262,0.173737
5971171429,2.015529,2.660327,-1.964147,0.969239,-0.163798,0.183369
5971191430,3.170922,1.802470,-2.094725,0.960447,-0.150426,0.190007
5971211430,2.541667,0.951913,-1.738425,0.953780,-0.155629,0.191297
5971231430,2.260627,-0.391181,-2.141417,0.949707,-0.175858,0.194668
5971251430,4.039272,-1.606889,-3.413120,0.962155,-0.191150,0.192657
5971271431,7.626970,-0.935627,-4.458461,0.973662,-0.185991,0.189045
5971291432,11.928878,0.675703,-4.607006,0.968650,-0.161723,0.194094
5971311432,13.135822,1.053418,-4.637029,0.964401,-0.137647,0.205814
5971331432,11.583773,0.323908,-5.036997,0.965606,-0.125227,0.211564
5971351433,9.530963,0.109387,-4.859462,0.965111,-0.108183,0.213942
5971371433,7.808534,0.404935,-4.655351,0.966390,-0.099317,0.212816
5971391433,6.136965,0.188015,-4.760722,0.961434,-0.105939,0.212867
5971411434,4.562627,-0.419185,-5.107947,0.965883,-0.116714,0.209703
5971431433,4.245707,0.314158,-5.011033,0.979947,-0.122060,0.212754
5971451433,3.794960,1.765929,-4.635587,0.983076,-0.109139,0.218243
5971471433,1.439258,2.061774,-4.747757,0.986670,-0.097004,0.220282
5971491433,-1.015492,4.122723,-5.749000,0.994341,-0.088399,0.204081
5971511433,-0.140263,10.361221,-6.579207,0.983363,-0.092814,0.235052
5971531433,2.246832,11.720014,-4.818027,0.959353,-0.097757,0.266995
5971551433,1.849007,6.207226,-1.789482,0.955265,-0.070387,0.255040
5971571434,-5.186205,5.482093,0.335759,0.964535,-0.022939,0.262066
5971591434,-10.489990,7.964666,2.985702,0.962857,0.005661,0.282499
5971611434,-14.004107,8.265465,4.862227,0.944934,0.028179,0.304868
5971631436,-25.416296,4.738998,5.355906,0.975667,0.011834,0.300867
5971651436,-38.551682,6.171329,6.990075,1.055799,-0.035993,0.241020
5971671436,-39.779049,17.818779,7.132867,1.049168,-0.026417,0.252391
5971691436,-39.110428,24.424749,1.613147,1.005623,0.022547,0.268075
5971711437,-38.735394,25.224403,-3.248167,1.018139,0.027729,0.286638
5971731437,-43.901939,24.646257,-2.803982,1.020836,-0.012839,0.314380
5971751437,-52.649948,22.872755,0.747311,1.012028,-0.052084,0.315898
5971771436,-61.291367,22.926769,2.207615,1.014604,-0.052195,0.311912
5971791436,-68.331345,26.675737,-0.923347,1.013548,-0.039751,0.315997
5971811436,-71.265114,32.557076,-3.778758,0.987265,-0.028488,0.308171
5971831437,-70.571068,40.832516,-4.488183,0.961042,-0.030805,0.304385
5971851437,-69.701187,47.434849,-4.157318,0.928922,-0.042719,0.319934
5971871437,-74.971893,47.801411,-7.197435,0.910069,-0.041955,0.300942
5971891437,-88.198692,47.037922,-15.340838,0.899055,-0.039219,0.285191
5971911437,-104.006149,44.013210,-22.679472,0.876943,-0.077161,0.269132
5971931437,-115.003418,41.777012,-28.090622,0.856684,-0.147560,0.223854
5971951438,-119.350426,40.909946,-33.485157,0.854159,-0.197520,0.197414
5971971439,-117.014168,41.814354,-37.595970,0.859330,-0.246651,0.189464
5971991439,-111.900124,39.815891,-42.815815,0.868146,-0.277574,0.169687
5972011440,-101.903084,36.072693,-44.812744,0.863444,-0.310216,0.174975
5972031440,-97.753677,31.448322,-47.979656,0.872807,-0.304271,0.191397
5972051440,-96.605942,27.983589,-54.436230,0.881660,-0.262502,0.213831
5972071440,-90.646507,24.258562,-61.483551,0.901726,-0.242805,0.235167
5972091441,-81.181107,21.312166,-66.240211,0.960401,-0.243814,0.257939
5972111440,-72.911598,21.334171,-64.720222,0.986474,-0.214722,0.302997
5972131440,-66.761917,20.732523,-55.998756,1.028278,-0.169186,0.345317
5972151440,-69.934433,19.329201,-41.706348,1.091083,-0.138656,0.386528
5972171440,-81.936501,18.807398,-28.464317,1.109058,-0.129219,0.392858
5972191441,-89.054474,18.445774,-12.281573,1.112032,-0.168525,0.388566
5972211441,-82.979195,15.614930,5.577146,1.143068,-0.292072,0.396067
5972231441,-63.220287,18.786423,27.077421,1.207947,-0.345296,0.387504
5972251441,-50.340660,31.925709,49.749443,1.162584,-0.320630,0.398618
5972271441,-45.489250,43.443554,64.926926,1.011107,-0.342197,0.420411
5972291442,-48.343430,50.555210,72.453873,0.922307,-0.356522,0.463065
5972311443,-56.050735,59.449757,75.154121,0.902684,-0.345755,0.474925
5972331443,-60.731716,69.987495,73.980232,0.951333,-0.341048,0.456643
5972351444,-63.947018,83.722641,75.855293,0.969191,-0.294274,0.422901
5972371444,-64.980507,98.552795,83.278130,0.863726,-0.237434,0.452527
5972391444,-80.241096,101.540085,91.655571,0.746558,-0.268658,0.530091
5972411444,-104.384689,96.287483,92.032852,0.727581,-0.320965,0.518480
5972431444,-114.259872,100.048271,78.336502,0.646999,-0.351308,0.470429
5972451443,-99.588547,96.027283,60.550865,0.538393,-0.351958,0.486403
5972471443,-79.801613,94.933105,40.699570,0.578640,-0.174638,0.473412
5972491444,-78.233917,106.451118,18.161360,0.482396,0.119868,0.423951
5972511444,-110.359283,96.540443,-20.236393,0.303416,0.283044,0.400031
5972531444,-161.666168,61.186005,-76.479614,0.312199,0.304777,0.299173
5972551445,-206.242584,40.966026,-130.549973,0.470258,0.259407,0.183427
5972571444,-236.070679,41.161125,-168.624069,0.654825,-0.126114,0.305412
5972591445,-268.798767,40.673470,-142.634598,1.334298,-1.275380,0.306650
5972611445,-177.583267,80.638687,-23.922880,1.422213,-2.025845,0.110818
5972631445,-72.036140,149.532181,-52.948837,0.769755,-0.932832,0.557404
5972651447,-86.034119,119.700539,-97.707329,0.792377,-0.383774,0.252924
5972671447,-86.125954,110.516365,-119.695770,0.658728,-0.253876,0.130636
5972691447,-68.086273,107.052177,-133.798416,0.620510,-0.328371,0.159947
5972711447,-71.859116,89.989395,-137.283127,0.670365,-0.422745,0.163085
5972731448,-92.154701,75.410439,-134.814133,0.761991,-0.448126,0.214931
5972751448,-98.070808,71.800148,-140.774231,0.755413,-0.440108,0.308148
5972771448,-94.637543,63.473049,-153.488632,0.757146,-0.383592,0.359564
5972791447,-93.273178,58.188370,-167.430908,0.825055,-0.258378,0.329226
5972811447,-98.027489,65.025406,-174.082001,0.939329,-0.211308,0.312960
5972831447,-99.874222,74.809448,-174.931046,1.040500,-0.273157,0.365281
5972851448,-92.623322,81.012360,-177.902847,1.082188,-0.364912,0.418556
5972871448,-81.290916,73.596054,-175.390396,1.020188,-0.318895,0.436016
5972891448,-79.146965,58.914295,-160.256561,0.944047,-0.206477,0.454228
5972911449,-102.789894,39.541943,-141.328384,1.044752,-0.223478,0.495365
5972931449,-145.838394,23.903267,-111.811012,1.206489,-0.528629,0.393499
5972951449,-146.955246,21.543606,-66.070000,1.032470,-0.864456,0.337707
5972971449,-116.973465,16.093975,-37.859531,0.891657,-0.820681,0.373928
5972991450,-84.530418,9.984142,-23.761677,0.898655,-0.725440,0.306038
5973011451,-35.188065,12.269814,-4.322749,0.866777,-0.665584,0.312368
5973031451,8.888189,13.827944,16.161842,0.834923,-0.561076,0.383506
5973051451,34.702866,12.766552,29.689543,0.853347,-0.396556,0.428323
5973071452,35.764294,15.285604,39.058456,0.901166,-0.238823,0.455388
5973091452,21.771694,18.650612,47.443596,0.896376,-0.194177,0.518962
5973111452,1.662586,14.158154,54.615597,0.833067,-0.249842,0.581845
5973131451,-11.549421,4.066978,55.740002,0.812198,-0.277422,0.631042
5973151451,-27.918306,-0.743983,55.768188,0.878431,-0.202723,0.638406
5973171451,-51.529095,6.450233,60.327038,0.919918,-0.180308,0.627260
5973191452,-71.824738,16.471346,63.201271,0.862370,-0.271083,0.608372
5973211452,-74.313591,25.879395,63.086399,0.811672,-0.408745,0.582065
5973231452,-59.163170,31.340063,61.039410,0.789454,-0.456941,0.541716
5973251452,-43.887917,40.952198,56.556442,0.753013,-0.401661,0.526453
5973271452,-38.142227,50.349964,49.427811,0.699701,-0.332243,0.540356
5973291453,-43.473267,53.100628,40.936039,0.669954,-0.267549,0.519451
5973311453,-51.843319,48.842232,30.255713,0.656672,-0.276887,0.495197
5973331454,-61.879681,45.839161,16.355192,0.613099,-0.304819,0.479863
5973351454,-67.903450,44.942749,-1.182892,0.535824,-0.326662,0.484256
5973371455,-72.062485,41.919369,-22.397932,0.480965,-0.335309,0.472160
5973391455,-72.953300,39.758705,-44.672916,0.513850,-0.300906,0.428361
5973411455,-72.191116,38.401833,-63.653389,0.549465,-0.233437,0.399680
5973431455,-78.066635,29.563442,-77.158897,0.548657,-0.213524,0.379754
5973451456,-88.414238,15.485256,-92.026108,0.544021,-0.260812,0.397127
5973471454,-98.537476,0.686678,-109.163269,0.672735,-0.338461,0.516920
5973491455,-100.987480,16.364460,-120.211792,1.037148,-0.358747,0.700050
5973511455,-104.289810,52.263298,-131.849625,1.099521,-0.241420,0.555118
5973531455,-88.340843,62.772640,-139.721436,0.793756,-0.154526,0.374383
5973551455,-111.603462,41.163048,-132.617020,0.880858,-0.252305,0.353502
5973571455,-154.539185,31.682991,-132.811096,0.996452,-0.220516,0.338579
5973591456,-155.485947,43.746307,-139.754044,1.057803,-0.197683,0.220903
5973611456,-115.300056,63.161549,-147.746552,1.045937,-0.300169,0.264409
5973631457,-85.493210,64.847725,-154.045807,1.010708,-0.343936,0.304679
5973651457,-77.088684,58.700172,-160.781738,1.001297,-0.257445,0.356982
5973671458,-78.926750,58.948658,-162.552719,0.998406,-0.109432,0.385602
5973691458,-87.857674,65.396744,-158.711090,1.029813,0.008580,0.407821
5973731459,-114.783569,67.561989,-147.259705,1.048285,0.089615,0.348839
5973771459,-159.973618,49.168964,-134.035828,1.066179,0.043079,0.407657
5973791459,-175.236664,54.850525,-125.093040,1.182966,-0.081503,0.361946
5973811458,-181.614883,53.579445,-100.778259,1.205603,-0.379102,0.321321
5973831458,-179.201248,27.482988,-65.987633,1.124278,-0.746587,0.223438
5973851459,-153.313812,6.081883,-38.613262,1.037944,-0.921106,0.179642
5973871459,-93.508842,4.296735,-17.585018,0.943372,-0.949339,0.226465
5973891459,-25.944069,4.851732,1.436548,0.860855,-0.842435,0.300979
5973911459,26.715666,3.937738,18.587425,0.870403,-0.652272,0.371309
5973931460,54.130424,10.564247,33.486443,0.920498,-0.422660,0.431590
5973951460,62.557205,23.049940,50.695042,0.918542,-0.222590,0.497456
5973971460,56.876232,27.622236,72.738342,0.882959,-0.112576,0.547583
5973991460,31.511938,27.598652,85.028442,0.861740,-0.030126,0.598552
5974031462,-82.618195,21.869522,89.193031,0.890129,0.036587,0.665131
5974051462,-117.229561,23.380033,83.242020,0.856906,-0.243207,0.610717
5974071462,-103.023903,27.045456,84.786774,0.818665,-0.444752,0.572837
5974091463,-67.059845,29.257042,91.786247,0.768074,-0.481462,0.594327
5974111463,-40.276520,39.432915,92.468887,0.753405,-0.447805,0.624859
5974151462,-41.022614,58.623005,85.097542,0.656855,-0.245694,0.597977
5974171462,-65.456261,57.474419,77.546638,0.572516,-0.193106,0.603161
5974191462,-94.604294,54.900558,67.295555,0.513953,-0.228885,0.576213
5974211463,-113.940475,53.673615,49.341022,0.472064,-0.317420,0.527438
5974231463,-113.697411,54.363205,25.801640,0.443530,-0.385728,0.463528
5974251463,-104.875198,56.729637,-2.488516,0.428364,-0.421468,0.414667
5974271463,-99.104980,52.246307,-29.897753,0.413798,-0.441568,0.398775
5974291463,-93.239296,41.356625,-51.039330,0.415752,-0.448298,0.376094
5974311464,-83.050148,34.840984,-70.161064,0.419617,-0.413811,0.377792
5974331464,-78.740448,37.745213,-97.042374,0.474668,-0.322511,0.391539
5974351466,-84.146347,37.782768,-123.174759,0.535698,-0.266596,0.457061
5974371466,-99.816109,27.331039,-137.000580,0.735442,-0.404517,0.554962
5974391466,-107.173630,50.768402,-119.024803,1.289402,-0.829610,0.733084
5974411466,-90.304367,104.113190,-87.662041,1.284195,-0.935597,0.649829
5974431466,-71.126015,96.586746,-105.566376,0.751459,-0.367443,0.475925
5974451467,-109.273926,51.074539,-111.911224,0.582472,-0.194915,0.211970
5974471473,-144.374496,46.201694,-121.676331,0.667146,-0.183368,0.166033
5974491466,-121.480270,67.989555,-134.889725,0.785314,-0.265443,0.284876
5974511466,-85.500977,71.144081,-136.557846,0.862810,-0.508019,0.212853
5974531466,-67.742622,71.532883,-138.935730,0.946898,-0.466739,0.236417
5974571466,-29.214966,81.834099,-159.775406,0.785497,-0.175374,0.410833
5974591467,-54.098122,62.200977,-177.697174,0.798252,-0.074317,0.389432
5974611467,-86.919708,50.792137,-191.273132,0.883280,0.014714,0.346231
5974631467,-100.138908,44.787956,-196.657043,0.966403,0.036126,0.383864
5974651467,-94.385468,45.543266,-199.620087,1.062626,0.008228,0.400038
5974671467,-76.216217,57.047989,-200.401184,1.087008,-0.004787,0.390632
5974691469,-62.762074,59.605377,-196.568161,1.063017,0.030238,0.395052
5974711470,-58.618637,39.019295,-185.664719,0.917268,0.234134,0.496172
5974731469,-86.294785,7.847390,-160.189987,1.228358,0.663648,0.498269
5974751470,-222.882980,28.253971,-142.415695,1.422464,0.143103,0.346585
5974771470,-332.868103,10.596444,-128.260818,1.340987,-0.784876,0.270083
5974791470,-277.002228,-30.258232,-86.648468,1.260238,-1.239209,0.119997
5974811483,-146.273071,-15.865579,-47.999512,1.272627,-1.326389,0.138336
5974831469,-41.665012,4.803103,-28.121229,1.022084,-1.014721,0.290837
5974851470,23.306683,3.641453,-7.620965,0.920504,-0.703533,0.395496
5974871470,50.409000,3.664401,23.283218,0.951830,-0.520221,0.375117
5974891470,58.057560,12.427996,59.305401,0.967566,-0.336798,0.428281
5974911470,52.917183,24.391079,87.019829,0.928763,-0.153522,0.542927
5974931471,27.322317,35.281315,101.328529,0.872561,-0.006549,0.578687
5974951471,-3.124744,41.813793,108.642166,0.883052,-0.000567,0.567572
5974971471,-37.214241,38.629898,106.806084,0.966009,-0.043299,0.601173
5974991471,-75.037506,33.161869,103.447166,1.036551,-0.122993,0.637952
5975011471,-86.106613,31.016695,106.022827,0.969103,-0.259695,0.672941
5975031473,-81.351227,29.992331,106.689697,0.859109,-0.293410,0.618807
5975051473,-69.175941,35.392944,104.686958,0.781664,-0.269306,0.600326
5975071474,-71.511284,43.710571,101.399811,0.698427,-0.296762,0.584859
5975111474,-52.143482,63.443142,72.169632,0.552381,-0.325088,0.523530
5975131474,-38.593925,64.551483,51.599701,0.533832,-0.259896,0.503186
5975151481,-38.142628,64.001381,28.862925,0.442030,-0.194711,0.494602
5975171473,-47.823875,58.550396,0.472344,0.365242,-0.139575,0.460326
5975191473,-60.394276,47.237694,-30.872602,0.360085,-0.067880,0.431534
5975211473,-81.195862,35.290508,-57.739067,0.417805,-0.015045,0.435681
5975231473,-108.859940,23.655495,-82.310982,0.459621,-0.064588,0.453283
5975251474,-127.775215,12.212725,-109.423935,0.546050,-0.200197,0.455963
5975271474,-135.831604,4.110144,-128.303146,0.671973,-0.296465,0.420307
5975291474,-133.179703,10.781728,-149.540039,0.930187,-0.295936,0.611079
5975311474,-151.876831,38.979176,-154.180069,1.314413,-0.474600,0.866805
5975331475,-170.633362,79.323059,-131.236084,1.340286,-0.710268,0.711878
5975351475,-127.128922,108.721550,-154.670059,0.903429,-0.276561,0.337227
5975371477,-120.287979,104.708633,-165.671738,0.757688,-0.060953,0.189601
5975391477,-156.033813,80.526855,-173.104568,0.762747,-0.028071,0.023771
5975411477,-155.103683,73.484573,-184.878677,0.914399,-0.098598,0.033588
5975431477,-129.567383,69.937111,-186.225525,0.965514,-0.305197,0.098848
5975451477,-116.029755,58.165974,-187.480286,1.004123,-0.311094,0.207693
5975471478,-108.102509,57.778847,-195.364868,1.019357,-0.121370,0.363830
5975491476,-104.445236,62.482841,-201.436752,1.014416,0.008483,0.409948
5975511477,-98.092285,66.979965,-199.593964,1.068043,0.063625,0.385103
5975531477,-102.560593,73.111717,-192.245178,1.205298,0.110507,0.338879
5975551477,-108.145248,69.533707,-176.480408,1.239007,0.158607,0.364112
5975571477,-131.720444,62.165600,-148.837326,1.312527,0.396311,0.440102
5975591477,-215.331100,68.023537,-144.879868,1.233640,-0.137927,0.439033
5975611478,-255.475037,45.261200,-128.672714,1.275425,-0.586939,0.423001
5975631478,-255.383194,10.459970,-80.008812,1.177646,-0.915499,0.225750
5975651478,-199.013382,-0.536277,-39.924774,1.041624,-1.028980,0.130164
5975671478,-124.033943,-0.253937,-17.690929,1.014696,-1.014786,0.211861
5975691479,-37.968880,8.947853,2.681203,0.983852,-0.926020,0.334150
5975711481,31.823799,22.559763,23.670023,0.889804,-0.724495,0.346252
5975731481,67.444649,33.177525,44.212971,0.788141,-0.458128,0.393312
5975751481,60.560841,36.975208,62.951962,0.731038,-0.203548,0.483144
5975771481,19.402744,36.124680,74.793610,0.743654,-0.014124,0.531806
5975791481,-31.940063,32.506290,78.904991,0.816743,0.001002,0.521820
5975811482,-60.938915,26.296143,80.304306,0.844876,-0.142306,0.535342
5975831481,-67.627983,18.107157,81.223106,0.895224,-0.276987,0.581155
5975851481,-54.623928,17.232771,86.297218,0.910172,-0.350433,0.610164
5975871481,-36.250214,23.651592,84.003181,0.832507,-0.384913,0.620310
5975891481,-18.619757,28.147116,77.625221,0.750212,-0.348447,0.613631
5975911481,-12.539637,30.880102,68.952217,0.676726,-0.294520,0.607684
5975931481,-18.185104,35.431503,55.658531,0.602740,-0.234709,0.599362
5975951482,-32.154575,38.128933,40.389854,0.557636,-0.175792,0.584046
5975971482,-49.927818,37.989517,26.017733,0.568903,-0.120307,0.577560
5975991482,-67.561607,38.146713,13.193899,0.585360,-0.119855,0.557287
5976011482,-79.306137,40.158875,-0.531570,0.573033,-0.171568,0.546281
5976031482,-90.024834,41.475376,-15.649251,0.576264,-0.234995,0.540173
5976051484,-96.647690,41.511036,-34.784683,0.585321,-0.325606,0.510734
5976071484,-93.411186,42.806721,-57.360165,0.573395,-0.337223,0.481695
5976091484,-95.759644,39.963837,-74.769432,0.550190,-0.272592,0.485120
5976111485,-108.298073,28.344734,-85.252960,0.567659,-0.284930,0.500080
5976131485,-114.207878,23.265930,-95.424042,0.596512,-0.367039,0.439787
5976151485,-108.874786,26.911810,-111.499542,0.542376,-0.381636,0.413105
5976171484,-102.782776,22.440289,-136.197327,0.715874,-0.430156,0.513017
5976191484,-84.025513,40.724621,-152.674072,1.240256,-0.540112,0.536769
5976211484,-33.386589,98.901077,-148.776688,1.095149,-0.439326,0.535767
5976231484,-27.254496,111.568153,-160.937469,0.729121,-0.131098,0.588096
5976251485,-76.213257,79.847633,-177.417770,0.797829,-0.020583,0.522782
5976271485,-122.038429,57.365284,-191.096893,0.953492,0.069095,0.362612
5976291485,-139.344223,51.915749,-197.726151,0.980810,0.186628,0.313467
5976311485,-157.682663,35.987190,-189.203323,0.925572,0.127370,0.289740
5976331486,-173.491013,20.449413,-173.877197,1.043094,-0.061795,0.216934
5976351486,-152.285950,30.132780,-157.983353,1.185643,-0.226116,0.195718
5976371486,-102.136711,42.070492,-139.936951,1.174299,-0.274931,0.287023
5976391488,-54.208241,40.172256,-117.622849,1.172343,-0.218621,0.344061
5976411488,-55.961250,34.015972,-88.397888,1.087126,-0.361181,0.413441
5976431488,-84.099358,17.916271,-58.824936,0.948355,-0.576874,0.463976
5976451488,-113.090767,2.990112,-38.045845,0.862910,-0.709918,0.505569
5976471488,-125.934128,-8.132284,-22.456917,0.897533,-0.732121,0.466397
5976491489,-110.363068,-11.304173,-3.340540,0.945656,-0.695956,0.352396
5976511487,-75.499756,-7.724280,16.743809,0.889672,-0.722775,0.332816
5976531488,-32.385033,-5.933435,34.245201,0.803067,-0.732289,0.340117
5976551488,5.455071,-9.021918,43.843899,0.738743,-0.624086,0.360885
5976571489,24.536932,-14.538855,43.029408,0.711747,-0.438317,0.438485
5976591489,20.282564,-15.176978,37.732201,0.723324,-0.251279,0.439559
5976611489,3.347286,-7.179612,37.074169,0.690076,-0.117594,0.438447
5976631501,-18.751675,-10.687739,22.060736,0.597990,-0.067752,0.449890
5976651489,-34.952267,-18.376562,-11.031904,0.690275,0.034078,0.384308
5976671489,-29.466326,-16.107239,-44.147156,0.857182,0.103183,0.384927
5976691489,-28.853159,-7.845665,-69.006836,0.952469,0.190637,0.456330
5976711489,-46.976170,-2.127238,-89.696167,0.921170,0.143534,0.555161
5976731491,-65.560127,0.203663,-115.976326,0.971177,0.079517,0.500915
5976751491,-73.199310,1.587694,-135.987152,1.018649,0.094152,0.437772
5976771492,-96.478607,2.590194,-128.027664,1.148573,-0.099165,0.455277
5976791492,-113.535561,11.996437,-80.336952,1.159706,-0.384243,0.370468
5976811492,-92.980164,29.350910,-46.859653,1.031963,-0.444884,0.352326
5976831492,-69.209396,30.103571,-49.342636,0.885924,-0.349515,0.409685
5976851499,-61.275467,17.785351,-55.174534,0.881466,-0.278613,0.370970
5976871491,-45.664326,16.867237,-52.984680,0.937720,-0.233946,0.297694
5976891492,-24.943628,18.904728,-49.972832,0.924588,-0.143500,0.277837
5976911492,-19.683992,16.202795,-47.393238,0.878108,-0.068444,0.340068
5976931492,-30.169197,11.866755,-46.626549,0.878608,-0.053982,0.417567
5976971492,-81.817123,8.276215,-57.902538,0.880347,-0.025126,0.397439
5976991492,-88.945702,-5.340242,-61.805508,0.894288,-0.053786,0.263931
5977011493,-93.584099,-1.503767,-52.963680,0.965743,-0.189345,0.273301
5977031493,-76.711411,5.837548,-30.162039,1.025402,-0.287842,0.326770
5977051493,-65.678398,-1.985098,2.598960,1.103122,-0.527766,0.256167
5977071495,-35.713886,-16.973463,38.953644,1.062017,-0.655503,0.238834
5977091495,7.081550,-29.684429,71.090164,1.150700,-0.624094,0.208322
5977111495,41.667427,-35.274693,109.470947,1.065127,-0.674412,0.211700
5977131496,65.010139,-43.810955,145.401077,1.005266,-0.752511,0.357332
5977151496,80.366829,-44.448490,169.879669,1.045793,-0.677734,0.440054
5977171496,88.871483,-37.159721,192.719772,1.034060,-0.536070,0.431192
5977191496,85.145248,-32.898697,206.464676,1.010746,-0.380846,0.425288
5977211495,60.828011,-29.138212,218.200897,1.012917,-0.245637,0.437006
5977231496,37.557861,-18.248322,228.950104,0.943750,-0.189569,0.523655
5977251496,30.370390,-7.729736,218.934525,0.812227,-0.178291,0.545144
5977271496,16.425571,5.249613,188.154465,0.837208,0.006237,0.466942
5977291496,-2.735194,21.730848,143.293198,0.906820,0.212741,0.427801
5977311497,-18.023808,38.965885,85.887138,0.751234,0.350875,0.454670
5977331497,-47.554142,47.406708,17.756922,0.512336,0.412865,0.513066
5977351497,-119.261612,41.521324,-44.522572,0.338177,0.224425,0.516214
5977371497,-217.272400,-30.849586,-28.966095,0.595419,-0.820568,0.171635
5977391497,-216.754181,5.397063,60.273411,1.067174,-1.444470,0.158423
5977411499,-138.394028,50.105671,39.673355,0.730616,-1.192578,0.160925
5977431499,-98.445786,20.936211,7.485510,0.612746,-1.074660,0.037977
5977451499,-36.516640,9.596418,-12.618235,0.600588,-0.957540,0.066703
5977471500,16.381620,23.648872,-23.266266,0.571514,-0.813759,0.046688
5977491500,41.776493,35.861122,-26.560953,0.509500,-0.723487,0.132792
5977511500,34.995995,27.495535,-38.970161,0.526635,-0.632426,0.257900
5977531500,22.491014,11.193602,-61.052002,0.551277,-0.512627,0.242443
5977551499,19.023617,0.213691,-74.505608,0.601414,-0.410146,0.261623
5977611500,6.807761,9.177386,-103.671890,0.766380,-0.470680,0.385988
5977631500,12.629259,15.613273,-114.731491,0.815633,-0.394432,0.381117
5977651500,27.190247,27.571243,-120.209747,0.853769,-0.360051,0.375408
5977671500,35.401356,33.244534,-120.098190,0.864465,-0.388806,0.376505
5977691501,29.803339,32.270878,-124.582207,0.874094,-0.373993,0.358678
5977711500,11.361667,17.117537,-131.299072,0.870117,-0.274782,0.412209
5977731501,-11.916997,-1.492713,-138.259354,0.922958,-0.147865,0.427757
5977751502,-25.082762,-2.431859,-144.798767,1.054431,-0.129079,0.385282
5977771503,-35.358799,4.566683,-151.212601,1.116601,-0.171771,0.505145
5977791503,-57.844490,5.465147,-156.836258,1.147373,-0.061219,0.519628
5977851504,6.169971,59.851864,-170.970413,0.930220,0.037141,0.382116
5977871504,14.331614,52.368549,-178.147552,0.965147,0.204425,0.314221
5977891503,22.204367,52.310333,-176.085846,0.922876,0.234661,0.293537
5977911503,30.271839,41.485363,-157.706039,0.924092,0.371926,0.466576
5977931503,-43.884624,28.741661,-142.498413,1.225716,0.221940,0.526647
5977951503,-136.622971,5.968768,-111.285446,1.494500,-0.535974,0.408552
5977971503,-128.902023,-17.789721,-10.499019,1.023699,-1.544758,0.257949
5977991504,-8.647039,-36.204136,85.979874,0.832895,-1.573913,0.193081
5978011504,107.825409,-4.806796,134.184418,0.911372,-0.999898,0.266964
5978031505,147.186417,11.072811,171.739349,1.007267,-0.539046,0.336011
5978051505,147.139526,6.889470,208.083344,1.242748,-0.295415,0.278358
5978071505,157.713959,10.081204,228.394394,1.488105,-0.102598,0.165669
5978091507,166.997284,30.275505,239.560669,1.341764,-0.047732,0.181049
5978111507,132.612900,27.731960,252.154175,1.139824,0.108641,0.340164
5978131507,51.674507,14.247231,272.753632,1.068087,0.110195,0.406007
5978151507,3.303093,3.410283,275.881042,0.942488,0.055293,0.372839
5978171507,-30.893021,-15.796801,255.423752,0.904439,-0.041828,0.345944
5978191507,-36.094025,-37.880001,234.140305,1.024084,-0.129949,0.273158
5978211508,-5.759429,-51.042961,216.066177,0.952396,-0.202796,0.304569
5978231506,37.637962,-60.834976,189.709824,0.744850,-0.243094,0.338308
5978251507,72.768578,-50.338394,146.702316,0.627612,-0.115518,0.344837
5978271507,84.512512,-32.317680,95.811005,0.539700,0.089849,0.431192
5978291507,75.088455,-23.059202,33.611526,0.439445,0.299081,0.477137
5978311507,34.887890,-18.727932,-24.587376,0.347745,0.415699,0.575308
5978331507,-46.858856,-21.708197,-70.115639,0.422378,0.256318,0.709769
5978351507,-139.121490,-27.264988,-86.015182,0.959547,-0.216938,0.724455
5978371508,-161.366608,-22.486887,-28.377855,1.484289,-0.963620,0.544456
5978391508,-96.992630,45.418747,1.584796,0.856411,-0.794564,0.641257
5978411508,-102.073959,35.874950,-18.783344,0.610141,-0.588641,0.442873
5978431508,-109.731613,22.995579,-34.929760,0.644568,-0.589101,0.194935
5978451510,-87.835754,24.922071,-45.130424,0.693081,-0.566750,0.157955
5978471510,-73.877426,26.327513,-44.372227,0.685872,-0.556184,0.129717
5978491510,-66.964516,22.548798,-50.914509,0.718649,-0.639345,0.065192
5978511511,-37.816895,23.489437,-71.881691,0.750568,-0.683134,0.152569
5978531511,-11.406679,17.133158,-99.331123,0.726793,-0.534360,0.235240
5978551511,-4.974106,9.856914,-118.675438,0.726923,-0.358369,0.228797
5978571511,-8.676328,12.213317,-130.592560,0.808327,-0.293474,0.272312
5978591510,-27.841827,15.396628,-138.042786,0.909402,-0.280411,0.401015
5978611510,-54.569031,14.371010,-141.882919,0.975898,-0.254661,0.342363
5978631511,-54.723637,22.748230,-147.414490,1.061918,-0.268884,0.244569
5978651511,-39.010471,33.264160,-154.023773,1.065565,-0.275204,0.227554
5978671511,-29.055668,42.944386,-166.690033,1.044678,-0.288958,0.302717
5978691511,-27.990267,49.175369,-183.646866,1.092660,-0.211007,0.313405
5978711511,-21.465456,55.893593,-194.239792,1.125487,-0.070957,0.257766
5978731512,-11.831296,60.188110,-188.109818,1.090348,-0.027854,0.219351
5978751512,-1.182255,63.437988,-171.614243,1.075239,-0.048419,0.201910
5978771512,-1.853560,49.418930,-148.552032,0.973403,0.061037,0.286406
5978791514,-32.223175,35.621906,-133.342087,1.246064,0.202828,0.320267
5978811514,-82.039803,28.784237,-128.645493,1.305014,-0.310039,0.365135
5978831514,-108.642395,5.545668,-74.159393,1.238409,-0.959486,0.405548
5978851514,-76.713058,-27.458303,15.888891,1.085449,-1.546218,0.247374
5978871515,16.588589,-22.747839,73.082306,0.932665,-1.373862,0.236802
5978891515,97.412605,-6.514895,118.159554,0.893492,-0.972711,0.272660
5978911515,147.912430,-5.137166,172.326279,1.072564,-0.581239,0.279394
5978931514,172.100311,-9.162980,224.274292,1.387210,-0.247148,0.187124
5978951514,191.003586,10.038739,262.067139,1.438471,0.010308,0.123938
5978971515,151.291016,21.670012,287.729614,1.314990,0.209211,0.296690
5978991514,61.732475,9.264984,312.269623,1.242187,0.270730,0.396718
5979011515,-30.063881,-5.627227,323.775482,1.005985,0.061059,0.355237
5979031515,-77.985558,-25.070114,314.727722,0.928050,-0.133382,0.361089
5979051515,-79.223457,-44.726559,294.623474,0.933909,-0.367578,0.336560
5979071515,-31.607048,-60.701065,266.208862,0.932912,-0.489852,0.347459
5979091516,43.107933,-63.332970,229.410278,0.832900,-0.509392,0.333070
5979111516,100.519287,-44.248539,182.325607,0.691429,-0.252165,0.362174
5979131518,112.023903,-14.373814,122.558846,0.526106,0.135049,0.412391
5979151518,71.352272,1.581499,51.831291,0.349051,0.394887,0.495005
5979171518,0.373241,-0.746721,-20.559572,0.221549,0.436630,0.580466
5979191518,-82.771301,-2.270954,-83.262550,0.217433,0.233831,0.689716
5979211518,-184.905884,10.600915,-105.272408,0.628748,-0.410032,0.951677
5979231518,-254.976242,6.306355,-6.149096,1.493336,-1.623105,0.427433
5979251519,-132.250198,94.027145,-9.964694,0.667842,-1.033795,0.345303
5979271518,-112.017883,60.474247,-27.755852,0.495485,-0.745003,-0.095607
5979291518,-103.173332,58.577312,-48.115875,0.393208,-0.705782,-0.180794
5979311518,-59.527798,39.992054,-76.302940,0.422981,-0.791631,-0.043719
5979331518,-29.565851,27.739109,-100.542542,0.507325,-0.948866,-0.062528
5979351519,0.735507,22.259954,-119.099716,0.599714,-0.859437,-0.022563
5979371519,26.957222,15.287912,-136.506775,0.585703,-0.632242,0.129603
5979391519,45.220955,10.389454,-162.025772,0.591912,-0.449372,0.212600
5979411519,52.712662,17.122835,-191.575943,0.662657,-0.282233,0.333795
5979431519,26.865908,21.880680,-211.982437,0.815879,-0.158386,0.397834
5979451520,-7.164073,29.565683,-226.087799,1.004332,-0.183120,0.346202
5979491522,-35.056606,51.763596,-258.730560,1.331992,-0.164316,0.246228
5979511522,-11.535448,73.226410,-266.086273,1.368127,-0.231159,0.189879
5979531522,32.079720,85.374680,-259.090790,1.375692,-0.180146,0.341868
5979551522,65.128761,80.428612,-233.852768,1.286121,0.035334,0.433707
5979571523,91.427620,76.852402,-205.094406,1.388703,0.004121,0.627868
5979631522,-49.138100,-27.220335,89.688202,0.767469,-1.470251,0.434834
5979651522,-26.501976,3.884956,144.569366,0.719536,-0.873292,0.546224
5979671522,-7.402893,-7.062091,182.558838,1.122487,-0.494686,0.423966
5979691523,65.310341,9.595842,219.091553,1.497284,-0.321160,0.152336
5979711523,114.754303,25.950132,250.093201,1.349873,-0.208679,0.196465
5979731523,102.009041,8.832179,273.376587,1.224593,-0.017955,0.195192
5979751523,79.795807,-4.066131,299.761810,1.100072,0.045155,0.164600
5979771523,32.965519,-13.330893,304.121399,0.923786,0.046194,0.274641
5979791523,-18.355160,-33.821609,295.603088,0.838483,-0.027901,0.344793
5979811523,-42.862762,-59.990692,280.870544,0.837344,-0.206498,0.345519
5979831525,-31.183929,-77.031433,257.199738,0.868984,-0.394706,0.307590
5979851525,12.054955,-82.739586,226.828354,0.814838,-0.460552,0.301580
5979871526,59.282471,-72.627518,185.499985,0.791460,-0.350638,0.350099
5979891526,87.068672,-47.366028,145.225250,0.688405,-0.158314,0.442705
5979911526,74.094894,-30.448784,97.863945,0.495054,0.000367,0.591655
5979931526,31.090672,-18.995020,41.401012,0.403648,0.129813,0.627422
5979951526,-33.212620,-14.308414,-17.259350,0.341446,0.214668,0.607887
5979971525,-113.819824,-23.818344,-72.437172,0.334407,0.145285,0.538828
5979991525,-191.103851,-30.948746,-109.242981,0.519273,-0.268742,0.619477
5980011526,-265.100677,-51.864265,-34.929413,1.548029,-1.736099,0.311776
5980031526,-129.671906,72.343430,8.208244,1.143825,-1.248150,0.389967
5980051526,-79.696877,101.914291,-42.887249,0.517037,-0.619266,0.273929
5980071526,-70.559166,84.856529,-68.461426,0.369883,-0.557746,0.016187
5980091527,-64.728683,83.932632,-84.754044,0.511378,-0.575067,0.146129
5980111527,-79.953926,85.642731,-85.300201,0.736847,-0.722280,0.223634
5980151527,-66.582390,83.741859,-113.546196,0.845896,-0.672644,0.010431
5980171529,-54.137554,80.935471,-125.688469,0.741977,-0.741844,0.134594
5980191529,-46.472797,83.807404,-139.552078,0.719453,-0.735108,0.146304
5980211529,-29.842525,98.229668,-148.364258,0.761652,-0.658916,0.158876
5980231530,-20.426521,106.472015,-157.411865,0.821287,-0.594835,0.144992
5980251530,-16.118811,106.337494,-175.388153,0.841381,-0.554847,0.110464
5980271530,-18.620888,98.559700,-194.848969,0.885498,-0.506553,0.120200
5980291530,-19.535461,88.312843,-204.920654,1.026678,-0.497853,0.136904
5980311529,-9.847422,93.079300,-202.182358,1.247028,-0.557392,-0.044494
5980331529,82.837158,114.430611,-175.588104,1.203033,-0.444267,0.007234
5980351530,148.155884,105.679100,-168.536224,1.054945,-0.456354,0.328106
5980371530,155.283112,50.030067,-150.047714,0.767572,-0.526489,0.566190
5980391530,79.533447,-34.141750,-65.301888,0.920160,-0.905196,0.583305
5980411530,20.494457,-60.666443,44.602058,0.901765,-1.280922,0.434736
5980431530,57.581463,-24.760822,92.784042,0.713891,-1.010888,0.623079
5980451531,56.790745,-32.424492,123.090546,0.850909,-0.599853,0.600538
5980471531,61.602604,-27.869627,154.212784,1.239325,-0.346806,0.385654
5980491531,90.884193,-9.258370,191.011047,1.327860,-0.237440,0.237641
5980511533,88.409149,-6.570293,219.674866,1.096239,-0.185702,0.270180
5980531533,74.570389,-22.815388,244.699539,0.994172,-0.160973,0.271600
5980551533,50.336002,-37.362656,256.442352,0.842649,-0.192855,0.353846
5980571533,20.166958,-52.343472,256.724060,0.787275,-0.235796,0.377482
5980591534,4.826752,-63.352325,251.121750,0.794231,-0.274969,0.318498
5980611534,5.188329,-73.107040,241.072418,0.830232,-0.351626,0.300335
5980631534,20.868444,-83.328468,223.606644,0.843764,-0.430117,0.311347
5980651533,42.812637,-88.877548,196.508301,0.858660,-0.414079,0.298024
5980671533,81.551796,-78.398102,169.898956,0.826092,-0.330751,0.336368
5980691533,94.400352,-62.644283,137.076523,0.658977,-0.193374,0.496492
5980711534,70.412186,-51.475876,97.831696,0.429885,-0.086782,0.637034
5980731534,17.319849,-46.901230,51.287174,0.329337,-0.044733,0.663106
5980751534,-43.418602,-42.924465,4.369915,0.344015,-0.114869,0.630764
5980771534,-85.030571,-33.765553,-38.189789,0.390598,-0.255464,0.549930
5980791534,-103.684875,-22.939796,-85.520302,0.475793,-0.429263,0.531018
5980811535,-110.784065,-12.277398,-118.479340,0.934410,-0.739933,0.489692
5980831535,-76.332817,24.117376,-83.016426,1.029699,-1.103161,0.461844
5980851537,-40.945217,58.999504,-52.490490,0.643701,-0.971041,0.451276
5980871537,-33.505936,66.297195,-85.310684,0.559527,-0.651043,0.320636
5980891537,-28.535690,56.306534,-105.517525,0.625275,-0.560138,0.176509
5980911537,-27.207031,50.975647,-129.338547,0.555620,-0.435592,0.187941
5980931537,-41.247547,41.865761,-161.735474,0.544408,-0.380097,0.193361
5980951538,-61.420296,39.981400,-183.802032,0.695423,-0.455670,0.167218
5980971538,-62.707325,40.468979,-199.301025,0.849512,-0.521189,0.111397
5980991537,-48.616539,37.460499,-212.901382,0.886816,-0.486593,0.119451
5981011537,-21.510550,39.338848,-222.114914,0.925107,-0.450988,0.154955
5981031538,8.125568,56.941940,-229.374680,1.045568,-0.436156,0.264579
5981051555,30.984741,80.272705,-235.535126,1.139787,-0.316062,0.277547
5981071538,47.515514,88.596741,-234.272888,1.132653,-0.173168,0.323351
5981091538,63.942875,75.710297,-227.731277,1.270279,0.007839,0.445463
5981111538,109.555931,66.954750,-195.944733,1.468266,0.136486,0.638129
5981131538,58.249294,54.168121,-156.675415,1.385891,-0.168954,0.878609
5981151539,-56.507248,17.080530,-77.421181,1.325805,-0.931002,0.600647
5981171539,-85.032097,-2.309293,32.440235,0.969731,-1.329057,0.405238
5981191539,-53.497017,11.676799,72.896828,0.600201,-1.111826,0.496876
5981211541,-41.334709,-4.855013,110.905304,0.667982,-0.758777,0.417154
5981231541,10.600350,-7.168331,156.054169,1.089860,-0.474903,0.284228
5981251541,66.456482,1.695297,204.911346,1.418952,-0.155980,0.144448
5981271542,85.225861,12.011499,240.480545,1.200259,-0.020050,0.171537
5981291542,92.529510,1.693352,267.296783,1.113245,0.019988,0.172417
5981311542,74.770195,-15.652859,287.678345,1.004515,-0.035862,0.224995
5981331540,38.849281,-30.351690,284.481750,0.943035,-0.064094,0.333631
5981351541,1.605410,-44.601570,270.536133,0.915512,-0.110790,0.358518
5981371541,-20.457203,-61.424892,253.493134,0.906429,-0.260814,0.343126
5981391541,-26.856495,-76.660645,228.285629,0.894742,-0.362665,0.342384
5981411542,-9.353539,-85.712219,199.589600,0.852605,-0.413036,0.330146
5981431542,24.343554,-88.014252,169.527527,0.758744,-0.399249,0.347780
5981451542,41.894104,-83.121956,137.135590,0.669798,-0.307930,0.378228
5981471542,42.435085,-74.504364,101.969940,0.525447,-0.229306,0.455838
5981511543,-6.820154,-46.683865,8.361415,0.315452,-0.100175,0.586101
5981531543,-55.548470,-39.793907,-42.643951,0.330796,-0.104317,0.579843
5981551544,-100.250351,-32.471371,-99.802338,0.467201,-0.204460,0.612948
5981571545,-148.506012,-22.961826,-130.105957,1.100402,-0.705277,0.622730
5981591545,-140.024902,15.986183,-51.903709,1.323665,-1.186577,0.277267
5981611545,-79.946976,89.804779,-64.405724,0.613397,-0.637762,0.528127
5981631545,-92.068077,62.044853,-97.144836,0.529119,-0.574859,0.193281
5981651546,-79.060135,58.983608,-109.638092,0.622646,-0.666699,0.145920
5981671544,-52.141338,68.351051,-120.298210,0.818704,-0.680631,0.161608
5981691545,-35.564709,78.269150,-133.550537,0.877094,-0.656420,0.123148
5981711545,-31.170496,79.034668,-154.669830,0.801569,-0.554366,0.059705
5981731545,-19.531542,67.418335,-171.206482,0.724643,-0.494376,0.078532
5981751546,-5.691954,54.219734,-180.754669,0.725433,-0.471426,0.152529
5981771546,5.357693,54.497883,-189.614014,0.756914,-0.437853,0.169388
5981791546,11.301311,55.101830,-192.220078,0.896657,-0.380929,0.167913
5981811546,13.061738,52.419823,-185.862915,1.156124,-0.341974,0.193461
5981831546,22.676931,52.834354,-166.492401,1.298875,-0.296094,0.244180
5981851547,49.214336,59.632332,-138.314117,1.166464,-0.209729,0.454875
5981871547,54.835785,66.710777,-113.271286,1.076488,-0.390167,0.500252
5981891549,38.926579,43.535183,-76.350769,0.954799,-0.673205,0.462876
5981911549,22.537357,19.685997,-32.137241,0.971744,-0.835663,0.392204
5981931549,10.726526,6.402438,24.029623,0.970174,-0.837521,0.425146
5981951549,16.791622,-6.201229,81.426437,0.905898,-0.775370,0.391436
5981971550,29.684975,-14.972167,121.212624,0.964947,-0.586854,0.388313
5981991550,34.782959,-14.432255,151.607025,1.113785,-0.401759,0.367994
5982011548,39.822472,-6.880028,183.026215,1.142573,-0.259735,0.368109
5982031549,26.402956,-9.427695,202.431778,1.075084,-0.234712,0.358744
5982051549,22.229950,-10.912411,215.026871,1.004321,-0.260081,0.336074
5982071549,14.804417,-14.033160,221.503983,0.913743,-0.291696,0.317678
5982091549,8.716689,-23.743069,218.771652,0.874030,-0.345627,0.288917
5982111549,7.829214,-36.105850,206.277618,0.870877,-0.406588,0.267839
5982151550,25.016811,-53.565384,189.286148,0.763653,-0.589236,0.279326
5982171550,48.831821,-55.403782,177.376343,0.645055,-0.656595,0.377042
5982191550,73.795067,-56.955505,155.740433,0.595313,-0.680171,0.428167
5982211551,97.581680,-48.194439,126.083839,0.565657,-0.544087,0.485707
5982231552,99.037788,-31.705158,93.674866,0.528188,-0.308992,0.551590
5982251553,69.201073,-22.595493,62.308609,0.462909,-0.132826,0.612899
5982271553,23.792080,-17.311884,28.469852,0.391988,-0.059168,0.585695
5982291553,-22.889696,-8.122189,-8.937281,0.298640,0.001476,0.530644
5982311553,-70.033493,-9.121598,-51.957619,0.257172,-0.000048,0.477070
5982331553,-110.195770,-17.194225,-101.589218,0.311393,-0.067179,0.376576
5982351557,-136.663208,-18.063068,-151.528793,0.487760,-0.267160,0.441901
5982371552,-174.218491,-26.149025,-143.888428,1.250920,-1.095006,0.470057
5982391553,-132.509506,28.149679,-84.449944,1.276726,-1.175088,0.362635
5982411553,-70.236069,59.317764,-130.654083,0.633448,-0.530682,0.334947
5982431553,-67.177361,32.223591,-153.783997,0.710242,-0.470478,0.050108
5982451553,-56.403881,37.589882,-167.201981,0.804169,-0.533246,0.141866
5982471554,-25.665751,49.835663,-163.393036,0.879207,-0.590669,0.242383
5982491554,-19.238869,58.740623,-161.380554,0.899391,-0.495624,0.186669
5982511554,-16.239388,58.782124,-173.500168,0.936857,-0.380780,0.136207
5982531554,-7.500420,56.662300,-189.420715,0.904356,-0.323320,0.215633
5982551554,-2.517705,53.704269,-204.225967,0.910270,-0.296557,0.284059
5982571556,-6.459520,56.722748,-213.310440,1.066254,-0.271337,0.219292
5982591556,3.214247,75.961594,-205.660110,1.266258,-0.205332,0.192105
5982611557,29.817162,90.095848,-175.592773,1.356404,-0.163913,0.278759
5982631557,33.593338,72.212013,-146.377899,1.224651,-0.295786,0.530578
5982651557,21.402754,39.425755,-119.294724,1.063604,-0.610307,0.534519
5982671557,1.592088,11.621458,-62.014786,0.968425,-0.769289,0.451628
5982691568,-12.343535,-7.261070,7.037642,0.889332,-0.863509,0.363343
5982711556,13.095868,-7.370490,54.250603,0.834781,-0.767324,0.371897
5982731557,38.049717,-18.371456,85.875710,0.903154,-0.540993,0.344297
5982751557,69.300575,-18.083767,112.306534,1.083825,-0.328710,0.314486
5982771557,90.133698,-2.117505,134.465851,1.171706,-0.171776,0.313324
5982791557,101.748749,15.137737,152.800949,1.074001,-0.055206,0.342019
5982811558,83.614006,12.202489,158.269821,0.941772,-0.011616,0.397029
5982831558,63.401604,2.608511,158.785599,0.843426,-0.039556,0.427025
5982851558,31.807098,-6.096393,148.573502,0.877339,-0.094252,0.441251
5982871558,11.504907,-9.747182,143.241669,0.930952,-0.116065,0.406643
5982891558,-2.545560,-13.133598,144.377502,0.881267,-0.193403,0.417273
5982911560,-10.540359,-18.439554,146.307495,0.908486,-0.317177,0.435047
5982931560,-5.381022,-21.078241,146.052719,0.853130,-0.431157,0.436788
5982951560,7.721409,-23.638304,134.803055,0.743950,-0.498733,0.412555
5982971561,21.034645,-24.723026,119.594086,0.720933,-0.502877,0.412843
5982991561,30.564146,-22.367645,102.380585,0.719263,-0.515714,0.453524
5983011561,42.754128,-18.548141,83.537216,0.717061,-0.497069,0.457229
5983031562,52.649460,-16.116125,64.999413,0.691319,-0.395642,0.449117
5983051560,45.047413,-11.973768,47.856060,0.667266,-0.271008,0.470676
5983071560,26.765285,-6.515845,31.682648,0.637168,-0.233394,0.494515
5983091560,9.617144,-2.971931,12.906159,0.587198,-0.257548,0.492285
5983111561,-3.528647,-1.332728,-8.022987,0.567277,-0.261068,0.470885
5983131561,-16.506393,0.198432,-27.500942,0.592641,-0.235498,0.446667
5983151561,-30.659855,1.219315,-44.303841,0.625463,-0.280857,0.438390
5983171561,-40.723991,2.265384,-59.788055,0.667880,-0.354927,0.432658
5983191562,-43.116882,7.734633,-75.403343,0.709108,-0.416755,0.435756
5983231562,-41.225948,13.647604,-101.147339,0.848066,-0.489688,0.468286
5983251564,-37.821053,16.516756,-106.776619,0.912089,-0.474454,0.408037
5983271564,-31.585882,21.615128,-101.995041,0.862488,-0.462085,0.417473
5983291564,-33.567654,19.372877,-93.532951,0.836853,-0.478605,0.406705
5983311564,-31.754864,14.237949,-81.769379,0.861098,-0.480390,0.362371
5983331565,-24.741301,12.070127,-69.929024,0.869101,-0.474939,0.342209
5983351565,-22.279978,10.930298,-64.364784,0.860895,-0.502304,0.355318
5983391564,-3.053852,3.375124,-47.707424,0.926268,-0.561823,0.314110
5983411564,15.430442,6.185195,-24.368252,0.876149,-0.603928,0.365881
5983431564,24.922449,4.533716,-3.369163,0.903536,-0.655259,0.408631
5983451565,26.914505,3.172026,11.515009,0.939225,-0.654681,0.419289
5983471565,30.440685,0.525700,24.916126,0.884271,-0.618233,0.407412
5983491565,33.177139,-4.678651,38.689613,0.856100,-0.562549,0.394506
5983511565,33.020782,-8.807549,54.052105,0.885777,-0.511504,0.384534
5983531566,34.122520,-10.059973,72.192368,0.875081,-0.487296,0.383233
5983551566,37.469116,-10.852467,90.571060,0.821958,-0.498496,0.398560
5983571566,39.784073,-13.239930,104.789665,0.776706,-0.496900,0.417600
5983591568,39.828564,-17.626925,112.385887,0.788868,-0.458553,0.415491
5983611568,39.945751,-21.921806,112.024857,0.829986,-0.418692,0.403252
5983631568,41.612190,-20.513119,106.106171,0.833902,-0.383910,0.387524
5983651568,45.593082,-18.248848,98.660774,0.781605,-0.353928,0.391463
5983671569,54.669338,-20.815214,90.157684,0.730782,-0.307955,0.422353
5983691569,66.001404,-27.447428,69.625381,0.717811,-0.255244,0.459267
5983711572,63.330837,-16.077530,38.975914,0.717840,0.001466,0.452222
5983731567,27.612501,-8.376902,4.420797,0.552214,0.199742,0.544107
5983751568,-31.408566,-21.133867,-37.557270,0.523322,0.201631,0.531655
5983771568,-82.713936,-24.641205,-81.299568,0.602774,0.179561,0.415763
5983791568,-117.634605,-14.959383,-125.412064,0.689276,0.133009,0.359153
5983811569,-131.531876,-5.889020,-162.109695,0.912804,0.026564,0.417586
5983831569,-137.026718,1.032060,-170.794418,1.173695,-0.411393,0.431503
5983851569,-118.403893,3.116871,-123.165100,1.248926,-0.901999,0.302791
5983871569,-72.003792,30.600073,-104.503311,1.080966,-0.680420,0.380702
5983891569,-52.907108,41.231236,-118.659508,1.011611,-0.365348,0.436005
5983911570,-62.090240,35.926014,-128.670227,0.959293,-0.244810,0.396318
5983931572,-92.699242,23.631199,-133.102661,0.997332,-0.181058,0.327492
5983951572,-109.098839,23.481327,-130.990448,1.057670,-0.062241,0.213712
5983971572,-111.934464,30.152336,-127.990799,1.018415,-0.054681,0.156555
5983991572,-109.043274,36.273529,-123.358170,1.040980,-0.173636,0.142100
5984011572,-104.280777,38.299240,-106.404587,1.045059,-0.377736,0.166166
5984031572,-108.927216,30.394270,-81.087341,0.990540,-0.513881,0.132225
5984051589,-99.392891,26.304834,-59.629028,0.988580,-0.667643,0.069439
5984071571,-75.867226,23.475157,-31.058975,1.066071,-0.927295,0.023857
5984091572,-28.947924,18.391926,0.887335,0.980260,-1.034516,0.097067
5984111572,6.977531,7.134670,25.084538,0.953373,-0.864403,0.167065
5984131572,38.034077,-4.429820,47.511929,1.071991,-0.668386,0.141075
5984151572,79.123177,-5.706786,69.755669,1.118118,-0.499456,0.192123
5984171573,106.666527,-2.917631,87.559235,1.109066,-0.340594,0.302791
5984191573,107.996811,-0.784537,104.216438,1.048203,-0.191189,0.393653
5984211573,88.941750,5.968393,116.591393,0.983929,-0.060324,0.454391
5984231574,64.029709,15.016127,125.388214,0.962265,-0.020816,0.521431
5984251573,24.666908,19.298851,125.647392,1.113549,-0.035840,0.477029
5984271575,-14.788151,30.857191,118.016304,1.138747,-0.038782,0.435825
5984291575,-47.994823,33.317150,105.617928,0.941586,-0.132312,0.494020
5984311576,-52.652695,20.338032,94.390228,0.806901,-0.371170,0.532638
5984331576,-33.808243,17.030329,86.499428,0.927017,-0.393063,0.476626
5984351576,-13.981761,43.172695,91.100746,0.904126,-0.227469,0.478230
5984371576,-36.368690,63.698032,85.577637,0.693302,-0.188933,0.540097
5984391598,-71.133713,67.304131,58.119308,0.503919,-0.231281,0.457476
5984411575,-100.032646,63.364063,24.961285,0.564108,-0.234261,0.363809
5984431575,-124.152725,62.351238,2.642815,0.680571,-0.255278,0.300085
5984451575,-122.366249,60.820728,-10.474860,0.701295,-0.371471,0.202744
5984471576,-96.059502,63.337624,-22.210623,0.639449,-0.419610,0.202952
5984491576,-84.026527,67.295631,-36.000328,0.647461,-0.366236,0.234686
5984511576,-89.546059,74.032570,-46.568726,0.649292,-0.397277,0.304323
5984531576,-106.981949,73.988121,-58.374245,0.680394,-0.440511,0.346713
5984551576,-126.175201,73.125267,-68.518967,0.706649,-0.512966,0.271104
5984571577,-130.370560,73.954857,-76.239677,0.765491,-0.612678,0.193961
5984591577,-121.184227,78.348709,-81.719887,0.828346,-0.680165,0.221171
5984611579,-113.051819,83.649673,-83.004562,0.882264,-0.698090,0.261760
5984631579,-107.361374,88.356018,-80.848076,0.906316,-0.662950,0.243766
5984651580,-105.279961,90.831177,-75.351685,0.935496,-0.610477,0.231213
5984671580,-106.012894,91.655518,-69.105431,0.971663,-0.607243,0.199511
5984691580,-102.178169,95.821472,-66.223679,0.933032,-0.622915,0.235028
5984711580,-103.487213,100.153702,-69.999008,0.883649,-0.579473,0.250009
5984731580,-105.839943,100.086395,-76.006638,0.858528,-0.513482,0.199576
5984751579,-105.717682,97.306023,-80.227425,0.847533,-0.440499,0.175905
5984771579,-113.978577,96.099014,-84.037079,0.856921,-0.374920,0.179553
5984791579,-122.685150,97.711998,-90.008095,0.828856,-0.362703,0.203984
5984811580,-127.941696,91.948952,-99.358337,0.808553,-0.375385,0.196130
5984831580,-132.593628,83.222710,-107.725189,0.810466,-0.356740,0.174154
5984851580,-143.515045,77.937523,-116.132195,0.783097,-0.340713,0.154567
5984871580,-151.747391,73.733307,-126.555038,0.775180,-0.364462,0.128582
5984891580,-145.275497,66.974266,-133.142563,0.843127,-0.389407,0.137768
5984911581,-130.694656,71.206635,-134.049072,0.925730,-0.424034,0.190851
5984931581,-115.449356,83.767021,-134.228867,0.896414,-0.444620,0.290664
5984951583,-111.832726,86.136681,-138.929718,0.997303,-0.374022,0.266057
5984971583,-118.740906,84.875954,-137.121780,1.072847,-0.323360,0.208299
5984991583,-118.295654,77.844856,-127.281212,0.916216,-0.388654,0.241476
5985011583,-119.667671,65.459671,-117.195290,0.906785,-0.412816,0.279698
5985031583,-121.785149,61.928757,-108.825539,0.920272,-0.389287,0.279472
5985051584,-100.344727,62.261127,-99.889374,0.933966,-0.356007,0.243160
5985071584,-84.468788,60.825844,-97.257622,0.967718,-0.212789,0.251515
5985091583,-94.280861,59.218689,-102.775826,1.001122,-0.060878,0.256906
5985111583,-110.750793,56.162399,-107.489517,0.918704,-0.024392,0.219668
5985131583,-128.044449,40.908352,-105.722725,0.909389,-0.077966,0.191116
5985151583,-134.215042,34.150791,-103.308113,0.978069,-0.079949,0.154257
5985171584,-124.112648,29.671036,-101.335327,0.961089,-0.062343,0.171512
5985191584,-108.847321,22.452919,-91.599579,0.974937,-0.120653,0.240138
5985211584,-95.774506,21.359922,-84.320984,1.043071,-0.188463,0.277988
5985231584,-76.479462,27.286579,-85.325104,1.104411,-0.154994,0.350882
5985251584,-79.953621,27.844654,-82.218834,1.029858,-0.123752,0.422534
5985271585,-102.519981,21.461290,-74.875053,0.991003,-0.070258,0.374162
5985291586,-120.286453,21.749973,-64.612099,1.052100,-0.063159,0.306438
5985311586,-131.169067,22.446035,-51.152718,1.126892,-0.258789,0.258568
5985331587,-121.831985,20.591194,-32.963753,1.131553,-0.428576,0.203757
5985351587,-97.351982,16.536276,-6.565911,1.105010,-0.424691,0.175518
5985371587,-79.186890,15.559536,23.684488,1.103299,-0.408425,0.191578
5985391588,-72.989296,13.946424,46.013138,1.096728,-0.540051,0.239508
5985431587,-42.518379,9.285482,114.258698,1.162614,-0.786430,0.233923
5985451587,-31.845669,12.244943,150.141388,0.860277,-0.703407,0.359496
5985471587,-42.448418,7.425402,179.446304,0.770307,-0.615890,0.383242
5985491587,-51.949146,3.855739,204.401337,0.867660,-0.581659,0.264111
5985511587,-46.933510,-1.734098,218.637314,0.801500,-0.462528,0.245378
5985531587,-38.606712,-15.278500,216.601242,0.712427,-0.376404,0.255655
5985551587,-24.073895,-23.027622,200.459412,0.766123,-0.328220,0.227452
5985571588,4.656637,-12.272845,169.654099,0.798109,-0.218309,0.294224
5985591588,9.847603,9.302307,115.090927,0.783636,0.085662,0.423770
5985611588,-45.780106,16.930006,49.788979,0.382171,0.496841,0.420343
5985631590,-144.983765,4.023773,-18.845715,-0.020064,0.443850,0.288766
5985651590,-254.332581,-5.744583,-86.201996,0.563751,-0.032944,0.449284
5985671590,-245.127380,37.323414,-16.791370,2.229809,-1.895238,0.085746
5985691591,-124.441689,159.687302,61.728500,0.924772,-1.111551,0.476058
5985711591,-173.017990,106.307724,34.834755,0.544669,-0.532456,-0.136598
5985731591,-165.481964,87.180038,28.685982,0.447183,-0.853256,-0.362881
5985751592,-129.624741,83.937271,25.329969,0.417774,-1.271847,-0.238894
5985771591,-54.985008,86.442719,18.989388,0.414181,-1.275305,-0.022146
5985791591,16.636992,82.570229,16.605162,0.316703,-1.054333,0.174975
5985811591,39.041546,80.941536,19.306757,0.196492,-0.663789,0.213464
5985831591,-13.997954,82.238914,17.020176,0.159414,-0.663237,0.197119
5985851591,-54.145641,65.733368,-1.636356,0.253995,-0.977172,-0.008181
5985871591,-26.701859,50.089890,-26.837004,0.361474,-1.012545,-0.192728
5985891592,43.126339,39.694511,-47.315479,0.432031,-0.993883,-0.080017
5985911592,94.251465,28.586697,-60.197159,0.499653,-1.092210,0.060642
5985931592,108.161484,24.303173,-72.635780,0.530007,-0.948956,0.269730
5985951592,86.749153,3.219736,-92.063889,0.634824,-0.704607,0.259278
5985971594,67.480293,-7.145268,-104.186615,0.672431,-0.636288,0.280225
5985991594,60.871155,-6.741062,-114.637741,0.575364,-0.653303,0.325938
5986011594,56.663765,-5.329268,-136.427429,0.457743,-0.535453,0.344744
5986031594,58.394569,-9.764353,-157.594559,0.464482,-0.462392,0.403528
5986051595,47.545971,-16.618034,-173.609329,0.579867,-0.491522,0.444634
5986071595,38.493813,-15.935860,-205.929047,0.830792,-0.328590,0.322791
5986091595,45.441689,-0.138884,-247.722351,0.933407,-0.185344,0.403354
5986111594,72.869362,11.320000,-282.005432,1.020231,-0.147544,0.556161
5986131595,81.526131,32.081642,-293.325287,1.182643,-0.110874,0.640422
5986151595,77.547592,56.587685,-300.721161,1.318073,0.136082,0.597035
5986171595,63.775230,72.246246,-301.511993,1.462804,0.320529,0.646101
5986191595,67.495949,52.787273,-261.886200,1.448762,0.353223,0.756377
5986211595,36.062035,66.387909,-173.879974,1.245690,-0.455633,1.010491
5986231595,-74.757957,-10.091808,-3.136305,1.234538,-2.197791,0.185639
5986251595,-43.832031,-18.338045,183.779465,0.566397,-1.965068,0.288536
5986271596,9.128695,-26.101854,255.857605,0.533841,-0.964032,0.530515
5986291596,59.511143,-64.706291,354.548248,1.918563,-0.663546,0.126263
5986311598,185.979355,-29.161053,431.497406,2.521626,-0.367306,-0.335142
5986331598,263.744995,-21.868412,423.502197,2.220337,0.464018,0.100301
5986351598,211.559875,-56.175549,416.099121,1.634684,1.175988,0.311781
5986371598,82.738091,-87.885887,386.433990,1.009521,1.543903,0.282412
5986391607,-7.596994,-119.405685,287.119049,0.548071,1.773735,-0.101213
5986411598,-42.585411,-127.710663,122.714943,-0.075287,2.119834,0.208915
5986431599,-70.663277,-72.966354,-93.180496,-0.129245,1.116690,1.324040
5986451597,-185.141541,52.085423,-167.849915,0.611959,-0.889586,1.293823
5986471598,-157.383286,35.239571,-57.360413,1.512151,-2.000584,0.148005
5986491598,54.681107,123.769493,-113.141670,0.751045,-0.490232,0.909079
5986511598,-80.152649,30.626381,-139.559921,0.557305,0.036511,0.115941
5986531598,-161.996094,-0.004872,-122.321091,0.713314,0.158260,0.259854
5986551599,-135.882141,26.534025,-117.195557,0.748989,-0.112334,0.365986
5986571599,-141.173843,38.428368,-131.884415,0.695438,-0.401193,0.327743
5986591599,-119.186729,45.514946,-174.991211,0.884084,-0.171323,0.242830
5986631599,-77.787140,51.874222,-197.323212,1.158094,0.238993,0.201521
5986651601,-89.578430,79.281776,-174.390411,1.119864,0.160861,0.338796
5986671601,-144.814468,86.422119,-169.382874,1.139006,-0.099448,0.097342
5986691602,-174.422775,62.867718,-158.045807,1.243100,-0.335259,-0.053329
5986711602,-181.168182,41.340435,-100.709625,1.246790,-0.492595,-0.230480
5986731602,-172.699936,13.994722,-27.868315,1.231938,-1.302264,-0.827972
5986751602,-129.111755,-25.584898,8.368427,1.188827,-1.853827,-0.747962
5986771603,-45.290741,-31.009735,54.632057,1.624047,-2.191052,0.058378
5986791602,59.384438,-16.798794,100.703827,1.400176,-1.806883,0.279176
5986811602,138.717499,-46.208290,135.264511,1.377339,-1.091462,0.117264
5986831602,126.179123,-42.328133,148.686615,1.462562,-0.526381,0.027892
5986851602,99.807434,-27.707340,161.317719,1.385186,-0.169484,0.052825
5986871603,64.278931,-17.554726,178.228516,1.240910,-0.140074,0.191760
5986891603,44.301052,-21.821733,186.402008,1.077593,-0.417472,0.289972
5986911603,60.183784,-20.974400,181.492432,1.059874,-0.504482,0.307276
5986931603,61.223560,-15.182169,178.277298,1.187864,-0.455093,0.346299
5986951603,66.030090,-9.505437,188.465912,0.994316,-0.500725,0.275819
5986971604,88.126144,-1.075306,197.803146,0.688277,-0.376952,0.270471
5986991605,78.051498,10.088823,219.661850,0.643166,-0.059659,0.326348
5987011606,34.994236,11.924747,237.397079,0.770277,0.001374,0.402765
5987031606,-4.254858,-12.492414,228.073883,0.847195,-0.162882,0.454043
5987051606,-24.749643,-45.352150,200.350922,0.682500,-0.183969,0.445320
5987071606,-47.639648,-65.998238,165.979675,0.503288,-0.127966,0.338942
5987091606,-67.965698,-62.585125,123.903549,0.368499,-0.009087,0.194555
5987111607,-49.752571,-55.903591,88.095978,0.248079,-0.072010,0.269198
5987131605,-35.338921,-33.953545,31.201590,0.300623,-0.187325,0.362898
5987151605,-24.155838,-12.770788,-41.663559,0.242423,0.037899,0.343619
5987171606,-22.329477,-11.310599,-124.328888,0.212563,0.331886,0.680134
5987191606,-66.426010,33.802872,-175.908661,0.737745,-0.532614,1.485174
5987211606,-186.449066,39.141685,66.312256,1.107768,-2.985774,0.232591
5987231606,-8.295773,134.616455,27.289379,0.478350,-1.411234,0.681132
5987251606,-29.379984,96.383408,-91.378197,0.323601,-0.505635,0.133320
5987271607,-77.966644,75.151794,-101.782677,0.140038,-0.318884,-0.416143
5987291607,-48.579063,76.137642,-116.215729,0.068178,-0.296930,-0.328815
5987311607,-69.866814,36.795586,-159.286758,0.094125,-0.901400,-0.267182
5987331609,-20.049393,12.389784,-238.018829,0.530904,-1.324045,-0.155131
5987351609,98.427162,23.710064,-326.968811,0.815173,-1.010100,0.103969
5987371609,170.076599,33.138752,-382.320007,0.959102,-0.460867,0.620380
5987411610,65.853241,95.150871,-385.012817,2.220341,0.133539,0.377478
5987431610,37.182068,171.469376,-341.987579,1.681133,0.169172,0.810892
5987451610,22.020081,181.891281,-312.350952,0.987754,-0.271831,0.792718
5987471609,-111.547745,72.211967,-262.691467,1.667789,-1.410611,0.390441
5987491609,-242.694534,-47.738842,-66.967667,1.658608,-2.800432,-0.559755
5987511609,-139.570770,7.376443,96.130310,0.354761,-2.314381,0.295513
5987531610,51.083458,-41.099545,199.825653,0.416797,-1.425188,0.199286
5987551610,239.264435,-26.997026,298.863770,1.520224,-0.960865,-0.315215
5987571610,377.241608,-11.658123,346.898529,2.239280,-0.379709,-0.241651
5987591610,336.834900,-4.838890,386.637115,1.794796,0.805419,0.260799
5987611611,147.568573,-14.968842,428.439606,1.355392,1.274983,0.533118
5987631611,-43.775352,-39.264702,428.610657,1.076777,0.924784,0.480599
5987651611,-138.774506,-70.128609,422.489502,1.088988,0.302211,0.298732
5987691613,-71.038269,-118.475754,323.828247,1.258871,0.073106,0.269483
5987711613,40.078331,-83.052773,241.885239,0.861973,0.441603,0.409329
5987731613,67.111565,-45.816841,110.770401,0.108877,0.993229,0.570780
5987751613,27.406694,-26.657749,-84.339226,-0.307564,1.264683,1.015216
5987771614,-57.434132,26.300125,-276.188965,0.190509,0.943082,1.494481
5987791614,-213.441528,95.227890,-339.250854,0.996705,-0.709159,1.938459
5987811613,-420.177094,72.459572,58.846809,2.550547,-3.883691,-0.770383
5987831613,-72.992546,209.197937,-108.743286,0.281746,-0.518324,-0.535889
5987851613,-238.125702,3.482080,-115.423309,0.179909,-0.160088,-0.822089
5987871613,-181.384796,25.657063,-159.137238,-0.043797,-0.822646,-0.266223
5987891613,-116.488632,104.656296,-239.615204,-0.112252,-1.341661,-0.166353
5987911614,39.464134,161.496658,-353.473419,0.168508,-1.326901,-0.237274
5987931614,225.073151,187.064835,-438.630157,0.971497,-0.695985,0.178980
5987951614,254.647736,156.213165,-469.911896,1.659238,0.451058,0.231038
5987971615,253.753464,144.643616,-366.884338,1.637305,0.996397,0.051680
5987991615,201.122238,98.269539,-300.638672,0.939103,1.353023,0.834125
5988011616,-101.159714,48.618740,-320.227356,1.903119,-0.268234,1.561622
5988031617,-389.629333,-65.124229,-161.672928,2.545648,-3.532043,-0.255261
5988051617,-187.617477,-4.438100,71.462318,0.746266,-3.524744,0.517633
5988071617,45.987404,-22.042637,174.449158,0.620610,-1.683308,0.409811
5988091618,257.760162,22.884640,304.883392,1.482941,-0.775813,-0.169477
5988111618,399.097595,33.390118,359.984497,2.308040,-0.144232,-0.214019
5988131618,351.836182,15.352812,361.642426,1.547915,0.725571,0.185016
5988151617,155.124405,-10.025368,391.214325,1.411731,1.282995,0.274416
5988171617,-24.327366,-13.243897,424.946167,1.010260,1.049012,0.404591
5988191617,-131.131775,-45.700836,408.619446,0.944045,0.486382,0.293166
5988211617,-150.836319,-77.769226,382.644745,1.050168,0.075530,0.212250
5988231617,-108.984428,-101.974457,343.548279,1.266383,0.003256,0.246459
5988251618,-18.868929,-77.200775,265.868286,1.075678,0.282577,0.425235
5988271618,22.203785,-51.666771,159.949371,0.476085,0.714942,0.560600
5988291618,-20.299751,-55.749626,44.264557,0.092752,0.922203,0.576725
5988311618,-94.876831,-58.750973,-77.905266,0.003059,0.769259,0.714268
5988331619,-184.040878,-37.536819,-155.449341,0.423049,-0.187894,1.571757
5988351620,-342.717194,14.635067,58.823494,2.473632,-3.959902,0.403060
5988371620,-40.784222,202.462479,20.610004,0.523447,-1.281609,0.334522
5988391621,-30.568163,101.947342,-108.846069,0.133634,0.539144,-0.301414
5988411621,-113.197792,59.189152,-117.166031,0.123250,-0.008463,-0.264919
5988431621,-172.207123,79.707802,-139.567108,-0.334801,-0.584157,-0.154509
5988451621,-130.925781,101.337769,-219.350372,-0.344361,-1.178150,-0.607582
5988471622,22.294395,123.139679,-331.958130,0.191724,-1.183729,-0.196915
5988491620,112.851685,118.046555,-438.602661,0.839641,-0.673824,0.166458
5988511621,157.774429,96.644913,-479.625641,1.717608,0.304216,0.290162
5988531621,201.527496,110.001068,-406.818390,2.514946,0.686402,0.106600
5988551621,170.207581,143.430511,-335.811096,1.520700,0.719432,1.176818
5988571621,-51.096062,100.955811,-329.402161,1.515100,-0.657079,1.193806
5988591621,-248.641922,-20.488207,-207.370560,2.547190,-2.759696,-0.259086
5988611621,-208.475128,-31.474045,26.897263,1.106403,-2.978778,-0.061886
5988631622,-59.165138,-39.527008,119.465187,0.536428,-1.994929,0.285592
5988651622,167.473801,-28.636452,198.880310,1.226247,-0.991305,-0.235156
5988671622,347.264954,0.491640,236.896393,1.802624,-0.538548,-0.363010
5988691624,388.899048,-7.108025,278.643402,1.517212,-0.040100,-0.054830
5988711624,254.304443,-30.375957,325.544830,1.280616,0.637736,0.162513
5988731624,91.484924,-11.051743,355.321655,1.163265,1.080326,0.132365
5988771625,-95.651588,-57.108402,367.959015,1.037437,0.265159,0.186860
5988791625,-126.130287,-97.628571,367.347229,1.305497,-0.097189,0.165116
5988811625,-82.607010,-103.552025,343.267761,1.407872,-0.200173,0.190715
5988831624,5.271972,-93.245102,289.806641,1.115679,-0.061195,0.372724
5988851624,56.460472,-66.858322,223.848175,0.840106,0.287709,0.447596
5988871624,29.371910,-37.119259,142.904144,0.344376,0.554384,0.675579
5988891625,-60.198189,-28.000490,37.002857,0.151886,0.527367,0.795740
5988911625,-127.333786,-1.418467,-61.511143,0.240800,0.252399,0.878394
5988931625,-219.599518,64.050888,-101.906120,0.748361,-0.861356,1.562849
5988951625,-321.561920,135.321594,-2.006965,1.645334,-1.896960,0.058726
5988971625,-85.906448,240.523636,-63.944626,0.305397,-0.432194,-0.453511
5988991626,-62.586227,193.948303,-100.810791,0.234817,-0.616023,-0.603638
5989011626,-151.465744,129.163055,-184.121780,-0.090004,-1.155422,-0.656361
5989031626,-80.670784,115.364342,-268.005707,-0.080781,-1.353759,-0.704667
5989051628,36.564754,100.137520,-365.181335,0.305772,-1.171648,-0.378021
5989071628,155.084015,99.502686,-440.915283,1.038095,-0.655045,-0.050479
5989091629,229.104172,152.157837,-473.599274,1.751706,0.336699,0.202986
5989111629,277.390472,222.015625,-477.639801,1.995611,1.114016,0.530726
5989131629,68.032196,151.928635,-428.771149,1.889489,-0.163341,1.318149
5989151629,-249.645844,-6.391531,-301.084106,2.844274,-3.135510,0.206036
5989171628,-257.767548,49.986740,1.280184,1.026415,-3.613656,0.652806
5989191628,-116.100372,43.397030,126.515526,0.440622,-1.941026,0.410134
5989211628,81.403488,45.032509,192.062134,1.253878,-1.050939,-0.372064
5989231629,283.505432,34.727314,213.208527,1.544622,-0.603965,-0.202784
5989251629,315.870697,-0.808054,253.118286,1.105533,-0.063958,0.278984
5989271629,215.752441,-17.117279,323.327850,1.026625,0.486392,0.333677
5989291629,102.456177,-2.721581,374.072510,0.882988,0.803020,0.292339
5989311629,5.938075,-30.053009,378.877747,0.831580,0.720494,0.242829
5989331630,-42.579430,-54.471748,368.540588,1.331532,0.539608,0.171648
5989351630,-55.591278,-56.817146,377.661469,1.281400,0.484458,0.226538
5989371630,-44.976490,-78.651558,360.377869,0.928948,0.336055,0.393838
5989391632,2.014653,-104.822357,305.201843,0.776875,0.259036,0.592708
5989411632,39.796551,-90.582886,221.288452,0.531458,0.320112,0.679238
5989431632,10.686945,-53.950535,122.935165,0.074124,0.590335,0.951611
5989451632,-102.122704,-55.764332,1.823725,-0.092259,0.710792,0.813450
5989471633,-265.628998,-81.233574,-101.485626,0.021499,0.535300,0.756724
5989491633,-329.540985,-30.675781,-184.445618,1.073162,-0.280403,0.949143
5989511632,-358.230713,39.466316,-45.511494,2.494501,-3.347263,0.333654
5989531632,-183.591843,163.783173,153.392548,0.840320,-2.272482,-0.072042
5989551632,-21.458664,178.882507,-41.746735,-0.037367,-0.691514,-0.679195
5989571632,-80.454834,118.243835,-138.344666,-0.131931,-0.384816,-0.471413
5989591633,-75.379265,50.573738,-235.818954,-0.118202,-0.381340,-0.449527
5989631633,119.054276,167.557434,-423.086761,0.113686,-0.681912,-0.133806
5989651633,153.436188,195.410843,-492.052917,0.472984,-0.216211,0.264101
5989671634,100.845482,164.889740,-567.150879,1.758433,0.617201,0.261227
5989691634,141.089325,154.976501,-492.763153,2.661974,1.412068,-0.523434
5989711634,135.434692,144.260361,-413.860779,1.598134,0.359398,0.557930
5989751636,-185.724091,-49.197701,47.984634,1.008858,-3.684951,1.349252
5989771636,-9.229761,26.143440,156.806885,0.873555,-1.308049,0.758871
5989791636,141.836227,10.713492,244.772232,1.968706,-0.777478,-0.639799
5989811637,324.039185,-14.094534,297.870880,2.077722,-0.186581,-0.344668
5989831637,287.084381,-80.891533,327.280731,1.667112,0.276323,0.299021
5989851636,197.358154,-73.769531,384.136597,1.621648,0.365661,0.141119
5989871636,110.288269,-24.674860,451.748291,1.341825,0.525514,0.377205
5989891650,33.195026,-19.471062,468.088654,1.429321,0.414256,0.329809
5989911636,-1.112445,-40.964806,444.488464,1.804212,0.489197,0.176087
5989931637,1.632064,-46.832367,404.628845,1.616002,0.743186,0.227300
5989951637,57.524189,-32.203381,320.326935,0.976159,1.137964,0.420760
5989971637,59.657280,-11.268880,182.575546,0.013024,1.953941,0.728092
5989991637,-98.664314,-51.644466,-15.111670,-0.594602,2.037363,0.588063
5990011637,-286.759491,-56.617828,-209.616455,-0.327890,1.171959,1.048635
5990031637,-460.573303,18.225004,-226.837814,2.619093,-2.459565,0.968908
5990051638,-243.835190,161.239288,-31.752140,2.276640,-2.507469,-0.560953
5990071639,88.285477,207.612595,-151.770706,-0.004181,0.276940,-0.259823
5990091640,-56.481514,98.741051,-203.264114,0.284602,-0.082293,0.030372
5990111640,-94.901794,108.843491,-232.946579,0.082116,-0.613914,-0.504596
5990131640,-74.150391,135.473816,-289.602386,0.001517,-0.864657,-0.326966
5990151640,-35.342709,104.895561,-377.382965,0.556148,-0.438142,-0.059303
5990171641,29.429436,71.425011,-394.815613,2.619813,-0.519220,-0.203021
5990191642,210.131607,150.004105,-275.904938,2.028451,-1.472452,0.319586
5990211640,112.529510,35.540779,-15.058128,0.784609,-3.324653,0.562104
5990231640,-46.897171,-50.032272,145.127319,0.457806,-1.746508,0.700854
5990251640,-94.087082,-56.105724,254.230881,1.896127,-1.364097,0.262862
5990271640,99.682869,-46.867458,363.228271,2.600348,-1.427125,-0.303106
5990291640,138.091827,-89.038948,438.781403,1.892595,-0.668571,0.441780
5990311641,50.250423,-126.870247,502.398224,1.695974,-0.248971,0.377437
5990331641,30.881496,-111.302574,491.875854,1.258439,0.119475,0.269313
5990351641,47.180748,-85.899223,421.301178,0.966468,0.448520,0.145382
5990371642,99.174797,-58.318169,308.050507,1.220460,1.620991,0.131110
5990391642,149.805191,51.281925,154.355423,0.276418,2.698279,0.819280
5990431643,-328.159454,-31.481796,-311.630737,-0.808685,0.846189,0.860073
5990451644,-453.660461,48.803555,-323.018005,1.475042,-2.435828,0.005271
5990471644,-255.558060,188.720322,-282.616455,1.703855,-1.706275,-0.473401
5990491644,48.061131,225.245972,-334.339752,1.002028,-0.355012,-0.748972
5990511644,34.194141,131.602524,-364.044098,0.719916,-0.884569,0.133554
5990531643,32.884010,119.690826,-417.194611,1.219620,-1.063242,-0.316942
5990551644,104.718758,161.023743,-459.134094,1.834723,-0.116574,0.325080
5990571644,146.846649,151.475433,-403.367340,2.228828,0.602380,0.392525
5990591644,100.817474,129.575439,-312.466125,2.177092,-1.495372,0.602473
5990611644,-246.871933,-102.642128,-10.039061,1.281115,-4.061771,-0.319144
5990631644,-361.559082,-10.382947,211.693604,0.206260,-2.394349,1.062287
5990671645,296.331726,-92.800758,305.383606,2.199942,-1.723060,-0.790690
5990691645,323.797729,-113.959305,390.322235,2.355935,-0.664965,0.128773
5990711645,226.643875,-73.936554,496.184967,2.404945,0.582694,0.128978
5990731645,87.640579,-50.057304,518.096130,1.702202,1.180843,0.312751
5990751647,-33.885147,-80.745018,486.485626,1.238612,0.965634,0.220812
5990771647,-86.231964,-96.843895,399.253387,1.195163,1.268025,0.305030
5990791647,-14.394674,-33.390835,219.088104,0.393128,1.797552,0.685612
5990811647,-89.361389,-29.415611,-59.513462,-0.707435,1.879557,0.681937
5990831648,-227.510071,-50.152393,-307.575470,-0.544972,1.213692,1.127721
5990851648,-385.288788,-27.482767,-402.055603,0.837464,-0.998283,0.111491
5990871647,-205.233887,183.235626,-392.814270,3.073270,-1.948839,-0.631662
5990891647,-51.423561,310.479706,-320.410522,1.300498,-0.710683,-0.443319
5990911647,128.047546,207.774597,-233.250763,0.790438,-1.312110,-0.855070
5990931648,161.853378,145.893784,-316.337402,0.395931,-0.778074,0.260099
5990951648,37.021294,141.756195,-432.884583,1.534994,0.057067,0.339097
5990971648,90.705841,110.695496,-344.661926,2.505458,-0.904355,-0.299962
5991011648,-238.892960,-43.008965,183.042068,0.378395,-2.633788,0.650930
5991031649,-69.366158,-51.263371,252.895294,1.027495,-1.687811,0.265932
5991051649,148.520645,-71.256577,323.249603,2.131762,-1.373222,-0.876931
5991071649,295.658661,-67.338516,385.201111,1.662241,-0.784525,-0.080700
5991091651,200.128204,-96.577591,460.235931,1.528914,0.054692,0.411864
5991111651,69.374191,-91.547630,511.414337,1.335394,0.377539,0.458134
5991131651,13.735873,-88.190926,494.683929,1.000431,0.081409,0.581177
5991151652,23.278734,-48.424801,401.596222,1.026012,0.172825,0.489452
5991171652,84.703560,31.893768,262.157288,0.943487,1.256663,0.643730
5991191652,57.548588,62.031929,30.471363,-0.491914,2.440516,0.872333
5991211658,-165.191284,-57.514481,-287.323761,-1.271596,2.699990,0.335272
5991231651,-350.617859,-98.832779,-542.957031,-0.528269,0.487682,0.515213
5991251651,-510.305725,-26.701395,-416.063629,2.964060,-3.061772,-0.523989
5991271651,-184.978256,319.137177,-411.206512,1.976173,-1.712498,-0.669963
5991291652,113.076935,275.342041,-410.819153,0.708490,-0.246745,-0.104129
5991311652,96.622498,178.760422,-416.613647,1.498450,-0.633286,-0.192034
5991331652,210.315735,231.667725,-420.511322,1.844250,-0.582301,-0.144458
5991351652,188.887390,152.574066,-376.396759,1.611506,-0.855668,0.507409
5991371652,-1.365294,-69.150787,-116.031174,1.774421,-3.338972,-0.255320
5991391653,-205.248703,-36.545204,103.529617,0.633474,-2.577725,0.664860
5991411653,-132.237091,-80.283348,213.713943,0.664967,-1.720904,0.389308
5991431655,76.558464,-89.897316,296.859985,2.286918,-1.265610,-0.718488
5991451655,314.310760,-74.182800,361.231812,2.460741,-0.792760,-0.495962
5991471655,275.832306,-110.343140,430.284668,1.790844,0.043750,0.251300
5991491655,98.712044,-113.589508,474.113098,1.623065,0.541776,0.272243
5991511655,-3.388813,-101.968048,470.035645,1.498622,0.556135,0.176542
5991531656,-22.067837,-94.457336,434.461182,1.617672,0.360895,0.183295
5991551665,-2.998426,-83.046234,358.952148,1.436576,0.723367,0.336170
5991571655,67.064117,-2.729688,240.523911,0.306536,1.363496,0.902028
5991591655,-40.573975,-26.436726,-27.536240,-1.033047,2.351912,0.561941
5991631655,-428.517487,-52.302963,-418.410950,0.116510,-1.061235,-0.305366
5991651655,-429.964996,116.470375,-334.231659,3.801796,-2.838501,0.171069
5991671656,-166.049957,302.002869,-367.534302,1.933094,-0.992493,-1.335665
5991691656,151.074570,254.546188,-258.470978,1.294064,-1.434993,-0.539343
5991711656,328.887421,284.674316,-265.301697,0.990102,-1.618537,-0.113237
5991731657,292.683655,240.488312,-270.605103,0.672366,-1.038145,0.568897
5991751657,107.232964,115.670433,-259.199036,1.355070,-0.641576,-0.043573
5991771658,-10.011449,79.066208,-156.400482,0.898792,-0.931375,-0.191485
5991791659,-80.985802,-6.076401,-31.897144,0.831666,-1.621076,0.275067
5991811659,-50.030235,-7.464549,59.767715,1.032110,-1.881741,0.594966
5991831659,76.100212,2.324478,112.319748,1.175827,-1.419901,0.429050
5991851659,170.886505,29.136356,142.033386,1.237989,-0.761715,0.351150
5991871660,192.852676,47.567635,179.967758,0.931006,-0.413830,0.390786
5991891671,142.184723,37.893791,216.750259,0.678138,-0.199686,0.369717
5991911659,64.747673,14.410069,238.883759,0.535646,-0.092011,0.250418
5991931659,0.098157,-17.119013,250.576599,0.629611,-0.007564,0.135133
5991951659,-14.440647,-33.838848,268.250427,0.843509,-0.025939,0.127262
5991971659,-18.277126,-46.683628,281.290680,0.922848,-0.029144,0.293941
5991991659,-12.893497,-76.570694,265.602539,0.875482,-0.189923,0.467605
5992011660,5.947167,-96.531570,221.880432,0.948702,-0.178068,0.432585
5992031660,40.190884,-87.140099,184.953827,0.678984,-0.189430,0.623880
5992051660,23.146479,-80.071480,127.624657,0.158324,-0.240008,0.815804
5992071661,-30.026592,-83.926468,59.027439,0.010761,-0.311363,0.756489
5992091661,-80.892723,-95.188225,-10.435862,0.239572,-0.336321,0.571087
5992111662,-99.931381,-89.935112,-57.739361,0.498413,-0.451736,0.455243
5992131662,-77.788155,-54.862476,-79.095253,0.667683,-0.564091,0.420545
5992151663,-41.925629,1.080294,-87.218391,0.632461,-0.588132,0.498824
5992171663,-46.204369,38.642857,-99.125298,0.440805,-0.535248,0.543605
5992191663,-82.485977,45.656342,-109.812813,0.429212,-0.514522,0.392936
5992211663,-99.321724,52.872349,-117.687119,0.506374,-0.574150,0.240929
5992231663,-104.579048,66.287308,-123.529816,0.599746,-0.700562,0.159619
5992251662,-93.618515,82.293449,-136.191345,0.656237,-0.817406,0.152405
5992271662,-55.220333,89.566200,-159.022919,0.593368,-0.864365,0.170007
5992291663,-26.752625,77.500053,-183.347748,0.676154,-0.803379,0.120282
5992311663,-10.982252,66.058701,-207.252640,0.933457,-0.636991,0.052450
5992331663,11.103423,64.534653,-232.842377,1.094916,-0.481687,0.109886
5992351664,34.704445,52.775532,-245.017822,1.054984,-0.348193,0.206221
5992371663,42.372627,23.773836,-246.137268,1.175878,-0.240345,0.139831
5992391664,47.543171,13.629442,-230.703476,1.186298,-0.117883,0.111510
5992411664,40.216179,8.675531,-208.579071,0.867806,-0.145846,0.213997
5992431664,-6.113687,-8.907894,-194.122574,0.693856,-0.117644,0.281685
5992451666,-18.463661,24.212311,-197.218018,1.221001,-0.246402,0.507617
5992471666,27.294935,52.092400,-183.737823,1.405453,-0.513608,0.588103
5992491666,37.562420,26.767441,-116.294228,1.171245,-0.585521,0.621877
5992511667,-41.542183,4.953620,-43.108360,1.173559,-0.644086,0.490445
5992531667,-108.417030,4.984673,-0.140355,1.036584,-0.681562,0.177955
5992551667,-87.688934,-1.833194,23.429800,1.069468,-0.873629,0.018324
5992571670,-0.386909,-10.753877,46.614197,1.050206,-1.052674,0.100695
5992591666,96.946854,-17.950123,71.188828,1.229237,-0.945826,0.114082
5992611666,175.932541,-9.286168,79.938347,1.329717,-0.648757,0.084077
5992631667,201.959167,-1.945832,88.502625,1.078179,-0.264320,0.155635
5992651667,177.682999,-12.279207,99.641403,0.880005,0.086008,0.215940
5992671667,145.189499,-27.330296,104.683632,0.788723,0.254603,0.116197
5992691667,94.139236,-38.908585,81.441765,0.861392,0.573194,-0.140819
5992711667,74.032906,-52.862240,44.998463,0.663840,1.185035,-0.081333
5992731667,124.735992,-46.781803,-10.089912,0.242981,1.589913,0.583303
5992751668,85.313736,14.620050,-108.979538,0.295387,1.263057,1.623341
5992771668,-123.587753,24.928511,-151.395828,0.895741,0.325544,1.662033
5992791670,-291.313721,8.922961,-56.948509,1.849317,-0.415890,0.400336
5992811670,-240.568771,32.071041,56.142437,1.202805,-0.385182,-0.044211
5992831670,-230.830139,16.238899,61.405666,0.832155,-0.503590,-0.101127
5992851670,-164.450775,-40.755970,59.301399,1.221146,-1.359661,-0.585931
5992871671,64.408432,-57.431236,90.925125,1.206961,-1.962492,-0.647048
5992891671,170.173248,-35.941910,97.875542,1.181778,-1.138691,0.148129
5992911679,149.349899,-43.338139,91.894318,1.069031,-0.475457,0.316318
5992931670,104.641022,-50.074520,104.994751,0.774392,-0.284097,0.191191
5992951670,80.212585,-41.068947,105.088318,0.611615,-0.251356,0.122552
5992971670,66.202812,-35.791405,92.034737,0.589429,-0.061572,0.119413
5992991671,52.334625,-32.924091,64.271515,0.521225,0.193037,0.163068
5993011671,23.600376,-22.029341,9.349387,0.478309,0.285502,0.290925
5993031671,-11.351215,0.090453,-44.189339,0.558686,0.268641,0.464211
5993051671,-40.920940,18.332853,-83.949875,0.788997,0.174878,0.548606
5993071671,-99.270447,17.231350,-111.552719,0.985851,-0.070620,0.519150
5993091672,-163.397018,4.080741,-94.177666,1.343381,-0.588500,0.166843
5993111672,-76.185402,15.694715,-15.618399,1.403034,-0.990172,-0.091004
5993131674,19.241123,31.120966,27.161589,1.067393,-0.996533,0.326679
5993151674,7.976756,5.518678,55.066681,1.068192,-0.865567,0.421000
5993171674,-21.890673,-22.530582,93.098961,1.220865,-0.810607,0.066403
5993191674,-20.642807,-23.599598,96.776176,1.274100,-0.786946,-0.081651
5993211674,-13.546415,-25.026718,84.500107,1.153993,-0.904573,0.033059
5993231675,3.751221,-36.813000,82.270714,0.932792,-0.961838,-0.033782
5993251674,42.847012,-41.212292,83.008797,0.744318,-0.772923,-0.115295
5993271674,70.028511,-36.478455,76.266945,0.677423,-0.599206,-0.005164
5993291674,84.728256,-24.568619,58.978912,0.588455,-0.460742,0.137121
5993311674,90.463150,-13.729862,32.298309,0.498287,-0.145064,0.248485
5993331674,60.581757,-3.192411,-10.070452,0.454076,0.330175,0.327576
5993351674,9.443554,10.785861,-64.767426,0.472817,0.518116,0.415091
5993371674,-94.055786,6.765095,-96.436813,0.663303,0.093277,0.517215
5993391675,-175.124741,-5.667642,-87.354492,1.142111,-0.681182,-0.014003
5993411675,-84.063408,13.347934,-36.241966,1.335065,-1.072611,-0.209825
5993431675,0.696939,29.488329,-19.930578,0.879440,-0.999177,0.244648
5993471677,32.664516,8.330644,-8.551291,1.223351,-0.535459,0.106350
5993491678,32.112831,10.061537,0.881757,1.175979,-0.341457,0.227220
5993511678,10.222990,0.390645,3.502970,1.031745,-0.356714,0.281462
5993531678,-0.836215,-9.186502,3.338524,0.901241,-0.419278,0.239150
5993551678,-4.200728,-12.754364,4.707550,0.820249,-0.493031,0.155366
5993571678,5.371098,-9.898977,6.345535,0.789813,-0.530527,0.088227
5993591677,22.539770,-3.680118,6.216121,0.787091,-0.517317,0.086172
5993611678,33.979336,1.033962,3.710710,0.767881,-0.474390,0.116242
5993631678,35.098454,1.135725,-1.561203,0.780942,-0.421607,0.152322
5993651678,29.340157,0.505213,-9.389754,0.863778,-0.351457,0.177619
5993671678,28.406805,2.246993,-15.754030,0.963715,-0.339751,0.216209
5993691678,27.733706,3.974211,-20.189199,1.035378,-0.373705,0.262057
5993711679,27.262684,4.643037,-22.561073,0.986510,-0.387839,0.307300
5993731679,26.245850,5.570193,-20.577204,0.954543,-0.407833,0.317501
5993751679,27.186090,6.837770,-13.117096,0.967073,-0.402346,0.300212
5993771679,28.321911,7.561364,-6.096179,0.979795,-0.371929,0.252987
5993791681,30.770218,8.556198,-0.609954,0.959957,-0.363137,0.240794
5993811681,33.471680,9.943278,4.121002,0.955855,-0.362467,0.243479
5993831681,38.539585,11.625050,9.698540,0.965269,-0.360804,0.265623
5993851682,35.607582,15.188222,16.565578,0.974349,-0.362606,0.286539
5993871689,32.465729,21.031414,24.965906,0.900659,-0.350713,0.303311
5993891682,28.385147,20.153713,33.727764,0.874118,-0.319419,0.310043
5993911682,11.711589,16.628963,37.938747,0.906729,-0.316033,0.302748
5993931681,-7.096645,12.116400,38.349087,0.949477,-0.336544,0.241375
5993951681,-18.856087,5.768096,41.760090,0.827687,-0.381143,0.247675
5993971681,-18.585110,-7.569144,51.432472,0.757590,-0.488006,0.267584
5993991681,-2.518169,-8.137421,61.833538,0.909043,-0.570618,0.214007
5994011682,18.751827,-6.137187,65.359795,0.899179,-0.489685,0.251978
5994031682,13.271580,-11.612453,63.585808,0.819785,-0.422373,0.302412
5994051682,6.573105,-12.343208,67.966537,0.814846,-0.450719,0.302615
5994071682,1.525777,-8.503395,67.516228,0.835245,-0.440312,0.304120
5994091683,-3.309530,-9.750215,65.400955,0.826428,-0.440971,0.289538
5994111683,-7.240651,-13.752297,66.516159,0.814485,-0.491658,0.255443
5994131685,-5.212469,-12.337653,66.964050,0.791637,-0.535845,0.259267
5994151685,4.943298,-10.992988,60.611710,0.782809,-0.558192,0.260069
5994171685,15.630668,-8.250459,51.856819,0.808724,-0.552592,0.276845
5994191685,23.797142,-8.503901,48.233772,0.792836,-0.547036,0.228620
5994231686,30.009764,-8.014127,50.710957,0.786421,-0.521239,0.300311
5994251686,27.296690,-7.283225,48.850597,0.795321,-0.535683,0.288765
5994271685,30.689833,-7.449892,47.863144,0.747034,-0.537846,0.313852
5994291685,31.236250,-9.532442,46.365421,0.713947,-0.534715,0.305718
5994311685,31.677788,-12.623235,42.805725,0.751058,-0.545034,0.281256
5994331685,36.011135,-13.917295,40.990753,0.779244,-0.538405,0.278063
5994351685,40.934414,-11.925452,44.310543,0.752031,-0.503306,0.333622
5994371686,37.667965,-12.458205,45.817348,0.698282,-0.464446,0.371342
5994391686,24.199024,-16.497509,41.405968,0.723398,-0.444647,0.375487
5994411686,12.537259,-19.280561,39.306049,0.796230,-0.488593,0.328277
5994431686,15.378345,-15.458854,41.350365,0.796401,-0.524619,0.364771
5994451687,14.560125,-10.943541,41.143650,0.684199,-0.515777,0.422523
5994471688,9.167450,-13.336133,33.382210,0.662253,-0.504818,0.406262
5994491688,2.956201,-12.856130,24.699564,0.757427,-0.505997,0.369566
5994511688,5.217863,-4.501251,15.851334,0.747098,-0.384010,0.398054
5994531689,-13.078003,-14.896665,12.463539,0.628727,-0.425413,0.359643
5994551689,-23.190191,-15.054969,3.535632,0.675167,-0.515861,0.390599
5994571689,-34.993065,-17.447718,-9.728842,0.726714,-0.448339,0.268488
5994591689,-41.159355,-18.012943,-10.382053,0.691445,-0.599919,0.258057
5994611688,-37.621361,-16.239120,0.901556,0.675207,-0.682881,0.363520
5994631688,-44.046467,-10.642700,5.115568,0.649848,-0.581397,0.283715
5994651689,-52.726852,1.026965,3.901624,0.634248,-0.632582,0.215841
5994671689,-58.519440,10.326685,3.095597,0.713302,-0.649752,0.302006
5994691689,-65.089531,26.878593,-2.876905,0.735926,-0.624892,0.300392
5994731689,-51.671074,46.350471,1.426743,0.670639,-0.950271,0.214703
5994751690,-28.942772,34.365593,15.390427,0.588184,-0.941596,0.273122
5994771690,-6.922465,36.817562,5.126013,0.669792,-0.795796,0.265957
5994791690,25.820339,42.187000,8.804970,0.660015,-1.075876,0.226286
5994811692,37.492783,30.996483,24.563398,0.761708,-1.149257,0.159660
5994831692,65.849213,44.628681,12.023155,0.714919,-0.764285,0.197058
5994851692,82.011711,45.597157,-14.044792,0.609696,-0.485366,0.277457
5994871693,70.965256,36.141483,-35.457588,0.584602,-0.360040,0.352174
5994891693,47.318943,38.304295,-55.087257,0.603605,-0.305789,0.423411
5994911693,13.614104,37.867462,-75.768677,0.605174,-0.266606,0.451284
5994931693,-17.538881,28.778290,-99.371101,0.650687,-0.239820,0.402165
5994951692,-39.100449,26.578510,-119.613663,0.713163,-0.228977,0.388489
