Timestamp (us),Gyroscope X (deg/s),Gyroscope Y (deg/s),Gyroscope Z (deg/s),Accelerometer X (g),Accelerometer Y (g),Accelerometer Z (g)
7281043957,-4.108363,-8.127601,-4.710411,0.864311,-0.471395,0.005956
7281064009,-5.135651,-12.502787,-5.217923,0.856865,-0.432804,0.043810
7281084061,-9.632808,-14.462736,-1.980959,0.886672,-0.441120,0.048571
7281104113,-12.366364,-13.379774,-0.778679,0.935120,-0.479218,0.045447
7281124165,-7.901808,-12.404675,-1.261077,0.876390,-0.458098,0.038243
7281144217,-2.704243,-13.113769,-2.313929,0.883145,-0.432987,0.039636
7281164269,-4.226471,-12.452963,-0.693776,0.850905,-0.416857,0.041674
7281184321,-5.241971,-12.151947,-0.065404,0.873993,-0.454020,0.025091
7281204375,-4.079413,-9.117566,0.764997,0.896926,-0.452815,-0.015113
7281224427,-6.468744,-4.441152,3.212881,0.910779,-0.448627,-0.016608
7281244479,-7.711923,-1.121429,3.633878,0.908781,-0.450957,-0.001236
7281264531,-7.197882,-0.374479,3.570492,0.949933,-0.479230,-0.008797
7281284583,-4.355050,0.553600,3.331351,0.906819,-0.461710,-0.003216
7281304635,-4.507293,0.249079,0.960240,0.929716,-0.472612,-0.000292
7281324687,-3.100089,2.393956,0.141408,0.912333,-0.464561,0.006308
7281344739,-3.470029,3.692578,-0.605675,0.910540,-0.447601,0.023640
7281364791,-4.511671,4.327877,-2.305186,0.888801,-0.449171,0.031593
7281384843,-4.317430,5.402968,-2.968328,0.910322,-0.433221,0.038195
7281404895,-6.590940,6.124723,-5.327075,0.910710,-0.425570,0.045835
7281424947,-7.434944,6.237019,-5.903167,0.895135,-0.439893,0.050525
7281445000,-7.758479,4.459818,-6.882195,0.885587,-0.452100,0.036966
7281465052,-6.847506,3.328238,-6.689140,0.884198,-0.486243,0.057619
7281485104,-4.116088,4.751294,-8.968687,0.905602,-0.501444,0.084303
7281505156,-0.799379,4.766719,-11.152641,0.915828,-0.475528,0.084257
7281525207,-1.261177,4.150130,-10.938145,0.881912,-0.431393,0.062512
7281545259,-3.265681,1.590161,-7.919775,0.853410,-0.417691,0.065695
7281565310,-6.339724,-0.419826,-4.463347,0.853750,-0.428225,0.059640
7281585362,-4.276443,-3.669418,-4.248240,0.847372,-0.433287,0.030479
7281605415,0.061263,-5.588213,-6.024202,0.871507,-0.456080,0.014827
7281625467,4.948524,-6.101189,-8.153832,0.879375,-0.440432,0.002251
7281645519,7.994154,-7.887019,-7.982008,0.892395,-0.449554,-0.021454
7281665571,11.569634,-5.455441,-8.923851,0.913568,-0.461342,-0.003899
7281685623,12.551944,-2.863128,-8.182811,0.944205,-0.462963,0.011514
7281705675,16.336985,-1.744913,-8.142515,0.931600,-0.466399,0.001831
7281725727,16.412556,0.367765,-9.074455,0.908897,-0.433707,0.017015
7281745779,17.001291,2.599597,-8.506351,0.894032,-0.422231,0.027683
7281765831,16.354612,4.090525,-8.571893,0.885329,-0.409966,0.028933
7281785884,16.487682,3.924953,-9.677897,0.877066,-0.411058,0.023707
7281805935,18.769896,2.987030,-10.289360,0.864529,-0.386072,0.019330
7281825987,17.964437,2.693429,-10.265328,0.888928,-0.364065,0.029700
7281846040,16.114061,2.233196,-9.103515,0.928420,-0.368352,0.028848
7281866091,14.105606,1.737621,-8.562998,0.937193,-0.372626,0.027233
7281886144,12.222890,3.160174,-7.362187,0.941693,-0.363582,0.017163
7281906196,9.112708,5.910489,-5.021098,0.954118,-0.347302,0.035603
7281926248,6.938556,6.080547,-3.497552,0.958421,-0.369026,0.027887
7281946300,7.121157,5.601985,-2.533439,0.974188,-0.383236,0.035707
7281966352,8.785246,7.648219,-2.412231,0.946746,-0.382792,0.020056
7281986404,7.629685,11.465042,-1.507924,0.936926,-0.379059,0.060478
7282006457,6.085692,9.431224,-0.992585,0.929043,-0.364487,0.044985
7282026509,3.784815,5.248652,-0.939472,0.947244,-0.403332,0.038656
7282046562,9.210675,6.903092,-0.636336,0.941850,-0.460181,0.054181
7282066614,11.201081,12.316745,2.216737,0.958078,-0.475237,0.123815
7282086666,14.938672,20.427223,7.136540,0.997863,-0.465520,0.174789
7282106718,19.335854,30.269655,6.752453,0.894432,-0.398582,0.227539
7282126770,22.451948,22.690805,5.572423,0.757278,-0.409390,0.146714
7282146822,23.410097,2.727758,0.305291,0.789382,-0.257699,0.068752
7282166874,17.403673,-0.661303,1.213390,0.915581,-0.302366,0.070891
7282186926,12.519506,5.580348,2.853384,0.950002,-0.363140,0.123642
7282206978,10.121514,7.612387,4.923856,0.909815,-0.371569,0.124909
7282227030,8.669336,-0.686723,2.618643,0.875406,-0.313449,0.102725
7282247082,0.747705,-10.585161,0.199942,0.927235,-0.338377,0.060393
7282267134,-0.365453,-14.292169,2.191214,0.958651,-0.433786,0.067627
7282287186,3.520760,-13.715073,5.386185,0.954085,-0.413932,0.058913
7282307238,0.037832,-8.883302,9.516444,0.940368,-0.338374,0.090569
7282327289,-8.012650,-5.988405,14.609926,0.875475,-0.342743,0.074436
7282347341,-11.776438,-14.113688,16.958403,0.877629,-0.355624,0.024432
7282367393,-10.388612,-14.493179,16.739435,0.856115,-0.376964,0.034979
7282387445,-10.696316,-17.051676,17.043938,0.893918,-0.448699,0.044802
7282407497,-16.266727,-14.714418,17.841206,0.890949,-0.450874,0.039262
7282427549,-25.957687,-9.814362,17.592764,0.888255,-0.536891,0.028605
7282447602,-24.666094,-4.326017,13.791502,0.922766,-0.559583,0.031203
7282467653,-27.158005,4.385637,9.798560,0.980176,-0.453973,0.075921
7282487706,-33.996330,9.443583,9.957843,0.953279,-0.367018,0.048549
7282507758,-39.145199,8.214739,10.638407,0.878105,-0.392105,0.008226
7282527810,-35.159153,3.260525,9.426291,0.805792,-0.466583,0.001941
7282547862,-21.039907,2.817743,7.649397,0.868480,-0.537636,0.043106
7282567914,-12.540819,6.787709,7.185583,0.891343,-0.529444,0.104520
7282587966,-4.922022,6.257658,5.532529,0.863236,-0.501819,0.064467
7282608018,2.791181,3.351335,1.378995,0.823922,-0.444294,0.039529
7282628070,-5.956306,1.588789,-0.574818,0.843126,-0.373808,0.009766
7282648121,-9.478599,-0.624736,-0.020273,0.861836,-0.411736,-0.021563
7282668174,-11.167576,-1.380178,1.112186,0.915986,-0.472947,-0.021743
7282688226,-6.748570,2.608669,0.649736,0.971259,-0.521298,0.013381
7282708278,-1.857883,5.352746,-0.255749,0.962853,-0.510496,0.026738
7282728330,2.107555,5.649221,-0.690160,0.900500,-0.509147,0.009830
7282748382,6.004530,6.440091,-2.103936,0.877267,-0.505184,0.036522
7282768434,5.250738,6.818201,-2.756765,0.874535,-0.453154,0.041171
7282788486,1.948676,9.627552,-2.878974,0.889387,-0.415573,0.023755
7282808539,3.257993,12.222723,-2.024374,0.873412,-0.421370,0.014712
7282828592,0.471270,10.478198,-1.297386,0.861400,-0.407840,0.035192
7282848643,-2.997512,9.640394,-0.542967,0.890308,-0.433678,0.015519
7282868696,-5.245687,10.037329,-0.278284,0.894480,-0.460409,0.032672
7282888748,-7.101484,8.570738,-0.977424,0.883555,-0.479094,0.023813
7282908800,-12.372458,4.702495,-0.969828,0.888473,-0.450395,0.041420
7282928852,-11.393462,0.318229,-0.189589,0.925367,-0.448521,0.014122
7282948904,-10.965368,-1.336868,-0.646352,0.935910,-0.438406,0.014625
7282968956,-15.226254,-2.714675,-1.625376,0.906911,-0.459829,0.026846
7282989008,-22.890125,-9.662053,-3.448019,0.866514,-0.491906,0.013571
7283009060,-20.971743,-16.762243,-4.530753,0.898104,-0.500469,-0.005646
7283029112,-19.476749,-17.742449,-3.815476,0.896582,-0.474737,-0.023223
7283049164,-16.382103,-20.121063,-3.793206,0.894025,-0.488435,-0.046894
7283069216,-21.094028,-20.912125,-5.160621,0.856126,-0.443855,-0.011234
7283089268,-24.373466,-25.911663,-4.831508,0.866340,-0.462762,-0.064565
7283109320,-16.110392,-23.630432,-1.992574,0.867223,-0.480351,-0.113160
7283129375,-7.588614,-24.241631,0.583393,0.860985,-0.469483,-0.127417
7283149423,-4.213794,-16.450890,2.146947,0.890065,-0.447505,-0.107017
7283169475,2.882590,-6.981103,3.665518,0.914044,-0.472202,-0.032944
7283189527,-0.916953,2.887704,2.723367,0.897338,-0.428646,0.042413
7283209580,-5.367962,2.584209,2.551655,0.925332,-0.448074,0.020024
7283229631,6.003704,12.151892,1.931125,0.944453,-0.452396,0.026208
7283249684,9.270457,19.454571,2.063975,0.916214,-0.432210,0.121112
7283269736,9.549430,24.753052,1.689409,0.941669,-0.441856,0.122495
7283289788,4.239694,33.348568,1.441860,0.911615,-0.439582,0.178422
7283309840,3.870780,27.412571,-0.455033,0.867709,-0.438336,0.093937
7283329892,3.823443,24.855862,-3.727895,0.847415,-0.421247,0.110409
7283349944,2.416818,24.445469,-3.544093,0.860943,-0.439477,0.097810
7283369996,7.407908,25.814304,-2.337924,0.895200,-0.476056,0.088661
7283390048,13.230623,27.776249,-3.036409,0.959152,-0.500626,0.139931
7283410100,15.467974,27.957024,-3.174237,0.982094,-0.505244,0.163050
7283430152,20.897194,23.252146,-3.667716,0.953476,-0.525510,0.109641
7283450204,32.106865,29.326160,-5.549415,0.920729,-0.544170,0.137799
7283470256,27.132303,23.668957,-7.817025,0.841319,-0.510591,0.121852
7283490308,33.312244,21.900249,-6.979409,0.889259,-0.499963,0.165421
7283510360,36.563934,9.638752,1.504663,0.950017,-0.521149,0.091026
7283530412,48.602768,7.444915,1.091164,1.049990,-0.525626,0.099330
7283550465,39.976845,13.425431,4.916108,1.045856,-0.415942,0.267531
7283570517,35.624882,11.108995,5.660773,0.786765,-0.363826,0.132581
7283590568,35.763748,17.779316,-2.107955,0.596043,-0.249767,0.247513
7283610621,22.646463,19.105326,-0.955930,0.685211,-0.131443,0.389101
7283630674,16.394104,11.524803,6.060179,0.776046,-0.239487,0.297294
7283650726,6.588594,-1.814554,2.896100,0.767342,-0.383228,0.080955
7283670778,0.266085,-4.708113,-1.532985,0.711887,-0.414770,0.101285
7283690830,-3.184744,-5.938504,-4.043751,0.731296,-0.392087,0.153600
7283710882,-5.261380,-5.715396,-5.029057,0.833796,-0.398250,0.151581
7283730934,-9.836669,-3.254252,-3.679302,0.952343,-0.419681,0.172391
7283750986,-10.574553,-2.934120,-1.520144,1.020176,-0.432952,0.193475
7283771038,-9.013636,-2.509162,0.433216,1.014496,-0.478677,0.205415
7283791090,-7.864909,-1.945165,-0.402815,0.970397,-0.512934,0.218314
7283811145,-4.793091,0.426281,-0.730378,0.962439,-0.480088,0.190884
7283831195,2.457590,2.880976,1.774839,0.921035,-0.470025,0.157392
7283851247,3.651122,4.032313,0.133399,0.856959,-0.433723,0.183601
7283871299,-0.424586,3.560604,-0.613866,0.830155,-0.425286,0.148505
7283891351,-2.005466,5.801462,0.023178,0.829174,-0.414668,0.186183
7283911403,-3.698531,7.466791,1.003296,0.855570,-0.416494,0.194208
7283931455,-2.561430,8.632945,0.559300,0.885822,-0.448896,0.166350
7283951506,1.131183,6.270343,-1.101222,0.876890,-0.490190,0.170945
7283971557,1.277017,0.104681,-1.436238,0.885053,-0.472646,0.138354
7283991609,3.009606,0.527969,-1.119987,0.924694,-0.453048,0.162311
7284011662,1.876647,0.217718,-0.989679,0.941835,-0.436777,0.153792
7284031714,2.209893,0.253964,-0.406341,0.921248,-0.440649,0.153055
7284051766,3.232314,-0.337789,-0.200028,0.894460,-0.429839,0.176188
7284071818,2.706756,-1.648802,-0.483327,0.885251,-0.414467,0.153315
7284091870,2.962123,-0.596375,-1.191886,0.897664,-0.394229,0.156168
7284111922,1.291670,2.194522,-2.315025,0.895720,-0.396145,0.162265
7284131974,-0.257577,4.455190,-2.178272,0.879698,-0.397951,0.159173
7284152026,-1.988828,5.783119,-0.492134,0.866011,-0.403816,0.164143
7284172078,-2.603547,6.295669,0.756843,0.862719,-0.427023,0.161934
7284192130,-2.151679,7.427794,0.442046,0.878909,-0.430017,0.185259
7284212182,-2.829338,9.294781,-0.147729,0.918584,-0.435528,0.200509
7284232234,-3.485825,10.194989,-1.173761,0.950595,-0.432240,0.196790
7284252286,-3.884486,11.166745,-1.957602,0.944452,-0.423545,0.183013
7284272338,-5.191770,11.116014,-2.623918,0.907854,-0.395111,0.175609
7284292391,-6.534344,11.466829,-2.185077,0.890933,-0.390142,0.182611
7284312443,-7.681971,11.916124,-0.784117,0.876133,-0.412601,0.183675
7284332495,-8.304385,11.180386,-0.038625,0.865409,-0.429397,0.186247
7284352547,-6.390374,8.608592,0.666830,0.848326,-0.447701,0.185883
7284372599,-3.954085,6.849771,0.937301,0.845639,-0.454589,0.181127
7284392651,-1.712994,6.144037,1.067791,0.849822,-0.450726,0.196562
7284412703,0.309074,5.155214,1.078069,0.855971,-0.430886,0.210736
7284432757,0.608016,3.356187,0.803742,0.869388,-0.419706,0.202613
7284452808,-0.278972,1.418284,0.204414,0.880146,-0.430420,0.207812
7284472860,-0.106083,0.431260,0.010702,0.880145,-0.441373,0.197942
7284492913,0.507471,-0.378422,-0.206513,0.881221,-0.425501,0.208581
7284512965,-0.283252,-0.558244,-0.213195,0.888822,-0.420746,0.215941
7284533016,-0.349790,-1.058425,-0.006817,0.893500,-0.427209,0.214322
7284553068,-0.233154,-1.543620,-0.020344,0.877836,-0.431384,0.197900
7284573120,-0.770856,-1.801261,-0.587689,0.864465,-0.414394,0.199972
7284593173,-1.247285,-2.126923,-1.169980,0.860108,-0.421898,0.216024
7284613224,-1.663513,-2.465499,-1.456668,0.869944,-0.434432,0.208422
7284633277,-0.551465,-2.670026,-1.335089,0.880828,-0.445989,0.192638
7284653329,-0.467013,-2.791227,-1.380175,0.885321,-0.442345,0.186265
7284673381,0.017369,-2.436349,-0.987462,0.881635,-0.439010,0.191381
7284693433,1.799584,-2.989790,-0.311651,0.872047,-0.440256,0.194690
7284713485,2.935404,-3.143953,-0.652571,0.881664,-0.422801,0.193920
7284733537,2.338493,-2.517609,-0.631783,0.889904,-0.421876,0.187424
7284753597,2.251578,-1.820474,-0.747840,0.882560,-0.425197,0.197771
7284773640,2.128053,-1.457078,-0.779364,0.881941,-0.426237,0.195053
7284793691,1.845739,-1.232282,-0.954356,0.881253,-0.416465,0.198661
7284813744,1.150119,-0.772156,-0.705592,0.885813,-0.410507,0.195261
7284833796,0.406627,0.000497,-0.207783,0.884032,-0.412687,0.189185
7284853848,-0.058799,0.135161,-0.041347,0.882953,-0.415523,0.188028
7284873900,-0.780374,-0.173266,-0.047611,0.880500,-0.417532,0.187671
7284893952,-1.366526,-0.056978,-0.260017,0.876616,-0.427191,0.186301
7284914004,-0.817559,-0.145642,-0.441799,0.870235,-0.427205,0.186256
7284974160,-1.210353,0.582937,-0.072803,0.889755,-0.407844,0.190260
7284994212,-0.983407,0.362874,0.905561,0.889967,-0.416576,0.189545
7285014264,-1.289977,0.388500,1.671055,0.891729,-0.424312,0.188374
7285034316,-0.932894,0.602437,1.518614,0.887139,-0.423523,0.193422
7285054368,-1.322314,0.872851,1.464766,0.882216,-0.424618,0.193854
7285074420,-1.367289,0.803368,1.328600,0.875019,-0.425006,0.193262
7285094473,-1.494135,0.278865,1.353188,0.873443,-0.424856,0.197612
7285114525,-1.910894,0.039071,1.081318,0.878556,-0.428021,0.197867
7285134577,-1.917099,-0.114387,0.831743,0.879781,-0.433797,0.194034
7285154629,-0.998769,-0.855339,0.364080,0.880937,-0.434808,0.199416
7285174681,-0.297317,-0.868629,-0.060542,0.881605,-0.435419,0.194702
7285194733,0.267863,-1.222076,-0.112575,0.879119,-0.434374,0.198308
7285214785,1.152020,-1.496704,-0.036148,0.880118,-0.430932,0.197366
7285234837,1.570381,-1.418294,-0.074460,0.881106,-0.424221,0.196387
7285254890,1.446257,-1.000944,0.022672,0.882172,-0.428158,0.187715
7285274942,1.583063,-0.842069,-0.205292,0.879622,-0.429073,0.187616
7285294994,1.415443,-0.775273,-0.273674,0.880604,-0.427487,0.190422
7285315047,1.216123,-0.383160,-0.487166,0.880390,-0.428493,0.196340
7285335098,1.627268,-0.395752,-0.502425,0.877596,-0.429388,0.191332
7285355151,1.642997,-0.426881,-0.638744,0.879096,-0.423802,0.181462
7285375203,1.080155,-0.394092,-0.873608,0.887127,-0.423353,0.179787
7285395255,0.948276,0.001057,-0.677870,0.895178,-0.425530,0.191594
7285415307,1.938418,-0.113984,-0.685400,0.892620,-0.431297,0.195369
7285435359,2.632638,-0.390720,-0.745321,0.890859,-0.428563,0.183419
7285455411,0.669417,1.090931,-0.916476,0.895894,-0.418589,0.174887
7285475463,-0.263047,1.671647,-0.561939,0.887876,-0.412574,0.171034
7285495515,-0.148484,1.446475,-0.273203,0.879244,-0.421193,0.185977
7285515567,3.565863,-0.167297,0.003899,0.878447,-0.433480,0.203746
7285535619,1.308870,0.877455,-0.521858,0.874379,-0.428212,0.210654
7285555671,1.618210,0.237650,-1.171552,0.869669,-0.414635,0.214190
7285575723,0.934810,0.019177,-1.397929,0.868677,-0.408797,0.209571
7285595774,0.908830,-0.779309,-1.584642,0.884080,-0.420212,0.215901
7285615826,1.512951,-2.368104,-2.541907,0.882666,-0.439268,0.217748
7285635878,2.439863,-4.209830,-4.210835,0.873859,-0.429051,0.222021
7285675982,1.111351,-9.299824,-4.594515,0.887501,-0.427448,0.211283
7285696034,-2.130124,-10.579628,-5.536340,0.908811,-0.421018,0.180914
7285716086,-4.825634,-9.807438,-6.690058,0.903932,-0.385089,0.139838
7285736138,-7.246576,-6.702885,-6.662014,0.874185,-0.387393,0.161284
7285756190,-7.080891,-6.697475,-5.979984,0.911985,-0.429452,0.187941
7285776242,-6.146739,-7.117318,-7.305182,0.918429,-0.444243,0.169072
7285796294,-5.655443,-6.213258,-7.710154,0.905654,-0.412949,0.186615
7285816346,-6.335155,-7.093135,-8.085832,0.904936,-0.396417,0.160880
7285876502,-4.431337,-5.182351,-3.234971,0.906607,-0.382874,0.180184
7285896555,-2.613861,-5.256283,-2.401667,0.908732,-0.409088,0.157327
7285916607,-1.211119,-5.207478,-3.334539,0.881938,-0.403805,0.168800
7285936659,-1.352217,-7.500335,-3.212904,0.870150,-0.391998,0.183121
7285956711,-0.622912,-9.816525,-4.076758,0.878274,-0.402369,0.155397
7285976763,-0.233226,-9.555147,-5.161586,0.892353,-0.436664,0.150259
7285996815,-1.140966,-9.083869,-5.329629,0.879639,-0.437441,0.142271
7286036919,4.786812,-13.000182,-2.900523,0.845649,-0.440398,0.156788
7286056971,10.291915,-16.088083,-3.482968,0.858029,-0.451282,0.149822
7286077023,15.036404,-17.288931,-4.996283,0.888183,-0.406467,0.146790
7286097077,16.956312,-17.490677,-5.269103,0.920973,-0.346152,0.121604
7286117129,16.282640,-18.239199,-5.289024,0.950477,-0.314393,0.126989
7286137181,13.083073,-15.681712,-3.333767,0.954455,-0.298283,0.109200
7286157233,9.480062,-13.524261,-0.596357,0.969302,-0.315734,0.151132
7286177285,6.922628,-14.373595,0.991467,1.009626,-0.371869,0.158702
7286197337,2.412425,-12.507195,1.865774,1.011720,-0.395895,0.155541
7286217389,-0.699229,-12.718718,1.647803,0.959029,-0.394779,0.107986
7286237441,-0.724091,-12.323974,1.669188,0.892962,-0.368568,0.121301
7286257493,-1.090645,-12.188471,1.865903,0.844050,-0.359696,0.062777
7286277545,-0.551993,-11.528186,1.279859,0.819469,-0.338977,0.124346
7286297597,-2.494007,-11.035897,0.702842,0.856562,-0.359413,0.074313
7286317650,-1.865174,-7.920296,1.722624,0.928033,-0.365346,0.093338
7286337702,-0.851705,-5.989442,3.473934,0.987700,-0.405962,0.090233
7286357754,0.853799,-5.151002,4.637607,0.973550,-0.428486,0.073852
7286377806,3.799303,-6.319688,4.064602,0.896623,-0.441002,0.061727
7286397858,9.249692,-8.227082,1.742526,0.837017,-0.434032,0.024416
7286417929,12.564935,-8.440563,0.574942,0.869062,-0.412434,0.036844
7286437960,14.539767,-10.404349,0.126280,0.928997,-0.386518,0.048239
7286458012,15.351590,-10.868666,-0.903143,0.945366,-0.376640,0.050331
7286478065,13.469653,-10.231504,-1.442786,0.909829,-0.358409,0.053685
7286498116,14.781984,-7.565100,1.063781,0.872358,-0.340441,0.045123
7286518169,17.819229,-4.317813,3.605637,0.883805,-0.384822,0.027541
7286538220,19.928066,-1.223197,3.382024,0.918135,-0.447328,0.111940
7286558273,14.631708,-1.156148,2.656067,0.948469,-0.447822,0.085258
7286578325,14.973335,0.486682,2.779129,0.955911,-0.344802,0.070577
7286598377,12.972389,-0.601031,4.511580,0.954977,-0.336592,0.085835
7286618429,4.261398,4.786526,1.115851,0.972420,-0.358471,0.122657
7286638481,-1.011489,4.436136,-2.011205,0.990768,-0.317208,0.082502
7286658533,-6.690954,5.905272,-1.521647,0.958080,-0.266197,0.096857
7286678585,-14.148780,7.389598,0.802590,0.942276,-0.275885,0.076045
7286698637,-19.896936,10.512139,1.112159,0.957053,-0.281478,0.108569
7286718689,-26.671360,12.346341,0.441262,0.967323,-0.294048,0.104698
7286738741,-31.621861,12.891041,0.456277,0.966550,-0.310083,0.088973
7286758793,-34.872002,15.501576,1.251789,0.937144,-0.326802,0.106135
7286778845,-42.527828,17.101261,0.422851,0.979480,-0.319051,0.127158
7286798897,-51.872524,20.183571,-0.706184,1.004229,-0.342778,0.007368
7286818949,-52.247078,27.623501,-2.709798,0.949849,-0.347051,0.079467
7286839001,-61.500111,28.572271,-2.778038,0.892413,-0.370900,0.091605
7286859053,-65.111328,29.149122,-2.665077,0.895187,-0.379712,0.135987
7286879105,-67.703316,27.455015,-3.764859,0.911803,-0.392492,0.122802
7286899158,-68.906364,28.513041,-5.677981,0.894965,-0.389695,0.085661
7286919211,-74.054367,32.384773,-6.364047,0.851246,-0.390880,0.079366
7286939263,-83.525642,35.537949,-5.765280,0.857744,-0.367330,0.047693
7286959315,-88.022583,34.942314,-5.269020,0.895562,-0.354373,0.090527
7286979367,-96.677460,34.234314,-3.838706,0.935252,-0.359328,0.087322
7286999419,-106.626961,37.058697,-3.117375,0.948388,-0.341432,0.014863
7287019471,-113.375282,39.766102,-3.791289,0.969481,-0.334661,0.021297
7287039523,-122.588661,38.229313,-5.578980,0.962688,-0.303479,-0.001925
7287059575,-126.924820,35.668022,-7.546745,0.948845,-0.317953,-0.059203
7287079627,-127.495064,37.541145,-8.477633,0.929613,-0.359916,-0.023409
7287099680,-129.923584,40.413094,-8.009204,0.935787,-0.354648,-0.037241
7287119732,-129.466949,41.177258,-6.496206,0.961902,-0.388677,0.019141
7287139784,-131.474213,38.294331,-7.713359,0.973570,-0.419940,0.003954
7287159836,-127.029739,39.877533,-10.448795,0.950810,-0.432659,-0.088308
7287179888,-120.991112,45.125866,-12.697209,0.896356,-0.403735,-0.020138
7287199940,-123.194458,45.337681,-11.742219,0.887030,-0.388793,-0.054096
7287219992,-125.988655,46.918175,-8.639313,0.918266,-0.374367,-0.117842
7287240053,-127.268150,49.056019,-6.599914,0.927647,-0.379297,-0.082637
7287260095,-128.985504,52.520634,-5.588091,0.945591,-0.401905,-0.084339
7287280147,-129.558731,56.695423,-3.904590,0.979343,-0.434527,-0.102626
7287300199,-123.428520,59.941498,-2.349078,0.970501,-0.463751,-0.041548
7287320251,-117.002167,59.445942,-2.122252,0.914365,-0.455847,-0.064850
7287340303,-117.541939,61.266697,-2.962022,0.892347,-0.433486,-0.099074
7287360355,-112.265083,60.527851,-5.197116,0.871313,-0.419322,-0.032587
7287380407,-110.576630,60.043648,-6.673935,0.853992,-0.430882,0.019683
7287400459,-116.443451,59.580990,-6.541445,0.881867,-0.347963,0.013104
7287420511,-122.519989,60.188206,-3.888774,0.892509,-0.305079,0.011411
7287440563,-131.291275,58.506470,-2.652117,0.901062,-0.324136,-0.007485
7287460615,-135.339401,58.296902,-2.793978,0.944446,-0.392078,0.012695
7287480667,-137.888290,55.173416,-3.077901,0.967494,-0.479021,-0.003221
7287500719,-133.894165,53.464931,-4.854468,0.944936,-0.510445,-0.011652
7287520771,-132.448013,49.691662,-6.372921,0.909880,-0.467732,-0.024664
7287540823,-127.738625,44.659153,-7.509231,0.850427,-0.481893,-0.046552
7287560875,-118.865868,41.525223,-9.244699,0.786000,-0.535132,-0.055572
7287580928,-109.726654,38.752853,-11.701508,0.782753,-0.530196,-0.001849
7287600979,-103.985756,34.118484,-12.172601,0.798976,-0.485132,-0.023522
7287621032,-100.957031,34.200024,-12.014784,0.857680,-0.425381,0.009830
7287641084,-103.813797,34.078300,-7.913148,0.933503,-0.353403,0.025076
7287661136,-102.938995,32.742966,-5.097060,0.978762,-0.304287,0.009105
7287681188,-101.220573,33.291080,-5.433025,0.962497,-0.338810,-0.013786
7287701240,-100.105385,32.100433,-7.581737,0.934779,-0.386174,-0.005073
7287721292,-98.521751,28.049480,-8.735492,0.938978,-0.401321,-0.029498
7287741345,-92.847939,22.282755,-10.521399,0.907780,-0.422970,-0.077547
7287761398,-85.076172,19.678564,-11.386726,0.901662,-0.452101,-0.061439
7287781450,-77.394714,18.315784,-9.141350,0.878052,-0.466229,-0.054626
7287801502,-72.452103,15.345868,-7.298738,0.844499,-0.444512,-0.049208
7287821554,-65.542671,12.827537,-4.511002,0.854409,-0.451051,-0.056969
7287841606,-66.470932,14.586143,0.811270,0.937930,-0.411797,-0.063193
7287861658,-70.192451,20.202337,10.365443,0.968709,-0.335556,-0.079853
7287881710,-74.710358,24.048046,19.289364,0.975920,-0.319194,-0.073993
7287901762,-81.609978,26.275768,22.141371,0.987125,-0.291543,-0.086321
7287921815,-86.083565,29.521866,23.859755,0.935247,-0.233856,-0.129891
7287941866,-88.367676,32.207809,24.775932,0.891368,-0.281606,-0.101111
7287961918,-92.409126,31.235989,20.551638,0.978626,-0.407827,-0.071403
7287981970,-100.727066,30.885214,20.502705,0.993913,-0.335576,-0.040412
7288022075,-96.493385,31.583551,24.500505,0.885566,-0.455506,-0.113136
7288042127,-95.150078,33.045769,20.250780,0.841267,-0.431929,-0.032836
7288062177,-103.514374,32.295357,18.285765,0.831536,-0.396414,-0.070306
7288082229,-106.078217,30.951994,17.396976,0.849008,-0.374725,-0.106787
7288102281,-103.985252,29.117897,18.122564,0.867571,-0.407928,-0.099727
7288122334,-107.674911,30.727312,17.133047,0.905330,-0.461503,-0.122560
7288142385,-112.694031,35.414642,18.028128,0.886065,-0.461592,-0.164230
7288162437,-115.155746,38.686626,21.754139,0.861852,-0.397574,-0.124608
7288182490,-122.492470,40.611923,26.449028,0.924333,-0.371845,-0.158635
7288202542,-131.957718,51.458618,27.529076,1.062886,-0.362184,-0.222656
7288222594,-137.307465,66.931107,23.551729,1.092581,-0.351260,-0.270469
7288242646,-139.220734,79.065475,18.781317,0.995539,-0.391375,-0.258786
7288262698,-145.139008,77.248535,14.909227,0.890482,-0.482509,-0.191858
7288282750,-143.547546,75.334404,9.519047,0.879872,-0.544196,-0.279377
7288302802,-134.065491,76.725182,4.766507,0.892589,-0.523745,-0.204090
7288322854,-132.251068,73.460800,4.102592,0.875375,-0.518510,-0.178279
7288342906,-129.413895,73.949097,3.955917,0.839980,-0.529604,-0.231024
7288362958,-125.755447,74.189766,4.613176,0.823461,-0.486758,-0.218368
7288383010,-124.515419,75.732903,4.849951,0.825984,-0.448492,-0.185711
7288403062,-126.239265,73.833496,4.000677,0.808921,-0.450206,-0.182177
7288423115,-128.172867,72.468018,3.763532,0.809229,-0.471348,-0.193109
7288443166,-127.939949,73.789314,2.379528,0.840973,-0.453421,-0.189637
7288463218,-132.684799,77.469330,2.171455,0.887012,-0.446416,-0.208841
7288483270,-134.556717,79.409134,1.127110,0.943709,-0.443013,-0.240288
7288503322,-137.937775,82.213928,-0.829163,0.980791,-0.407488,-0.207627
7288523374,-137.053238,80.056442,-3.163937,0.967329,-0.401443,-0.246873
7288543428,-139.077621,78.760368,-6.728450,0.916337,-0.428479,-0.165944
7288563480,-140.639725,71.368645,-9.491489,0.872179,-0.490048,-0.176087
7288583532,-134.051544,65.796585,-9.057753,0.821081,-0.592755,-0.132635
7288603584,-124.118042,56.937817,-9.599127,0.822451,-0.622399,-0.102654
7288623636,-116.597534,49.919407,-10.744736,0.854797,-0.564278,-0.128727
7288643688,-110.746162,45.009827,-9.236814,0.855751,-0.480800,-0.162132
7288663740,-105.452080,45.161869,-5.085921,0.887750,-0.384403,-0.148025
7288683792,-101.164383,48.801727,1.804465,0.925141,-0.405025,-0.108895
7288703844,-101.200974,53.315315,7.276090,0.907246,-0.427385,-0.062049
7288723896,-99.413048,54.236088,11.759035,0.897686,-0.407779,-0.042803
7288743949,-100.205414,55.312286,15.878555,0.897535,-0.392056,-0.087156
7288764001,-99.964043,57.924709,20.553267,0.877034,-0.391858,-0.089212
7288784053,-98.694267,55.795502,22.280581,0.889768,-0.411454,-0.121069
7288804105,-95.370529,56.588394,21.776474,0.900529,-0.503085,-0.106935
7288824157,-85.942902,53.887444,19.508791,0.840700,-0.537412,-0.039071
7288844209,-74.091492,44.498257,17.149624,0.823869,-0.575706,0.005241
7288864259,-64.255249,36.587109,14.103964,0.868973,-0.565628,0.004171
7288884312,-55.253487,33.694927,12.049300,0.858480,-0.559754,-0.028417
7288904363,-50.478615,35.748760,10.160970,0.877919,-0.534850,-0.075464
7288924416,-53.900513,45.780773,13.015183,0.944658,-0.429037,-0.113750
7288944468,-57.908241,52.730049,18.790543,0.923887,-0.342032,-0.112996
7288964520,-69.464279,56.902470,17.059788,0.903580,-0.339221,-0.180518
7288984572,-75.131760,59.992222,9.722274,0.887807,-0.456611,-0.152824
7289004624,-79.888290,58.673672,3.036264,0.849773,-0.506925,-0.062445
7289024676,-86.781204,54.864235,-2.768836,0.896518,-0.428405,-0.004401
7289044728,-94.010872,54.386089,-2.476656,0.945181,-0.383558,-0.008029
7289064780,-100.987732,56.342552,-1.616954,0.899199,-0.417600,-0.062764
7289084832,-105.345734,56.920475,-4.156370,0.855038,-0.418419,-0.056070
7289104884,-108.816986,56.385056,-5.994997,0.816965,-0.389018,-0.014419
7289124936,-116.426765,54.770885,-3.682767,0.817035,-0.342776,-0.033858
7289144988,-124.288094,56.499947,4.127933,0.843580,-0.278653,-0.084125
7289165040,-138.027557,61.794510,11.602510,0.910747,-0.284125,-0.108761
7289185092,-152.910049,68.584625,16.662224,0.964916,-0.368493,-0.178381
7289205144,-162.265533,75.944916,17.344978,0.997071,-0.437378,-0.248337
7289225196,-167.616196,85.357071,16.624735,1.017501,-0.505995,-0.246580
7289245249,-166.136993,88.506279,12.490416,0.979477,-0.595502,-0.216094
7289265301,-157.023834,85.187004,6.420337,0.874517,-0.712428,-0.199489
7289285352,-143.864487,76.570740,0.094253,0.753560,-0.772513,-0.157299
7289305404,-126.413010,66.451302,-5.871943,0.674633,-0.789747,-0.136756
7289345510,-99.009712,47.919102,-11.501897,0.697844,-0.642079,-0.048961
7289365562,-94.776840,44.465599,-10.960952,0.732330,-0.556734,-0.064882
7289385614,-95.581459,45.200901,-10.303835,0.789435,-0.525633,-0.039753
7289405666,-98.007835,47.505188,-9.568188,0.832767,-0.525194,-0.060354
7289425718,-97.980133,51.051350,-9.466732,0.861010,-0.547464,-0.046264
7289445770,-96.658478,51.003193,-11.240504,0.864010,-0.552075,-0.057913
7289465822,-95.729889,48.178890,-14.618893,0.852598,-0.547861,-0.072857
7289485874,-93.175339,43.898991,-16.962095,0.841317,-0.595383,-0.084202
7289505926,-89.394646,41.316372,-19.887575,0.843924,-0.612198,-0.085079
7289525978,-88.149239,40.758072,-20.621248,0.873200,-0.595846,-0.064158
7289546030,-85.975304,40.637131,-19.189171,0.854845,-0.577718,-0.083583
7289566082,-83.985092,38.755554,-19.857908,0.827338,-0.530319,-0.049336
7289586135,-87.032974,37.405045,-18.980610,0.839586,-0.496860,-0.055908
7289606187,-91.269569,38.629299,-16.694498,0.862915,-0.438261,-0.021430
7289626239,-94.310432,37.501354,-13.051647,0.904301,-0.469907,-0.036130
7289646291,-88.666718,36.764866,-12.899506,0.893713,-0.531310,-0.065395
7289666346,-83.406616,36.479622,-15.416579,0.880396,-0.523825,-0.099204
7289686393,-79.562180,36.263451,-15.159494,0.866127,-0.488209,-0.077814
7289706446,-78.569466,32.801414,-12.624122,0.863379,-0.445072,-0.065972
7289726498,-81.989792,29.860941,-5.897834,0.922503,-0.424556,-0.037980
7289746550,-85.539482,30.271339,0.225792,0.992384,-0.426634,-0.060727
7289766602,-91.239548,34.212849,3.927895,0.968140,-0.410912,-0.069533
7289786654,-91.803322,34.315399,3.920161,0.897248,-0.431732,-0.033986
7289806706,-98.340858,37.678406,5.851074,0.853705,-0.407020,-0.020948
7289826758,-100.276443,40.363026,7.396187,0.867322,-0.457992,-0.016808
7289846810,-93.958214,38.018597,5.893841,0.890092,-0.577160,-0.062527
7289866862,-93.842728,38.724651,6.975159,0.787838,-0.508510,-0.055776
7289886914,-90.626587,31.859093,18.805704,0.793712,-0.547722,-0.105086
7289906966,-81.663689,26.973885,20.949085,0.806035,-0.592377,-0.116569
7289927018,-69.837601,20.650265,13.592412,0.776498,-0.623838,-0.100964
7289947070,-52.316658,9.538996,9.175717,0.742106,-0.709705,-0.038685
7289967122,-29.459948,-3.340779,5.301353,0.844130,-0.785135,-0.049449
7289987174,-1.289679,-7.353959,-4.138063,0.805499,-0.703654,-0.031853
7290007226,9.190814,-7.684279,-11.962078,0.853080,-0.570603,0.027292
7290027278,5.274203,-4.336709,-7.985711,0.946438,-0.418021,0.028096
7290047330,-2.842721,2.219480,-4.890509,0.911459,-0.317499,0.004055
7290067383,-16.117678,7.734114,2.090515,0.892153,-0.340015,0.027354
7290087435,-15.198984,5.758492,6.849007,0.889708,-0.442391,0.029067
7290107487,-13.335338,6.876011,5.169554,0.926986,-0.517877,0.037112
7290127539,-9.086362,8.009597,2.367525,0.973323,-0.534850,0.056723
7290147593,-2.500721,7.928868,2.001707,0.948715,-0.473985,0.040757
7290167645,5.937163,5.713035,1.832072,0.891732,-0.475309,0.026736
7290187697,10.387359,2.910601,-0.532043,0.865873,-0.493846,0.030584
7290207749,20.356537,1.762455,-0.319367,0.877918,-0.500252,0.031834
7290227801,24.971531,1.963002,1.406329,0.900764,-0.483347,0.060702
7290247853,29.700939,1.140249,2.066877,0.917082,-0.457249,0.078874
7290267905,30.521833,0.289974,1.220676,0.918156,-0.427607,0.067542
7290287957,27.059011,2.699473,-0.734206,0.877657,-0.433431,0.105130
7290308009,17.861704,5.363527,-2.127115,0.830811,-0.391794,0.082140
7290328061,5.433594,9.694400,0.477054,0.939047,-0.286976,0.056974
7290348132,-2.470916,13.704329,2.876112,0.999434,-0.251266,0.079800
7290368165,-5.034603,15.704909,1.354325,0.987484,-0.306976,0.093357
7290388217,-4.826744,13.590028,-4.337836,0.926462,-0.374733,0.117066
7290408269,-6.006858,7.925764,-8.039173,0.863737,-0.390960,0.110174
7290428321,0.040477,0.825275,-7.440822,0.825907,-0.420254,0.062167
7290448373,6.392866,-4.055228,-5.455701,0.818030,-0.452702,0.068940
7290468426,16.025391,-10.416512,-3.322624,0.793244,-0.539404,0.032687
7290488476,24.699930,-15.065815,-1.990902,0.797636,-0.555773,0.069261
7290508528,27.808821,-17.989384,-0.526757,0.804170,-0.539950,0.082030
7290528580,30.656404,-20.125040,3.344873,0.830411,-0.533762,0.065876
7290548632,34.763374,-20.611427,8.604908,0.863013,-0.507032,0.042986
7290568684,39.291931,-21.837160,14.162922,0.909929,-0.495881,0.027648
7290588736,41.754097,-24.544554,18.059391,0.950792,-0.492339,-0.055444
7290608788,45.252529,-26.553974,17.223827,1.008783,-0.446756,-0.111000
7290628840,36.464752,-27.520336,17.556129,1.049292,-0.250984,-0.074171
7290648892,12.543199,-27.853844,17.163971,0.956864,-0.027712,-0.063596
7290668944,-13.212433,-22.640005,14.722178,1.034020,0.044582,-0.058251
7290688997,-33.761936,-7.343964,16.548666,1.007511,-0.144579,-0.060430
7290709048,-44.421619,7.321594,12.909440,0.958588,-0.411317,-0.026244
7290729101,-42.277840,12.486651,3.940143,0.921214,-0.551437,-0.034612
7290749153,-42.951233,17.166525,-0.820175,0.927979,-0.382879,-0.059872
7290769205,-51.346935,22.814037,2.930046,0.981948,-0.264677,-0.087487
7290789257,-63.028076,28.669270,8.105546,0.969155,-0.304638,-0.078026
7290809309,-73.768730,33.673214,7.364484,1.001906,-0.346432,-0.076674
7290829361,-83.385475,35.642967,4.662955,1.006961,-0.317340,-0.082610
7290849413,-94.638443,37.661324,1.734463,1.009784,-0.287684,-0.112380
7290869465,-108.792511,43.510017,-2.343056,1.000960,-0.259242,-0.129858
7290889517,-120.458710,49.958862,-4.134669,0.950656,-0.293436,-0.162719
7290909569,-128.662018,56.033855,-5.001574,0.901474,-0.374518,-0.176943
7290929621,-137.052261,61.072044,-5.159996,0.902694,-0.408288,-0.181543
7290949674,-146.776672,65.570663,-6.422620,0.893126,-0.371460,-0.216209
7290969726,-154.755325,72.241096,-7.003655,0.909551,-0.401309,-0.234924
7290989778,-165.547745,84.263481,-13.096890,0.944988,-0.378993,-0.319454
7291009831,-176.511749,95.582390,-16.216690,1.027132,-0.350855,-0.334102
7291029883,-183.893723,107.212929,-9.804490,1.008878,-0.378709,-0.347723
7291049935,-182.208496,110.916809,-9.287315,1.054330,-0.484044,-0.350635
7291069987,-171.883530,114.316406,-14.183495,1.059288,-0.580056,-0.324223
7291090039,-158.939224,111.615715,-16.444828,0.934348,-0.616515,-0.236438
7291110091,-148.606018,105.344421,-17.601574,0.831620,-0.573778,-0.167044
7291130143,-139.253403,98.868492,-18.893696,0.776963,-0.556933,-0.104916
7291150195,-132.479126,92.745804,-21.679184,0.786456,-0.523584,-0.061337
7291170247,-126.548264,88.263451,-22.317604,0.838652,-0.418423,-0.060185
7291190299,-122.486252,86.830452,-21.427353,0.877634,-0.320879,-0.055948
7291210351,-119.108879,86.126945,-22.115797,0.850616,-0.296360,-0.078145
7291230403,-119.033539,83.684921,-22.994144,0.840939,-0.300754,0.004088
7291250456,-124.604706,80.565269,-23.148182,0.875890,-0.371528,0.018060
7291270508,-127.478119,76.866882,-26.363068,0.876815,-0.413909,0.021375
7291290558,-127.820602,72.354607,-32.433300,0.873915,-0.433303,0.012490
7291330662,-124.624741,61.955528,-35.475639,0.931207,-0.397882,0.034662
7291350714,-126.610298,59.139107,-33.411343,1.007317,-0.349070,0.043635
7291370766,-131.377670,57.089226,-28.514185,1.021063,-0.334817,0.008758
7291390818,-131.789810,55.319443,-24.642673,0.961576,-0.349036,0.008410
7291410870,-130.622620,55.114319,-22.277744,0.907373,-0.353233,0.034704
7291430922,-128.456360,54.558495,-19.980162,0.926172,-0.324560,0.048320
7291450975,-126.173622,54.312805,-19.176746,0.937781,-0.278522,0.051050
7291471026,-124.409492,55.266068,-20.317492,0.928175,-0.248110,0.057174
7291491079,-122.302719,56.453789,-21.951796,0.937349,-0.244982,0.045751
7291511130,-123.458298,58.171204,-22.889523,0.955922,-0.224672,0.039922
7291531183,-126.653488,59.567059,-23.347952,0.966202,-0.211659,0.052568
7291551235,-132.803818,63.099995,-21.357124,1.007653,-0.218664,0.045491
7291571287,-134.778870,65.945305,-19.570024,1.022168,-0.302466,0.021843
7291591339,-129.739716,67.496078,-19.652924,0.960776,-0.377917,0.034823
7291611391,-125.044762,63.882427,-20.900221,0.962246,-0.416952,0.036921
7291631443,-121.624023,62.487381,-19.350506,0.986091,-0.411792,0.025579
7291651495,-115.276604,64.375069,-16.736914,0.949086,-0.422665,0.014173
7291671547,-107.712456,66.217407,-16.541279,0.896761,-0.452483,0.059407
7291691599,-100.975563,65.439049,-18.132534,0.867970,-0.487641,0.089602
7291711651,-96.064140,64.518066,-19.980349,0.909971,-0.451001,0.091293
7291731703,-92.663628,68.417725,-17.895605,0.951178,-0.405726,0.099696
7291751755,-91.407394,72.736557,-14.538291,0.960982,-0.394610,0.132355
7291771809,-92.010269,76.714218,-12.785890,0.880909,-0.453790,0.136017
7291791861,-88.593658,76.791565,-12.491772,0.874845,-0.494778,0.148899
7291811913,-87.095390,77.287903,-9.992951,0.894472,-0.462978,0.190659
7291831965,-81.757370,78.010780,-9.246995,0.930822,-0.510629,0.156478
7291852017,-77.702248,78.814362,-10.016657,0.951581,-0.488248,0.180995
7291872069,-75.723755,81.291901,-11.640205,0.888937,-0.432983,0.217901
7291892121,-79.212311,84.386856,-10.831121,0.879308,-0.401444,0.258548
7291912173,-83.576012,86.129608,-10.449072,0.838688,-0.378083,0.240085
7291932225,-88.842514,88.485199,-9.470080,0.827167,-0.396300,0.270570
7291952277,-91.205818,88.478745,-8.051966,0.843212,-0.470462,0.291991
7291972329,-91.804832,85.470215,-14.960978,0.773539,-0.471900,0.265521
7291992381,-90.481018,81.990326,-22.763355,0.763352,-0.536611,0.278376
7292012433,-85.130287,77.077179,-24.893145,0.737203,-0.587742,0.347764
7292032485,-76.152054,70.740509,-17.007494,0.753451,-0.616933,0.343400
7292052538,-64.331161,64.316383,-10.282120,0.670878,-0.706277,0.321945
7292072589,-49.934940,54.240273,-12.253284,0.649409,-0.689268,0.352133
7292092642,-39.938278,44.337917,-14.610035,0.661661,-0.657454,0.376845
7292112692,-31.526457,35.760071,-15.970370,0.690641,-0.614886,0.388464
7292132745,-29.276680,31.534981,-15.342704,0.760937,-0.543543,0.398225
7292152796,-32.974426,30.674686,-14.307708,0.753330,-0.502156,0.415505
7292172848,-36.136581,28.960133,-15.649746,0.748200,-0.537151,0.421600
7292192901,-38.752243,27.931438,-14.750969,0.753298,-0.555616,0.432119
7292212953,-40.899895,26.675371,-11.881042,0.770991,-0.543919,0.440562
7292233005,-42.102390,25.954723,-10.551821,0.767546,-0.554476,0.427027
7292253057,-43.848835,26.135447,-12.575413,0.756619,-0.545870,0.420579
7292273109,-44.752178,26.251051,-13.765391,0.734784,-0.524474,0.433445
7292293161,-45.740501,24.985733,-14.745951,0.746445,-0.481848,0.413495
7292313213,-45.014553,22.535233,-14.040497,0.728203,-0.521872,0.419372
7292333265,-40.279877,16.964411,-15.091591,0.701479,-0.562885,0.395391
7292353317,-39.561848,11.646683,-17.582153,0.713201,-0.533640,0.418403
7292373369,-43.936501,5.906868,-19.129686,0.782678,-0.454932,0.377541
7292393421,-52.353268,3.016842,-17.252357,0.892674,-0.388985,0.289308
7292413473,-60.717270,10.198498,-11.044274,0.921294,-0.438321,0.252820
7292433525,-68.148666,18.381411,-8.326285,0.929155,-0.452930,0.272130
7292453577,-68.526337,23.474197,-4.546644,0.858303,-0.544202,0.304948
7292473629,-55.005882,20.494406,-8.315432,0.676502,-0.810269,0.394079
7292493681,-29.802217,6.596685,-17.105852,0.509029,-0.940679,0.475197
7292513733,-3.121415,-11.806723,-23.228632,0.487200,-0.833295,0.490795
7292533785,14.362141,-27.370483,-22.211016,0.542725,-0.659095,0.465088
7292553838,22.770452,-38.710560,-19.795090,0.606044,-0.531667,0.439523
7292573889,26.003483,-47.664146,-16.407892,0.640663,-0.477816,0.432238
7292593943,28.313427,-57.586113,-10.341661,0.676078,-0.480419,0.441789
7292613995,29.383606,-66.644974,-3.368495,0.764870,-0.469754,0.436933
7292634047,32.340363,-72.992989,1.752982,0.803211,-0.438619,0.397038
7292654099,38.029381,-79.085632,-2.358548,0.745781,-0.459454,0.391146
7292674151,38.034031,-82.586975,-12.183971,0.817638,-0.310241,0.375569
7292694203,37.854630,-83.559647,-14.537613,0.827728,-0.288652,0.307681
7292714255,43.002850,-83.172707,-16.291489,0.803021,-0.411206,0.229219
7292734307,52.560570,-82.043083,-14.419147,0.831367,-0.539819,0.170106
7292754359,58.725090,-77.066727,-11.800974,0.882874,-0.570275,0.154374
7292774411,54.820995,-67.143852,-7.703269,0.958479,-0.395340,0.170881
7292794463,37.842743,-55.011410,2.750148,1.057961,-0.146805,0.152168
7292814516,19.577492,-42.154835,14.990153,1.092781,-0.066797,0.144219
7292834568,5.083393,-32.063396,19.477512,1.023040,-0.221143,0.143511
7292854620,2.119777,-26.272203,15.146168,0.935491,-0.444510,0.166833
7292874672,3.807997,-23.764027,13.863670,0.882825,-0.560426,0.188887
7292894724,11.202061,-23.123419,11.486660,0.902290,-0.583460,0.208104
7292914775,21.199301,-20.347414,7.956957,0.944457,-0.477986,0.162558
7292934827,32.132706,-14.449712,7.288595,0.970666,-0.353654,0.155034
7292954879,38.218620,-8.245429,8.485297,1.000561,-0.338905,0.133354
7292974931,49.351158,0.889890,6.972024,0.987355,-0.386856,0.124091
7292994983,59.192703,8.562123,7.124035,0.899935,-0.384937,0.215060
7293015035,54.720337,9.870783,6.204038,0.917066,-0.315488,0.259548
7293035087,55.721188,10.662821,9.156753,0.990139,-0.266449,0.195515
7293055139,46.514576,18.557541,4.176134,1.057310,-0.256854,0.131534
7293075191,30.157434,28.351660,-0.384104,1.057719,-0.202945,0.159269
7293095243,14.721688,38.203358,-5.194969,1.043627,-0.184986,0.159234
7293115295,1.789614,46.711529,-4.173862,0.955118,-0.247948,0.173059
7293135347,-5.515997,49.771397,1.024895,0.820954,-0.354577,0.189883
7293155399,-2.823080,46.947163,4.216846,0.739966,-0.524873,0.187371
7293175451,0.030224,41.194729,4.000721,0.755778,-0.567881,0.201796
7293215555,-8.343738,37.873775,-1.062804,0.837946,-0.429619,0.283483
7293235607,-16.071165,38.164604,-1.106575,0.808569,-0.370162,0.335300
7293255659,-23.666594,37.321487,-2.919960,0.796783,-0.387460,0.379404
7293275711,-34.013527,34.531033,-2.505037,0.803741,-0.375090,0.430388
7293295764,-46.023895,32.118233,1.713804,0.826824,-0.398139,0.454357
7293315816,-51.984203,26.366150,7.048561,0.781776,-0.493825,0.473049
7293335868,-52.391121,14.652147,7.475595,0.683437,-0.515500,0.510229
7293355919,-57.670967,0.585799,1.129274,0.695858,-0.381208,0.470410
7293396025,-74.561699,-11.416205,6.656131,0.705910,-0.170284,0.267731
7293416077,-80.115372,-8.715438,12.082882,0.780807,-0.364313,0.169534
7293436129,-69.431213,-2.535173,7.146680,0.989623,-0.622964,0.010689
7293456181,-47.224724,0.418102,-2.564758,0.895924,-1.050298,0.111944
7293476233,-14.330532,-13.368576,-12.548151,0.681332,-1.443515,0.228670
7293496285,8.295945,-27.122318,-19.920900,0.688313,-1.067665,0.296350
7293516337,10.628567,-26.992264,-12.593313,0.846483,-0.509569,0.282379
7293536389,6.307007,-24.832060,-8.680924,0.857544,-0.159474,0.288948
7293556441,-2.456851,-25.242392,-6.887807,0.769564,-0.149186,0.284842
7293576493,-11.058299,-25.601513,-9.157245,0.693581,-0.366492,0.291726
7293596546,-17.833447,-25.182896,-6.791680,0.692221,-0.465096,0.277407
7293616598,-20.568781,-24.313080,-4.482138,0.723206,-0.503962,0.267625
7293636650,-15.986593,-24.991552,-6.057828,0.781658,-0.528718,0.261964
7293656702,-15.214383,-25.347349,-6.693505,0.814928,-0.544371,0.255020
7293676754,-11.855249,-26.366108,-5.599800,0.827443,-0.589282,0.257537
7293696806,-9.895492,-25.263523,-6.142392,0.858148,-0.576991,0.254522
7293716867,-11.078658,-22.106239,-5.061487,0.885614,-0.549966,0.221231
7293736909,-9.360610,-20.893715,-3.580791,0.873836,-0.532578,0.199952
7293756960,-6.641463,-19.706837,-3.585833,0.864209,-0.561182,0.176948
7293777013,-3.297384,-16.365509,-8.077682,0.868128,-0.536361,0.164783
7293797065,-1.975416,-10.198284,-10.206346,0.909089,-0.492367,0.153476
7293817117,-0.626208,-1.286185,-10.495213,0.940821,-0.498395,0.139957
7293837169,-0.143915,6.347310,-11.590318,0.902527,-0.457483,0.166932
7293857221,-2.737361,12.439898,-9.480718,0.893178,-0.401178,0.147400
7293877273,-4.101786,23.105705,-5.772987,0.916616,-0.425095,0.142209
7293897325,-0.961106,32.119999,-1.371458,0.898618,-0.473717,0.188722
7293917377,7.777349,39.127213,2.792500,0.887669,-0.522052,0.152123
7293937429,12.318418,49.688381,4.262730,0.849273,-0.545217,0.228553
7293957481,14.892593,47.951153,-1.780193,0.888679,-0.551296,0.165556
7293977533,17.810253,49.741688,-6.160443,0.925195,-0.551905,0.110746
7293997585,17.364571,51.413864,-7.780366,0.925302,-0.495143,0.172982
7294017638,12.602257,52.703438,-5.426086,0.897649,-0.464133,0.255859
7294037690,15.568617,50.471249,-6.124277,0.858290,-0.475284,0.257254
7294057742,16.415493,51.296864,-8.492053,0.828822,-0.407376,0.258168
7294077794,10.833631,48.687119,-8.435632,0.772529,-0.375221,0.342919
7294097846,2.338920,38.283951,-6.054912,0.683652,-0.423755,0.381022
7294117898,-3.250769,19.107096,-6.297613,0.610215,-0.435925,0.379915
7294137950,-12.206354,0.253037,-3.645084,0.684811,-0.374210,0.376458
7294158002,-21.115318,-16.923548,1.305651,0.703140,-0.376398,0.392245
7294178054,-31.477295,-33.447784,1.684535,0.759861,-0.374565,0.295198
7294198106,-35.033665,-40.582878,4.332685,0.756430,-0.389168,0.156925
7294218160,-37.768929,-33.676727,0.800789,0.762835,-0.304921,0.157541
7294238212,-33.775661,-19.164412,3.379282,1.160678,-0.533243,0.038583
7294258264,-21.718683,0.732472,0.358284,1.198542,-0.650938,0.138823
7294278316,-7.844134,6.720881,-4.601110,1.128505,-0.679581,0.250174
7294298368,-0.894979,0.389806,-6.908467,0.919986,-0.544508,0.388912
7294318420,0.937227,-11.260220,-7.081176,0.708453,-0.438504,0.387821
7294338472,0.951611,-20.743534,-6.093554,0.642974,-0.369668,0.357295
7294358524,0.273743,-25.471066,-2.666496,0.688414,-0.372050,0.336106
7294378576,1.313909,-27.508699,-0.628678,0.731523,-0.410629,0.357489
7294398629,1.399775,-29.354237,-0.834560,0.735822,-0.417640,0.342968
7294418680,0.284033,-30.509151,0.162654,0.775290,-0.411223,0.340901
7294438732,1.351638,-30.045952,1.471844,0.811129,-0.426125,0.284161
7294458784,0.377255,-26.066790,2.648370,0.839750,-0.425005,0.268992
7294478836,-0.107562,-23.803730,3.262216,0.881559,-0.422741,0.242906
7294498888,1.110075,-20.945854,3.736995,0.915534,-0.469884,0.193706
7294518940,3.245756,-15.922475,1.164829,0.926387,-0.493057,0.204502
7294538991,-0.246459,-16.477581,-1.363407,0.918078,-0.444560,0.197975
7294559043,-2.277474,-16.494030,-1.862851,0.911885,-0.444935,0.166126
7294579095,-0.869556,-13.840949,-3.949120,0.923687,-0.445114,0.190114
7294599147,-3.826051,-9.390861,-5.479210,0.975770,-0.419599,0.219271
7294619199,-4.723958,-4.268616,-3.700334,0.965557,-0.426689,0.207829
7294639251,-4.525961,1.161185,-2.438269,0.907441,-0.409881,0.191227
7294659303,-7.987251,8.133284,-2.006345,0.897467,-0.418952,0.155453
7294679355,-4.624670,14.458237,-1.718580,0.865252,-0.491102,0.166147
7294699407,3.192696,17.560711,-1.800218,0.811980,-0.563275,0.223135
7294719460,16.125084,17.858387,0.680126,0.834731,-0.540496,0.249753
7294739512,22.376099,19.345358,6.046294,0.901788,-0.522710,0.263383
7294759564,29.678713,22.823570,7.085227,0.826142,-0.463899,0.276980
7294779616,32.982952,28.212349,2.268021,0.862266,-0.455293,0.237692
7294799668,34.692482,29.146311,-4.253699,0.947819,-0.376778,0.238299
7294819720,28.806219,31.055756,-1.158424,1.026189,-0.375502,0.149864
7294839772,19.898916,32.407505,-0.288383,0.880183,-0.424955,0.183210
7294859824,12.893190,29.388601,-2.230898,0.859848,-0.424238,0.230409
7294879876,7.014390,21.276979,-0.336465,0.817723,-0.432599,0.313457
7294899928,3.062114,11.687641,1.191017,0.858544,-0.411208,0.290778
7294919980,-0.078297,3.534764,0.939788,0.826812,-0.422228,0.312947
7294940032,-3.060112,-7.088425,0.052805,0.741259,-0.385084,0.363351
7294960084,-7.683062,-20.459330,3.329134,0.634961,-0.425733,0.383608
7294980136,-11.021878,-45.266281,6.022945,0.612560,-0.431595,0.319898
7295000188,-17.465105,-65.526093,8.277752,0.714784,-0.358650,0.200992
7295020242,-18.577688,-67.431107,9.504919,0.708683,-0.231168,0.042970
7295040294,-19.826202,-57.713676,14.383036,0.918627,-0.312582,-0.085745
7295060346,-17.785444,-34.791138,13.962281,1.056716,-0.492626,-0.053690
7295080398,-6.683049,-16.695915,6.756662,1.401616,-0.761339,0.030026
7295100450,-1.434063,-3.059119,-0.727123,1.255260,-0.599742,0.235334
7295120502,-2.198692,-1.656902,-5.082009,1.049296,-0.433596,0.265033
7295140554,-5.065455,-5.817857,-7.022038,0.798739,-0.297974,0.218880
7295180658,-15.287251,-16.995173,-6.419101,0.679125,-0.260563,0.216600
7295200710,-20.565952,-18.355207,-2.350245,0.771792,-0.378353,0.205896
7295220762,-20.176495,-15.847771,1.180352,0.826693,-0.452929,0.224144
7295240814,-16.245026,-13.927013,1.922673,0.862467,-0.494801,0.238696
7295260866,-12.155859,-9.731647,2.043206,0.900618,-0.492376,0.198859
7295280918,-9.116528,-5.229585,1.329365,0.899655,-0.490077,0.175377
7295300970,-4.036402,-4.656617,-0.948076,0.876032,-0.464879,0.149289
7295321023,-3.515028,-4.411381,0.074056,0.873139,-0.447404,0.151883
7295341085,-4.890908,-6.344636,3.105203,0.891038,-0.467223,0.109887
7295361125,0.184171,-7.390285,2.978187,0.916966,-0.533333,0.121015
7295381177,1.494592,-7.575747,-0.083531,0.917084,-0.526822,0.144389
7295401229,2.175527,-6.788836,-0.003113,0.897521,-0.514338,0.162737
7295421282,3.763709,-4.230083,2.003517,0.865006,-0.518285,0.190545
7295441334,5.085408,-3.641257,4.903766,0.877503,-0.488826,0.190111
7295461386,6.711476,-0.766872,6.363609,0.924903,-0.438727,0.166237
7295481438,5.769783,4.507971,7.111238,0.913980,-0.398556,0.143246
7295501490,3.306718,9.568041,7.882876,0.863400,-0.390637,0.152066
7295521542,-1.081700,14.442075,8.837723,0.839507,-0.418897,0.136319
7295541594,-2.877116,19.834293,9.820194,0.824276,-0.457719,0.187919
7295561646,1.872628,23.224146,15.119699,0.823759,-0.574892,0.241348
7295581698,14.914054,21.203165,18.183994,0.789520,-0.651874,0.257538
7295601750,25.623129,19.542835,9.894587,0.858707,-0.675719,0.192868
7295621802,32.026516,18.298172,-0.236432,0.994321,-0.573757,0.179834
7295641854,30.744772,20.569323,-3.510340,0.974426,-0.473324,0.211067
7295661907,21.487097,23.493851,0.317777,1.026268,-0.515626,0.237554
7295681959,20.903288,20.709757,4.837054,0.995551,-0.623492,0.228133
7295702011,26.933197,13.303148,9.854999,0.866688,-0.737827,0.168741
7295722063,35.825119,2.324064,4.053919,0.667724,-0.662958,0.123021
7295742115,36.298508,-10.352264,1.467536,0.568869,-0.326563,0.115972
7295762167,14.182148,-24.065588,5.895592,0.547312,-0.074559,0.168252
7295782219,-6.584411,-39.609650,9.950536,0.615171,-0.018577,0.197077
7295802271,-15.282150,-50.065536,17.394251,0.586218,-0.232803,0.157726
7295822323,-13.992239,-49.829693,18.537411,0.576791,-0.334774,-0.002662
7295842376,-12.060198,-38.191113,14.222097,0.913196,-0.344044,-0.061154
7295862428,2.489241,-23.966476,12.030722,1.321517,-0.750838,-0.043371
7295882480,13.128033,-16.099304,-8.175298,1.329280,-1.029723,0.124594
7295902532,15.482774,-15.708137,-9.973683,1.291766,-0.798494,0.187907
7295922584,12.895957,-19.023571,-6.967664,1.040125,-0.562845,0.198937
7295942636,10.433052,-24.154266,-4.220697,0.829261,-0.397478,0.193801
7295962688,1.411066,-25.081781,1.280401,0.717881,-0.296257,0.185932
7295982741,-1.741287,-24.653610,3.811402,0.705405,-0.326348,0.167470
7296002793,-3.327334,-23.078678,4.791794,0.668842,-0.322623,0.166713
7296022845,-7.578218,-24.173704,5.297267,0.635812,-0.314059,0.167107
7296042897,-8.972636,-25.135178,4.762962,0.701295,-0.356150,0.168058
7296062949,-9.060081,-24.429253,4.836350,0.814823,-0.396204,0.183414
7296083001,-5.796049,-26.170458,5.834051,0.932474,-0.459239,0.160166
7296103053,-0.309617,-25.095852,4.426320,0.980857,-0.480441,0.144032
7296123105,-1.395583,-23.785622,3.853764,0.993710,-0.429230,0.165342
7296143157,-5.269357,-24.970774,2.926992,1.015217,-0.391082,0.116521
7296163208,-10.574801,-23.861715,3.713239,1.026217,-0.419506,0.058307
7296183260,-12.274982,-19.516855,2.251282,0.984013,-0.433621,0.017819
7296203312,-12.721538,-15.720625,2.768884,0.930253,-0.437787,0.046205
7296223364,-13.588951,-12.641658,5.540056,0.890736,-0.468304,0.053095
7296243416,-14.146962,-10.570106,8.352486,0.858018,-0.518107,0.076342
7296263468,-15.063424,-9.012709,9.469125,0.850719,-0.555088,0.064540
7296283520,-15.705304,-5.703997,9.927844,0.814854,-0.561121,0.073898
7296303572,-16.269325,-6.043295,10.876580,0.817433,-0.486723,0.078963
7296323624,-22.187065,-2.178169,13.533127,0.864296,-0.446767,0.089375
7296343676,-23.979221,-3.216098,10.930169,0.946104,-0.519498,0.073529
7296363728,-21.137959,-0.390491,4.644061,0.931462,-0.532698,0.073942
7296383780,-19.406979,-2.433764,1.490071,0.867359,-0.469987,0.091665
7296403832,-15.626577,-5.278148,-0.813034,0.861204,-0.517690,0.092356
7296423884,-5.518778,-5.015903,-1.006950,0.802379,-0.600105,0.075352
7296443936,-2.445770,-5.365638,0.531707,0.811875,-0.567035,0.118479
7296463989,-5.712847,-6.335305,3.029669,0.868775,-0.514306,0.105548
7296484041,-5.273255,-6.687790,4.455574,0.832317,-0.513723,0.088288
7296504093,2.566777,-7.555402,9.200246,0.775913,-0.600184,0.080255
7296524145,7.340125,-16.438509,17.323511,0.729893,-0.663043,0.030760
7296544197,12.775415,-30.460394,23.698353,0.800118,-0.613638,-0.045384
7296564249,16.787951,-34.576271,25.363344,0.870185,-0.592368,0.059475
7296584301,33.982666,-37.571365,16.591211,0.848712,-0.750603,-0.024096
7296604353,67.049408,-42.760975,-0.242927,0.767258,-0.797290,0.053300
7296624405,101.388153,-56.110256,-13.373601,0.671912,-0.870231,0.056377
7296644459,117.604141,-70.595833,-21.795059,0.687871,-0.813616,0.073921
7296664511,128.872360,-77.195503,-21.829315,0.819183,-0.737904,-0.078529
7296684563,139.745178,-68.097466,-16.983625,0.978697,-0.483418,-0.045807
7296704615,139.602814,-60.159706,-12.554501,1.061997,-0.175652,-0.024149
7296724667,129.626892,-57.578125,-6.996947,1.029120,-0.056769,0.035044
7296744719,112.701889,-60.936218,-7.904083,0.834016,-0.239431,0.081490
7296764771,103.488235,-64.080688,-9.413392,0.797920,-0.388508,0.139399
7296784823,99.944130,-64.167419,-7.464060,0.877298,-0.442312,0.062060
7296804875,96.259338,-66.810493,-5.043554,0.891158,-0.443966,0.077809
7296824927,100.045937,-70.206329,-5.722864,0.867754,-0.433316,0.006085
7296844979,108.692024,-73.173378,-8.444092,0.848077,-0.429259,0.032528
7296865031,113.706177,-79.974098,-12.181576,0.895475,-0.453701,-0.000481
7296885083,120.351532,-82.848099,-18.517588,0.927323,-0.420869,-0.022265
7296905135,122.272980,-87.522430,-22.549316,0.939706,-0.390221,-0.034893
7296925188,126.942596,-88.704315,-24.585617,0.941862,-0.342183,-0.068879
7296945240,130.257553,-89.419563,-24.667685,0.939187,-0.347489,-0.045479
7296965290,137.810303,-90.585953,-26.038101,0.958623,-0.377366,-0.111341
7296985342,145.612305,-88.686707,-26.691586,0.965709,-0.366566,-0.081333
7297005394,152.615997,-88.815773,-26.731489,0.976326,-0.357971,-0.123891
7297025446,166.135895,-88.918678,-26.970818,0.950813,-0.336756,-0.167851
7297045499,174.378525,-89.327797,-25.759663,0.948557,-0.260672,-0.100948
7297065551,168.050018,-92.758171,-23.850887,0.979158,-0.226870,-0.143747
7297085603,162.958832,-90.177010,-23.395679,1.044038,-0.151247,-0.145253
7297105655,161.783020,-90.535507,-27.236565,0.995785,-0.103344,-0.149058
7297125707,161.958801,-94.663559,-34.308723,0.972093,-0.111088,-0.038257
7297145759,158.170456,-95.274857,-37.010979,1.000195,-0.229602,-0.045229
7297165811,156.474655,-92.065536,-37.968815,0.976859,-0.320431,-0.078062
7297185863,150.622681,-86.326019,-37.895592,1.024110,-0.275168,-0.058620
7297205915,134.837433,-76.294907,-34.407997,1.077053,-0.154402,-0.052735
7297225967,121.193329,-66.345337,-31.618134,1.050696,-0.059189,-0.036210
7297246019,109.496681,-61.149094,-30.980156,0.981380,-0.123823,0.016759
7297266071,106.334198,-59.938492,-31.953321,0.956626,-0.287054,-0.002339
7297286123,105.093185,-56.687988,-29.281141,0.978063,-0.292414,0.013507
7297306175,100.331085,-49.869087,-22.936646,0.988416,-0.293275,-0.010312
7297326227,98.346855,-45.509113,-20.525709,0.949126,-0.225072,-0.044644
7297346279,94.306992,-46.507618,-19.384008,0.946033,-0.219193,-0.033283
7297366332,90.185188,-47.503544,-18.947134,0.950569,-0.214798,-0.031575
7297386384,88.890335,-53.384995,-16.076725,0.912552,-0.244626,-0.078759
7297406436,89.509956,-59.698521,-13.880026,0.956939,-0.235235,-0.019387
7297426488,89.383537,-69.908417,-10.002268,0.946466,-0.285396,-0.120580
7297446541,95.079056,-73.482803,-9.681208,0.887942,-0.335671,-0.158494
7297466593,99.139542,-77.918907,-8.280395,0.887818,-0.344601,-0.179477
7297486645,104.473549,-77.598671,-5.183572,0.937565,-0.316714,-0.219527
7297506697,99.500526,-76.245316,-0.934699,1.025309,-0.314113,-0.197123
7297526749,95.046074,-76.000832,5.098868,0.967932,-0.290700,-0.202981
7297546801,89.427010,-79.052109,14.577467,0.905146,-0.336256,-0.246978
7297566854,98.032433,-87.074631,16.784840,0.845212,-0.478232,-0.324920
7297586906,104.547394,-86.400284,9.860646,0.873444,-0.438660,-0.261922
7297606958,96.091141,-85.192863,10.253552,0.944895,-0.332267,-0.311270
7297627010,84.953117,-77.859673,14.483979,0.999301,-0.335699,-0.337383
7297647062,75.499588,-74.281540,16.233276,0.907876,-0.304587,-0.339664
7297667114,73.997620,-78.139557,18.755732,0.785572,-0.449619,-0.367299
7297687166,77.080635,-79.502892,6.504176,0.802098,-0.494610,-0.364662
7297707218,80.182381,-81.654877,0.356391,0.814032,-0.479637,-0.355026
7297727270,82.352325,-81.143372,-3.822136,0.828783,-0.497540,-0.280916
7297747322,81.187637,-80.966820,-7.104025,0.808752,-0.522610,-0.334935
7297767373,84.113510,-73.531464,-10.836781,0.770101,-0.587363,-0.365360
7297787425,85.478218,-69.741226,-13.131586,0.781936,-0.531944,-0.405725
7297807477,83.849586,-62.771473,-14.958824,0.859158,-0.421774,-0.337289
7297827529,72.871613,-60.802582,-15.196712,0.901762,-0.409573,-0.348398
7297847581,61.910835,-48.831604,-20.842554,0.895683,-0.414104,-0.397739
7297867633,54.937454,-38.376652,-23.051298,0.865405,-0.350334,-0.381060
7297887685,51.563919,-30.435335,-23.107800,0.843605,-0.325337,-0.344969
7297907737,52.159897,-21.573952,-23.434120,0.886248,-0.414801,-0.343086
7297927789,54.819752,-10.455965,-25.595472,0.942736,-0.462512,-0.282331
7297947841,58.166584,-8.298705,-28.855450,0.913713,-0.476826,-0.191941
7297967893,51.174377,-7.024157,-32.555923,0.878858,-0.478044,-0.310506
7297987945,46.249416,2.992055,-34.233345,0.880428,-0.400384,-0.197333
7298007998,31.260824,3.140631,-31.265240,0.855918,-0.367023,-0.153996
7298028050,21.332399,8.799894,-26.476204,0.937221,-0.405383,-0.225410
7298048102,17.645100,15.209527,-19.933624,0.909523,-0.340243,-0.183009
7298068154,-1.210287,16.611433,-16.460688,0.905588,-0.280582,-0.210175
7298088206,-25.530010,21.345617,-5.039418,0.846672,-0.310171,-0.269234
7298108258,-46.199986,26.522274,-1.828961,0.911575,-0.348691,-0.311044
7298128310,-52.363770,25.892653,4.602322,0.903432,-0.467475,-0.184488
7298148362,-61.638809,24.986969,7.822169,0.836046,-0.532013,-0.118691
7298168414,-56.483757,9.884219,6.856825,0.682242,-0.430318,-0.105781
7298188466,-42.964649,5.175428,6.982002,1.007398,-0.437503,-0.143745
7298208518,-38.976639,7.287484,3.115638,1.185138,-0.366170,-0.298177
7298228570,-24.321285,1.400371,-4.167744,0.872912,-0.480328,-0.259353
7298248622,-16.051785,-7.671470,-5.465697,0.672176,-0.719012,-0.235111
7298268676,-1.295519,-0.118700,-4.079624,0.776755,-0.721916,-0.142452
7298288728,6.224248,3.291113,-4.472954,1.051522,-0.489501,-0.133378
7298308780,11.462983,13.503578,-7.230826,1.095805,-0.390251,-0.163296
7298328832,11.948033,21.291426,-6.734882,0.967435,-0.347073,-0.058916
7298348884,10.775214,24.524593,-6.866876,0.911168,-0.416414,-0.083415
7298368936,12.135015,33.215919,-10.853517,0.895131,-0.499416,-0.058938
7298388988,10.638888,35.747299,-11.180031,0.918472,-0.473337,-0.087885
7298409040,13.625499,41.762154,-9.125169,0.924316,-0.474199,-0.104647
7298429092,19.264664,49.543713,-8.949327,0.871101,-0.465715,-0.113211
7298449144,17.651371,56.355827,-10.510762,0.920047,-0.429342,-0.067479
7298469196,18.672729,56.629066,-11.573116,0.948921,-0.453632,-0.144427
7298489248,22.971369,52.178082,-13.961814,0.866265,-0.487886,-0.163702
7298509300,17.506969,48.042671,-15.181021,0.776379,-0.455493,-0.133632
7298529352,8.408961,47.954342,-11.350156,0.857557,-0.330243,-0.078794
7298549404,2.064385,43.746071,-7.589429,0.964986,-0.338848,-0.080750
7298569464,5.100894,44.472172,-8.752575,0.972637,-0.395188,-0.082589
7298609559,14.703792,43.068901,-7.690048,0.765756,-0.483548,-0.111480
7298629611,23.658276,39.317947,-7.445310,0.774675,-0.465884,-0.039913
7298649663,25.365818,38.010582,-5.864980,0.827043,-0.432498,-0.032294
7298669716,25.378603,37.746647,-4.401336,0.917137,-0.392415,0.005962
7298689767,21.930689,35.800323,-3.688579,0.967395,-0.399714,-0.010320
7298709819,21.193010,35.265385,-5.876797,0.959683,-0.419125,-0.006878
7298729871,15.966231,30.580032,-6.669770,0.954146,-0.396885,0.024544
7298749924,12.966719,30.156733,-5.681996,0.946330,-0.387116,-0.015614
7298769976,11.291602,32.842579,-1.817818,0.901524,-0.358303,0.024088
7298790028,11.984310,32.085659,2.610659,0.858094,-0.442369,0.009938
7298810080,3.554157,23.979471,7.992287,0.845732,-0.454220,0.149587
7298830132,-12.326972,8.192941,13.069517,0.824255,-0.489444,0.020695
7298850184,4.829065,8.846621,12.265467,0.861710,-0.477870,0.017373
7298870236,12.397148,4.178258,11.733216,0.865135,-0.483697,0.073541
7298890288,17.312656,5.016772,10.796394,0.845219,-0.493448,0.023435
7298910340,20.303804,5.287957,13.363680,0.810984,-0.416901,0.102194
7298930392,20.574030,1.932189,15.444204,0.860428,-0.432273,0.042284
7298950444,18.257238,3.416328,13.636109,0.902433,-0.399625,0.076286
7298970496,20.135729,-4.433146,11.760181,0.884507,-0.449391,0.048742
7298990548,33.121071,-9.139186,9.278374,0.801084,-0.538264,0.047725
7299010600,39.712353,-14.415245,10.893406,0.747893,-0.537998,0.023533
7299030652,45.647938,-15.741519,17.103064,0.920430,-0.463523,0.039708
7299050704,48.494064,-17.356518,26.460064,0.981294,-0.448565,0.053508
7299070758,59.563011,-17.820478,26.882210,0.917396,-0.528452,0.029714
7299090810,73.331284,-17.869970,27.627876,0.833238,-0.641322,0.072776
7299110862,77.592155,-23.015406,23.513584,0.770269,-0.742719,0.165478
7299130914,83.222778,-34.782909,11.675934,0.764996,-0.689356,0.136467
7299150966,91.903999,-41.937515,3.421327,0.786379,-0.605168,0.194537
7299171018,82.492409,-44.415802,0.621369,0.872626,-0.452319,0.164115
7299191070,67.495407,-42.881908,4.168286,0.929346,-0.285706,0.109421
7299211123,49.499313,-37.337074,8.808960,0.924640,-0.165745,0.105909
7299231175,29.065788,-34.214512,9.896726,0.920419,-0.195373,0.016519
7299251228,13.787346,-28.817265,8.814844,0.903259,-0.319976,0.035562
7299271278,1.470055,-24.537142,6.894512,0.894187,-0.432448,0.037527
7299291330,-7.567686,-22.257393,3.395921,0.876371,-0.430860,0.043289
7299311382,-16.112940,-20.006378,0.844627,0.893267,-0.397555,0.006034
7299331435,-25.791237,-17.446892,0.217721,0.929069,-0.351767,-0.012510
7299351487,-35.177608,-12.147684,-0.850727,0.883159,-0.406394,-0.007023
7299371539,-34.798180,-12.183458,-3.291161,0.901006,-0.450126,-0.043835
7299391589,-35.813946,-9.804527,-6.603428,0.911304,-0.467828,-0.018836
7299411641,-34.927814,-12.427292,-5.692805,0.897809,-0.435966,-0.018755
7299431693,-39.439529,-12.177032,-1.084082,0.912651,-0.434382,-0.063020
7299451746,-50.486393,-9.888794,-4.763893,1.018026,-0.330529,-0.066202
7299471798,-57.003281,-1.755115,-2.371951,1.062273,-0.331593,-0.071147
7299491850,-60.449860,3.407454,-1.183479,1.004735,-0.403757,-0.063994
7299511902,-60.667328,6.731270,-5.962020,0.900151,-0.419938,-0.099539
7299531954,-58.235832,9.243299,-6.206475,0.871331,-0.445415,-0.084907
7299552006,-46.102604,7.537249,-2.824630,0.925879,-0.507245,-0.090348
7299572058,-27.015587,6.690957,-2.722292,0.929303,-0.625882,-0.102129
7299592110,-8.021813,7.667405,-8.393788,0.871895,-0.701812,-0.053125
7299612162,10.199259,10.789238,-13.754091,0.877327,-0.700418,-0.000662
7299632214,20.078629,14.431985,-14.565893,0.882440,-0.581737,0.032082
7299652266,26.038944,21.623226,-10.841175,0.951290,-0.494023,0.062456
7299672318,35.330040,31.948206,-6.021895,0.933029,-0.509527,-0.002749
7299692370,52.426891,40.845421,-5.740224,0.826216,-0.518836,-0.065836
7299712423,64.210976,46.569241,-2.383858,0.788991,-0.445254,-0.035324
7299732475,60.799732,53.046791,6.204711,0.833073,-0.435504,-0.001861
7299752527,57.858871,54.308834,10.718451,0.920581,-0.407180,-0.029742
7299772579,47.538071,61.419498,11.341774,1.009716,-0.368197,0.001612
7299792631,44.552860,63.240791,8.320118,0.952442,-0.420477,0.078063
7299812683,44.776215,61.856346,4.065436,0.886389,-0.488525,0.120462
7299832735,45.664890,54.492493,-1.616455,0.902857,-0.487920,0.141293
7299852787,46.012680,48.063625,-8.946012,0.937109,-0.438654,0.105612
7299872839,47.120392,50.100826,-14.463323,0.892572,-0.366267,0.155444
7299892893,46.043480,51.223690,-12.268917,0.846028,-0.333225,0.256341
7299912945,49.535660,53.533371,-7.207776,0.806476,-0.320240,0.185293
7299932997,51.152515,52.336304,-6.097690,0.761997,-0.274531,0.160819
7299953049,38.807636,50.453091,-9.004776,0.871906,-0.288660,0.236377
7299973101,22.410788,54.293388,-10.232480,0.995134,-0.337122,0.233995
7299993153,9.571741,54.861008,-9.244677,1.016688,-0.370665,0.197546
7300013205,4.550532,52.876236,-9.380079,0.986007,-0.469414,0.177568
7300033257,-3.195825,51.294025,-10.266232,0.940854,-0.470595,0.229247
7300053309,-14.752092,50.844250,-11.814322,0.869025,-0.449007,0.154781
7300073370,-16.227652,52.084270,-14.675344,0.829726,-0.480140,0.124689
7300093413,-18.192379,53.997044,-15.098090,0.799487,-0.520739,0.155845
7300113465,-16.484325,56.643745,-12.515806,0.803453,-0.571758,0.266798
7300133518,-10.632950,56.997917,-9.388966,0.800985,-0.584481,0.305281
7300153570,-2.340492,58.453438,-7.494566,0.793193,-0.577461,0.340135
7300173622,3.635035,57.348133,-8.379587,0.831152,-0.491802,0.416028
7300193674,6.874967,55.711266,-10.057611,0.825311,-0.424563,0.430113
7300213724,8.350780,55.741901,-12.733604,0.799587,-0.405752,0.376819
7300233777,10.818531,56.470200,-11.766871,0.794734,-0.435434,0.379582
7300253828,11.330992,54.727688,-9.335779,0.784039,-0.399173,0.381903
7300273881,9.729060,51.156441,-6.981015,0.852203,-0.308908,0.419241
7300293932,4.484044,48.037827,-3.717060,0.914854,-0.292050,0.438576
7300313984,-1.758242,48.009865,-0.493721,1.001456,-0.412060,0.374869
7300334036,-6.827222,50.326607,-2.250669,0.966932,-0.446135,0.418280
7300354089,-11.590577,38.560398,-0.776033,0.911486,-0.432279,0.538694
7300374140,-11.234328,18.609163,6.015126,0.683753,-0.534980,0.699224
7300394193,-6.019854,-8.996899,6.229690,0.470245,-0.409915,0.761064
7300414245,-15.508201,-34.254284,6.486781,0.530354,-0.293636,0.744239
7300434297,-30.916826,-56.648846,9.373559,0.445920,-0.360873,0.935912
7300454349,-40.564411,-91.855583,13.924366,0.355179,-0.515883,0.987595
7300474401,-39.182751,-135.458893,8.283807,0.232788,-0.621161,0.644039
7300494453,-17.525419,-167.471802,7.734744,0.523338,-0.798796,-0.123546
7300514505,-7.100488,-151.491760,1.681074,1.035294,-0.588643,-0.534601
7300534557,-41.746292,-90.418732,17.853306,1.846834,0.401666,-0.016268
7300554609,-75.022217,-63.510178,38.333950,1.487896,-0.050033,0.616790
7300574661,-69.230026,-56.155334,9.377694,0.771897,-0.611008,0.552769
7300594713,-59.633499,-58.588394,0.098495,0.440016,-0.699307,0.323863
7300614765,-47.832878,-65.153236,-5.764286,0.433489,-0.538223,0.190443
7300634817,-42.147118,-66.604118,-5.776435,0.486878,-0.255892,0.102031
7300654869,-41.252750,-59.540413,-6.164878,0.598980,-0.298323,0.097410
7300674922,-48.029686,-42.504864,-2.818256,0.984198,-0.389332,-0.004777
7300694975,-37.142300,-15.274117,2.586423,1.231918,-0.409279,-0.014605
7300715028,-9.399033,6.749138,5.047349,1.282204,-0.560626,0.145097
7300735079,10.555395,22.949333,4.734434,1.219433,-0.794535,0.285776
7300755131,42.605965,37.355774,-13.167297,1.170802,-1.023599,0.049420
7300775183,71.249832,55.575340,-42.790459,1.009110,-0.697437,0.067220
7300795236,73.121132,70.638580,-24.176054,0.729068,-0.155265,0.151116
7300815288,56.291191,78.326736,2.390332,0.714382,-0.036126,0.155268
7300835340,38.093437,95.182930,13.168951,0.882133,-0.216852,0.275335
7300855392,28.513924,98.129517,14.821942,0.859774,-0.534677,0.329205
7300875444,45.687946,91.788345,8.759457,0.900953,-0.762712,0.074661
7300895496,72.645271,86.937454,4.946938,0.906118,-0.684614,0.103149
7300915548,87.188919,84.972488,0.931770,1.003621,-0.512531,0.273439
7300935600,87.398476,81.128990,-7.990651,0.898453,-0.312625,0.431790
7300955652,80.188789,74.040733,-8.554859,0.702169,-0.256355,0.560076
7300975704,66.126854,59.758091,-0.451868,0.597557,-0.144192,0.605023
7300995756,47.937405,41.081642,10.994872,0.468916,-0.107248,0.603320
7301015827,27.102631,22.443508,12.059235,0.485909,-0.109345,0.644908
7301035859,9.902606,5.157844,11.950505,0.490344,-0.197322,0.725300
7301075963,-17.927435,-40.298962,20.688686,0.665066,-0.218110,1.038150
7301096015,-34.683655,-79.831558,24.415625,0.508365,-0.462904,1.002973
7301116067,-34.537792,-111.779053,0.098678,0.775578,-0.397015,0.362460
7301136119,-22.249027,-123.607216,-1.835396,0.712987,-0.629531,-0.165604
7301156171,-66.872627,-96.781219,-23.368237,2.132807,0.183090,-0.014074
7301176223,-112.491272,-68.074219,33.648682,1.926666,0.641909,0.381591
7301196275,-118.790794,-58.026413,39.565746,0.970177,-0.813790,0.810271
7301216327,-72.939980,-42.972301,29.357172,0.434059,-1.576161,0.471569
7301236379,-22.853531,-52.181068,-9.107000,0.018532,-0.990779,0.209643
7301256431,-1.231355,-59.598816,-17.130285,0.162624,-0.258996,0.099950
7301276483,3.270876,-53.257702,-13.076231,0.321664,0.036488,0.006501
7301296535,-0.584869,-39.854271,-10.862539,0.457396,0.040435,-0.024392
7301316588,1.067814,-18.854351,-7.593159,0.788804,-0.250150,0.101379
7301336640,19.059576,1.007745,-0.672523,1.350250,-0.518740,0.319956
7301356692,15.871370,20.247313,2.945670,1.680566,-0.514191,0.173558
7301376744,18.132710,47.154411,-17.027447,1.471072,-0.703966,0.252248
7301396796,17.405247,67.173248,-12.776166,1.241150,-0.461903,0.334066
7301416848,21.976833,79.882782,-12.548718,0.855507,-0.571396,0.328964
7301436900,33.766785,88.262039,-16.644041,0.571464,-0.467019,0.256670
7301456952,33.199471,94.168747,-2.840178,0.399553,-0.192177,0.379145
7301477004,22.989634,90.335922,11.432623,0.607549,-0.220592,0.431753
7301497057,28.240999,96.100952,6.477018,0.823264,-0.583547,0.361140
7301517110,38.333916,96.850037,-0.729107,0.827949,-0.550771,0.416324
7301537162,37.184147,82.018990,4.551882,0.919902,-0.524902,0.611170
7301557214,45.342003,64.901131,17.924240,0.926380,-0.819359,0.508470
7301577266,79.158867,45.608448,15.053398,0.482497,-0.624578,0.691018
7301597318,76.815132,20.846910,15.503334,0.498142,-0.064556,0.821701
7301617370,30.150368,-0.755939,23.423176,0.389030,0.382803,1.124848
7301637422,-45.912666,-47.159214,29.612244,0.306500,0.440013,1.225028
7301657474,-90.846802,-98.575203,44.068745,0.418672,-0.008731,0.696162
7301677527,-104.095833,-103.598045,25.863298,0.551535,-0.493674,-0.202675
7301697578,-97.867508,-90.076073,19.614937,1.352312,-0.561925,0.036547
7301717630,-44.440823,-90.526665,23.963261,0.967826,-1.746750,0.775247
7301737682,-13.889525,-97.221764,-24.158327,0.779727,-0.970688,0.936249
7301757734,-29.273012,-99.893761,-19.027937,0.860116,-0.069200,0.567027
7301777786,-36.382942,-99.298019,-11.130224,0.603311,0.145821,0.271979
7301797838,-43.996910,-96.946342,-11.939032,0.390568,0.026177,0.107718
7301817891,-41.444782,-91.101715,-6.351636,0.462166,-0.286180,0.071578
7301837941,-36.282265,-74.167992,4.539799,0.701491,-0.607713,-0.035155
7301857993,-23.834743,-49.839012,0.881918,0.845637,-0.610611,0.026248
7301878045,-17.621679,-26.366978,-0.989772,1.136022,-0.336409,-0.005949
7301898098,0.849839,-1.399271,-1.120169,1.393497,-0.430798,0.114755
7301918150,27.817242,15.515930,-15.625813,1.311420,-0.931545,0.214125
7301938202,31.300667,39.102501,-33.731068,1.317007,-0.736146,0.236533
7301958254,31.765816,58.280140,-26.885307,1.292729,-0.366920,0.041321
7301978306,45.595089,72.331154,-20.996662,0.874465,-0.282943,-0.000879
7301998358,61.046741,86.079063,-17.889021,0.603238,-0.443630,0.050044
7302018411,73.006584,99.030228,-5.136976,0.529305,-0.472377,0.141918
7302038463,74.844688,101.626915,6.183974,0.677290,-0.300180,0.331650
7302058514,68.191620,99.530151,4.435211,0.970008,-0.381722,0.328035
7302078566,61.412773,103.010269,-3.645998,1.143227,-0.416644,0.375655
7302098619,56.348858,113.405304,-5.301941,1.192507,-0.405286,0.578909
7302138723,41.238838,99.510818,10.022826,0.647468,-0.141153,0.798290
7302158775,16.175640,76.044815,7.141511,0.268184,0.139037,1.022205
7302178827,-34.032566,29.241886,12.239110,-0.046745,0.320764,1.218815
7302198879,-72.457237,-52.469910,28.806149,-0.158342,-0.001686,1.101788
7302218931,-62.190029,-130.199417,23.371023,-0.104769,-0.905645,0.190515
7302238983,-67.264168,-111.798393,-25.468777,0.939610,-0.262583,-0.610852
7302259035,-70.972717,-70.888214,31.946156,1.621212,-0.408882,0.572901
7302279086,-35.098850,-60.923927,15.930396,1.203533,-1.852017,1.131041
7302299139,-11.221167,-58.136620,-33.638794,0.806296,-0.406050,0.834019
7302319191,-19.465151,-72.313370,-14.836718,0.626247,-0.105763,0.574881
7302339244,-16.117466,-83.471802,-13.276068,0.429901,-0.202171,0.214793
7302359296,-19.513678,-87.085922,-14.634217,0.406211,0.001026,0.048954
7302379348,-28.820843,-79.215027,-4.115749,0.737788,-0.276544,-0.047274
7302399400,-20.812420,-47.949257,-5.916398,0.817889,-0.537919,-0.128658
7302419453,-5.788307,-26.046154,-9.286400,0.860267,-0.417891,0.031392
7302439505,6.286087,-7.159726,-5.263071,1.201048,-0.369906,0.286366
7302459557,16.891619,13.475028,-1.768199,1.473223,-0.790176,0.565904
7302479609,59.428558,26.621937,-27.975798,1.250880,-1.040385,0.300569
7302499661,85.379356,44.372623,-30.600163,1.072855,-0.496291,0.165316
7302519713,74.284401,60.030914,-8.936518,0.947754,-0.043210,0.145008
7302539765,52.232330,68.110733,2.176851,0.775082,0.035484,0.153324
7302559817,30.998394,79.951500,4.546014,0.627687,-0.090230,0.306057
7302579869,13.158553,88.385483,10.897101,0.656110,-0.138495,0.504673
7302599921,6.684216,91.664352,15.056498,0.836901,-0.359269,0.675283
7302619973,0.970052,80.048157,10.043361,1.108851,-0.540976,0.671952
7302640026,7.211147,67.950272,10.120758,0.955444,-0.598979,0.603645
7302660076,11.089589,53.099991,10.776887,0.584404,-0.358947,0.794365
7302680128,2.191724,32.218529,9.715113,0.455379,-0.171753,1.078388
7302700180,-9.565879,-3.762708,10.434374,0.145087,-0.150226,1.170641
7302720232,-21.960810,-45.571808,9.824885,0.007762,-0.047153,0.766764
7302740284,-39.149349,-72.381645,-2.915468,-0.063862,-0.461700,-0.197593
7302760336,-58.826683,-43.060795,-12.308994,1.210434,0.031092,0.071212
7302780388,-62.754204,-25.500889,15.711910,1.609512,-0.197405,1.032155
7302800440,-62.141956,-39.691738,12.387959,0.914147,-0.677776,1.202375
7302820492,-49.580597,-57.725891,-9.533273,0.450102,-0.749831,0.743406
7302840544,-36.192860,-72.946808,-14.874150,0.362429,-0.688670,0.521591
7302860596,-27.006371,-82.929153,-9.856016,0.485650,-0.484456,0.487655
7302880648,-24.924004,-85.565948,-6.406812,0.665006,-0.433861,0.363284
7302900700,-22.180244,-80.191551,-9.321454,0.744364,-0.221348,0.280773
7302920753,-33.274315,-74.983345,-6.220563,0.706367,-0.203315,0.423892
7302940805,-46.387703,-71.387741,0.857963,0.633080,-0.456593,0.424395
7302960857,-40.104649,-72.195274,7.103606,0.707209,-0.786614,0.493814
7302980909,-42.084545,-58.937492,2.374820,0.872056,-0.707748,0.513246
7303000961,-48.064011,-46.747643,6.950494,1.063793,-0.157757,0.531143
7303021013,-36.485271,-58.800541,12.209874,0.883457,-0.148166,0.326172
7303041065,-21.341059,-63.732677,5.370190,0.709827,-0.641912,0.146160
7303061117,-34.241158,-53.964252,0.376829,0.718270,-0.528774,0.344493
7303081169,-52.917290,-61.832199,8.398701,0.833435,-0.160332,0.653961
7303101221,-37.571289,-87.040771,3.917660,0.768523,-0.553647,0.555444
7303121273,-10.978589,-107.026497,-18.183657,0.552622,-0.796448,0.260622
7303141327,1.291489,-110.406174,-32.242851,0.583019,-0.682576,0.072752
7303161379,-5.330202,-107.028046,-24.248796,0.799593,-0.383119,0.115627
7303181431,-12.724177,-107.721352,-21.803392,0.976731,0.004505,0.045778
7303201483,-31.439121,-104.248962,-35.557030,1.158230,0.183054,-0.025800
7303221535,-55.492119,-93.319817,-30.379528,1.263159,0.003358,0.048640
7303261639,-99.421768,-35.763577,3.451886,1.217014,-0.341112,0.130006
7303281691,-95.433792,-19.191418,10.017393,1.115565,-0.496575,0.157897
7303301743,-85.439507,-17.597010,12.903563,1.000275,-0.550163,0.132162
7303321795,-71.892761,-17.466038,13.603210,0.845040,-0.651325,-0.038268
7303341847,-62.770878,-18.638954,-5.972389,0.845889,-0.462810,0.018268
7303361899,-60.803455,-21.217546,-17.165894,1.016866,-0.323295,0.065762
7303381952,-54.424931,-16.639719,-8.180098,1.032410,-0.302234,0.094075
7303402003,-51.882694,-20.065409,4.472517,0.935455,-0.387885,0.098105
7303422056,-32.205124,-15.636720,13.340484,0.911891,-0.648987,-0.043910
7303442108,-23.786844,-12.713224,16.737991,0.944744,-0.655027,0.031009
7303462158,-19.298117,-12.113273,31.293531,0.919623,-0.715095,0.085148
7303482210,-32.844685,-10.108742,50.094765,0.705661,-0.673371,0.126046
7303522314,-30.079424,-9.077879,76.912170,0.674348,-0.690184,-0.029122
7303542366,-26.200285,-14.840864,59.612755,0.845658,-0.759674,0.034881
7303562419,1.299300,-25.748072,63.915241,0.874071,-0.983629,-0.096926
7303582471,41.573112,-33.995258,38.752262,0.660917,-1.011753,-0.112199
7303602523,57.700245,-47.938374,-1.351078,0.810497,-0.655653,-0.177516
7303622575,90.009338,-57.231804,-20.474812,0.816894,-0.361579,-0.186872
7303642627,127.388367,-63.723370,-30.378811,0.647002,-0.532218,-0.046412
7303662679,146.127487,-51.358944,-77.622147,0.554201,-0.831166,-0.053426
7303682731,105.799156,-38.753319,-104.943291,1.014000,-0.482932,-0.080916
7303702783,61.867966,6.515864,-52.531403,1.580052,-0.181841,-0.341317
7303722835,54.129032,33.500034,-2.168556,1.444663,0.078174,-0.283122
7303742887,43.432446,35.002823,-4.367887,1.282915,-0.314659,-0.192200
7303762939,19.790846,29.963497,-21.637428,1.089456,-0.546765,-0.121813
7303782991,18.233086,34.333912,-31.186268,0.967946,-0.470445,-0.224349
7303803044,22.067116,44.498436,-29.282427,0.846187,-0.297828,-0.161500
7303823096,20.367466,60.565464,-27.071085,0.869688,-0.233921,-0.143533
7303843148,12.485081,79.982498,-21.754173,0.903860,-0.266404,-0.171271
7303863200,13.737585,99.355644,-13.620935,0.904210,-0.298360,-0.246242
7303883252,29.761677,115.015442,-8.905764,0.922921,-0.485621,-0.140969
7303923356,117.056808,147.436249,-25.236698,1.032557,-0.937331,-0.111334
7303943410,81.885559,123.145813,-20.805521,1.076628,-0.013557,-0.019468
7303963462,31.881050,126.392151,-5.626124,1.076245,0.119219,-0.611121
7303983514,34.471951,167.391357,-0.516091,0.897305,-0.162155,0.132576
7304003566,29.072430,159.445557,-13.666628,0.731130,-0.621189,0.047643
7304023618,40.736084,168.206696,-25.645340,0.627667,-0.503661,0.220502
7304043670,48.134052,166.460571,-24.899176,0.700872,-0.311763,0.171540
7304063722,39.682384,157.968567,-19.281261,0.756980,-0.265677,0.234751
7304083774,25.245029,147.648651,-12.010320,0.747188,-0.457852,0.088310
7304103826,16.282423,131.417480,-8.760509,0.516939,-0.812003,0.290359
7304123878,32.809574,103.633636,-8.738769,0.592198,-0.737720,0.276127
7304143930,43.660473,87.205093,-7.958378,0.747701,-0.553212,0.359253
7304163982,42.293770,70.935257,-10.258893,0.809444,-0.455661,0.430815
7304184034,39.635990,65.447334,-10.966631,0.950922,-0.358953,0.322092
7304204086,33.957840,72.488068,-7.002373,1.011362,-0.211748,0.326815
7304224138,19.942282,75.105469,-2.406057,0.921725,-0.166278,0.401088
7304244190,7.729994,73.589981,-1.335505,0.759433,-0.263649,0.421695
7304264241,-0.075977,67.160126,0.781177,0.671697,-0.315937,0.547008
7304284293,-3.452666,55.609680,1.329950,0.711426,-0.324733,0.663451
7304304345,-3.669493,42.195438,-0.783754,0.746070,-0.304102,0.684088
7304324397,-4.582653,32.493450,0.197367,0.735605,-0.367918,0.619407
7304344449,-7.954219,23.153538,3.345683,0.768762,-0.435622,0.657870
7304364501,-13.075006,17.697863,4.275751,0.797557,-0.503114,0.616048
7304404605,-3.751081,3.089058,6.270617,0.761679,-0.485238,0.460266
7304424657,-3.923064,-9.768607,15.258152,0.676360,-0.406758,0.465660
7304444709,-14.326501,-23.357210,26.078318,0.628321,-0.434093,0.525074
7304464761,-24.819828,-45.722984,35.617599,0.497445,-0.559745,0.845695
7304484813,-19.867548,-86.065819,35.247093,0.368319,-0.669778,1.139974
7304504866,-35.874012,-116.213852,19.236137,0.477376,-0.247682,0.987448
7304524918,-49.943920,-140.448990,14.223935,0.695906,-0.526340,0.052749
7304544970,-47.764450,-123.490211,1.022824,1.287430,-0.528555,-0.264672
7304565022,-48.751503,-98.218132,-1.678655,1.377277,-0.215252,0.860852
7304585074,-48.335793,-86.721161,6.754858,1.081208,-0.588251,1.025481
7304605126,-42.534222,-87.353958,1.548263,0.583693,-0.443053,0.662188
7304625178,-46.532612,-97.136833,-8.238956,0.292117,-0.259468,0.404519
7304645230,-47.770252,-104.418098,-13.071545,0.166074,-0.086078,0.311552
7304665282,-53.452488,-112.274109,-8.184372,0.112863,-0.113757,0.258146
7304685334,-59.440670,-111.542610,-7.570900,0.416630,-0.253370,0.156035
7304705386,-56.680122,-97.376381,-10.409738,0.744362,-0.370620,0.044746
7304725438,-47.077538,-79.837639,-16.430597,0.897599,-0.292979,0.101192
7304745492,-40.543320,-68.364754,-13.311995,1.124911,-0.305612,0.225553
7304765544,-43.096786,-55.712231,-3.956790,1.571580,-0.511286,0.024156
7304785596,-28.402958,-25.319851,-1.929396,1.506854,-0.689199,-0.120386
7304805648,4.959132,12.435363,-15.736037,1.375220,-0.834650,0.028415
7304825700,13.247596,29.362247,-12.735367,1.251276,-0.660126,0.027607
7304845752,28.613733,46.555740,-9.707778,0.992861,-0.548332,-0.019053
7304865804,50.236145,62.014412,-8.957669,0.724743,-0.315714,0.113680
7304885856,42.991081,73.661072,-2.537993,0.746969,-0.281468,0.084177
7304905908,55.377888,93.467529,-3.398791,0.863795,-0.421198,-0.086695
7304925961,63.718140,105.959213,2.883674,1.052982,-0.349339,-0.001481
7304946013,67.702560,112.818520,8.974860,1.143552,-0.542505,-0.098939
7304966065,68.237747,109.464752,2.718433,1.092030,-0.604782,-0.081043
7304986117,74.829803,118.059280,-5.165291,1.089454,-0.527640,0.117719
7305006169,75.740082,126.377380,-5.292799,1.011648,-0.340197,0.264412
7305026221,78.023323,127.630287,-7.601919,0.816113,-0.300445,0.304373
7305046273,65.998863,110.094032,-1.087588,0.550567,-0.236596,0.471523
7305066340,45.679699,81.846931,10.559612,0.400783,-0.146358,0.566209
7305086376,28.733650,59.910202,21.380518,0.498481,-0.132678,0.580285
7305106427,9.144943,49.080261,22.970804,0.448045,-0.140037,0.805315
7305126480,-8.613566,25.762026,17.903681,0.287889,-0.133019,1.093566
7305146532,-34.111240,-31.733604,28.092216,0.339240,-0.229958,1.277548
7305166584,-59.670803,-78.369064,29.398708,0.354536,-0.522303,1.053738
7305186635,-43.977169,-118.692444,7.856343,0.378622,-1.046045,0.503666
7305206688,-13.312357,-130.091400,-21.953472,0.658160,-0.864768,-0.010947
7305226740,-38.453735,-80.009636,-12.939124,2.253960,0.480092,0.413958
7305246792,-88.893448,-53.178719,36.931416,1.239915,0.154939,0.936208
7305266844,-84.652107,-67.782562,5.451786,0.452141,-0.617431,0.687176
7305286896,-65.022263,-90.368279,-6.452013,-0.111206,-0.693316,0.389412
7305306948,-47.698811,-113.659538,-5.127294,-0.055343,-0.745282,0.170197
7305327000,-40.504242,-117.065567,-4.943760,0.415260,-0.244797,0.152109
7305347052,-39.567249,-109.420624,-2.310217,0.820333,-0.153956,0.024600
7305367104,-27.330471,-91.030029,-7.205668,0.857909,-0.304214,-0.011838
7305387156,-20.551682,-75.080650,-19.116491,0.856039,-0.382142,0.035038
7305407208,-20.567822,-66.376221,-26.801228,1.039814,-0.321083,0.006915
7305427260,-21.703821,-49.222980,-23.881405,1.316290,-0.426432,-0.013536
7305447312,-11.384904,-24.986168,-19.527266,1.493287,-0.491857,0.073544
7305467365,-1.926584,3.857855,-18.030807,1.535498,-0.541556,0.066966
7305487417,9.114667,26.335728,-18.839710,1.425601,-0.640888,0.139590
7305507469,23.523949,34.782352,-23.390919,1.044481,-0.652454,0.107121
7305527521,34.281937,37.758999,-21.207047,0.800049,-0.604399,-0.053762
7305547573,47.963642,47.073189,-7.920124,0.694228,-0.490932,-0.083000
7305567626,55.376026,64.426842,3.423814,0.804214,-0.356378,-0.017250
7305587679,66.528137,87.228149,9.207453,0.848827,-0.220760,0.127094
7305607730,57.909309,106.125824,14.791676,0.987061,-0.173947,0.145618
7305627783,65.544411,120.053566,17.204168,1.084882,-0.204179,0.036328
7305647835,62.144409,140.646210,11.738183,1.190399,-0.528826,-0.025967
7305667887,68.591728,151.572311,-0.640265,1.093907,-0.447528,0.422105
7305687939,51.118370,161.064331,-14.574241,0.940430,-0.400223,0.328585
7305707991,57.223190,151.666718,-11.141045,0.779382,-0.392251,0.581827
7305728043,46.496014,131.194443,8.714334,0.514614,-0.148792,0.728819
7305748095,8.015842,99.550453,26.579185,0.316298,0.110986,0.728950
7305768147,-36.047249,65.791321,29.121052,0.143788,0.134877,0.876683
7305788199,-50.171116,8.417690,38.441185,-0.086072,-0.496822,1.182192
7305808251,-37.657234,-70.135117,13.401343,0.035868,-0.813549,1.175907
7305828303,-37.918377,-101.125114,6.406738,0.332496,-0.177908,0.862646
7305848355,-57.501972,-100.131882,15.618605,0.911539,-0.448920,0.320400
7305868418,-46.809971,-61.578300,15.800327,1.425251,-0.740374,0.497551
7305888458,-43.529278,-56.082958,11.050975,0.740119,-0.555413,1.093663
7305908510,-60.675995,-77.360481,-2.057089,0.541682,-0.128277,1.061956
7305928562,-69.260399,-109.015007,2.481104,0.364047,-0.218489,0.617224
7305948614,-66.775986,-129.851151,-5.565031,0.226202,-0.499340,0.260504
7305968666,-59.868378,-133.796417,-17.089029,0.387852,-0.441237,0.104656
7305988718,-52.973808,-123.977020,-17.693701,0.531170,-0.291372,0.059949
7306008770,-41.297932,-110.320335,-14.304001,0.612260,-0.379047,0.002828
7306028822,-35.974586,-97.672905,-10.279545,0.671106,-0.450646,-0.108805
7306048874,-28.937002,-81.625336,-4.584877,0.740793,-0.514185,-0.083400
7306068926,-25.312979,-64.080208,-3.433971,1.030071,-0.574629,-0.008397
7306088979,-7.624433,-36.799618,0.422047,1.387136,-0.699194,0.089733
7306109031,15.084764,-12.263905,-3.960140,1.440465,-0.807741,0.159985
7306129083,36.723976,13.003201,-14.013534,1.521854,-0.819935,0.216325
7306149135,52.256500,32.870098,-15.769959,1.379903,-0.590582,-0.021455
7306169187,52.942627,44.321861,-14.741027,1.120524,-0.360765,-0.087028
7306189239,46.443924,57.963257,-9.389540,0.846419,-0.267399,-0.091870
7306209291,40.498318,69.676117,-2.250546,0.689193,-0.310313,0.032569
7306229343,45.673443,80.115509,4.502416,0.716972,-0.404273,0.052758
7306249395,58.275639,93.634232,3.140260,0.685184,-0.403068,0.078511
7306269447,65.960243,103.995064,2.101445,0.756109,-0.438442,0.174034
7306289499,70.068115,109.962624,6.316081,1.021140,-0.455435,0.273447
7306309551,77.483887,118.861717,6.100925,1.182786,-0.551307,0.164097
7306329603,74.118256,131.711060,-12.518199,1.111312,-0.430097,0.507912
7306349657,62.553730,145.322449,-17.449480,1.038060,-0.368242,0.562662
7306369709,50.904488,141.823563,-6.496908,0.868804,-0.107777,0.721585
7306389761,21.409494,134.359634,10.546320,0.563940,0.072734,0.741691
7306409813,-19.388451,105.338120,27.736000,0.061400,0.094542,0.877020
7306429865,-51.480316,40.896137,31.569296,-0.289446,-0.212237,0.959698
7306449917,-46.515823,-25.431318,14.728299,-0.376934,-0.604020,0.870182
7306469969,-20.839775,-69.117661,-1.515861,0.089358,-0.727075,0.297341
7306490021,17.105495,-63.716183,-20.889259,0.894669,-0.893731,0.247813
7306510073,19.949177,-12.939969,-41.354084,2.082464,0.073410,0.759175
7306550177,-69.643372,-1.988262,14.594985,0.405919,-0.781128,1.219963
7306570229,-50.631908,-32.438507,-10.953938,0.377410,-1.005760,0.876908
7306590281,-29.126663,-52.848602,-19.311359,0.274690,-0.706206,0.598969
7306610333,-23.164238,-67.565605,-9.364615,0.322050,-0.426669,0.544992
7306630385,-23.196188,-81.737839,-7.890925,0.353794,-0.190470,0.563751
7306650437,-30.995163,-93.152428,-7.697282,0.468811,-0.110748,0.529743
7306670488,-37.622429,-95.279099,-4.610578,0.582201,-0.242804,0.490087
7306690540,-39.648560,-93.800453,-3.993489,0.670053,-0.357526,0.459410
7306710592,-39.634079,-92.782227,-8.650482,0.746659,-0.371795,0.415312
7306730644,-40.735340,-92.731453,-12.674699,0.678652,-0.303282,0.349691
7306750696,-44.039696,-92.578400,-12.666489,0.710627,-0.304317,0.323119
7306770748,-48.054790,-93.154343,-7.168355,0.791906,-0.384555,0.245827
7306790800,-46.215797,-91.912895,-2.451586,0.880862,-0.518570,0.129677
7306810852,-40.905277,-88.377991,-2.389837,0.888788,-0.579784,0.130078
7306830904,-32.356945,-89.556610,-3.123927,0.916210,-0.609955,0.055097
7306850956,-24.075676,-85.850182,-4.215811,0.927008,-0.582667,0.081214
7306871008,-19.897305,-79.808128,-3.889462,0.919104,-0.513617,0.088720
7306891060,-18.179890,-76.993149,-2.315761,0.926925,-0.430517,0.066001
7306911112,-20.718805,-68.867401,-1.683502,0.999051,-0.420187,0.027404
7306931164,-17.514139,-57.647976,-2.776760,1.007389,-0.428311,0.055368
7306951217,-20.224405,-47.864014,-3.855421,0.980653,-0.493075,0.060654
7306971269,-16.107281,-41.229076,-4.546674,0.956227,-0.442686,0.081073
7306991320,-17.750996,-34.908585,-2.195664,0.966829,-0.423239,0.066927
7307011373,-14.770159,-30.656654,-0.392409,0.940034,-0.452624,0.049173
7307031425,-12.837557,-30.034725,-1.281967,0.901546,-0.454965,0.037476
7307051477,-20.487949,-25.816399,-3.393195,0.910622,-0.445554,0.039794
7307071529,-14.376141,-18.745932,-2.108539,0.902428,-0.485823,0.026842
7307091581,-9.286198,-15.295351,-1.947895,0.924861,-0.496936,0.046943
7307111633,-8.089422,-15.977792,-4.249966,0.930364,-0.438144,0.027488
7307131686,-7.483819,-14.720845,-5.391353,0.923290,-0.463779,0.034006
7307151739,-2.996030,-12.708093,-5.081543,0.922963,-0.486296,0.054350
7307171791,-1.268112,-12.644475,-5.211210,0.895954,-0.483938,0.026229
7307191843,2.171169,-14.433552,-7.154042,0.856933,-0.456115,0.059349
7307211895,0.850311,-21.270571,-10.085813,0.839763,-0.388647,0.046540
7307231947,2.079326,-20.731232,-12.498211,0.884544,-0.369560,0.033731
7307251999,-0.856085,-18.893612,-14.193623,0.918373,-0.368780,0.032235
7307272051,-9.279965,-17.154652,-12.620243,0.947032,-0.371374,0.043465
7307292103,-14.441410,-16.219538,-8.286492,0.955133,-0.401846,0.014156
7307312155,-16.523249,-18.698462,-1.986688,0.934606,-0.439644,0.004451
7307332207,-11.163145,-21.974201,3.873678,0.918276,-0.468716,-0.056766
7307352259,-8.539660,-19.408972,5.834449,0.875132,-0.377662,-0.036223
7307372311,-5.110127,-20.375486,3.123312,0.844346,-0.403726,-0.043410
7307392364,-4.718843,-20.451548,-0.893410,0.917122,-0.437514,-0.015601
7307412415,-3.025809,-21.599356,-2.868156,0.812558,-0.530440,-0.093882
7307432467,-1.628933,-23.473974,-12.601146,0.910840,-0.350411,-0.029378
7307452540,-11.286271,-26.256355,-8.033223,0.944240,-0.282125,-0.069103
7307472570,-8.667310,-25.873114,-8.960093,0.871931,-0.311207,-0.052101
7307492622,-8.237731,-30.313686,-10.506207,0.881711,-0.365904,-0.060124
7307512674,-4.702133,-31.627171,-9.381234,0.924393,-0.358066,-0.020286
7307532726,-13.441625,-32.794582,-9.677309,0.903070,-0.401234,-0.062563
7307552778,-15.312444,-29.500122,-13.788223,0.897637,-0.420901,-0.090184
7307572830,-20.924114,-28.796976,-20.427847,0.928075,-0.379900,-0.093170
7307592882,-24.614101,-18.942257,-22.506832,0.992208,-0.449901,-0.112354
7307612934,-35.199306,-8.130042,-26.905863,1.028001,-0.480283,-0.075758
7307632986,-41.250774,-2.132949,-26.712200,0.999209,-0.562975,-0.161618
7307653039,-42.872807,0.362999,-31.297920,0.965462,-0.548006,-0.119679
7307673091,-51.026089,2.846980,-29.840887,1.013245,-0.508005,-0.157247
7307693143,-53.728283,15.201435,-24.236189,0.944746,-0.426955,-0.114319
7307713195,-64.823952,19.295811,-12.415659,0.985144,-0.455868,-0.179499
7307733247,-65.598976,35.310822,-2.602770,0.926332,-0.450467,-0.071735
7307753299,-84.220947,41.549278,4.317000,0.877418,-0.453222,-0.015156
7307773351,-98.271790,38.944500,9.098061,0.820878,-0.415864,-0.030803
7307793403,-88.049728,36.147942,8.891906,0.752180,-0.469459,-0.166451
7307813455,-76.998116,41.620560,4.518857,0.729742,-0.406259,0.083681
7307833507,-92.311203,29.302103,-1.973974,0.932226,-0.440723,-0.071078
7307853559,-96.314262,33.076363,-9.632745,1.092122,-0.474783,-0.146075
7307873611,-106.513168,36.599377,-5.033308,1.016579,-0.505715,-0.213962
7307893664,-103.923187,45.354080,0.900257,0.911974,-0.440519,-0.162200
7307913716,-113.590210,46.100998,5.342337,0.947392,-0.433139,-0.095961
7307933768,-125.885025,47.764927,8.652914,1.013888,-0.461363,-0.212586
7307953821,-126.904175,57.578846,12.947039,0.942264,-0.447844,-0.209160
7307973873,-130.793167,59.314053,15.238846,0.849148,-0.439606,-0.113851
7307993925,-134.672958,57.442551,15.026863,0.872470,-0.513660,-0.105103
7308013977,-138.937897,55.339680,17.036446,0.942903,-0.563433,-0.089304
7308034029,-142.078156,52.011314,22.164810,0.912067,-0.559687,-0.134191
7308054082,-140.489700,48.356812,27.254749,0.840967,-0.542876,-0.097445
7308074133,-142.300293,41.245136,31.796947,0.769634,-0.550664,-0.148574
7308094185,-133.935028,45.217503,33.046017,0.730249,-0.506357,-0.061572
7308114237,-141.595322,38.355007,32.632767,0.755618,-0.488201,-0.028247
7308134290,-144.588501,37.848763,31.309238,0.793872,-0.499455,-0.109915
7308154342,-148.801910,29.890764,30.572662,0.888229,-0.543816,-0.087829
7308174394,-152.365433,21.918156,37.634659,0.832869,-0.637585,-0.239368
7308194446,-136.567093,24.601469,45.827888,0.659551,-0.669300,-0.174702
7308214498,-133.927368,18.286295,46.879463,0.678251,-0.651420,-0.076712
7308234550,-131.432831,12.635754,37.962471,0.817670,-0.705379,-0.225331
7308254619,-125.296227,18.048838,26.876390,0.878625,-0.720630,-0.227449
7308274653,-126.347992,23.046911,23.600584,0.897307,-0.609553,-0.188431
7308294704,-133.803314,21.334394,28.201942,0.910840,-0.534150,-0.248555
7308314757,-133.828247,26.370625,31.079762,0.870612,-0.589317,-0.294644
7308334809,-133.008560,33.707851,29.606611,0.830267,-0.604826,-0.216226
7308354861,-141.584885,30.662491,28.703054,0.843755,-0.580850,-0.180690
7308374913,-143.540573,29.197556,28.367733,0.872669,-0.630444,-0.267251
7308394965,-142.264938,31.702900,30.655079,0.897637,-0.695498,-0.232876
7308415017,-147.242065,31.708881,39.122498,0.928101,-0.744031,-0.257819
7308435069,-150.763641,30.891382,51.510559,0.818723,-0.767919,-0.342658
7308455121,-142.740112,33.873005,63.282761,0.698507,-0.766464,-0.317625
7308475173,-136.587006,33.320591,75.173889,0.629964,-0.754630,-0.247904
7308495225,-124.132355,31.754871,77.607765,0.597742,-0.767736,-0.218988
7308515277,-117.893997,30.619265,69.280212,0.630183,-0.754821,-0.223089
7308535329,-108.485199,34.751240,55.120358,0.677145,-0.697730,-0.253499
7308555381,-106.293671,35.364143,39.375984,0.755569,-0.647037,-0.189274
7308575434,-111.286095,37.144623,29.594742,0.837450,-0.623325,-0.265948
7308595485,-117.138222,46.735165,25.198261,0.929733,-0.582041,-0.290492
7308615538,-129.579544,51.578472,26.019617,0.906512,-0.519120,-0.264301
7308635590,-146.923416,50.021286,30.593586,0.917991,-0.538384,-0.362061
7308655642,-151.584854,54.377228,35.127583,0.872393,-0.612737,-0.446773
7308675694,-156.622299,59.094509,37.174568,0.779256,-0.587628,-0.340662
7308695746,-165.357834,56.792618,37.549351,0.780659,-0.558712,-0.345622
7308715798,-169.040863,60.642792,35.544109,0.766556,-0.573115,-0.327651
7308735851,-175.414856,62.775768,32.492249,0.764235,-0.582671,-0.315651
7308755903,-179.763733,63.185093,29.695724,0.750933,-0.571922,-0.369128
7308775955,-180.598312,60.586201,27.764759,0.714441,-0.528466,-0.355167
7308796007,-183.623718,61.111160,31.060856,0.757941,-0.565201,-0.370338
7308816060,-180.768600,69.154701,35.912987,0.778822,-0.568931,-0.431403
7308836112,-176.760788,68.567032,38.475296,0.756356,-0.552423,-0.308514
7308856164,-175.784714,63.098942,39.539692,0.818517,-0.610307,-0.401741
7308876216,-167.803741,61.030655,39.165073,0.825789,-0.664898,-0.401967
7308896268,-162.533768,54.336315,36.374508,0.778378,-0.617987,-0.424476
7308916320,-158.573502,48.047108,32.976681,0.809303,-0.576586,-0.495263
7308936372,-152.789017,48.498322,32.321312,0.848072,-0.533266,-0.489763
7308956424,-146.904907,54.898281,34.654251,0.868236,-0.506728,-0.537006
7308976476,-145.145981,57.772572,34.764996,0.842222,-0.447005,-0.390285
7309016580,-138.768127,64.144341,40.523552,0.804525,-0.591597,-0.419234
7309036632,-137.218811,71.380066,42.642921,0.808451,-0.562819,-0.325656
7309056703,-140.154358,73.911453,42.604912,0.888970,-0.569487,-0.372540
7309076735,-130.624878,77.551285,41.694714,0.859592,-0.529297,-0.404114
7309096787,-124.070488,74.780487,40.951649,0.712739,-0.584143,-0.379255
7309116839,-116.835953,67.448654,36.169327,0.706218,-0.601774,-0.346651
7309136891,-110.492722,65.706512,32.648888,0.789857,-0.669362,-0.288655
7309156943,-104.294281,61.369473,28.311342,0.847497,-0.641908,-0.322010
7309176995,-98.499619,57.083168,24.011658,0.828791,-0.536559,-0.309456
7309197047,-97.242630,48.255745,22.995737,0.803975,-0.498999,-0.309431
7309217099,-96.352310,44.149384,22.198627,0.820553,-0.555252,-0.325658
7309237151,-88.958023,44.459476,20.376020,0.805496,-0.587597,-0.291399
7309257203,-83.999504,41.251961,19.453125,0.812416,-0.608813,-0.263839
7309277255,-79.583847,38.676765,18.240238,0.785556,-0.624327,-0.277301
7309297308,-72.485985,34.927128,18.212780,0.797224,-0.655204,-0.246142
7309317360,-61.856873,32.285454,19.264057,0.806951,-0.687903,-0.240605
7309337412,-50.494865,32.357605,20.123829,0.819354,-0.708430,-0.184567
7309357464,-39.896210,32.051575,19.598227,0.814039,-0.706751,-0.180716
7309377516,-27.544010,33.575905,17.383173,0.780161,-0.677204,-0.154942
7309397568,-17.573242,32.352798,14.155262,0.775218,-0.647368,-0.119786
7309417620,-13.256600,30.332054,11.887026,0.792313,-0.634876,-0.087364
7309437672,-13.574934,26.247440,13.371531,0.796488,-0.617952,-0.092620
7309457724,-15.942284,20.503231,18.636789,0.821252,-0.571692,-0.063533
7309477776,-20.418102,8.285620,21.658989,0.876263,-0.511968,-0.146448
7309497828,-13.365716,4.572733,21.487419,0.942949,-0.485434,-0.213992
7309517880,-12.713834,6.135633,25.445597,0.965981,-0.472271,-0.090559
7309537932,-13.156827,7.354887,26.623869,0.844308,-0.471815,-0.065253
7309557986,-13.117884,3.919026,21.103056,0.808303,-0.428110,0.036413
7309578038,-0.907495,-1.631579,16.729691,0.768608,-0.544703,-0.023139
7309598090,16.993393,-1.944590,6.379225,0.813355,-0.582759,-0.048283
7309618142,39.137024,7.382802,-0.140677,0.907396,-0.556330,-0.069916
7309638194,50.766773,12.766137,-1.231933,0.941447,-0.469318,0.018657
7309658246,54.193417,5.886549,-0.209004,1.023155,-0.338552,0.026903
7309678298,54.426346,0.166449,6.176949,1.063366,-0.233533,0.019974
7309698350,47.119923,-0.273503,12.570085,1.014793,-0.205057,0.049292
7309718402,38.389717,0.958043,15.850586,0.938645,-0.272801,0.025179
7309738454,34.729664,1.744788,16.788946,0.879231,-0.305042,0.099111
7309758506,35.184399,-2.693797,14.333343,0.877198,-0.367348,0.088184
7309778559,34.778469,-3.983430,8.918974,0.912789,-0.359250,0.109065
7309798611,31.958269,-4.831948,6.118671,0.937791,-0.383185,0.070438
7309818663,34.247730,-5.341479,4.816045,0.922333,-0.396965,0.023865
7309838715,38.473740,-7.754506,3.034246,0.895481,-0.367351,0.002064
7309858788,43.129131,-7.757956,1.281888,0.896989,-0.400887,-0.005262
7309878817,52.299934,-9.329443,-0.989595,0.890025,-0.443128,0.021898
7309898869,60.295082,-10.948736,-4.799030,0.887370,-0.510383,-0.004790
7309918922,72.353920,-11.489323,-10.296134,0.907691,-0.497971,0.021567
7309938974,75.945564,-15.197165,-14.483357,0.921903,-0.481936,-0.015871
7309959026,79.890045,-16.161366,-16.163944,0.923042,-0.418219,-0.039685
7309979078,79.994720,-16.092491,-12.594530,0.936776,-0.318011,0.008875
7309999130,72.679634,-13.631661,-8.469915,0.964112,-0.259289,0.013024
7310019182,65.941483,-7.466507,-5.010059,0.998726,-0.236460,0.022185
7310039234,58.425358,-2.198544,-2.160734,0.990552,-0.249363,0.023367
7310059286,52.561710,1.222495,1.043009,0.986719,-0.268101,0.079905
7310079338,47.406891,1.594048,3.893221,0.985656,-0.304352,0.092859
7310099390,42.425426,3.418254,4.585944,0.978377,-0.341622,0.124594
7310139494,37.142452,5.630730,3.367537,0.931012,-0.331642,0.143683
7310159546,32.965633,7.630527,4.582320,0.914132,-0.330112,0.145272
7310179598,31.331038,9.774603,5.575927,0.907578,-0.374022,0.118923
7310199650,33.831726,11.955460,5.711537,0.905654,-0.407781,0.121936
7310219702,34.467216,12.584044,6.012306,0.866951,-0.343348,0.129095
7310239754,30.153511,14.897612,6.566688,0.870507,-0.334860,0.124842
7310259807,27.928814,19.398426,7.491748,0.920359,-0.384051,0.120857
7310279859,29.860935,23.346905,9.213047,0.929866,-0.465713,0.095058
7310299911,34.143333,25.129456,6.954454,0.919015,-0.539593,0.070207
7310319963,44.212139,21.880867,5.059805,0.880387,-0.522471,0.072643
7310340893,52.073662,21.613022,6.194819,0.960371,-0.509716,0.107508
7310360946,53.079624,24.915924,5.235716,1.007437,-0.511310,0.135125
7310380998,59.141312,28.401911,0.401364,0.970441,-0.537168,0.098627
7310401050,64.008789,32.264145,-2.531547,0.946637,-0.473090,0.161517
7310421102,61.727692,33.352905,0.315188,0.907628,-0.353968,0.193762
7310441155,54.127972,31.158966,5.767100,0.843354,-0.303065,0.230889
7310461206,48.623055,23.823551,8.765255,0.795320,-0.340415,0.263335
7310481259,45.883106,11.755174,8.390959,0.745726,-0.379570,0.360683
7310501310,43.187714,-4.509043,4.756993,0.732924,-0.339924,0.409666
7310521362,38.796688,-21.932117,-0.297229,0.809609,-0.235284,0.370463
7310541414,31.325377,-35.605961,-4.741816,0.755172,-0.190837,0.303490
7310561466,28.412169,-46.277523,-8.538977,0.602856,-0.268137,0.245229
7310581519,39.411880,-56.731316,-15.085341,0.565686,-0.448712,0.222335
7310601571,58.747379,-63.901279,-22.381102,0.713446,-0.558980,0.125050
7310621623,70.788567,-60.514305,-28.642050,0.997458,-0.491281,0.101196
7310641675,68.566925,-51.293835,-17.327343,1.349956,-0.272880,0.154153
7310661746,50.503998,-34.885651,4.070893,1.394127,-0.024707,0.239933
7310681777,23.404465,-18.052422,19.210608,1.281601,0.038948,0.197319
7310701829,2.392505,-7.773047,24.139179,1.050343,-0.083532,0.207094
7310721882,-5.672077,-6.796525,23.630850,0.848400,-0.251140,0.246137
7310741933,-6.474208,-9.988656,19.102335,0.764612,-0.356446,0.284388
7310761986,-6.416334,-12.867421,14.019175,0.758245,-0.358750,0.283098
7310782038,-5.447937,-14.968300,8.554069,0.819372,-0.287200,0.270524
7310802090,-4.860142,-16.805565,5.543768,0.894135,-0.245877,0.264214
7310822142,-2.453224,-18.124752,4.539470,0.924370,-0.271023,0.235455
7310862246,0.499922,-21.419312,5.125789,0.951384,-0.323887,0.225897
7310882298,2.087756,-23.152493,6.722787,0.951487,-0.359346,0.179412
7310902350,3.855236,-23.159779,6.146192,0.935218,-0.351291,0.166934
7310922402,5.278042,-22.238094,7.559783,0.902357,-0.355722,0.160663
7310942454,10.123500,-20.320299,8.089584,0.896410,-0.407328,0.174396
7310962506,15.601976,-19.289902,6.901798,0.940944,-0.425020,0.175644
7310982558,19.317673,-17.165205,5.309174,0.959644,-0.407236,0.164755
7311022662,22.599401,-11.785528,12.246969,0.910382,-0.334691,0.149752
7311042715,20.316124,-7.523223,12.733294,0.941964,-0.312534,0.163171
7311062767,18.411337,-1.329945,13.250725,0.947778,-0.348778,0.169175
7311082819,19.981010,3.276481,12.552197,0.944244,-0.378248,0.180216
7311102871,21.623854,8.205547,12.375479,0.946872,-0.378592,0.136432
7311122923,21.872637,16.225077,12.537231,0.905042,-0.381207,0.150707
7311142975,23.598835,22.584017,12.689032,0.892767,-0.399406,0.169826
7311163028,30.164703,28.374374,11.567831,0.893646,-0.445464,0.182907
7311183081,40.991119,35.577267,8.522795,0.919337,-0.479918,0.203119
7311203133,48.285339,38.798790,7.402613,0.976031,-0.434735,0.260164
7311223185,53.098679,42.284214,2.568700,0.926282,-0.429756,0.221855
7311243237,51.070889,53.702648,-3.646787,1.069103,-0.447958,0.159277
7311263289,44.028702,60.251144,-4.068571,1.013364,-0.365123,0.108573
7311283341,33.894779,59.715355,0.901041,0.964100,-0.230878,0.094219
7311303393,24.019115,63.722832,6.142907,0.896399,-0.347462,0.084364
7311323445,20.108309,70.561958,4.028918,0.816256,-0.466960,0.114353
7311343500,25.348686,72.447342,-0.958789,0.805979,-0.464823,0.202322
7311363549,27.099869,70.530617,-3.332590,0.813145,-0.401307,0.316789
7311383601,27.161711,65.560989,-2.928960,0.821499,-0.344138,0.387167
7311403653,25.025795,59.597218,-1.399449,0.783766,-0.380020,0.419033
7311423705,17.798780,52.716469,-1.547525,0.747845,-0.362887,0.472929
7311443757,7.489907,43.335144,-0.170114,0.740805,-0.306595,0.541573
7311463809,0.124549,30.604134,2.688128,0.744400,-0.328707,0.576936
7311483860,-3.083930,15.644738,6.613647,0.725092,-0.405005,0.549508
7311503911,-6.252476,-0.391019,5.972747,0.748310,-0.398388,0.551232
7311523964,-19.800631,-13.651867,4.681710,0.655033,-0.301919,0.583354
7311544016,-37.562412,-32.646866,1.373168,0.595709,-0.233694,0.700566
7311564068,-39.351685,-49.641232,4.971728,0.723466,-0.346837,0.704508
7311584120,-29.285221,-56.670864,5.416848,0.775687,-0.482756,0.619838
7311604172,-14.004148,-57.942806,3.377141,0.732562,-0.404893,0.224011
7311644276,-9.195129,-29.953316,-2.973630,1.091765,-0.304221,0.047350
7311664328,-17.608685,-15.222929,4.883410,1.104116,-0.231754,0.439038
7311684380,-20.019497,-16.698614,6.912920,1.026208,-0.396554,0.592534
7311704432,-18.700214,-22.612190,5.614097,0.842803,-0.520008,0.526407
7311724485,-15.804935,-30.394445,-1.075057,0.674978,-0.476257,0.440734
7311744536,-14.077936,-37.058262,-2.583648,0.584184,-0.372606,0.434528
7311764589,-13.273149,-43.084171,-1.911376,0.608638,-0.356818,0.422885
7311784641,-14.712531,-45.884956,0.857520,0.747458,-0.367849,0.386008
7311804693,-12.009815,-48.721962,3.223405,0.822478,-0.410402,0.346588
7311824745,-11.377125,-50.238499,2.857041,0.864296,-0.420932,0.340827
7311844797,-12.670499,-49.768494,1.688715,0.892137,-0.402141,0.309815
7311864849,-13.151661,-49.055244,0.928530,0.871878,-0.377587,0.269852
7311884901,-10.917282,-48.672256,1.555481,0.882264,-0.347854,0.225139
7311904953,-11.917139,-45.140347,1.664924,0.872250,-0.354342,0.179338
7311945057,-10.527399,-36.938950,1.795335,0.904183,-0.449086,0.175753
7311965110,-10.348233,-32.617504,0.689011,0.920869,-0.444817,0.173095
7311985162,-7.222834,-28.915504,0.622108,0.916109,-0.440629,0.174376
7312005214,-7.579447,-26.513708,1.432484,0.881908,-0.425515,0.169142
7312025267,-10.800217,-23.675375,2.204464,0.899684,-0.414248,0.179226
7312045318,-11.708154,-21.310242,1.393262,0.924034,-0.465587,0.187899
7312065371,-12.661138,-19.527945,-1.492549,0.974155,-0.472817,0.163709
7312105475,-6.951500,-12.343160,-0.920569,0.907993,-0.474822,0.160718
7312125527,-4.378508,-12.836896,-0.025451,0.864540,-0.460472,0.147884
7312145579,0.280330,-12.331632,1.820442,0.834339,-0.451636,0.147749
7312165631,3.816949,-10.809328,-0.004992,0.860295,-0.456516,0.139174
7312185683,8.674501,-4.999575,0.102130,0.912920,-0.415458,0.130438
7312205735,9.845804,-1.176908,1.922656,0.918194,-0.381417,0.146713
7312225787,4.049701,0.031423,0.912520,0.899880,-0.395554,0.152109
7312245839,3.341817,0.611729,-0.226075,0.880453,-0.424021,0.121127
7312265891,3.782305,1.430515,1.536846,0.923969,-0.416330,0.112167
7312285953,-0.528040,5.655357,2.994115,0.940595,-0.430718,0.113633
7312305994,-0.915258,9.650751,3.730800,0.950015,-0.440425,0.113267
7312326046,4.331686,11.887268,1.432411,0.991150,-0.486741,0.101916
7312346098,7.642568,14.938714,1.542000,0.969545,-0.538265,0.142985
7312366150,11.145230,11.929109,1.005459,0.937834,-0.510504,0.157798
7312386202,14.189132,12.063360,1.079721,0.855207,-0.473491,0.160238
7312406254,16.315065,9.960839,1.343906,0.832695,-0.447506,0.208400
7312426306,14.747746,9.431489,2.089016,0.844840,-0.389349,0.207177
7312446358,10.111854,12.843915,1.472564,0.810122,-0.370428,0.194988
7312466410,5.851021,16.587255,2.370632,0.797235,-0.365186,0.182294
7312486463,4.398504,20.477383,3.168684,0.843848,-0.397358,0.193630
7312506515,4.593182,24.288277,2.943274,0.912227,-0.418872,0.203543
7312526567,7.373596,29.253893,1.371503,0.945230,-0.446138,0.216999
7312546619,9.581284,33.384293,-0.826242,0.934871,-0.472495,0.224319
7312566671,11.655415,36.478008,-2.353420,0.923486,-0.483732,0.228186
7312586723,15.010726,39.727749,-2.146003,0.892537,-0.472365,0.214475
7312626827,20.853802,48.759083,2.155994,0.898582,-0.419796,0.230087
7312646879,23.064230,50.524490,0.527240,0.850777,-0.460168,0.318282
7312666931,26.730385,51.016331,-2.310269,0.846973,-0.480265,0.324032
7312686983,32.098545,53.562492,-4.988715,0.871631,-0.493770,0.354445
7312707035,33.159164,51.549732,-5.035203,0.834862,-0.418395,0.415114
7312727087,29.735580,38.970673,0.958822,0.837311,-0.348106,0.444310
7312747139,21.979242,23.971983,3.377856,0.881852,-0.339811,0.369095
7312767191,8.544210,12.855290,1.291179,0.833979,-0.410672,0.313046
7312787245,0.948633,-4.154023,1.337292,0.646788,-0.459790,0.389175
7312807296,-0.008011,-29.503246,2.258662,0.590645,-0.431091,0.403441
7312827349,-19.789255,-45.765198,3.428151,0.606059,-0.267136,0.398199
7312847400,-30.218517,-53.647301,4.307807,0.652282,-0.225413,0.392500
7312867453,-33.692211,-53.051880,1.222336,0.693641,-0.212325,0.328932
7312887505,-35.686882,-43.297394,3.137214,0.798468,-0.256588,0.119971
7312907557,-37.326035,-23.693317,1.584760,0.924183,-0.316526,0.025764
7312927609,-36.325447,-7.484000,4.294874,1.169746,-0.398938,0.166331
7312947661,-33.180687,-3.053463,4.164822,1.186833,-0.446856,0.308059
7312967713,-29.760395,-6.505462,0.992357,1.121867,-0.494934,0.310609
7312987765,-21.008039,-14.445952,-6.759356,0.953836,-0.519925,0.278715
7313007817,-16.588644,-20.228144,-12.084145,0.815891,-0.482757,0.262220
7313027869,-13.746728,-23.665607,-12.368873,0.713747,-0.455061,0.270537
7313047921,-9.861549,-27.524841,-12.000725,0.647450,-0.460351,0.292122
7313067973,-8.578601,-30.923807,-7.002507,0.706325,-0.433437,0.297226
7313088025,-7.218462,-31.932985,-1.140972,0.795139,-0.439192,0.281382
7313108085,-6.358844,-31.615097,1.411740,0.847103,-0.472446,0.266867
7313128128,-3.028464,-30.647314,0.944923,0.881784,-0.511632,0.202129
7313148180,3.255843,-32.143585,-0.855914,0.847231,-0.518378,0.205870
7313168232,10.395807,-34.219387,-2.746000,0.850742,-0.533037,0.158441
7313188284,14.993940,-33.467510,-1.454199,0.849691,-0.461264,0.177507
7313208336,15.507537,-32.262363,3.695159,0.901941,-0.424682,0.141554
7313228388,14.360781,-30.776716,5.706444,0.928514,-0.394647,0.134761
7313248440,11.204016,-29.921436,6.159339,0.913912,-0.412854,0.115328
7313268492,5.794609,-29.486834,7.243527,0.910303,-0.428110,0.116478
7313288545,-1.507089,-27.748516,7.558411,0.909786,-0.411234,0.134093
7313308596,-8.951864,-26.457355,8.140147,0.925902,-0.426255,0.129473
7313328648,-12.271971,-20.746889,9.402476,0.939497,-0.470690,0.165256
7313348701,-16.499704,-18.933178,10.057077,0.894616,-0.446144,0.173288
7313368752,-19.734055,-19.255772,10.407952,0.866531,-0.472300,0.171937
7313388805,-23.585377,-23.233122,12.097957,0.823201,-0.483198,0.166212
7313408857,-23.145391,-28.591763,14.215638,0.816521,-0.480651,0.122693
7313428909,-25.577171,-31.324512,17.962332,0.811599,-0.503155,0.087110
7313448961,-27.861179,-26.546894,20.697830,0.811830,-0.511572,0.083028
7313469013,-33.593521,-22.080088,27.058350,0.853074,-0.532671,0.056027
7313489065,-37.993805,-11.815588,28.077995,0.918904,-0.512829,0.029180
7313509117,-47.827965,1.486312,16.856640,0.949687,-0.514442,0.019602
7313529169,-41.974010,-8.047722,2.631424,1.016414,-0.513651,0.020247
7313549221,-38.329453,4.051939,3.414561,0.963738,-0.436650,-0.083444
7313569273,-31.394009,7.022563,0.211155,0.937242,-0.499111,0.019881
7313589325,-34.384243,16.602068,-4.087760,0.948634,-0.412363,0.055039
7313609379,-26.193947,22.121487,-2.919751,0.960677,-0.409385,0.051818
7313629431,-23.574986,28.312004,-0.319680,0.998255,-0.381888,0.190638
7313649483,-22.949635,24.942461,2.814242,0.902527,-0.455859,0.166095
7313669535,-5.188698,16.623343,0.290160,0.789811,-0.567745,0.212487
7313689587,6.518064,4.196437,-2.081226,0.762793,-0.620592,0.244444
7313729691,27.156513,-17.432899,-5.477505,0.744785,-0.564777,0.038453
7313749743,35.512386,-23.927324,-9.853848,0.735685,-0.532190,0.050463
7313769795,42.841480,-28.458126,-18.374708,0.785010,-0.478646,0.147167
7313789855,53.152813,-42.226151,-26.076571,0.804968,-0.486628,0.074784
7313809899,60.527313,-58.326248,-29.775263,0.752034,-0.448689,0.003534
7313829952,68.430862,-69.041046,-33.583633,0.808914,-0.477599,0.019086
7313850003,68.830963,-80.585205,-33.543995,0.826564,-0.487941,-0.078370
7313870056,73.252701,-88.510361,-35.610027,0.800440,-0.523643,-0.176297
7313890108,82.546333,-98.643089,-36.457527,0.842814,-0.482668,-0.240363
7313910160,98.182472,-104.656693,-31.182484,0.911609,-0.485050,-0.233213
7313930210,94.742409,-99.630333,-26.340487,1.025367,-0.373732,-0.223879
7313950262,78.629570,-88.348343,-25.183826,1.141198,-0.175743,-0.253615
7313970315,61.150120,-67.812843,-10.780237,1.126723,-0.183569,-0.175557
7313990367,47.334465,-48.992043,5.992613,0.987322,-0.344820,-0.139961
7314010419,29.153996,-32.939259,14.568517,0.928537,-0.296771,-0.042415
7314030471,15.634565,-21.338947,18.951811,0.928734,-0.284395,-0.066641
7314050523,17.826454,-13.540481,15.771324,0.921652,-0.316546,-0.071046
7314070575,19.420752,-10.554168,14.563002,0.935197,-0.340589,-0.083577
7314090627,21.089373,-12.578933,6.012751,0.909436,-0.365677,-0.093194
7314110679,19.647526,-14.589892,5.239552,0.974408,-0.390536,-0.107078
7314130731,23.013847,-18.299116,-0.129905,0.945777,-0.379233,-0.189571
7314150783,30.874710,-19.817371,-2.234376,0.936744,-0.395128,-0.258069
7314170835,32.904785,-17.758858,-5.341974,0.971307,-0.327491,-0.215891
7314190887,28.550941,-7.773402,-4.078856,1.006648,-0.302672,-0.207476
7314210939,19.242012,2.197981,0.073629,1.051306,-0.305251,-0.204039
7314230991,11.540443,14.613596,4.914392,0.989371,-0.336984,-0.260096
7314251043,13.926487,21.702566,4.578392,0.890550,-0.322125,-0.190260
7314271095,5.712056,22.653370,6.154415,0.884051,-0.342629,-0.097730
7314291147,1.044647,28.396538,4.385520,0.902665,-0.401177,-0.071200
7314311200,-1.105475,29.598719,3.434761,0.865635,-0.430590,-0.038222
7314331251,1.941299,24.998245,2.706808,0.856579,-0.444325,-0.057122
7314351304,9.708610,17.789646,3.638403,0.821388,-0.471480,-0.121222
7314371356,20.176022,16.774826,5.207079,0.862420,-0.498034,-0.078090
7314391408,17.651209,17.329914,9.147108,0.867631,-0.495877,-0.003916
7314411461,13.132530,12.892227,10.763143,0.919680,-0.454430,-0.023567
7314431513,11.349113,12.893326,17.562088,0.877786,-0.493905,-0.026497
7314451565,6.752038,16.030270,20.152470,0.939685,-0.474404,0.057421
7314471617,-1.024069,12.556374,22.675797,0.826863,-0.469697,0.048023
7314491669,-2.036153,6.355787,16.831406,0.958740,-0.422340,-0.015573
7314511721,3.751559,-2.727749,18.641733,0.824200,-0.508478,-0.084693
7314531773,14.472062,-3.493835,10.091557,0.838261,-0.473829,-0.059001
7314551825,8.992002,-4.497543,5.913350,0.874106,-0.446098,-0.075882
7314571877,13.268208,-5.466782,5.490770,0.853414,-0.508386,-0.076307
7314591930,14.663507,-7.349309,5.284558,0.862771,-0.518067,-0.081309
7314611981,12.512242,-9.151188,4.692783,0.832483,-0.544205,-0.049048
7314632033,22.798857,-13.144365,-3.505070,0.807987,-0.565515,-0.074332
7314652085,30.123842,-15.741790,-11.221642,0.802029,-0.594032,0.023293
7314672137,32.540905,-19.320093,-17.712906,0.809440,-0.553973,-0.016835
7314692190,33.897007,-21.428659,-20.002537,0.819428,-0.510010,-0.031905
7314712242,31.983852,-20.887314,-20.056786,0.906486,-0.468040,-0.052132
7314732293,24.128710,-16.406471,-14.082098,0.965527,-0.377704,-0.091475
7314752344,17.288557,-10.287367,-3.414459,0.919270,-0.388531,-0.110946
7314772396,11.819296,-6.995254,0.600538,0.940565,-0.379874,-0.093263
7314792448,6.192712,-6.229720,2.615873,0.907664,-0.394674,-0.087509
7314812500,4.805671,-3.786278,1.478674,0.908810,-0.408341,-0.058441
7314832553,4.188356,-2.836038,-0.078070,0.903371,-0.426432,-0.039184
7314852605,5.379332,-1.655983,-0.779817,0.903386,-0.440991,-0.034381
7314872657,7.633355,-0.980107,0.520645,0.871576,-0.443383,-0.018765
7314892709,6.235167,-0.766442,2.134717,0.897510,-0.423507,-0.005087
7314912761,5.197754,-0.224267,4.899531,0.894438,-0.422998,0.005609
7314932813,3.154244,-0.903800,7.593118,0.888446,-0.443719,-0.019459
7314952865,3.613597,-2.084646,8.862713,0.889462,-0.486627,-0.046857
7314972917,3.773694,-0.595796,8.834788,0.883919,-0.513028,-0.036866
7314992969,3.280370,-0.235061,7.568033,0.887518,-0.508032,-0.031173
7315013021,2.754472,-1.185286,6.715069,0.871999,-0.512617,-0.025322
7315033073,3.764862,-4.019331,4.109740,0.859422,-0.532901,-0.031357
7315073177,5.284625,-8.861588,-3.240853,0.864561,-0.482874,-0.015449
7315093229,4.274903,-10.040563,-4.949282,0.862038,-0.487785,-0.002595
7315113281,4.368224,-9.984797,-5.828666,0.850811,-0.492105,0.002010
7315133333,3.966852,-10.959811,-4.733795,0.820199,-0.505661,0.005404
7315153385,4.392346,-9.538164,-1.267680,0.836476,-0.553779,0.005440
7315173437,4.541165,-7.129452,1.308392,0.840887,-0.523825,0.015485
7315193489,3.485216,-8.078812,2.335192,0.870040,-0.455341,0.015899
7315213541,3.889562,-9.510777,4.765251,0.886088,-0.483630,-0.001655
7315233595,5.477945,-11.518845,3.718140,0.883311,-0.481395,-0.042144
7315253647,5.047571,-10.671689,3.669898,0.908009,-0.462959,-0.065631
7315273699,2.217937,-7.249466,5.129414,0.935892,-0.420555,-0.084555
7315293751,-1.880197,-3.197400,10.247840,0.927987,-0.390141,-0.104140
7315313803,-6.908191,0.491644,16.542582,0.938869,-0.423707,-0.108582
7315333855,-8.454159,2.665420,18.536476,0.901080,-0.470589,-0.077225
7315353907,-10.069515,0.754513,16.959625,0.875182,-0.522414,-0.050270
7315373959,-9.634467,-3.429408,12.782725,0.834975,-0.564663,-0.044159
7315394011,-4.642174,-7.090860,8.481169,0.808991,-0.575540,-0.038310
7315414063,-1.587801,-9.662896,6.776117,0.799613,-0.570048,-0.027624
7315434115,-0.023510,-12.740100,2.367641,0.810528,-0.514997,-0.004282
7315454167,0.264946,-13.857252,1.886336,0.802623,-0.525360,-0.003491
7315474219,2.379332,-15.998817,0.794026,0.828776,-0.544481,-0.023169
7315494271,3.887613,-16.490345,-1.652811,0.860823,-0.498568,-0.038742
7315514323,2.600995,-16.160692,-2.214339,0.872627,-0.489857,-0.034942
7315534375,-0.921066,-15.292953,-1.814412,0.864890,-0.535641,-0.014109
7315554426,-1.211244,-13.061728,-2.830000,0.840329,-0.538298,-0.037428
7315574478,-1.231374,-10.016633,-3.878803,0.847384,-0.549066,-0.022621
7315594530,-4.020769,-10.479791,-4.603810,0.831224,-0.538064,-0.070668
7315634634,-8.867781,-7.576081,-5.013803,0.869105,-0.544709,-0.122127
7315654686,-10.759734,-2.546766,-1.301624,0.846009,-0.529078,-0.124653
7315674739,-11.704657,0.077646,2.895985,0.833109,-0.542477,-0.125680
7315694791,-11.988712,1.007686,4.992251,0.841437,-0.530045,-0.121675
7315714843,-14.686818,2.352215,6.701407,0.877675,-0.516247,-0.089768
7315734895,-17.584942,4.518014,7.634749,0.865189,-0.498882,-0.067881
7315754947,-16.743092,4.958399,7.973990,0.837061,-0.505811,-0.071636
7315774999,-17.215199,5.683187,6.630183,0.863633,-0.499851,-0.097419
7315795051,-18.309343,5.318848,6.571189,0.839139,-0.516216,-0.094404
7315815103,-19.884119,4.822975,4.223973,0.863708,-0.499001,-0.095156
7315835155,-21.899860,3.648046,2.993357,0.875086,-0.523600,-0.095336
7315855207,-24.243811,1.337231,1.357507,0.855054,-0.508237,-0.091657
7315875259,-26.859787,1.737720,2.562097,0.860449,-0.509708,-0.093692
7315895311,-24.659613,2.242147,4.416433,0.817953,-0.563515,-0.126907
7315915363,-17.467766,1.504952,0.467818,0.799299,-0.600036,-0.130161
7315935415,-14.495759,-1.307005,-4.267961,0.825188,-0.586312,-0.121048
7315955467,-11.481648,0.261376,-4.274420,0.821619,-0.591108,-0.131924
7315975519,-10.339880,0.107726,-6.934505,0.800633,-0.555268,-0.100132
7315995571,-7.087861,1.024395,-9.394384,0.856684,-0.537605,-0.106210
7316015623,-5.103411,1.665158,-9.761077,0.858833,-0.518020,-0.109330
7316035676,-3.079972,4.965775,-9.735264,0.859722,-0.525273,-0.101969
