Timestamp (us),Gyroscope X (deg/s),Gyroscope Y (deg/s),Gyroscope Z (deg/s),Accelerometer X (g),Accelerometer Y (g),Accelerometer Z (g)
7740238275,0.220883,-0.143314,-0.037257,0.991484,-0.000220,-0.111755
7740258321,0.235138,-0.104862,-0.060452,0.994545,0.002327,-0.113990
7740278367,-0.014660,-0.051088,0.089387,0.993988,0.002963,-0.114435
7740298413,0.096919,-0.043718,-0.073300,0.992561,0.002600,-0.112595
7740318459,0.157951,-0.035932,-0.066742,0.992306,0.002874,-0.111592
7740338504,0.060425,-0.043276,0.049846,0.992138,0.004422,-0.110684
7740358550,0.172192,-0.096699,-0.097318,0.991670,0.001327,-0.111488
7740378594,0.006229,0.010354,0.043230,0.991474,0.002781,-0.112123
7740398640,0.159049,-0.118971,0.055865,0.991728,0.002143,-0.113215
7740418686,0.005844,-0.057819,0.050781,0.991106,0.001688,-0.112296
7740438732,-0.025749,-0.073132,-0.017314,0.992553,0.002053,-0.113048
7740458778,-0.032526,-0.080402,0.036284,0.992900,0.002143,-0.114052
7740478823,-0.026835,0.071831,-0.078934,0.991313,0.002965,-0.110940
7740498869,-0.002035,-0.027152,0.020361,0.990742,0.000778,-0.112288
7740518915,0.103878,-0.065206,-0.035015,0.991007,0.001506,-0.112748
7740538961,-0.038620,-0.019026,0.127930,0.992401,0.002147,-0.111411
7740559007,0.044312,-0.072374,0.057521,0.990976,0.002512,-0.109481
7740579053,-0.048118,-0.079966,0.020998,0.990448,0.001239,-0.108472
7740599098,0.148530,-0.034292,-0.089913,0.990674,0.002782,-0.110929
7740619146,0.012897,0.049764,0.027172,0.991157,0.001966,-0.109574
7740639191,-0.063311,-0.133069,0.044461,0.987774,0.004599,-0.109612
7740659237,-0.081027,-0.247166,-0.092292,0.989567,0.003416,-0.111456
7740679282,-0.071173,-0.337616,0.022558,0.993055,0.004696,-0.110519
7740699328,-0.063897,-0.245518,-0.016112,0.994664,0.001875,-0.112539
7740719374,0.020853,-0.039295,0.012147,0.994369,0.000781,-0.113712
7740739420,0.150712,0.059811,0.009292,0.997317,-0.000222,-0.117301
7740759466,0.217825,0.089955,-0.060907,0.994955,0.000140,-0.116626
7740779510,0.195479,0.181203,0.000436,0.989680,0.002318,-0.115269
7740799556,0.179731,0.051321,0.001193,0.987316,0.003407,-0.114595
7740819602,0.063989,0.066267,-0.034804,0.986793,0.004046,-0.113225
7740839647,0.124587,-0.185049,-0.042689,0.987283,0.005050,-0.111420
7740859693,0.094611,-0.169312,0.003748,0.992112,0.002509,-0.112224
7740879739,-0.006655,-0.169081,-0.085954,0.992191,0.001052,-0.112949
7740899785,-0.022342,-0.183935,-0.115874,0.993806,0.002416,-0.114431
7740919831,0.156121,0.014831,0.032980,0.995297,0.000966,-0.112911
7740939876,0.017679,0.014640,-0.002626,0.994130,0.003422,-0.111715
7740959922,-0.128140,0.067727,-0.038154,0.992507,0.004423,-0.110509
7741000014,-0.256090,0.044842,0.041044,0.990388,0.004691,-0.111472
7741020061,-0.104148,0.044599,-0.038291,0.990419,0.000873,-0.110014
7741040107,-0.033413,-0.031400,0.059904,0.993036,0.000237,-0.111782
7741060152,-0.179370,0.052292,0.008836,0.990932,0.003691,-0.111752
7741080198,-0.037905,-0.099707,0.197470,0.991195,0.004054,-0.112302
7741100244,-0.208894,-0.046520,0.039737,0.990832,0.005145,-0.112116
7741120290,-0.215943,-0.061705,0.032208,0.992866,0.002421,-0.110966
7741140336,-0.168381,-0.061303,0.107623,0.993140,0.000875,-0.111059
7741160381,-0.055792,-0.122307,-0.024393,0.992858,0.002056,-0.111419
7741180426,-0.269761,-0.076493,-0.043178,0.993022,0.000508,-0.112508
7741200472,-0.114630,0.030554,0.045025,0.993859,0.001785,-0.111617
7741220517,-0.175031,0.022924,0.076736,0.992929,0.003146,-0.112420
7741240563,-0.106412,0.068482,0.036904,0.991877,0.000965,-0.110220
7741260609,0.070498,-0.022827,0.094747,0.991335,0.000510,-0.109938
7741280655,0.029486,-0.106982,-0.049507,0.989129,0.001234,-0.110628
7741300701,0.159605,-0.076094,-0.029027,0.989652,0.002233,-0.111909
7741320746,-0.009206,-0.152141,-0.048380,0.992229,0.003330,-0.110775
7741340792,0.067307,-0.090796,-0.042415,0.993818,0.003063,-0.108895
7741360838,0.045445,0.008558,0.026622,0.993260,0.002515,-0.109429
7741380884,-0.068513,-0.059956,0.059563,0.994607,0.002879,-0.110633
7741400930,0.113849,0.008628,-0.005459,0.993975,0.001241,-0.110347
7741420977,0.106447,-0.037083,0.025372,0.994419,0.002332,-0.110992
7741441023,0.175856,0.069789,0.077019,0.992414,0.003968,-0.110598
7741461069,0.082857,-0.059952,0.033295,0.992210,0.002510,-0.111862
7741481115,0.028422,-0.059943,-0.011584,0.990851,0.003418,-0.111205
7741501160,-0.055763,0.046797,-0.017893,0.992871,0.002422,-0.110694
7741521206,0.006366,-0.097817,0.034834,0.993748,0.002510,-0.112615
7741541251,0.113724,-0.059417,0.055463,0.994377,0.002965,-0.113171
7741561296,0.058897,0.001484,-0.004921,0.992213,0.001145,-0.111770
7741581342,-0.010642,-0.074848,-0.041496,0.993306,0.000692,-0.111969
7741601387,0.043474,-0.051653,-0.004277,0.992135,0.002966,-0.110954
7741621433,-0.072419,-0.051755,-0.070734,0.989828,0.001687,-0.112274
7741641479,0.021320,-0.051254,0.034533,0.989831,0.003870,-0.112006
7741661525,0.119342,-0.005661,-0.036372,0.991243,0.002421,-0.109849
7741681570,-0.049618,-0.081821,-0.063320,0.990214,0.001052,-0.111191
7741701616,-0.063947,-0.051120,-0.024720,0.993668,0.003330,-0.111979
7741721662,-0.023835,-0.111696,0.073950,0.995211,0.002422,-0.112549
7741741708,-0.055528,0.048333,0.005097,0.993120,0.003511,-0.111970
7741761754,0.036681,0.101485,0.018425,0.987937,0.001049,-0.110879
7741781800,-0.100717,0.002404,0.044282,0.989658,0.001324,-0.111635
7741801847,-0.048544,-0.020675,-0.048333,0.991349,0.001785,-0.109123
7741821893,0.112794,-0.142305,0.002539,0.992868,0.002603,-0.110875
7741841939,0.081810,-0.157186,-0.004499,0.991475,0.002872,-0.112032
7741861984,0.013479,-0.187155,0.035071,0.990732,0.002506,-0.112745
7741882030,-0.093416,-0.102969,0.029192,0.992760,0.004876,-0.111603
7741902076,-0.061402,-0.171060,0.104981,0.992529,0.004607,-0.109330
7741922122,-0.138642,-0.064228,0.037207,0.994152,0.001696,-0.110623
7741942167,-0.001148,-0.026030,0.018999,0.994692,0.002333,-0.110997
7741962211,-0.053977,0.073117,0.050318,0.990926,0.002325,-0.112113
7741982257,-0.001997,0.080295,-0.034839,0.992221,0.001965,-0.111317
7742002303,-0.003230,-0.102817,-0.102875,0.989461,0.001686,-0.112359
7742022349,0.005461,-0.102422,-0.049315,0.991891,0.002687,-0.114218
7742042395,-0.030369,-0.155069,0.096726,0.991812,0.003871,-0.113492
7742062441,-0.238270,-0.162629,-0.006308,0.992750,0.003147,-0.112236
7742082486,-0.033243,-0.086265,-0.109776,0.993395,0.005604,-0.111797
7742102532,-0.197765,-0.077998,0.084465,0.993212,0.003057,-0.111971
7742122578,-0.159097,0.021138,0.075590,0.992195,0.002417,-0.112679
7742142624,-0.122538,-0.024804,-0.032088,0.990672,0.000143,-0.111197
7742162670,-0.059529,-0.115981,0.058709,0.990012,0.001778,-0.112187
7742182717,-0.091104,-0.146250,-0.009417,0.989851,0.003781,-0.110917
7742202762,-0.097843,-0.214181,0.036804,0.992337,0.007145,-0.114505
7742222808,-0.219532,-0.160376,0.046546,0.997268,0.002785,-0.114854
7742242854,-0.333710,0.045524,0.032669,0.996157,0.001508,-0.115741
7742262900,-0.257901,0.144103,-0.053154,0.992460,-0.000677,-0.113314
7742282946,0.004337,0.151645,0.056372,0.990007,-0.001953,-0.112725
7742302992,0.025649,0.044533,-0.027759,0.987817,-0.002229,-0.112597
7742323037,0.034429,-0.023981,0.033395,0.990994,0.002878,-0.108484
7742343082,0.085465,-0.237324,-0.081450,0.989546,0.000147,-0.107910
7742363128,0.177622,-0.259381,-0.037200,0.988793,-0.001767,-0.109255
7742383173,0.208343,-0.243448,-0.007182,0.994504,0.002787,-0.111267
7742403219,0.322511,-0.189474,-0.002010,0.995337,0.005337,-0.110559
7742423265,0.175911,-0.128246,-0.037499,0.992322,0.003785,-0.110686
7742443310,-0.053101,-0.021326,-0.010374,0.995457,0.003611,-0.109106
7742463356,-0.097477,-0.005883,0.059108,0.994737,0.003156,-0.108548
7742483402,-0.091507,0.024293,-0.048112,0.991967,0.000874,-0.110312
7742503448,-0.035419,0.016910,0.080786,0.990952,0.000599,-0.110839
7742523494,-0.099102,0.008934,-0.063309,0.989550,-0.000680,-0.112629
7742543539,0.132297,-0.104968,0.047287,0.990167,0.000775,-0.113731
7742563585,0.146878,-0.081869,0.031522,0.991017,0.001598,-0.112204
7742583633,-0.007105,-0.081856,-0.018946,0.991953,0.002511,-0.110950
7742603678,-0.006189,0.047904,0.026439,0.993971,0.004425,-0.110352
7742623724,-0.006746,0.108498,-0.004401,0.991745,0.002417,-0.112308
7742643770,-0.014669,-0.013481,-0.019042,0.990667,0.001507,-0.111381
7742663816,-0.098317,0.123526,-0.002545,0.989199,0.001596,-0.111719
7742683862,-0.013032,-0.051692,0.057446,0.989769,0.001962,-0.110549
7742703907,-0.090244,-0.219135,0.021151,0.988960,0.004055,-0.109722
7742723965,0.215414,-0.188085,0.007498,0.992813,0.002416,-0.113779
7742743997,-0.167660,-0.004990,-0.031586,0.996731,0.002603,-0.114300
7742764043,-0.081790,-0.020111,0.050920,0.995355,0.002882,-0.109738
7742784089,-0.157253,0.094193,0.082343,0.990404,0.002600,-0.110743
7742804135,0.040589,0.002523,0.025205,0.988829,0.001413,-0.111985
7742824180,0.139744,-0.050786,0.023386,0.991411,0.000145,-0.110756
7742844227,0.123363,-0.088810,-0.022071,0.992262,0.000686,-0.114039
7742864272,0.069056,-0.119134,-0.043721,0.989381,0.004052,-0.111635
7742884318,0.238962,-0.156485,0.067761,0.989492,0.004509,-0.110549
7742904364,0.068754,-0.095481,-0.013311,0.991302,0.003783,-0.111486
7742924410,-0.075253,-0.102691,0.050603,0.990959,0.003875,-0.110300
7742944455,0.230681,-0.125251,0.067445,0.993656,0.004694,-0.112526
7742964503,0.029637,-0.018602,-0.043640,0.993504,0.002331,-0.111067
7742984548,-0.022208,0.080566,0.048758,0.993125,0.000328,-0.111874
7743004594,0.107421,-0.056693,0.031316,0.990891,-0.000399,-0.109293
7743024640,0.229679,-0.071633,0.059452,0.990876,0.002602,-0.109934
7743044686,0.114531,-0.056289,0.053822,0.993420,0.002695,-0.110613
7743064731,0.142872,0.012094,-0.053944,0.992554,0.004146,-0.112870
7743084777,0.296521,-0.147494,0.020093,0.991536,0.001596,-0.113756
7743104837,0.157837,0.004984,-0.008339,0.991755,0.003510,-0.111675
7743124867,0.005355,-0.017830,0.025304,0.990557,0.001415,-0.112377
7743144914,-0.194928,-0.025682,-0.062583,0.992397,0.002601,-0.111594
7743164960,0.156683,-0.132181,-0.076523,0.991301,0.003237,-0.111576
7743185005,0.059403,-0.078173,0.062825,0.990853,0.002691,-0.111113
7743205051,-0.042014,-0.078227,-0.049869,0.990939,0.002235,-0.111477
7743225097,-0.039647,-0.039753,0.064621,0.992671,0.003057,-0.111599
7743245142,-0.011826,0.028537,-0.081329,0.995396,0.002331,-0.112461
7743265188,-0.087950,-0.002040,-0.072014,0.995525,0.002781,-0.115278
7743285234,-0.132224,0.173243,-0.010446,0.991385,0.002417,-0.112030
7743305279,0.044714,0.013082,0.055470,0.992189,0.001325,-0.113040
7743325325,-0.087142,-0.002387,-0.056657,0.991842,0.001690,-0.112036
7743345373,0.042351,-0.055700,-0.081688,0.990201,-0.000587,-0.112005
7743365418,0.089226,0.020673,-0.021574,0.989295,0.002233,-0.111449
7743385464,0.227148,-0.116285,0.022025,0.990702,0.000874,-0.109565
7743405510,0.296203,-0.153944,0.066593,0.992454,0.002152,-0.108598
7743425556,0.225443,-0.153666,0.006644,0.990832,0.001605,-0.107480
7743445601,0.216746,-0.168564,-0.023656,0.989646,0.000239,-0.107458
7743465647,0.338196,-0.168139,-0.033581,0.991615,-0.000308,-0.109669
7743485693,0.489497,-0.259109,-0.066742,0.994442,0.002244,-0.109721
7743505737,0.361077,-0.235294,0.080937,0.995756,0.008254,-0.107484
7743525783,0.458158,-0.212024,0.002352,1.000945,0.002636,-0.099030
7743545829,0.242271,0.169081,-0.048196,0.995969,0.009357,-0.100954
7743565875,0.043663,0.282730,-0.029337,1.000944,0.009360,-0.103580
7743585921,-0.528386,0.533164,0.011523,1.001295,0.002444,-0.104755
7743605967,-0.274502,0.745103,0.028799,1.002614,-0.009204,-0.108208
7743626012,0.124186,0.926103,0.066200,0.991288,-0.013770,-0.108461
7743646058,0.908600,0.642010,-0.032251,0.983219,-0.022436,-0.115480
7743666104,2.092937,0.312763,-0.298410,0.979724,-0.032725,-0.117401
7743686150,2.931025,0.235642,-0.550378,0.998267,-0.012681,-0.116116
7743706196,3.242986,0.205122,-0.540751,0.993037,0.002420,-0.111604
7743726241,3.022950,0.380550,-0.453009,0.985290,0.013965,-0.109948
7743746288,2.506688,0.197999,-0.243706,0.984677,0.033247,-0.112239
7743766334,1.362697,-0.015302,-0.075610,0.978582,0.054521,-0.114440
7743786380,-0.631223,-0.488081,0.033427,0.984398,0.067347,-0.120098
7743806426,-2.975056,-0.442538,0.223943,1.013225,0.049661,-0.113479
7743826472,-4.379880,0.547992,0.301395,1.040910,0.011077,-0.091102
7743846517,-4.243027,2.027265,0.630038,1.018895,-0.052526,-0.080545
7743866563,-0.173909,1.943734,0.291549,0.948979,-0.168543,-0.089781
7743886610,5.528972,0.380984,-0.555128,0.959156,-0.148360,-0.105965
7743906653,10.591921,-0.404362,-1.300279,0.975462,-0.114686,-0.111110
7743926699,14.668655,-0.777468,-1.630311,1.005459,-0.098279,-0.117822
7743946745,17.952066,-0.327550,-1.886557,1.012301,-0.091247,-0.108146
7743966791,20.424564,0.297360,-2.173499,1.019084,-0.058390,-0.104867
7743986837,22.367531,1.020938,-2.572758,1.013969,-0.051111,-0.099526
7744006883,24.143549,1.439822,-2.891348,0.991278,-0.057690,-0.097131
7744026929,26.552794,1.035699,-3.257693,0.974333,-0.058464,-0.109369
7744046975,28.700010,0.578888,-3.313120,0.975325,-0.050730,-0.109580
7744067020,30.778048,0.167733,-3.390281,0.980931,-0.037725,-0.116687
7744087066,32.287598,0.007547,-3.625359,0.985480,-0.034007,-0.127119
7744107111,33.604858,-0.228049,-3.497306,0.989275,-0.033559,-0.134175
7744127159,34.989632,-0.159975,-3.875910,0.989005,-0.024279,-0.133368
7744147204,35.382088,-0.206258,-4.158463,0.976571,-0.008094,-0.128100
7744167250,35.197758,-0.800801,-4.183473,0.977116,0.008812,-0.136942
7744187296,34.155537,-1.143312,-3.879375,0.986317,0.032859,-0.127063
7744207346,32.129181,-1.258184,-3.885522,0.996643,0.071906,-0.124399
7744227387,28.346046,-0.771290,-3.813735,0.992613,0.117382,-0.127038
7744247433,23.482618,-0.626897,-3.429469,0.993282,0.157326,-0.123031
7744267479,18.757200,-0.580489,-2.596710,0.996903,0.149365,-0.100930
7744287523,13.827727,-1.174927,-2.032950,0.968440,0.214561,-0.095015
7744307569,5.206575,-1.403418,-0.986136,0.999873,0.210835,-0.118966
7744327615,-4.154116,-0.801216,0.148677,0.995041,0.221127,-0.108098
7744347661,-12.612351,-1.258960,0.910359,0.985352,0.240707,-0.087813
7744387752,-29.616116,-1.334665,3.074503,1.006225,0.262478,-0.088840
7744427844,-46.730267,-0.952621,5.460868,0.987975,0.276513,-0.111247
7744447890,-55.326988,-0.967542,6.582911,0.999032,0.262038,-0.126480
7744467936,-63.722679,-0.442068,7.385955,1.006902,0.212431,-0.148228
7744487982,-70.951294,0.434890,8.447917,1.004875,0.170459,-0.166370
7744508029,-76.877144,1.387793,9.247461,1.022652,0.131260,-0.175504
7744528075,-79.950195,2.622535,9.662128,1.021862,0.027104,-0.170506
7744548120,-79.520378,4.047865,9.702533,0.996637,-0.082045,-0.139122
7744568166,-75.726143,1.600021,8.620746,0.898576,-0.087702,-0.171300
7744588212,-72.758469,-0.129853,8.316751,0.931537,-0.029455,-0.236502
7744608258,-72.295647,-2.020039,8.184159,0.957994,0.020993,-0.230228
7744628303,-73.634186,-2.392867,8.593446,1.001294,0.062885,-0.188552
7744648349,-76.440567,-1.447749,8.965696,1.032018,0.109988,-0.174176
7744668394,-80.514236,0.411721,9.412983,1.072160,0.129603,-0.175528
7744688440,-85.017899,2.697579,9.744930,1.021815,0.126213,-0.147431
7744708485,-88.938614,3.040648,10.247787,0.949507,0.094929,-0.132893
7744728531,-91.090134,1.394679,10.562467,0.910560,0.046359,-0.147489
7744748577,-90.664650,-1.004970,10.921348,0.915086,-0.037168,-0.159683
7744768623,-87.509064,-2.879009,10.866355,0.940166,-0.112981,-0.147004
7744788668,-82.156906,-3.556775,10.466741,1.001974,-0.179831,-0.138233
7744808714,-74.495117,-3.237565,9.216639,1.009380,-0.226334,-0.101790
7744828760,-66.481758,-2.499164,7.943036,1.017672,-0.221595,-0.156042
7744848806,-61.569962,-1.981243,7.249969,0.887278,0.005859,-0.241797
7744868852,-64.975693,-5.005873,8.021496,0.930344,0.079861,-0.254364
7744888899,-66.137344,-6.720693,8.110878,0.997769,0.020270,-0.208665
7744908945,-64.813354,-6.613490,8.176526,1.037050,-0.016068,-0.264194
7744928991,-64.613228,-5.845594,7.375377,1.056616,0.182628,-0.221739
7744949037,-69.544586,-2.595661,9.393534,1.036606,0.178373,-0.193159
7744969082,-76.129700,-1.049764,9.653711,1.008676,0.227490,-0.174427
7744989128,-82.638054,0.787750,10.767271,0.982564,0.147314,-0.169037
7745009174,-88.917625,1.892706,11.450909,0.991208,0.081237,-0.194311
7745029220,-93.160912,2.166917,11.876200,0.992213,0.025151,-0.222104
7745049264,-96.378212,2.326293,11.961022,0.988574,0.074485,-0.203696
7745069310,-99.713921,2.539490,12.261925,0.995597,0.091235,-0.203208
7745089355,-101.900650,2.997115,12.669622,1.011140,0.046007,-0.224640
7745109401,-101.822433,4.193758,12.725252,1.014920,-0.013040,-0.231324
7745129447,-99.864578,5.671701,12.277345,1.023841,-0.071051,-0.221939
7745149493,-97.243439,7.812543,11.699738,1.044418,-0.077331,-0.240435
7745169539,-95.242126,10.136040,11.087701,1.051310,-0.049345,-0.265653
7745189585,-94.836105,11.566893,10.234499,0.944756,0.006610,-0.172426
7745209630,-96.427086,6.520730,9.953588,0.888268,0.013254,-0.227574
7745229676,-97.734299,3.459018,10.921403,0.858001,0.029709,-0.208839
7745249722,-99.399162,-0.517998,11.593548,0.920484,0.029849,-0.232871
7745269768,-101.116982,-1.752627,11.776179,0.955022,0.069654,-0.181238
7745289815,-103.398361,-1.464043,11.605525,0.976353,0.072958,-0.129865
7745309861,-105.227287,-1.678104,11.527105,0.967852,0.054658,-0.131323
7745329906,-106.127693,-1.844766,12.057110,0.976465,0.013962,-0.156729
7745349952,-105.599251,-2.149323,12.116643,0.958765,-0.019535,-0.152832
7745369998,-103.716080,-2.919170,11.845778,0.962333,-0.085639,-0.137169
7745390044,-99.397385,-3.908817,11.811122,0.978852,-0.169866,-0.143121
7745410090,-92.481148,-4.983845,10.817013,0.962995,-0.188304,-0.113135
7745430135,-85.481018,-5.547323,10.216928,0.915939,-0.068587,-0.179435
7745450180,-87.331421,-8.992224,10.333076,0.859575,0.169963,-0.276819
7745470226,-90.963486,-12.123203,11.277462,0.944358,0.005580,-0.188848
7745490271,-89.810562,-13.409948,11.656729,0.955865,-0.030898,-0.249532
7745510317,-87.098717,-15.170829,11.159124,0.891547,-0.075611,-0.325885
7745530363,-81.582741,-17.332108,11.838716,1.124678,-0.051799,-0.430027
7745550409,-81.941757,-10.494736,12.464801,1.134294,0.205663,-0.223192
7745570455,-89.941803,-5.320009,13.420442,1.082922,0.266082,-0.172852
7745590500,-97.470306,-1.226578,14.699116,1.036064,0.226781,-0.238437
7745610546,-104.033043,2.804474,15.263886,1.010286,0.139902,-0.269171
7745630592,-109.782593,5.150019,15.191889,0.965106,0.067352,-0.257206
7745650638,-115.804527,6.502245,14.043398,1.016382,0.115767,-0.237917
7745670685,-121.071808,7.699306,14.890483,0.992280,0.104195,-0.228228
7745690731,-125.008888,8.208886,14.904051,1.000621,0.069313,-0.257996
7745710777,-126.424225,8.543693,14.846343,1.015010,-0.002472,-0.274462
7745730823,-124.959610,9.796353,15.883555,1.021929,-0.016086,-0.261939
7745750869,-124.211327,10.922249,14.940673,1.021496,-0.007153,-0.303886
7745770915,-124.474106,12.605908,14.726205,1.037833,0.059375,-0.353930
7745790960,-127.437065,15.142168,14.416107,1.057868,0.096320,-0.364591
7745811006,-130.943787,17.557232,14.483753,1.013759,0.081867,-0.321240
7745831050,-133.854599,12.100588,14.802928,0.640840,0.041875,-0.093591
7745851096,-135.380798,1.657729,14.064959,0.847777,0.076998,-0.365970
7745871142,-137.371292,-3.479240,14.105400,0.736786,0.045582,-0.290677
7745891187,-139.107254,-7.913795,14.665825,0.905155,0.062827,-0.298024
7745911233,-141.175461,-9.009197,15.764124,0.947290,0.056285,-0.224113
7745931279,-142.800217,-10.066377,16.861334,0.947693,0.050177,-0.232189
7745951325,-143.617783,-9.501627,17.295597,0.977915,0.039109,-0.291873
7745971371,-143.035965,-9.469905,17.757971,0.961230,-0.012334,-0.303122
7745991416,-141.325714,-10.428934,18.079487,0.934337,-0.038339,-0.272755
7746011462,-138.054047,-12.676157,18.115181,1.035388,-0.090546,-0.298901
7746031508,-132.958282,-9.816699,18.213099,1.063971,-0.087568,-0.284506
7746051554,-128.680450,-6.921322,17.470930,1.063478,-0.115146,-0.239517
7746071601,-123.080193,-3.407392,17.113680,1.034112,-0.063890,-0.297108
7746091647,-122.488861,-1.746654,16.775734,0.974964,0.139747,-0.432967
7746111693,-126.240059,0.342678,17.712692,1.008691,0.011336,-0.332838
7746151784,-122.764664,3.710353,16.976879,0.967429,-0.072610,-0.390183
7746171830,-119.183868,3.542006,16.273716,0.953023,-0.001282,-0.374624
7746191876,-120.955467,3.275112,16.408319,0.977702,0.172403,-0.280380
7746211920,-128.247879,3.525853,16.923420,0.983835,0.279385,-0.234184
7746231966,-137.640198,4.347909,17.569061,0.966190,0.196314,-0.279043
7746252012,-143.577545,4.599238,18.180128,0.959912,0.051089,-0.345053
7746272058,-145.880890,4.438346,18.080172,0.956082,-0.000412,-0.347898
7746292104,-146.679443,5.016838,17.872139,0.993360,-0.006674,-0.318567
7746312149,-146.066010,5.252470,17.538509,1.006784,-0.061500,-0.312441
7746332195,-143.543274,6.518067,17.470060,0.977868,-0.071970,-0.344974
7746352241,-142.649887,7.774517,16.936565,0.981396,-0.011789,-0.372276
7746372287,-144.447876,4.432205,15.293821,0.883667,0.110523,-0.369179
7746392333,-146.547226,2.597550,16.387545,0.925247,0.029230,-0.382916
7746412378,-149.617111,-1.257683,17.155319,0.853577,0.069169,-0.373771
7746432424,-151.317139,-3.083393,18.768522,0.945324,0.057164,-0.396739
7746452472,-153.560776,-3.243467,19.011269,0.928163,0.081005,-0.326588
7746472517,-155.752274,-3.899031,19.193521,0.923439,0.069687,-0.291902
7746492563,-157.547195,-4.630823,19.322485,0.956769,0.056955,-0.317504
7746512609,-158.657364,-5.292299,20.110374,0.921054,0.031857,-0.333647
7746532654,-158.243866,-7.082888,20.207651,0.906274,-0.031065,-0.356076
7746552700,-156.340363,-9.658096,20.278625,0.894326,-0.048160,-0.341592
7746572746,-153.225876,-11.150509,20.475330,1.039491,-0.096118,-0.367680
7746592792,-149.926682,-10.648171,19.821245,1.008659,-0.099018,-0.282999
7746612837,-145.112000,-9.388826,20.075134,1.012055,-0.168248,-0.286391
7746632882,-139.513123,-7.903076,19.289101,1.018212,-0.161057,-0.288869
7746652928,-133.402588,-5.464724,18.436476,1.024416,-0.159502,-0.289159
7746672974,-127.172554,-2.797110,17.840578,0.972378,-0.091967,-0.278670
7746693019,-125.745422,-2.477019,17.681917,0.942945,0.115619,-0.417675
7746713065,-129.633377,-2.536544,18.743303,0.982004,0.011429,-0.309326
7746733111,-129.447159,-1.530257,18.858601,1.008396,0.057791,-0.350521
7746753157,-128.021103,-1.020788,18.210278,0.975203,-0.043270,-0.421864
7746773203,-124.983040,-1.195892,17.937950,0.935096,-0.012063,-0.386283
7746793248,-125.848633,-1.515394,18.284391,0.998138,0.176161,-0.281461
7746813294,-131.856567,-0.183218,18.335405,0.972228,0.217085,-0.267561
7746833341,-136.776108,0.550567,19.826805,0.937613,0.069980,-0.344523
7746853387,-138.241791,0.811553,20.794273,0.920894,-0.062060,-0.352824
7746873433,-137.084290,1.176039,20.098152,0.969295,-0.127645,-0.338018
7746893479,-133.877274,2.539393,19.389503,1.026858,-0.137733,-0.327998
7746913525,-131.733780,4.176701,18.631805,0.999959,-0.027838,-0.357588
7746933571,-132.203400,5.471613,18.407364,0.992218,0.063951,-0.404177
7746953616,-134.688446,6.084526,20.073528,0.917583,0.164550,-0.403253
7746973662,-139.963882,6.102349,21.780540,0.938695,0.177891,-0.387204
7746993706,-145.823303,5.255570,22.088095,0.928416,0.143565,-0.343308
7747013752,-148.479263,4.371526,22.387100,0.982172,0.030682,-0.328333
7747033798,-150.853271,4.816031,20.467831,0.946162,0.048551,-0.328384
7747053844,-151.710480,3.406920,20.894156,0.915130,-0.009522,-0.320950
7747073890,-151.237076,1.493266,20.501625,0.894666,-0.074769,-0.315409
7747093935,-149.019638,-0.656050,20.160095,0.892795,-0.117802,-0.315578
7747113981,-146.352951,-3.605623,19.743740,0.926306,-0.103677,-0.329881
7747134027,-143.289261,-4.115666,19.632498,0.987600,-0.085516,-0.348022
7747154073,-141.537262,-3.553136,18.824844,1.052572,-0.057231,-0.354533
7747174119,-139.770218,-1.258832,18.790558,1.007760,-0.060898,-0.333338
7747194164,-138.285049,0.738338,18.823862,0.989888,-0.021501,-0.314670
7747214210,-137.413788,2.285450,18.748316,1.017968,-0.000820,-0.321084
7747234258,-136.771576,3.802064,18.692600,0.988368,0.002735,-0.291990
7747254303,-136.917175,4.715430,18.218615,0.973617,-0.005570,-0.294902
7747274349,-136.499268,4.881859,17.644484,0.969215,-0.008233,-0.305716
7747294395,-136.368927,5.246726,17.228102,0.963973,-0.026987,-0.308773
7747314446,-135.035995,4.362460,16.975939,0.958896,-0.044343,-0.293225
7747334487,-133.536819,3.782800,16.604912,0.950506,-0.051069,-0.283176
7747354532,-131.373596,2.899347,16.604086,0.953291,-0.053708,-0.285852
7747374594,-128.006134,1.725154,15.977183,0.871222,-0.248999,-0.358566
7747394622,-115.050262,-2.053554,15.042994,0.848768,-0.487011,-0.459912
7747414668,-102.904243,-3.355793,14.055141,1.078670,-0.073554,-0.138174
7747434714,-101.361275,-1.902075,13.072822,1.024362,-0.078917,-0.194701
7747454760,-97.477959,-0.827665,12.565971,1.005429,-0.191014,-0.241851
7747474806,-90.933884,0.407486,12.052805,0.980337,-0.250980,-0.229522
7747494852,-82.922256,1.337161,11.099540,0.984608,-0.231512,-0.180880
7747514897,-74.906830,1.970141,10.368791,1.017493,-0.191273,-0.139387
7747534943,-68.187202,3.271897,8.988511,1.026380,-0.163772,-0.131414
7747554989,-61.665176,4.719532,8.092992,1.024377,-0.187083,-0.142234
7747575035,-55.526840,5.663942,7.137821,1.008849,-0.183102,-0.141976
7747595080,-49.757935,5.769702,6.077988,0.997307,-0.179921,-0.133796
7747615127,-44.102032,5.380328,5.128977,0.987982,-0.214912,-0.107254
7747635173,-37.168652,2.507147,4.300992,0.898679,-0.210053,-0.115089
7747655219,-31.190933,0.631983,3.442379,0.936222,-0.170008,-0.136856
7747675265,-25.715805,-0.641045,2.675571,0.973971,-0.160597,-0.144687
7747695311,-20.240252,-0.938614,1.897866,0.978303,-0.136459,-0.131366
7747715356,-15.622926,-0.847029,1.425893,0.989408,-0.117904,-0.142025
7747735402,-11.568508,-0.869524,1.118051,0.994651,-0.091417,-0.138437
7747755447,-8.469862,-1.052308,0.814007,0.987272,-0.078464,-0.112279
7747775493,-6.051362,-1.768653,0.547860,0.993530,-0.078368,-0.114656
7747795538,-2.632660,-1.700018,0.175637,0.944821,-0.181285,-0.141704
7747815584,6.494834,-3.703928,-0.697817,0.948011,-0.268393,-0.171752
7747835630,15.112453,-4.344614,-1.909780,1.020860,-0.246518,-0.104585
7747855676,25.729374,-4.884226,-2.496069,0.926945,-0.255112,-0.154531
7747875721,30.539093,-8.475035,-3.616680,0.842507,0.105356,-0.323897
7747895768,25.151096,-12.056737,-2.934739,0.934274,0.177471,-0.311420
7747915813,19.729265,-13.986250,-2.914807,1.029153,0.072667,-0.236611
7747935859,17.695700,-13.590505,-2.914872,1.012991,0.035350,-0.233731
7747955904,16.244789,-12.616248,-3.272034,1.019225,0.049393,-0.324003
7747975950,15.622074,-10.642196,-3.106052,0.970077,0.029831,-0.388765
7747995998,15.665582,-8.873583,-2.875900,0.953473,-0.016732,-0.366254
7748016044,15.839570,-8.416557,-2.995419,0.960933,-0.026473,-0.324699
7748036089,16.582069,-7.699937,-2.974005,0.987012,-0.060342,-0.309746
7748056135,18.389940,-5.772053,-3.275313,1.027091,-0.084304,-0.312296
7748076181,20.984270,-2.830593,-3.671671,1.017074,-0.081157,-0.325020
7748096227,22.865204,-0.773586,-4.165863,0.952059,-0.011833,-0.373138
7748116272,22.330841,-0.575490,-4.125587,0.905975,0.052830,-0.449438
7748136318,19.984791,-1.061675,-3.192037,0.949584,0.119246,-0.482155
7748156363,16.519592,0.265111,-2.479692,1.016373,0.078803,-0.410786
7748176409,16.319912,1.820483,-2.160054,0.970343,0.003761,-0.366485
7748196455,17.892492,1.104272,-2.272240,0.904039,0.018280,-0.384442
7748216500,19.822121,-0.297974,-2.488410,0.934931,-0.035467,-0.347933
7748236546,23.890205,-0.123540,-3.316791,0.999190,-0.122303,-0.273086
7748256592,30.437044,1.376696,-4.533907,1.053730,-0.229130,-0.177160
7748276638,38.736237,5.376067,-6.183060,1.086555,-0.170814,-0.098841
7748296684,41.311264,11.983376,-6.507192,1.152341,0.169230,-0.159441
7748316730,32.426601,20.296751,-5.957473,1.103335,0.415720,-0.248794
7748336775,19.446053,25.950825,-4.761597,1.031590,0.224882,-0.384327
7748356821,14.316292,26.891796,-2.640206,1.053161,0.036551,-0.361144
7748376869,14.294891,29.895391,-2.237152,1.375498,0.079782,-0.358995
7748396914,17.352360,32.277607,-0.676782,0.571600,0.004851,0.433888
7748416960,23.236200,9.306076,-2.181634,0.812075,-0.089261,-0.210309
7748437005,31.174944,7.081378,-2.824966,0.791798,-0.266251,-0.221198
7748457052,39.136238,1.764763,-2.533828,0.823990,-0.191255,-0.019983
7748477097,41.855946,-1.270667,-3.822052,0.986561,0.069993,0.038903
7748497143,39.938850,0.511248,-4.195782,1.070374,0.170862,0.218044
7748517204,32.371037,0.542891,-2.834049,0.843527,0.432908,0.173547
7748537233,13.135513,-7.592957,-2.456638,0.488065,0.508890,-0.247263
7748557279,7.402072,-20.057579,-3.656425,0.805393,-0.270549,-0.557663
7748577324,17.240824,-25.512974,-1.009480,0.742806,-0.139259,-0.078961
7748597370,23.092756,-39.086826,-2.071230,0.867508,0.027710,-0.111321
7748617416,24.120218,-43.174644,-3.460661,1.422042,-0.016218,-0.619888
7748637462,25.032825,-32.954182,-3.244945,1.096403,-0.030125,-0.601513
7748657508,25.457335,-20.974377,-3.445894,1.199919,-0.082351,-0.379789
7748677554,27.070087,-8.941506,-3.899321,1.090262,-0.022499,-0.188929
7748697600,25.535782,-3.325403,-3.957019,1.065493,0.217675,-0.111744
7748717645,18.104744,3.694013,-2.888655,1.137608,0.427376,-0.062305
7748737691,10.715933,12.657145,-1.667111,1.257350,0.098419,-0.058717
7748757739,14.322857,24.744705,-1.777343,1.206782,-0.151989,-0.359093
7748777784,20.404791,32.710026,-1.868386,1.001778,-0.083607,-0.517022
7748797830,22.551388,27.954277,-2.230430,0.926300,0.050682,-0.393590
7748817876,21.836826,28.883310,-2.456542,1.452481,0.035851,-0.314120
7748837922,20.683405,38.379074,-2.305304,1.132735,0.081112,0.084776
7748857968,17.378679,36.764442,-1.494582,0.678209,0.218787,0.379699
7748878013,13.730664,13.307956,-0.719105,0.557011,0.073461,-0.012602
7748898073,11.761407,6.667579,-1.568118,0.680322,-0.012535,-0.183226
7748918103,12.024823,-1.898152,-1.498864,0.813030,0.009424,-0.065881
7748938149,11.984686,-3.559643,-1.546044,0.912724,0.038004,0.171298
7748958195,13.315609,-4.222186,-1.493249,0.987990,0.024136,0.189918
7748998286,-3.797748,-13.150420,-1.276642,0.951472,0.080500,-0.218778
7749018332,-5.040864,-17.573788,0.748983,0.867527,-0.164585,-0.151398
7749038378,-0.650636,-25.887199,0.699113,0.858777,0.005996,-0.139822
7749058424,-3.624048,-31.108807,0.506743,0.893578,0.322702,-0.202942
7749078470,-13.231567,-34.408569,1.659336,0.860230,0.283934,-0.234898
7749098516,-21.167395,-35.061993,3.412563,1.368786,0.071443,-0.439659
7749118561,-25.818087,-19.315914,4.443772,1.282970,0.002545,-0.334504
7749138609,-27.189770,-5.634208,5.487000,1.222943,-0.073754,-0.165053
7749158655,-23.526642,5.186754,4.722731,1.230693,-0.251808,-0.079559
7749178701,-13.641397,17.373211,3.817897,1.275394,-0.262363,-0.326310
7749198746,-8.227258,28.017403,2.217886,1.146189,-0.062102,-0.408772
7749218799,-9.373185,30.569038,1.757857,1.256241,0.059751,-0.372906
7749238838,-14.224500,39.690769,2.073792,1.253597,0.140357,-0.212137
7749258883,-20.672375,45.199226,2.172927,1.122360,0.005241,0.145265
7749278944,-29.086504,26.238775,0.099244,0.196934,0.302139,0.428980
7749298974,-33.264893,7.206535,2.681307,0.694151,-0.096698,-0.254583
7749319019,-35.098640,0.881331,2.974832,0.766557,0.088125,-0.230071
7749339065,-36.568584,-0.627148,3.344601,0.953934,0.035692,0.011557
7749359111,-39.687462,-0.142182,2.517097,1.131548,0.084054,0.415494
7749379157,-41.866169,3.378870,2.838027,1.083068,-0.195077,0.336264
7749399203,-44.008934,0.960418,1.970682,0.697235,0.415243,-0.078288
7749419249,-66.291054,-5.381957,3.784342,0.827372,0.200067,-0.097760
7749439294,-75.916359,-6.520526,6.840448,1.043891,0.001595,-0.210146
7749459340,-84.095024,-6.289821,8.664216,1.125526,0.115953,-0.170334
7749479386,-93.251236,-1.650033,9.124454,1.163951,0.253878,-0.143985
7749499432,-100.034149,2.966938,9.332397,1.193342,0.020269,-0.164432
7749519479,-99.086563,7.547939,9.566211,1.075834,-0.405368,-0.105440
7749539525,-90.283798,7.306747,9.701861,0.835900,-0.470711,-0.127747
7749559571,-83.652359,2.291685,8.741678,0.857828,-0.219908,-0.306370
7749579616,-82.960121,0.034798,8.200859,0.942055,-0.006891,-0.399664
7749599662,-86.417992,-1.063705,8.134067,0.951107,0.099899,-0.309944
7749619708,-92.150970,-2.754784,9.122066,0.904085,0.089226,-0.183217
7749639754,-99.355385,-3.888433,10.748077,0.922894,0.028314,-0.124158
7749659799,-106.476593,-4.795547,11.470030,1.040989,-0.027636,-0.171922
7749679844,-112.848679,-1.739912,12.041989,1.048660,-0.069360,-0.160001
7749699890,-117.335091,-0.239683,12.085841,0.991044,-0.121391,-0.108641
7749719936,-118.360947,-1.795668,11.644799,0.936826,-0.245600,-0.133654
7749739981,-114.553482,-3.676897,11.699445,0.904511,-0.375550,-0.130891
7749760027,-109.365196,-6.000134,11.598864,0.889170,-0.385001,-0.111822
7749780073,-103.622345,-8.591393,10.884739,0.986258,-0.377812,-0.087527
7749800119,-92.278488,-9.418325,11.186994,1.018296,-0.607359,0.028321
7749820165,-83.666031,-11.978337,7.215313,0.650355,-0.086072,-0.280542
7749840210,-81.434006,-23.278458,10.969216,0.820989,-0.168374,-0.406772
7749860256,-80.317810,-31.352077,9.553127,0.749194,-0.226362,-0.108973
7749880302,-74.392334,-41.286430,10.319423,1.384815,-0.261027,-0.277978
7749900349,-67.083221,-26.521942,10.625135,1.165975,-0.303034,-0.342896
7749920395,-57.089222,-12.670350,8.062095,1.308762,-0.183174,-0.329643
7749940441,-49.145550,1.488322,6.691674,1.137049,-0.325085,-0.391295
7749960487,-46.774246,6.701406,6.567174,0.955700,-0.172035,-0.271898
7749980539,-51.958595,6.533307,6.973990,1.014518,0.085091,-0.246640
7750000578,-63.264702,11.058032,7.361707,1.153172,0.269799,-0.186765
7750020625,-75.094978,17.535851,8.715915,1.060770,0.096025,-0.171284
7750040673,-79.631706,17.721140,10.255204,1.155431,-0.148964,-0.354954
7750060715,-76.522499,24.762817,9.858131,1.115201,-0.240645,-0.362740
7750080761,-67.522888,32.222610,8.344337,1.142242,-0.443844,-0.209813
7750100806,-55.734028,31.336704,6.192887,0.974533,-0.478177,-0.090610
7750120852,-47.710793,22.914759,4.941947,0.413436,-0.263622,0.297959
7750140897,-44.862564,3.990774,4.132047,0.947324,-0.084205,-0.240674
7750160943,-44.957703,1.263221,4.463915,0.708641,-0.067689,-0.064972
7750180989,-46.650551,-1.578036,5.239801,1.102790,-0.134725,0.028456
7750201035,-43.241978,-0.292457,3.839768,0.824391,-0.410232,0.080138
7750221081,-21.141033,-5.042061,3.816444,0.905792,-0.631896,-0.175785
7750241127,-3.868566,-6.977912,1.783687,0.975469,-0.356526,-0.183966
7750261173,8.494890,-6.125086,0.058504,1.044465,-0.276521,-0.114106
7750281219,17.096704,-3.832015,-1.285183,1.092423,-0.288878,-0.197329
7750301266,23.559917,-1.998428,-3.334705,1.077030,-0.250166,-0.260675
7750321311,27.877708,-0.452605,-4.355892,0.973800,-0.120253,-0.224181
7750341357,27.674002,-0.455281,-5.475223,0.999278,0.054619,-0.179699
7750361403,25.100376,1.129454,-5.361787,1.104793,0.276461,-0.082556
7750381449,18.726904,5.989938,-5.353636,1.109882,0.414010,0.016894
7750401495,12.192064,8.231854,-4.026947,0.973248,0.171795,-0.104286
7750421540,13.697490,6.452961,-2.315627,0.894203,-0.134867,-0.295149
7750441585,21.444614,3.362408,-1.683878,0.927228,-0.324961,-0.352859
7750461630,34.836712,0.536410,-2.629704,0.914197,-0.359678,-0.270698
7750481677,48.708359,-1.369661,-4.573646,0.960415,-0.268872,-0.143640
7750501722,59.042908,-0.653909,-6.022118,1.021709,-0.111048,-0.046182
7750521768,63.011147,-0.028969,-6.467988,1.008811,0.074620,0.012917
7750541814,60.869339,0.625682,-6.543230,1.003128,0.272339,0.038648
7750561859,53.644085,-0.182008,-5.659121,0.966023,0.374507,0.073061
7750601951,32.819687,-6.001508,-5.281514,0.712236,0.211240,-0.167530
7750621997,41.774158,-10.167965,-2.109725,0.862093,-0.279711,-0.277567
7750642043,50.344322,-15.674610,-4.932197,0.931191,-0.208237,-0.144423
7750662090,56.595306,-18.169188,-6.726306,1.140910,0.016797,-0.077203
7750682136,54.923805,-13.158051,-8.009603,1.243433,0.287213,-0.136317
7750702182,46.519466,-4.339799,-6.706738,1.216307,0.312734,-0.241562
7750722227,38.015446,6.537864,-4.644652,1.248290,0.190159,-0.340761
7750742273,37.610886,18.085629,-3.742990,1.208018,-0.041590,-0.383716
7750762319,49.343018,27.597399,-4.743529,1.162777,-0.319386,-0.222443
7750782365,63.675045,14.018297,-5.763493,0.398619,-0.087069,0.244632
7750802411,69.631271,2.527442,-5.779681,0.878894,-0.008268,-0.197876
7750822455,71.287903,-1.674224,-7.043395,0.950397,0.135732,-0.262878
7750842501,69.216194,-2.337705,-7.000986,0.983924,0.209192,-0.160903
7750862546,66.306366,-1.330193,-6.007979,0.998433,0.189234,-0.036479
7750902638,49.132442,2.081934,-4.921948,1.133852,0.583365,0.184959
7750922684,35.091663,2.804704,-3.834269,0.864652,0.259607,0.052377
7750942730,35.777168,-2.365693,-2.103390,0.736509,-0.190197,-0.174176
7750962776,45.422039,-9.036415,-4.224544,0.867822,-0.203741,-0.225594
7750982821,48.168053,-9.700486,-4.986271,1.195522,0.292008,-0.007331
7751002867,40.305141,-0.473753,-5.047811,1.484672,0.405974,0.051094
7751022913,20.154318,15.030707,-4.532665,1.391817,0.636390,0.223047
7751042959,0.115688,16.601246,-1.971247,0.714938,0.465469,0.380842
7751063006,-6.272682,7.171979,1.103140,0.794552,0.130759,-0.011210
7751083052,-4.812769,1.266551,1.285508,0.982764,-0.275938,-0.145644
7751103098,0.269971,1.874332,-0.106547,1.033631,-0.356140,-0.063680
7751123143,6.498832,0.538143,-1.896442,0.951053,-0.113618,-0.000310
7751143189,11.007172,0.165598,-2.036172,0.980601,-0.134351,-0.072131
7751163235,15.670431,0.486805,-2.089521,0.965689,-0.133423,-0.049002
7751183281,18.473402,0.253902,-0.981635,0.889464,0.011834,-0.052210
7751203325,18.901684,-2.649316,-0.873299,0.849030,0.275863,-0.107152
7751223371,13.535584,-5.256737,-0.707004,0.921787,0.462433,-0.175696
7751243417,3.893732,-6.432899,-0.684108,0.990265,0.266074,-0.203952
7751263463,-2.937297,-6.752227,0.419970,0.980801,0.134811,-0.190682
7751283508,-8.482000,-6.399394,2.024110,1.100223,0.025449,-0.141974
7751303554,-11.086576,-3.793589,2.081258,1.205548,-0.078785,-0.114003
7751323600,-10.170033,1.964529,0.554220,1.198374,-0.169888,-0.078508
7751343646,-6.537698,6.443352,-0.845503,1.063924,-0.115191,0.046697
7751363692,-4.184340,7.646799,-1.399510,0.930083,-0.097374,0.046498
7751383737,3.021643,3.791315,-1.916215,0.805998,-0.229693,-0.031958
7751403783,14.877838,-2.075173,0.685310,0.801984,-0.257629,-0.188979
7751423829,14.111385,-6.230011,-3.083786,0.786690,0.099462,-0.266290
7751443876,12.676844,-14.364571,-0.942752,0.787345,0.087876,-0.285618
7751463922,10.369823,-18.197952,-0.694188,0.834067,0.063613,-0.153385
7751483968,6.805115,-27.103647,-2.169508,0.825523,0.042228,-0.045542
7751504014,6.577225,-33.663635,-1.432591,0.903803,0.051273,-0.088740
7751524065,7.477540,-40.606762,-1.717321,1.250146,0.022970,-0.228041
7751544105,10.918018,-23.498203,-2.330092,1.344138,-0.075478,-0.263250
7751564151,17.035692,-3.158761,-3.418206,1.461798,-0.051913,-0.411901
7751584211,20.045050,19.043646,-2.679391,1.293347,0.009361,-0.399235
7751604242,17.163687,25.427874,-3.263692,1.069498,-0.001342,-0.194057
7751624287,18.086912,21.642548,-2.390238,1.221999,-0.167018,-0.225884
7751644333,24.050596,30.601677,-4.407940,1.261634,-0.332754,-0.042098
7751664379,39.671741,41.852554,-5.199358,1.368475,-0.484364,0.204608
7751684425,52.741852,43.468025,-6.772680,-0.028241,0.000021,1.138661
7751704470,49.822037,-0.434386,-5.599399,0.942283,0.226572,-0.071713
7751724516,53.571198,2.078700,-6.811450,0.567469,-0.463913,-0.490648
7751744562,72.770409,-8.258892,-7.279484,0.722999,-0.238077,-0.283616
7751764608,85.879494,-10.390539,-7.832416,0.992844,-0.121609,-0.183018
7751784654,94.779167,-10.894094,-9.096158,1.066833,0.069805,-0.083562
7751804700,96.009216,-5.071949,-9.353370,1.183283,0.086710,-0.190061
7751824747,95.516983,0.047417,-10.117365,1.121369,0.005827,-0.247695
7751844793,95.404861,2.165180,-10.473746,0.976473,0.061808,-0.211639
7751864838,93.286781,0.045148,-10.830585,0.881384,0.238714,-0.152213
7751884884,88.589119,-2.166409,-10.923105,0.866390,0.301892,-0.115025
7751904930,86.017792,-4.346811,-10.972932,0.965501,0.038330,-0.310904
7751924976,91.961563,-1.815883,-11.325935,1.130759,-0.149612,-0.340916
7751945022,104.620567,1.673630,-9.902072,1.134586,-0.251581,-0.337998
7751965066,116.328804,3.519210,-10.685589,1.048669,-0.129955,-0.372319
7751985112,125.434174,4.006258,-12.025393,0.935712,-0.010265,-0.295065
7752005158,132.324005,3.146131,-12.370182,0.949362,0.027798,-0.285739
7752025204,135.625992,2.010457,-12.812546,0.939965,0.137205,-0.244366
7752045249,134.287048,0.348748,-12.803957,0.915401,0.248964,-0.198199
7752065295,127.690590,0.376723,-13.119256,1.003666,0.357702,-0.204514
7752085341,118.620003,0.354075,-11.987991,0.924754,0.476677,-0.148174
7752105387,103.395897,-2.076074,-9.842901,0.733994,0.872194,-0.266675
7752125432,72.234726,-6.400051,-10.759779,0.892959,0.993516,-0.106913
7752145478,47.090099,-10.822933,-5.786895,0.816719,0.410739,-0.204501
7752165524,46.662785,-17.914492,-4.219062,0.796678,0.028633,-0.200892
7752185570,50.490833,-30.930323,-4.326425,0.664426,-0.103534,-0.237634
7752205617,51.771729,-42.272484,-5.398604,0.904877,0.143405,-0.259210
7752225663,46.216972,-35.356197,-6.276668,1.407590,0.109949,-0.666602
7752245709,39.373367,-27.812973,-6.146061,1.198525,0.112785,-0.378727
7752265754,37.073563,-14.917788,-5.662955,1.203450,0.064305,-0.221686
7752285807,31.302467,-6.775653,-3.744131,1.165507,0.299264,-0.150713
7752305846,22.320951,2.680084,-3.517277,1.052380,0.482921,-0.117499
7752325892,16.859081,9.638613,-2.639749,1.176601,0.029733,-0.252670
7752345960,26.388472,21.058754,-2.052685,1.200208,-0.214748,-0.294788
7752365982,33.201614,28.953346,-3.143428,1.011722,-0.090186,-0.333357
7752386028,34.749733,27.862541,-3.750587,0.987650,0.102105,-0.275440
7752406074,31.649269,28.744173,-4.419298,1.263725,0.183602,-0.253776
7752426120,29.081795,33.082634,-3.214780,1.167888,0.108148,0.012781
7752446165,24.020950,31.292580,-2.262418,0.908023,0.216256,0.092559
7752466211,17.833305,29.279873,-1.883483,0.850212,0.191773,0.290845
7752486257,14.961078,11.193411,-2.371211,0.481949,0.145419,0.153410
7752506303,14.745984,4.825596,-0.932169,0.873123,-0.008378,-0.048085
7752526348,17.281334,0.641318,-1.380073,0.870300,0.118554,0.125500
7752546394,7.296927,-2.188352,-1.215121,0.824066,0.686098,-0.010366
7752586487,-33.570393,-6.296737,3.175394,1.072810,0.163888,-0.182586
7752606533,-44.881020,-4.772036,4.688838,1.086913,0.070167,-0.205910
7752626579,-51.831100,-1.479922,5.424055,1.071898,0.215941,-0.276521
7752646625,-59.831791,-0.886094,6.081661,0.933687,0.209819,-0.228856
7752666671,-64.769501,-3.340966,6.254419,0.869124,0.030881,-0.224463
7752686717,-66.072983,-4.931466,7.377734,0.982065,-0.100181,-0.249773
7752706762,-64.398056,-3.138193,8.187464,1.080101,-0.192593,-0.166596
7752726808,-58.916080,0.414335,8.053982,1.132150,-0.309287,-0.092035
7752746852,-53.765430,6.167727,7.277718,1.008911,-0.076852,-0.093225
7752766898,-56.837852,3.748441,6.160965,1.002504,0.100517,-0.311457
7752786944,-60.795956,3.891497,5.870503,1.061178,-0.026399,-0.366169
7752806990,-65.183418,2.655002,5.562399,0.939469,0.005623,-0.264291
7752827035,-70.601837,0.385001,6.630278,0.917496,0.039712,-0.104477
7752847082,-76.751045,0.201212,6.956529,1.003538,0.114968,-0.007576
7752867127,-81.879402,0.872677,7.894365,0.968802,-0.126886,-0.111430
7752887173,-75.596436,-1.160525,7.855632,0.822490,-0.520152,-0.193069
7752907219,-57.243137,-4.389201,6.868369,0.898473,-0.636448,-0.171840
7752927265,-40.620945,-5.821339,5.220985,1.063894,-0.462037,-0.039510
7752947310,-24.221212,-3.826464,2.565477,1.027961,-0.564377,0.044606
7752967358,-13.804693,-6.116355,-0.165985,0.739035,-0.011227,-0.368962
7752987403,-22.151924,-15.343571,1.547354,0.707686,-0.006894,-0.257867
7753007449,-26.826113,-25.729685,2.620171,0.715206,0.054648,-0.082353
7753027495,-26.289646,-35.796837,2.620352,0.830336,-0.077946,-0.049600
7753047541,-17.588438,-44.857044,2.099604,1.516720,-0.251627,-0.422854
7753067587,-5.487541,-22.574257,0.323453,1.176628,-0.211611,-0.353668
7753087632,0.040333,-4.265770,0.942305,1.408449,0.068638,-0.151931
7753107678,-5.976526,13.949926,-0.942515,1.247345,0.168844,-0.251384
7753127723,-9.842007,27.477409,-0.385284,1.284678,-0.105481,-0.464166
7753147769,-6.608439,33.538334,0.211882,1.222129,-0.259381,-0.501787
7753167814,0.362588,48.517864,1.264660,1.708512,-0.147215,-0.388716
7753187860,1.219372,62.681377,-0.480238,0.302876,0.048902,1.034804
7753207906,0.307982,8.781315,0.908958,0.069078,0.044093,0.195567
7753227952,-3.210963,-5.773038,-1.220891,0.984887,0.130364,-0.761008
7753247997,-2.098833,-3.995760,-0.667638,0.704624,-0.104916,-0.281073
7753268043,0.218496,-6.283144,-1.400361,1.024507,-0.105114,0.015580
7753288089,2.649837,-3.958297,-1.485845,1.143079,-0.017357,0.211126
7753308135,3.595627,-0.366189,-0.469277,1.202676,0.052617,0.222521
7753328181,1.444740,3.778388,-0.746997,1.025379,0.089002,0.108017
7753348226,-0.374030,1.569119,-0.192373,0.791690,0.071080,-0.113732
7753368274,-2.873738,-4.681152,-0.367586,0.762542,0.070602,-0.206644
7753388319,-6.608040,-10.333869,0.931043,0.859576,0.222079,-0.283259
7753408365,-14.781417,-10.570293,1.793441,1.152741,0.310950,-0.168307
7753428411,-28.053173,-4.257382,1.235241,1.443699,0.518759,0.021286
7753448457,-42.552376,7.172194,5.352750,1.285490,0.334488,0.019387
7753468503,-57.323753,12.314014,6.050179,0.870940,0.312887,0.186169
7753488549,-66.589088,5.463029,7.223239,0.848453,0.035563,-0.026314
7753508597,-70.860336,2.885585,7.047249,0.911083,-0.113908,-0.080965
7753528639,-69.871796,1.454507,7.644147,0.871666,-0.297538,-0.075449
7753548685,-68.508080,-1.392795,8.742816,0.992489,-0.006835,-0.097600
7753568730,-75.002869,-0.542491,8.101868,0.982506,0.011510,-0.263129
7753588776,-76.767883,-0.640883,8.594930,1.011863,-0.063136,-0.367899
7753608822,-77.859001,-0.110436,7.429912,0.981398,0.098146,-0.297295
7753628868,-82.564606,-2.953528,7.767570,0.939330,-0.003139,-0.228508
7753648914,-84.926590,-2.875895,8.646062,0.965717,-0.047075,-0.144281
7753668959,-88.323967,-3.333370,8.942752,1.012367,-0.012675,-0.124073
7753689005,-93.203758,-2.999603,8.837651,0.983662,-0.020168,-0.067471
7753709051,-96.349701,-1.154793,9.427456,1.060553,-0.159369,-0.086797
7753729097,-96.041100,0.132493,9.111523,0.989004,-0.299903,-0.121291
7753749144,-92.015350,-0.600435,8.088307,0.923866,-0.376336,-0.180058
7753769190,-82.966118,-2.709301,7.965585,0.954849,-0.422341,-0.138207
7753789236,-77.673103,-2.412409,7.220008,1.025914,-0.085346,0.081972
7753809281,-74.126701,-3.414536,8.453575,1.156560,-0.211789,0.133876
7753829327,-82.673775,1.764822,4.941926,0.764055,0.429007,-0.118575
7753849373,-94.093376,-4.574626,10.014015,0.974433,0.138364,-0.286350
7753869419,-98.798828,-5.566948,9.871740,1.077630,-0.013317,-0.233573
7753889465,-101.271248,-3.919003,10.930542,1.088930,-0.099816,-0.181969
7753909509,-104.377731,-0.338569,10.680885,1.068946,-0.009635,-0.097537
7753929555,-108.052071,2.282275,10.774023,1.108156,-0.049462,-0.171669
7753949601,-108.568077,7.830250,10.796130,1.092077,-0.229816,-0.080863
7753969647,-104.569145,8.237197,11.634154,0.833157,-0.149705,-0.093466
7753989692,-108.779617,3.930895,11.921228,0.855236,0.094701,-0.288784
7754009738,-117.616455,-0.240551,11.747438,0.893458,0.179668,-0.373727
7754029784,-124.875824,-2.276575,12.055550,1.000335,0.012995,-0.417666
7754049830,-129.554367,-2.582544,12.109144,1.019822,-0.001133,-0.397459
7754069876,-132.363708,-1.164358,12.724403,0.979140,-0.217916,-0.257153
7754089921,-132.652618,-0.158337,12.780150,1.008301,-0.227863,-0.246831
7754109967,-131.355194,0.673311,13.042581,0.952876,-0.234953,-0.197581
7754130015,-128.927963,0.232430,13.249119,0.903544,-0.237929,-0.193285
7754150060,-124.941895,-1.213043,13.864315,0.929143,-0.307952,-0.147763
7754170106,-119.045364,-3.195526,12.747825,0.928863,-0.381083,-0.089448
7754190152,-103.485542,-4.259145,12.380669,1.134093,-0.686721,-0.036249
7754210198,-101.554253,-4.184136,8.392313,0.741740,0.208566,-0.264888
7754230243,-106.954155,-8.940603,11.844602,0.884956,0.000783,-0.229585
7754250289,-114.551201,-10.381502,12.485866,1.026879,-0.030046,-0.237582
7754270357,-116.588966,-9.168945,13.071556,1.141063,-0.128091,-0.267598
7754290379,-115.282684,-5.345321,12.024808,1.162673,-0.200831,-0.264396
7754310425,-110.851700,2.404283,11.125957,1.181757,-0.274815,-0.293647
7754330471,-106.846527,11.458148,10.735364,1.186277,-0.120682,-0.490785
7754350517,-108.126358,20.553125,8.980027,0.943720,-0.210629,-0.066019
7754370563,-107.976860,6.769519,10.123383,0.815810,-0.144923,-0.258029
7754390609,-112.265602,2.651485,9.456167,0.859947,0.187726,-0.367722
7754410655,-117.530128,-0.844230,11.044760,0.875948,-0.039981,-0.278837
7754430700,-120.170959,-1.673958,11.755931,0.964214,-0.147769,-0.240221
7754450746,-119.357727,-0.597923,12.294394,1.032231,-0.199299,-0.215968
7754470792,-116.310066,0.492206,12.086440,0.967346,-0.233692,-0.112862
7754490837,-111.950768,0.087659,11.315466,0.931752,-0.299951,-0.100798
7754510885,-103.842064,-1.289917,11.162710,0.963605,-0.457264,-0.087554
7754530930,-90.694809,-1.564184,9.693521,1.032134,-0.636730,0.024049
7754550977,-80.117989,-2.276655,6.892565,0.753151,0.117754,-0.338915
7754571022,-91.141663,-9.010802,9.344911,0.907088,0.045346,-0.308014
7754591068,-96.341667,-9.475155,10.165655,1.001898,-0.058777,-0.207696
7754611114,-97.772980,-10.503490,10.540717,1.132849,-0.091220,-0.245551
7754631159,-95.111496,-5.367570,9.975280,1.197613,-0.159597,-0.332235
7754651204,-89.525970,2.123252,9.085456,1.207661,-0.226381,-0.346094
7754671250,-83.007050,10.986063,8.180593,1.123149,-0.357566,-0.277532
7754691296,-77.449692,17.990486,7.866043,1.048856,-0.260980,-0.282962
7754711341,-73.872543,14.010504,6.671306,0.623279,-0.233895,0.058311
7754731387,-72.823563,1.429805,7.197170,0.890062,-0.100865,-0.304394
7754751433,-76.093872,-1.497996,6.995284,0.926365,0.026845,-0.342989
7754771479,-79.671898,-2.138037,7.456556,0.944874,0.115582,-0.232340
7754791524,-84.095116,-3.104534,8.546633,0.990765,0.074385,-0.106511
7754811570,-87.386589,-1.097784,9.963999,1.072306,-0.025890,-0.031572
7754831616,-90.553001,1.736004,9.809687,1.054155,-0.093107,-0.010000
7754851662,-90.342339,2.611953,9.588723,0.999772,-0.172492,0.002679
7754871708,-84.031792,2.711072,8.885191,0.951308,-0.627371,0.137067
7754891755,-69.442856,-0.592489,5.640579,0.782054,-0.158927,-0.174097
7754911801,-76.461967,-7.549774,6.724556,0.798282,0.160360,-0.306713
7754931846,-87.559845,-11.300447,7.502573,0.993201,0.151519,-0.166593
7754951892,-98.660629,-8.281659,9.152159,1.135281,0.067858,-0.057675
7754971938,-103.344574,-6.062032,10.511780,1.167240,0.104645,-0.221226
7754991984,-102.393768,1.339905,11.248116,1.234336,-0.099282,-0.362373
7755012030,-100.115059,11.878477,10.465800,1.274743,-0.224855,-0.310021
7755032074,-95.991455,14.054358,8.407046,0.911132,-0.171050,0.068821
7755052120,-93.805725,10.546798,10.592333,0.830055,-0.034617,-0.086160
7755072166,-102.315544,4.385313,9.967978,0.779577,0.205075,-0.263984
7755092211,-114.290367,0.817599,10.869381,0.927119,0.137688,-0.373778
7755112257,-123.606407,0.032752,11.985022,0.990722,0.038084,-0.368705
7755132303,-128.078812,-0.212239,12.019131,0.980688,-0.040419,-0.304769
7755152349,-129.158020,0.154093,12.367435,0.944616,-0.224159,-0.208714
7755172395,-127.485504,-1.011621,12.300653,0.927964,-0.207735,-0.218897
7755192441,-125.827866,-2.505952,11.845544,0.937270,-0.242461,-0.211917
7755212487,-121.933357,-2.832227,12.007944,0.978253,-0.424325,-0.200422
7755232532,-115.534111,-1.650402,11.520689,0.961116,-0.363224,-0.204498
7755252580,-107.370796,-2.160095,10.974271,1.069837,-0.365168,-0.106130
7755272625,-95.557999,-0.497697,10.059428,1.018520,-0.409943,-0.020486
7755292671,-96.174805,-2.264778,7.295793,0.801055,0.185817,-0.317968
7755312717,-103.370651,-6.260574,10.344835,0.952151,-0.034619,-0.345323
7755332772,-107.791153,-5.726503,11.108922,1.075050,-0.090560,-0.288139
7755352808,-107.359634,-2.846457,10.770019,1.119464,-0.123386,-0.264695
7755372854,-103.406647,0.971406,10.214476,1.111830,-0.262637,-0.242093
7755392916,-95.432343,4.880738,9.206166,1.078811,-0.398372,-0.165324
7755412944,-85.908592,5.620085,8.163062,0.862602,-0.308687,-0.096699
7755432990,-83.517105,1.025445,8.231293,0.793827,-0.166134,-0.247997
7755453036,-84.101868,-1.907033,8.978339,0.940094,-0.066491,-0.405613
7755473082,-87.586975,-3.025989,9.943741,1.013876,0.066999,-0.291624
7755493127,-95.282822,-2.746626,9.710071,0.993606,0.219320,-0.204022
7755513173,-103.986221,-1.602245,11.235321,1.000028,0.090222,-0.161887
7755533219,-110.786621,-2.043483,12.346851,1.007508,0.044940,-0.155495
7755553265,-114.977898,-1.867526,13.115325,0.960557,-0.098053,-0.159540
7755573311,-114.533707,-2.127397,12.740780,0.950300,-0.243716,-0.160213
7755593357,-110.094902,-2.806851,11.724653,0.969192,-0.387962,-0.155393
7755613402,-102.167892,-3.759486,10.809863,1.005211,-0.474232,-0.149419
7755633450,-90.913582,-1.923006,9.446793,1.095971,-0.543287,-0.072874
7755653495,-74.693413,0.654454,8.259989,1.014490,-0.561310,-0.010997
7755673541,-69.440346,-2.086741,5.408620,0.860427,0.075053,-0.344305
7755693587,-73.874435,-5.710179,7.684537,0.905010,-0.106394,-0.252988
7755713633,-73.477684,-7.129547,6.841004,0.940396,-0.106800,-0.202483
7755733679,-71.218719,-11.091074,7.169507,0.937191,-0.101835,-0.222044
7755753724,-67.335983,-14.146961,6.775758,0.883892,-0.211792,-0.265343
7755773779,-61.303532,-16.782000,6.858512,0.871141,-0.270062,-0.281550
7755793814,-54.198593,-18.899296,6.613073,0.929496,-0.339170,-0.208719
7755813860,-45.946030,-20.346590,5.961063,1.041445,-0.317621,-0.204491
7755833906,-42.211830,-11.316098,5.384769,1.205239,-0.029378,-0.316968
7755873998,-46.639324,6.876359,6.411145,1.179744,0.148797,-0.214160
7755894044,-56.946491,14.268236,7.396532,1.167451,0.290715,-0.203383
7755914089,-66.706177,18.413605,8.328613,1.201793,0.200971,-0.257651
7755934135,-73.112236,26.217255,8.969481,1.186348,0.067533,-0.130259
7755954181,-79.528465,33.364231,9.070188,1.335438,-0.085810,0.026586
7755974227,-85.265350,21.430597,6.814180,0.397039,0.155298,0.515772
7755994272,-90.170227,6.428311,8.823814,0.707670,0.088487,-0.077832
7756014320,-92.888710,2.068208,8.745893,0.856201,-0.202812,-0.309276
7756034365,-85.923523,-0.196172,7.540833,0.888930,-0.585647,-0.141805
7756054412,-66.142784,-1.326203,7.619254,0.950308,-1.029962,0.063860
7756074458,-42.794346,-0.716551,4.932863,0.954102,-0.522614,-0.150101
7756094511,-33.227352,-4.205830,4.315636,0.879385,-0.048342,-0.120748
7756114549,-30.579037,-5.083076,3.655852,0.976248,0.008403,-0.265831
7756134595,-27.530586,-5.989374,3.561509,1.004430,-0.184794,-0.221691
7756154646,-22.933691,-5.042999,3.621989,1.076285,-0.215960,-0.103765
7756174685,-18.448414,-2.018880,2.508574,1.156723,-0.139563,-0.130045
7756194730,-13.582958,3.206351,0.776781,1.136844,-0.184991,-0.184551
7756214776,-10.286242,5.621069,-0.082298,0.926458,-0.030523,-0.166605
7756234822,-13.928723,1.892365,-0.541748,0.906983,0.062018,-0.137560
7756254868,-17.447226,-0.034719,0.297087,1.046212,0.059482,-0.039257
7756274914,-22.657179,2.342021,0.466683,1.077444,0.191428,0.007377
7756294959,-28.879728,5.739182,0.415647,0.987352,0.116364,-0.027909
7756335051,-18.282406,3.740861,1.760240,0.917800,-0.329366,-0.315290
7756355097,-7.588810,0.611375,1.700705,0.893710,-0.258010,-0.275510
7756375143,1.424755,-2.163112,0.472879,0.936154,-0.168550,-0.135496
7756395190,9.007551,-2.132835,-0.484354,1.068912,-0.151386,-0.054636
7756415236,14.182211,0.709735,-1.098563,1.106244,-0.101473,0.000473
7756435282,14.898080,3.384295,-1.350601,1.028378,0.033040,0.045423
7756455327,11.000772,2.293816,-1.194932,0.935633,0.173204,0.057211
7756475373,3.117019,-0.327815,-0.299647,0.909368,0.287392,0.037317
7756495419,-7.588492,-1.784345,0.531891,0.936674,0.297027,0.061890
7756515465,-12.395947,-4.019147,0.288750,0.680877,-0.273286,-0.145493
7756535509,4.245559,-8.722543,1.097146,1.153788,-0.379612,-0.320502
7756555555,18.761452,-8.327835,-1.241387,1.041450,-0.459969,-0.086607
7756575601,32.335003,-8.064161,-4.103742,1.016212,-0.275809,-0.047539
7756595647,37.575943,-6.915601,-5.645854,1.065761,-0.079628,-0.271387
7756615692,40.351467,-3.355160,-5.344775,1.128941,-0.001123,-0.326425
7756635738,39.882290,3.389343,-5.312276,1.183192,0.143770,-0.230278
7756655784,34.329399,12.519739,-4.470779,1.292253,0.341058,-0.130703
7756675830,25.237621,25.390926,-3.695330,1.181778,0.362084,0.228082
7756695876,21.364517,11.514683,-2.595873,0.389285,0.048927,0.091697
7756715921,20.085087,1.320974,-1.108158,0.997703,0.291223,-0.239161
7756735967,6.924425,3.545294,-0.027273,1.069850,0.625929,0.023851
7756756013,-7.611151,4.785407,0.739702,0.973596,0.203265,0.256496
7756776060,-8.064179,1.996985,1.155131,0.934034,-0.226638,0.151584
7756796106,-1.596951,1.296499,0.688107,0.921057,-0.190157,0.163183
7756816152,0.399932,-0.616494,0.403560,0.996088,-0.035019,0.169997
7756836197,-3.904984,-1.180595,0.832836,0.980763,0.026417,0.043613
7756856243,-2.738024,-2.131212,1.554578,1.039035,-0.058619,-0.200069
7756876289,-2.962246,-1.767803,0.556689,0.928416,0.202730,-0.116009
7756896335,-6.171812,-2.400928,0.674566,0.998683,0.193822,-0.066629
7756916379,-12.931487,-1.930369,0.620771,1.105872,0.148713,-0.096251
7756936425,-18.261742,0.517169,1.747647,1.062910,0.092116,-0.067374
7756956471,-22.576866,2.308408,2.375600,1.029698,0.107811,-0.064474
7756976517,-26.172365,2.314816,2.269593,0.977549,0.052222,-0.023732
7756996563,-29.639057,1.179047,2.562244,0.951487,-0.004881,-0.038534
7757016608,-26.692070,-0.260969,2.372308,0.926240,-0.236095,-0.152008
7757036654,-17.703234,-1.130611,0.978151,0.857926,-0.359025,-0.266017
7757056700,-0.356801,-4.404968,0.125198,1.040833,-0.586015,-0.375150
7757096791,20.808500,-7.034079,-2.248238,0.931617,0.079411,-0.356782
7757116837,16.902172,-7.780831,-1.757315,0.941440,0.025076,-0.274887
7757136883,14.543233,-8.002973,-1.970611,1.016913,-0.025327,-0.184315
7757156930,16.476694,-8.390224,-1.586560,0.969528,-0.006988,-0.114002
7757176976,19.805033,-10.996172,-1.787655,0.921657,0.017316,-0.117765
7757197022,23.874752,-12.536100,-2.465173,0.951388,-0.013266,-0.151264
7757217068,28.130030,-12.443970,-2.662671,1.041031,-0.077385,-0.216502
7757237113,31.526310,-8.274542,-2.727171,1.139968,-0.047039,-0.165317
7757257159,32.045895,-1.219007,-3.417908,1.215334,0.081882,-0.064510
7757277205,34.192516,9.654551,-4.328679,1.336664,-0.133446,-0.163897
7757297250,45.328407,25.377745,-5.116726,1.512832,-0.396411,-0.342210
7757317295,62.169682,41.826908,-2.456983,0.677391,-0.394182,0.589973
7757337341,71.600990,4.946213,-4.756151,0.570786,-0.139836,-0.109342
7757357387,80.818047,2.186637,-6.148446,0.908027,-0.152133,-0.348007
7757377433,88.865044,-4.571296,-9.529709,0.774973,-0.039860,-0.125517
7757397478,95.292137,-3.344096,-10.170485,1.141353,-0.035123,-0.115160
7757417524,97.637314,0.482657,-9.999488,1.120381,0.173299,0.113520
7757437570,92.150375,3.457453,-8.252369,1.031930,0.377643,0.250855
7757457616,79.211823,2.669865,-7.891704,0.870739,0.265148,0.094748
7757477662,79.067093,-1.590861,-8.134521,0.578418,-0.355669,-0.455430
7757497708,95.835472,-8.570448,-9.537029,0.951893,-0.123127,-0.549240
7757517755,100.495972,-13.522196,-12.522369,0.825215,-0.066361,-0.287369
7757537801,106.750404,-16.296293,-13.268737,1.087625,0.078486,-0.235530
7757577892,112.941162,-13.186532,-10.548954,1.008152,0.140843,-0.353469
7757597938,109.690163,-12.312248,-11.084815,0.988873,0.346238,-0.297381
7757617984,100.679733,-9.677496,-10.949313,1.062847,0.567180,-0.167745
7757638030,90.876251,-5.359577,-11.178456,1.046440,0.222091,-0.328203
7757658076,92.039223,2.933748,-10.579109,1.276555,-0.039905,-0.518149
7757678120,96.234108,14.030721,-10.697453,1.294514,-0.056049,-0.452978
7757698166,103.253181,21.663549,-9.689921,1.152136,-0.089993,-0.288456
7757718211,110.629868,26.671879,-9.956716,1.089650,0.051843,-0.178058
7757738257,113.428787,26.754852,-7.390283,0.734031,0.175464,0.217236
7757758303,109.084229,7.148009,-9.334463,0.656169,0.346063,-0.119412
7757778349,101.168671,2.033370,-8.842899,0.881802,0.364666,-0.282604
7757798395,89.912270,-0.362641,-8.845746,0.920365,0.451153,-0.174291
7757818441,80.164429,-0.659381,-7.524673,0.961915,0.232200,-0.042555
7757838487,73.405312,-0.989875,-7.942603,0.977652,0.183456,0.057930
7757858532,78.472656,-2.349827,-6.729714,0.970207,-0.396565,-0.238004
7757878578,93.892715,-3.783504,-8.896311,0.723477,-0.230776,-0.218822
7757898624,103.098419,-6.713194,-11.334696,0.978329,0.061854,-0.239267
7757918671,106.101318,-7.293772,-12.269800,1.038433,0.069357,-0.316557
7757938717,107.549805,-5.989862,-12.126493,1.015013,-0.017262,-0.304394
7757958762,107.945557,-6.109937,-11.377269,1.000457,0.159492,-0.295180
7757978808,100.739014,-4.891160,-10.798285,1.062297,0.547152,-0.227433
7757998854,89.205605,-0.115747,-10.727934,1.112663,0.378233,-0.260238
7758018900,88.788666,9.183399,-10.009583,1.309066,0.075509,-0.457892
7758038946,92.676491,23.780840,-9.048534,1.203468,0.009913,-0.112300
7758058990,99.566711,9.137557,-8.040755,0.597362,-0.051846,-0.172215
7758079036,105.827591,2.698912,-8.301277,0.826201,-0.044579,-0.369666
7758099082,109.108574,0.562247,-9.870836,0.986455,0.088203,-0.369079
7758119127,109.198288,1.141151,-10.004409,0.950836,0.161367,-0.169881
7758139173,108.131790,-0.216037,-10.162591,0.941516,0.273406,-0.080493
7758159219,99.085777,-0.688062,-8.923327,0.822431,0.782928,-0.144849
7758179265,72.409370,-3.596554,-7.960448,1.095401,0.962522,-0.155975
7758199311,43.050816,-2.225591,-4.942427,0.950274,0.789951,0.018900
7758219356,27.626348,-5.241772,-2.439991,0.764323,0.044858,-0.259282
7758239402,28.792072,-12.217574,-3.692585,0.801860,-0.078313,-0.340056
7758259448,33.043007,-17.012627,-4.805985,0.839292,-0.016002,-0.113582
7758279495,32.978962,-26.291611,-3.367824,0.856108,0.163741,-0.033920
7758299541,25.191999,-31.065462,-3.812147,0.908534,0.351195,-0.100394
7758319587,14.010902,-33.802536,-3.020607,0.909353,0.285235,-0.260157
7758339633,5.983688,-35.553268,-1.208464,1.403213,0.102372,-0.729877
7758359678,6.758607,-15.485394,-0.495600,1.124502,-0.001596,-0.489748
7758379724,12.222108,-4.641616,-1.485917,1.275213,-0.222330,-0.114681
7758399770,25.370819,6.127167,-2.839070,1.251644,-0.320267,-0.072268
7758419816,31.056692,18.320881,-3.417917,1.151154,0.083853,-0.184152
7758439860,27.516953,24.644852,-3.622453,1.109771,0.305977,-0.219309
7758459906,20.380733,27.799404,-3.028354,1.211033,0.366332,-0.280686
7758479952,11.009449,31.498055,-0.894973,1.073946,0.234302,-0.078873
7758499998,1.987191,31.454866,1.221169,1.026249,0.262588,0.009493
7758520043,-7.752198,24.485792,4.092581,0.451623,0.334268,0.485859
7758540089,-17.333864,0.640689,2.317623,0.657798,0.217099,0.003052
7758560135,-22.698011,-2.680805,3.464364,0.929646,0.132421,-0.161847
7758580181,-25.410913,-2.612769,3.539703,0.996754,-0.067526,0.047854
7758600227,-18.067360,-2.406584,2.876903,1.044628,-0.518204,0.059496
7758620272,2.741112,-3.009130,3.537299,0.782698,-0.418319,-0.087802
7758640318,-1.786034,-8.934735,-0.955281,0.724645,0.402614,-0.404353
7758660364,-12.935120,-14.890057,2.146428,1.066626,0.179687,-0.194762
7758680411,-22.080610,-16.399477,2.993720,0.911852,0.079419,-0.023201
7758700457,-24.804634,-21.006811,4.735394,0.971659,0.068274,-0.151473
7758720503,-29.812866,-22.738983,4.364572,0.913474,0.160671,-0.276996
7758740549,-34.295227,-24.499731,4.747786,0.860644,0.134968,-0.260983
7758760594,-35.423389,-25.100605,5.382993,1.308033,-0.128381,-0.365034
7758780640,-30.586264,-12.921372,5.225661,1.209668,-0.265332,-0.095881
7758820730,-27.256948,18.435652,3.459600,1.341564,-0.061968,-0.443149
7758840776,-30.013695,27.998880,3.313143,1.223537,0.004477,-0.376523
7758860822,-32.988083,36.288986,3.014677,1.436929,0.042300,-0.358710
7758880868,-35.962009,47.643524,3.057506,1.132637,0.048821,0.087283
7758900913,-36.960606,33.067928,4.584925,0.017034,-0.061936,0.681109
7758920959,-39.333324,-1.632382,3.974704,0.775670,0.086890,-0.163231
7758941005,-40.934013,-0.494754,5.056497,0.828278,0.019146,-0.294099
7758961051,-40.381004,0.587806,5.156784,1.104403,-0.157756,-0.241959
7758981097,-28.522339,2.200841,5.937619,1.003830,-0.626858,0.282958
7759001142,-24.340578,1.465063,0.425854,0.644719,0.346146,-0.062753
7759021188,-32.144791,-9.008746,3.462419,0.714302,-0.117938,-0.296649
7759041234,-28.178587,-13.553317,5.203970,0.842193,-0.349396,-0.417273
7759061281,-22.831985,-19.845329,2.576568,0.948280,-0.177207,-0.049722
7759081327,-17.214031,-23.775158,3.038465,0.959631,-0.225100,0.021515
7759101373,-10.471113,-26.977959,1.412921,1.030775,-0.247474,-0.087414
7759121419,-2.117133,-27.115259,0.403075,0.935643,-0.211283,-0.277120
7759141464,3.748777,-22.991886,-0.083624,1.404390,-0.129004,-0.594073
7759161510,3.879669,-8.963687,-0.950502,1.182657,0.194639,-0.377140
7759181556,-5.244217,1.576460,0.245970,1.165126,0.365567,-0.055137
7759201600,-17.609291,10.378388,1.541686,1.236959,0.370623,-0.033313
7759221646,-30.131968,18.851997,2.589386,1.170487,0.279973,-0.105650
7759241692,-36.508205,27.129005,3.594888,1.375170,-0.023518,-0.280750
7759261738,-32.331516,39.635357,3.265888,1.323286,-0.489041,-0.299880
7759281784,-16.996458,50.343712,1.893436,0.681963,-0.749747,0.611999
7759301829,3.609962,8.569684,1.281153,0.100217,-0.429751,0.083168
7759321875,14.219581,-3.505404,-1.421479,1.035990,-0.250586,-0.675372
7759341921,22.103277,-2.043064,-2.702617,0.907521,-0.031709,-0.309164
7759361967,26.458193,-0.410575,-2.517463,1.068699,0.073127,-0.110470
7759382013,24.614141,1.341428,-2.655626,1.040307,0.199676,0.073174
7759402059,18.060337,1.602567,-1.039241,0.917051,0.262291,0.347414
7759422106,9.407939,-1.956105,0.088039,1.074787,0.402195,0.000536
7759442151,-13.262856,-0.270553,-0.004924,0.670749,0.724040,-0.034685
7759462197,-30.906067,-8.489227,3.872216,0.907370,0.283392,-0.219997
7759482243,-37.241680,-9.046841,4.050499,0.867202,0.108431,-0.146944
7759502289,-37.906799,-13.054314,4.619290,0.892365,-0.082142,-0.107750
7759522335,-35.047050,-16.764627,4.759546,0.973242,-0.136366,-0.021530
7759542381,-31.051147,-19.028164,4.253982,1.184357,-0.127165,-0.034313
7759562426,-30.846569,-12.207160,4.334284,1.302240,-0.149165,-0.071871
7759582471,-34.011997,0.607725,6.423877,1.452612,0.211131,-0.223364
7759602516,-60.559200,23.847517,7.694551,1.680991,0.770503,-0.163281
7759622562,-84.931854,53.450283,8.489208,1.649668,0.372053,0.128493
7759642608,-91.324440,16.887472,3.813882,-0.187247,0.244390,0.552094
7759662654,-90.732132,7.599536,11.115612,0.747908,-0.150525,-0.231082
7759682700,-100.173813,-1.327583,7.675928,0.804306,0.101255,-0.296005
7759702745,-103.955620,-0.883263,9.092726,0.971941,-0.157107,-0.228173
7759722791,-102.735626,0.755002,8.849639,1.015571,-0.506995,-0.217443
7759742837,-92.283829,2.128451,8.367166,0.975371,-0.703789,-0.196097
7759762883,-79.937073,2.167697,7.439726,0.928796,-0.393992,-0.084070
7759782929,-72.312119,-0.057124,6.779559,0.987501,-0.158185,-0.129308
7759802976,-67.543129,0.102922,6.235641,1.014313,-0.129609,-0.197895
7759823022,-64.585014,-0.179340,5.774184,0.900504,-0.304993,-0.096716
7759843067,-56.108498,-2.935001,6.138497,0.784366,-0.301254,-0.098737
7759863113,-58.913025,-6.775528,3.393649,0.963528,0.171401,-0.373637
7759883159,-66.761292,-8.327682,5.369771,0.795785,0.062915,-0.051878
7759903205,-73.021935,-13.723390,6.059402,1.075338,-0.101598,-0.045024
7759923251,-75.897507,-9.431028,7.140147,1.241876,-0.014683,-0.111461
7759943296,-81.724663,-3.739332,7.310683,1.175938,0.094423,-0.143016
7759963341,-85.188156,0.680539,7.584777,1.025532,-0.026074,-0.202071
7759983387,-83.009598,3.829246,7.868245,1.111757,-0.298334,-0.262730
7760003432,-75.986305,9.895494,7.046962,1.064278,-0.395186,0.004490
7760023478,-68.249382,4.990968,7.600893,0.763941,-0.185924,-0.094586
7760043524,-68.353027,0.433429,7.526379,0.961819,0.023145,-0.303645
7760063570,-72.714447,0.774753,7.334781,1.045454,0.134979,-0.356909
7760083616,-78.549820,0.187215,7.694493,0.910226,0.086596,-0.235695
7760103661,-82.431503,-2.021421,8.755272,0.863161,-0.093077,-0.145996
7760123707,-84.666649,-3.721686,8.674399,0.945274,-0.166651,-0.097256
7760143753,-84.853134,-3.873537,8.938333,1.040674,-0.178856,-0.081342
7760163799,-83.856438,-2.264033,9.456178,1.092012,-0.187145,-0.130315
7760183846,-82.648216,1.086284,8.076684,1.042912,-0.207286,-0.109837
7760203892,-79.081161,1.359123,7.020813,0.951339,-0.284748,-0.058855
7760223938,-75.588127,-0.653842,6.180307,1.011809,-0.200391,0.009600
7760243984,-66.898605,0.662649,7.612016,1.151449,-0.816538,0.262056
7760264029,-54.978832,1.956991,2.470602,0.809471,0.124518,-0.107224
7760284075,-60.761070,-3.512242,4.251563,0.857456,0.122169,-0.241845
7760304121,-69.285469,-7.093998,5.269456,0.970751,0.136590,-0.205311
7760324171,-74.721306,-4.834823,7.331266,1.178836,-0.080062,-0.145409
7760344211,-74.850098,2.183625,7.149928,1.322290,-0.076799,-0.220482
7760364257,-68.928383,11.039542,6.623466,1.184934,-0.192401,-0.143783
7760384303,-61.369236,11.396402,5.191835,0.850836,-0.340661,-0.058864
7760404349,-54.389385,6.809727,4.880631,0.763417,-0.210129,-0.201744
7760424394,-51.663139,0.728996,4.909106,0.794577,-0.185683,-0.398849
7760444440,-50.697800,-1.870018,4.685067,0.924830,-0.061732,-0.376675
7760464486,-52.739784,-2.471648,5.101123,0.983157,-0.042637,-0.222109
7760484532,-56.418716,-2.420446,4.606873,1.018755,0.012545,-0.117960
7760504577,-60.213810,-2.146492,4.870637,0.988903,0.006714,-0.098015
7760524623,-62.661789,-1.337575,5.618459,1.019601,-0.003300,-0.127389
7760544669,-64.862503,-1.733262,6.128608,0.909585,-0.018442,-0.111054
7760564716,-66.196213,-4.141085,6.452878,0.890472,-0.073607,-0.115630
7760584762,-66.202469,-6.518450,6.613744,0.976593,-0.140412,-0.101101
7760604808,-64.379959,-6.098483,6.752735,0.987565,-0.182259,-0.005902
7760624853,-62.575867,-6.075181,6.732933,1.091736,-0.158812,-0.002271
7760644899,-61.414944,-3.347946,6.143501,1.077083,-0.146048,0.025645
7760664945,-59.211052,-1.023902,5.741492,1.093167,-0.190087,-0.044727
7760684991,-54.478340,2.504576,5.187066,1.103480,-0.207603,-0.133745
7760705035,-50.595287,4.081895,4.647979,1.028941,-0.153692,-0.091714
7760725081,-48.817638,4.219038,4.429634,1.052260,-0.009472,-0.042514
7760745127,-49.223824,4.585575,4.787802,1.029211,-0.055699,0.021046
7760765173,-49.015892,5.142108,4.850688,0.969911,0.011761,-0.004925
7760785219,-52.487362,3.860932,4.884107,0.899627,0.082612,-0.007657
7760805264,-55.928001,1.301564,5.822874,0.884265,0.037055,-0.035642
7760825310,-58.558910,-1.061539,5.866509,0.958195,-0.017540,-0.051790
7760845356,-62.125851,-0.504737,6.476412,1.062972,0.020968,-0.019871
7760865402,-68.127686,2.106463,5.972864,1.116277,0.040356,-0.006106
7760885448,-71.912170,4.179204,6.337414,1.013562,-0.002668,-0.020987
7760905493,-76.207916,3.494369,7.278893,0.943911,0.077313,-0.057514
7760925539,-82.806976,2.106609,7.717219,0.985357,0.149509,-0.112625
7760945586,-90.497864,1.259797,8.220781,0.970036,0.209108,-0.093036
7760965632,-97.841591,1.359398,9.287563,1.070345,0.091969,-0.157824
7760985678,-103.207497,2.820269,8.897768,1.022944,0.047601,-0.155399
7761005724,-106.979424,2.897123,9.604943,1.003362,0.032093,-0.163028
7761025769,-111.457161,2.742883,9.340837,0.952049,0.000623,-0.168727
7761045815,-114.670845,1.508207,9.674758,0.937504,-0.051450,-0.177925
7761065861,-115.599548,0.395920,9.941009,0.930852,-0.142896,-0.182743
7761085906,-115.242081,-0.030967,9.851437,0.930311,-0.124187,-0.200648
7761105951,-116.368919,-1.798571,10.177202,0.898980,-0.069726,-0.192488
7761125997,-116.845123,-3.465847,10.963781,0.950037,-0.096310,-0.194313
7761146043,-117.955185,-3.823490,11.322735,0.970902,-0.077806,-0.191068
7761166089,-118.542618,-4.090191,11.403795,0.989492,-0.083606,-0.193736
7761186134,-118.465019,-3.975717,11.463041,1.012205,-0.102145,-0.201445
7761206180,-117.811035,-2.710036,11.644814,1.021976,-0.098566,-0.191632
7761226226,-116.288956,-2.298061,11.659756,0.992042,-0.101171,-0.200105
7761246272,-115.248177,-2.442447,11.716456,0.975843,-0.123082,-0.178823
7761266318,-113.294983,-2.395749,11.907643,1.000612,-0.151803,-0.184644
7761286364,-111.428329,-1.214952,11.500703,1.019587,-0.122391,-0.184108
7761306411,-109.396492,-0.765062,11.375724,1.008256,-0.142697,-0.185606
7761326457,-107.264030,-0.330231,11.317614,0.984334,-0.139612,-0.170316
7761346502,-105.622681,-0.352978,11.178860,0.987623,-0.109071,-0.187852
7761366548,-104.085526,-0.406859,10.774781,0.982839,-0.110238,-0.175150
7761386594,-102.719986,-0.841250,10.619824,0.982969,-0.107258,-0.187503
7761406640,-100.963188,-0.696223,10.516479,0.989428,-0.128251,-0.180498
7761426685,-99.496902,-0.886562,10.427530,0.979557,-0.090284,-0.154158
7761446752,-98.872742,-1.069646,10.278482,0.986901,-0.097963,-0.181867
7761466776,-97.414192,-0.962807,10.173410,0.990219,-0.140088,-0.187754
7761486821,-95.026215,-0.879018,9.882268,0.998054,-0.123884,-0.187824
7761506867,-93.347641,0.012555,9.655691,1.027144,-0.124648,-0.180693
7761526913,-91.663467,0.919102,9.314335,1.025549,-0.116878,-0.158166
7761546959,-89.764877,1.589521,9.000171,1.005640,-0.101349,-0.157035
7761567005,-88.112595,1.650033,8.616402,0.966183,-0.080381,-0.150678
7761587050,-86.876335,1.147114,8.502390,0.966313,-0.085845,-0.153849
7761607096,-85.149063,1.208449,8.461027,0.988921,-0.120480,-0.158353
7761627142,-83.265373,0.629179,8.212444,0.997936,-0.122545,-0.150242
7761647188,-80.679543,0.629075,7.871894,0.975344,-0.117816,-0.132163
7761667234,-78.123497,-0.025287,8.023152,0.957288,-0.113853,-0.140032
7761687281,-75.768166,-0.809501,8.071756,0.937962,-0.114523,-0.142878
7761707327,-73.752930,-1.700966,7.921000,0.971997,-0.111045,-0.159169
7761727372,-72.102409,-1.959744,7.874551,0.983457,-0.087633,-0.150598
7761747418,-71.230194,-2.332831,7.920000,0.979288,-0.057530,-0.151848
7761767464,-70.245827,-1.060225,7.766757,1.027610,-0.054235,-0.180727
7761787510,-68.955688,0.044808,7.615781,1.054780,-0.082254,-0.151097
7761807556,-66.939957,1.203277,7.419982,1.017510,-0.111065,-0.104389
7761827600,-64.282082,1.119789,7.261705,0.990830,-0.109012,-0.104664
7761847646,-61.066925,0.479061,6.651267,0.992772,-0.152462,-0.086651
7761867692,-56.387325,0.380299,6.247493,1.009685,-0.196034,-0.098305
7761887737,-50.123425,1.880454,5.028224,1.038498,-0.251197,-0.089809
7761907783,-42.173115,2.908167,3.640260,1.004124,-0.293728,-0.035684
7761927829,-33.203918,2.352373,2.841472,0.980575,-0.255730,-0.032441
7761947875,-26.819405,2.001588,2.015740,1.011102,-0.189127,-0.051590
7761967921,-21.760983,2.077744,1.412996,0.991251,-0.150051,-0.007017
7761987966,-17.355000,2.253452,1.090032,1.044821,-0.134403,0.001121
7762008012,-13.458779,3.130421,0.881604,1.026947,-0.110381,0.018724
7762028058,-9.212141,3.649159,0.614080,1.023701,-0.097033,0.007229
7762048105,-4.571027,3.550353,0.195770,0.977137,-0.120283,0.016594
7762068151,0.710888,2.270377,-0.261608,0.956264,-0.155496,-0.022116
7762088197,6.015759,1.752443,-0.744893,0.982253,-0.134164,-0.018237
7762108243,11.182354,1.226768,-1.263677,0.999202,-0.120041,-0.019548
7762128289,15.011079,1.715253,-1.385445,1.010271,-0.065798,-0.015288
7762148335,16.601505,1.609004,-1.377745,0.992601,-0.028888,-0.015230
7762168380,17.941570,1.152406,-1.249398,0.989955,-0.028736,-0.029619
7762188426,19.139290,0.801843,-1.386094,0.986563,-0.022199,-0.034746
7762208470,20.692451,0.328942,-1.735598,0.988084,-0.030198,-0.032035
7762228516,22.455635,-0.021513,-1.890908,0.987224,-0.039830,-0.024924
7762248562,24.120178,-0.318554,-2.006274,0.984456,-0.040101,-0.021608
7762268608,25.150457,-0.630960,-2.101640,0.990913,-0.023891,-0.017207
7762288654,25.383673,-0.639013,-2.312458,1.003521,-0.004138,-0.020722
7762308699,25.440075,-0.631003,-2.153108,1.006499,0.006409,-0.026873
7762328745,24.813065,-0.608316,-2.156300,0.999236,0.035153,-0.022712
7762348791,23.950045,-0.882754,-2.092792,0.988624,0.042713,-0.008563
7762368837,23.221779,-1.279454,-2.184320,0.988182,0.007594,-0.009950
7762388882,22.988050,-1.446736,-1.995833,1.002011,-0.005592,-0.018515
7762408928,22.742727,-1.294480,-2.037428,1.008610,0.015511,-0.025744
7762428975,21.481005,-1.355800,-2.043307,1.001604,0.036694,-0.027838
7762449021,20.051962,-1.401809,-2.000142,0.998855,0.039327,-0.028159
7762469067,18.334648,-1.516183,-1.828892,0.991774,0.054788,-0.024886
7762489113,15.065035,-1.676718,-1.665574,0.994942,0.090231,-0.048511
7762509159,11.561973,-1.760649,-1.306946,1.000246,0.092735,-0.077200
7762529204,7.845076,-1.776021,-0.936755,0.996513,0.112292,-0.075353
7762549250,3.542226,-1.867393,-0.409753,0.988055,0.109827,-0.073571
7762569318,-0.572597,-2.233452,-0.045956,0.980447,0.095165,-0.075868
7762589340,-5.056233,-2.371234,0.209616,0.993061,0.101991,-0.084718
7762609386,-9.314996,-2.424725,0.636297,0.998822,0.111198,-0.078931
7762629432,-13.674231,-2.249771,0.995394,1.002913,0.107389,-0.075363
7762649478,-17.572065,-1.998148,1.498112,1.005600,0.106305,-0.073410
7762669523,-21.776417,-1.914343,1.969129,1.006672,0.135592,-0.077744
7762689569,-26.317919,-1.517297,2.812435,0.999869,0.155924,-0.098268
7762709615,-30.995356,-1.486835,3.338658,0.985174,0.146342,-0.103085
7762729661,-35.603783,-1.791625,3.887583,0.979693,0.120131,-0.104764
7762749707,-39.587952,-2.111840,4.286900,0.989235,0.102953,-0.103536
7762769753,-43.452549,-1.776039,4.933879,1.020338,0.101175,-0.106061
7762789798,-47.019707,-0.747798,5.091371,1.030354,0.088540,-0.108480
7762809846,-49.383789,0.357315,5.393375,1.017744,0.062873,-0.105499
7762829891,-50.403656,1.309200,5.196034,1.004621,0.025099,-0.106211
7762849937,-49.861221,1.377873,5.169998,0.989725,0.001785,-0.108006
7762869983,-48.684765,1.050382,5.125335,0.971178,-0.007176,-0.118568
7762890029,-47.577656,-0.016369,5.076838,0.948189,-0.003155,-0.141059
7762910075,-46.997002,-0.907850,5.083822,0.974064,0.011897,-0.138802
7762930121,-47.604538,-1.144698,4.897722,1.001017,0.049638,-0.116630
7762950165,-49.352631,-0.649479,5.036974,1.029362,0.058442,-0.099971
7762970211,-51.247395,0.683757,5.069301,1.031668,0.046992,-0.094635
7762990257,-51.967197,1.239708,4.989720,0.984025,0.023725,-0.094057
7763010302,-51.292473,0.607646,5.116278,0.966707,-0.015916,-0.118841
7763030348,-49.481647,-0.009280,5.067911,0.970623,-0.042032,-0.125945
7763050394,-47.514362,-0.466668,4.786735,0.984734,-0.040188,-0.123465
7763070440,-45.130161,-0.603367,4.718002,0.994907,-0.049441,-0.117360
7763090485,-42.423435,-0.382634,4.290314,0.998192,-0.051802,-0.117684
7763110531,-40.011166,-0.321523,4.075191,0.986139,-0.052556,-0.122379
7763130577,-37.691463,-0.542495,3.824595,0.988050,-0.045292,-0.132046
7763170670,-33.589146,-0.374207,3.622169,1.005759,-0.025507,-0.121669
7763190716,-31.979425,-0.084665,3.414217,1.004372,-0.032690,-0.118184
7763210762,-29.879436,0.205129,3.257881,0.996182,-0.032782,-0.111690
7763230807,-28.145790,0.212957,3.147801,0.973405,-0.030353,-0.108401
7763250853,-26.522161,-0.221609,2.888499,0.978037,-0.029001,-0.119466
7763270899,-25.482456,-0.549023,2.892339,1.000917,-0.003150,-0.130066
7763290945,-25.081535,-0.130356,2.638639,1.005157,-0.004414,-0.128139
7763311010,-25.037292,0.174257,2.537427,0.982702,-0.007539,-0.127479
7763331035,-24.859076,0.075547,2.671844,0.998465,-0.025807,-0.130713
7763351081,-23.034391,0.814860,2.496430,1.054020,-0.089923,-0.114215
7763371126,-18.650066,2.132786,1.780369,1.029124,-0.146877,-0.096176
7763391172,-12.287572,1.790727,1.428806,0.936908,-0.175980,-0.066687
