Timestamp (us),Gyroscope X (deg/s),Gyroscope Y (deg/s),Gyroscope Z (deg/s),Accelerometer X (g),Accelerometer Y (g),Accelerometer Z (g)
5245903083,-2.009947,4.236428,-2.361811,0.893003,-0.359719,0.247091
5245923083,-2.237435,4.519511,-2.293660,0.891490,-0.368653,0.243109
5245943083,-2.139349,4.261130,-2.049759,0.887887,-0.364759,0.236719
5245963083,-1.462452,3.817651,-1.906453,0.885666,-0.367565,0.234277
5245983089,-1.389613,3.019298,-1.378812,0.884181,-0.375719,0.240316
5246003082,-1.798537,1.962959,-0.870600,0.885119,-0.379207,0.239376
5246023082,-1.458832,1.148280,-0.412499,0.890392,-0.380445,0.236894
5246043082,-1.118623,0.425810,0.197169,0.890331,-0.384103,0.235307
5246063082,-0.145549,-0.337147,0.682540,0.886938,-0.385583,0.234840
5246083082,0.866216,-0.956411,0.939103,0.886828,-0.381093,0.237141
5246103082,1.414860,-1.094499,1.089210,0.887433,-0.376312,0.241817
5246123082,1.682821,-0.874460,1.018594,0.889545,-0.373185,0.247446
5246143082,1.348704,-0.494624,0.516843,0.891572,-0.375655,0.249420
5246163082,0.813897,-0.705464,0.763420,0.891021,-0.373069,0.245087
5246183082,2.095896,-0.616635,0.962343,0.890599,-0.362896,0.243832
5246203084,2.036355,-0.303565,1.021991,0.895025,-0.360101,0.255145
5246223084,-0.085148,-0.518283,1.116248,0.892737,-0.364006,0.258374
5246243084,-1.822604,-0.132941,0.947653,0.898195,-0.367614,0.249363
5246263093,-1.950598,0.284399,0.437190,0.896317,-0.371616,0.246487
5246283084,-1.708487,-0.077467,-0.162623,0.894008,-0.378971,0.243657
5246303084,-0.594424,0.069202,-0.738327,0.889662,-0.376652,0.246771
5246323083,-0.006658,0.173679,-0.870674,0.883224,-0.375797,0.246145
5246343083,0.017308,0.373316,-0.560116,0.882326,-0.375046,0.246490
5246363083,0.102933,0.717330,-0.318888,0.884917,-0.372636,0.247208
5246383083,0.210647,0.944558,-0.578787,0.887983,-0.368955,0.248551
5246403083,0.181481,1.219775,-0.443113,0.891979,-0.365897,0.245808
5246423083,0.433742,1.355488,-0.619666,0.899668,-0.362001,0.249930
5246443083,0.251625,1.591055,-0.901077,0.898588,-0.364185,0.254514
5246463083,-0.213607,1.607551,-0.914225,0.898971,-0.364136,0.252145
5246503083,-0.521236,1.008520,-0.385751,0.894695,-0.356840,0.247520
5246523085,-0.675472,0.628500,-0.216138,0.893072,-0.358924,0.251914
5246543085,-1.187168,0.521955,-0.479294,0.891801,-0.364674,0.248432
5246563085,-1.683532,0.408740,-0.529709,0.891599,-0.365010,0.250078
5246583085,-1.294821,0.331818,-0.439944,0.893755,-0.371532,0.248558
5246603085,-0.783573,0.332045,-0.085112,0.888929,-0.372079,0.247605
5246623085,-0.861571,-0.048547,0.008162,0.889745,-0.372469,0.246981
5246643085,-0.609819,0.009529,-0.464410,0.890234,-0.370470,0.247685
5246663084,0.183155,-0.002835,-0.999930,0.894065,-0.370853,0.245631
5246683084,0.711410,0.451518,-1.353972,0.896813,-0.368684,0.248818
5246703084,0.574025,0.465768,-1.649783,0.895957,-0.374462,0.250358
5246723084,0.734157,0.450242,-1.612447,0.897628,-0.377504,0.249874
5246743084,1.222882,0.504904,-1.044977,0.897477,-0.375671,0.250665
5246763084,1.505678,0.538414,-0.233292,0.890696,-0.370304,0.247231
5246783084,1.910350,0.584691,0.121818,0.886893,-0.359843,0.248400
5246803084,1.618953,0.264776,0.018209,0.883922,-0.355763,0.243291
5246823084,1.273410,-0.200570,-0.236481,0.888275,-0.352699,0.241463
5246843084,1.318966,-0.209892,-0.571017,0.892675,-0.348895,0.247013
5246863086,1.043367,-0.415373,-0.652420,0.893766,-0.364459,0.253648
5246883086,-0.359933,-0.394902,-0.380126,0.894972,-0.367849,0.253621
5246903086,0.968152,-0.259493,0.023558,0.901587,-0.361209,0.250941
5246923086,1.901222,0.249724,0.229769,0.899971,-0.360571,0.261404
5246943086,-0.380010,0.097988,0.651241,0.894073,-0.363038,0.264484
5246963086,-1.643901,0.590055,0.761175,0.891831,-0.362278,0.250768
5246983086,-0.910695,0.837566,0.323542,0.889581,-0.358863,0.244672
5247003085,-0.638242,0.444865,-0.329466,0.888313,-0.365578,0.249962
5247023085,-0.242143,0.358481,-0.627257,0.888353,-0.372011,0.251521
5247043085,0.276357,0.318781,-0.652244,0.885216,-0.369673,0.251453
5247063085,0.101167,0.365347,-0.583261,0.884507,-0.368372,0.252338
5247083085,0.444959,0.471548,-0.494121,0.886258,-0.367886,0.250798
5247103085,1.154453,0.485144,-0.421430,0.893894,-0.366908,0.254235
5247123085,0.956464,0.569079,-0.527296,0.900711,-0.362308,0.255418
5247143085,0.630572,1.020009,-0.497455,0.899957,-0.358074,0.257991
5247163085,0.295258,1.126032,-0.853572,0.898669,-0.358208,0.259439
5247183085,0.400757,0.799932,-0.411815,0.892888,-0.360632,0.259327
5247203087,0.682044,0.571460,-0.184084,0.891969,-0.353672,0.255198
5247223087,0.574985,0.496263,-0.023668,0.893496,-0.349217,0.257516
5247243087,-0.509713,0.134627,0.256502,0.891662,-0.353507,0.259935
5247263086,-1.137343,-0.335977,0.337496,0.892321,-0.354413,0.254756
5247283087,-0.885698,-0.344635,0.267992,0.890144,-0.355039,0.252281
5247303087,-1.145097,-0.351704,0.231212,0.891499,-0.359218,0.254457
5247323087,-0.938838,-0.276432,0.146336,0.890899,-0.362877,0.251953
5247343086,-0.633027,-0.132177,0.197481,0.894061,-0.363280,0.253907
5247363086,-0.290520,-0.285964,0.128219,0.892894,-0.361680,0.255968
5247383086,-0.350336,-0.026515,0.134916,0.893601,-0.363073,0.254994
5247403086,-0.464409,0.071897,-0.085390,0.893323,-0.364377,0.252366
5247423086,-0.128465,0.154213,-0.216487,0.896982,-0.368191,0.251731
5247443086,0.374256,0.007561,-0.294112,0.899122,-0.369098,0.255051
5247463086,0.960864,-0.161418,-0.204833,0.900192,-0.369458,0.256891
5247483086,1.342876,-0.003448,-0.435274,0.897527,-0.362428,0.255023
5247503086,1.273595,-0.111211,-0.692847,0.895269,-0.356261,0.257004
5247523086,1.128050,-0.233258,-0.790420,0.892986,-0.358082,0.253451
5247543087,0.763260,0.064822,-0.858499,0.893844,-0.359985,0.255131
5247563088,0.718161,0.217089,-0.934977,0.894268,-0.357465,0.254002
5247583088,1.245864,0.520338,-0.991957,0.895076,-0.348654,0.254696
5247603088,1.033644,0.832737,-1.167188,0.896462,-0.345515,0.260134
5247623088,-0.720375,0.921399,-1.197575,0.895198,-0.355730,0.255900
5247643088,-0.354125,0.906787,-0.842013,0.891608,-0.350728,0.250770
5247663088,0.745308,1.124864,-0.832825,0.894076,-0.348916,0.253960
5247683086,-0.728789,0.658581,-0.337620,0.891409,-0.355349,0.264248
5247703087,-2.620500,0.641812,-0.169317,0.895110,-0.359148,0.258324
5247723087,-1.741558,1.027689,-0.281472,0.900208,-0.360286,0.243524
5247743086,-0.424715,0.480354,-0.763764,0.897434,-0.368762,0.250650
5247763087,-0.181654,0.280458,-0.969150,0.895426,-0.368895,0.251088
5247783087,0.345090,0.385108,-1.101219,0.891965,-0.364267,0.251712
5247803087,0.094591,0.652508,-1.139284,0.888696,-0.365057,0.248863
5247823087,0.363333,1.011075,-0.936955,0.887622,-0.369330,0.247185
5247843087,1.819858,0.908539,-0.791157,0.887576,-0.366488,0.248783
5247863087,2.535119,0.496199,-0.488581,0.890803,-0.358319,0.252703
5247883088,2.472928,0.222808,-0.289475,0.895033,-0.349893,0.256995
5247903088,1.785141,-0.027932,-0.513177,0.896689,-0.346849,0.262529
5247923088,1.142394,-0.431473,-0.774388,0.899817,-0.353999,0.263035
5247943089,1.111523,-0.529617,-0.583819,0.902953,-0.352921,0.260405
5247963089,1.425383,-0.308532,-0.403871,0.898692,-0.347461,0.260825
5247983089,1.547821,-0.232274,-0.328782,0.899680,-0.346233,0.265560
5248003089,1.190503,0.013231,-0.221872,0.897306,-0.345693,0.267990
5248023087,0.360313,0.282450,-0.219301,0.891236,-0.343721,0.269723
5248043088,-0.491946,0.727103,-0.217423,0.890281,-0.342656,0.266505
5248063087,-0.788686,0.924621,-0.551334,0.888322,-0.348373,0.257998
5248083088,-0.788278,1.030584,-0.719001,0.888242,-0.348674,0.255904
5248103088,-0.658638,1.037235,-0.848813,0.889536,-0.355285,0.259576
5248123088,-0.392116,0.908213,-0.560670,0.893675,-0.357269,0.260469
5248143088,0.532504,1.205455,-0.034288,0.895549,-0.359883,0.258430
5248163088,1.616024,1.242292,0.340563,0.893929,-0.364616,0.255659
5248183088,2.111222,1.089283,0.528978,0.893414,-0.360983,0.260980
5248203088,2.085765,0.525511,0.615242,0.891527,-0.354648,0.262597
5248223089,1.749559,0.389680,0.716185,0.896347,-0.351146,0.260311
5248243090,1.879642,0.444146,1.026917,0.894571,-0.357546,0.261486
5248263090,2.253173,0.360640,1.329562,0.891843,-0.361564,0.262524
5248283090,2.077121,0.238715,1.239727,0.888940,-0.354140,0.268857
5248303090,1.147076,0.399689,0.863279,0.892035,-0.356774,0.273580
5248323090,-0.372054,1.776991,0.977965,0.905692,-0.377272,0.278046
5248343090,0.399557,5.320484,0.988775,0.922572,-0.377463,0.283327
5248363089,7.218102,6.839566,0.563176,0.952613,-0.379451,0.265143
5248383089,12.963387,6.925016,2.717554,0.933792,-0.377289,0.280336
5248403088,11.998914,4.169026,6.298541,0.895476,-0.342836,0.299763
5248423088,5.226984,1.039765,8.099107,0.890761,-0.316321,0.284348
5248443089,0.864145,1.090888,8.255592,0.889787,-0.330237,0.257005
5248463089,2.091427,2.610271,7.794737,0.875925,-0.383262,0.240987
5248483088,5.726097,0.130002,7.888168,0.857880,-0.399580,0.249175
5248503089,8.150801,-3.339670,7.649643,0.857871,-0.382905,0.258222
5248523089,8.641634,-2.644921,6.504351,0.867236,-0.352442,0.279102
5248543089,5.854752,0.171717,5.478403,0.870502,-0.349835,0.275537
5248563091,4.809392,1.906081,3.970648,0.860458,-0.361378,0.273516
5248583090,4.404941,2.000648,2.756173,0.863499,-0.359457,0.285193
5248603090,2.912097,2.631181,1.361856,0.872466,-0.357011,0.285154
5248623091,2.171884,4.328444,0.255640,0.899126,-0.365538,0.275155
5248643091,4.375096,5.702401,0.262145,0.902368,-0.381559,0.284829
5248663091,6.108173,6.033127,0.283127,0.898246,-0.370849,0.315636
5248683091,4.527473,5.576124,1.067551,0.898661,-0.370405,0.321837
5248703090,3.235887,6.539261,2.429366,0.896423,-0.367767,0.312287
5248723090,2.262100,8.548019,4.195353,0.890021,-0.380209,0.284593
5248743090,6.171535,7.729928,4.439581,0.863566,-0.394728,0.278985
5248763090,10.235518,2.383295,4.924012,0.849026,-0.400799,0.284223
5248783090,12.184791,-0.001451,4.865124,0.855971,-0.371390,0.297797
5248803090,11.133155,0.324727,3.872936,0.859122,-0.352945,0.314511
5248823090,9.613234,-0.120012,4.056680,0.868703,-0.377352,0.306591
5248843090,11.851936,-1.264517,6.863396,0.868973,-0.416927,0.298445
5248863090,14.166039,-2.512100,8.872305,0.870404,-0.418266,0.321375
5248883090,14.729866,-2.738558,9.699084,0.876222,-0.404180,0.323315
5248903092,16.703867,-0.056690,12.056501,0.943064,-0.449475,0.293671
5248923091,29.079233,7.585651,23.181944,0.958031,-0.537220,0.295352
5248943091,40.084480,10.638565,36.910633,0.853728,-0.575008,0.409724
5248963092,48.141716,5.798075,40.406662,0.871606,-0.534002,0.404896
5248983092,61.797421,9.216961,42.707378,0.921021,-0.473305,0.374450
5249003092,61.901169,14.870712,45.173859,0.895198,-0.422375,0.363192
5249023113,56.885849,13.944036,46.181282,0.823368,-0.351785,0.374337
5249043090,48.366718,8.004461,42.759026,0.793047,-0.289385,0.351181
5249063090,41.264523,5.513633,34.162315,0.788657,-0.277745,0.325873
5249083091,34.884483,5.963473,23.823925,0.757107,-0.266232,0.340429
5249103091,23.613068,2.750335,13.167315,0.725488,-0.235647,0.366276
5249123090,11.591088,-1.196792,3.262196,0.710365,-0.243240,0.372261
5249143090,2.076464,-2.600382,-4.196124,0.726800,-0.274492,0.366248
5249163090,-3.143465,-2.652045,-8.587259,0.767747,-0.319186,0.391063
5249183090,-5.961608,-3.333075,-9.164047,0.816115,-0.367551,0.411722
5249203090,-8.640012,-3.736908,-7.455330,0.826093,-0.387516,0.422528
5249223090,-10.350165,-2.537428,-6.351052,0.837400,-0.399450,0.412153
5249243092,-11.578275,-0.821645,-7.052359,0.863585,-0.426394,0.403983
5249263092,-11.742686,0.057028,-8.393074,0.864032,-0.451778,0.409485
5249283092,-9.374278,-0.722101,-8.894317,0.849409,-0.485235,0.413045
5249303092,-6.534346,-1.697747,-10.369538,0.854742,-0.501153,0.388532
5249323092,-2.105070,-0.428932,-11.938189,0.852166,-0.509268,0.382975
5249343092,2.225112,0.592250,-11.088674,0.854934,-0.518982,0.387987
5249363091,9.819053,2.745734,-7.470244,0.834038,-0.518852,0.372450
5249383091,17.138968,3.236324,-2.528340,0.821046,-0.424613,0.344692
5249403091,19.347832,2.119836,1.357491,0.828477,-0.325007,0.360112
5249423091,13.979445,0.538711,4.056547,0.854921,-0.299144,0.396102
5249443091,8.617420,0.373859,6.338790,0.848149,-0.311461,0.427420
5249463091,7.807233,3.033933,8.883810,0.863335,-0.265905,0.406258
5249483091,4.149375,4.956052,13.329818,0.881495,-0.208642,0.407202
5249503091,-7.036550,3.588721,19.109411,0.858147,-0.245090,0.436534
5249523092,-13.643281,1.439315,21.831898,0.874862,-0.305146,0.425493
5249543092,-10.803553,2.072148,20.273394,0.911651,-0.270454,0.395047
5249563093,-15.416357,6.222708,16.430386,0.876814,-0.227967,0.409277
5249583093,-27.379288,2.530554,15.407465,0.826923,-0.229000,0.479209
5249603093,-39.887501,1.537739,12.452166,0.819488,-0.252139,0.509227
5249623093,-45.805740,8.749437,8.578445,0.845748,-0.326960,0.554151
5249643103,-45.134781,22.000275,7.063840,0.911979,-0.481746,0.565314
5249663093,-43.633720,32.669079,11.530226,0.905814,-0.551318,0.535125
5249683093,-39.783066,36.687489,17.102728,0.790334,-0.483134,0.478641
5249703092,-37.428829,34.161533,19.694798,0.700925,-0.390023,0.468466
5249723092,-33.975662,33.678837,19.643217,0.732288,-0.346310,0.456890
5249743092,-34.126991,35.987625,15.962963,0.810568,-0.322231,0.457673
5249763092,-39.558933,38.160194,9.336108,0.854798,-0.297972,0.484198
5249783092,-53.990189,36.051979,-0.110382,0.773853,-0.167883,0.510483
5249803092,-72.549461,38.752037,-11.064480,0.782169,-0.185817,0.552802
5249823092,-89.078262,46.049301,-16.060417,0.849692,-0.329626,0.589715
5249843092,-97.654137,50.964947,-20.101574,0.870212,-0.356695,0.526303
5249863092,-100.310204,58.590694,-32.913689,0.870333,-0.252866,0.463868
5249883092,-100.304375,67.686035,-44.559135,0.862377,-0.337680,0.414101
5249903094,-100.155151,68.101746,-55.010784,0.847871,-0.243120,0.336610
5249923094,-109.246284,65.770233,-76.358414,0.791006,0.036417,0.309485
5249943094,-134.585602,62.934574,-94.627808,0.801401,0.077236,0.318632
5249963094,-155.813980,64.183746,-106.011497,0.880125,0.001961,0.263479
5249983094,-164.913315,77.051086,-117.115692,0.983847,-0.099151,0.180425
5250003094,-159.940826,92.677422,-126.556427,1.014026,-0.189416,0.161956
5250023094,-146.971344,107.144051,-134.607361,1.080587,-0.278562,0.148581
5250043093,-128.830719,118.320099,-143.708084,1.120204,-0.356513,0.153370
5250063093,-118.007759,117.351196,-151.968018,1.196517,-0.405967,0.158364
5250083093,-121.064430,109.239014,-148.755951,1.183254,-0.437136,0.203132
5250103093,-142.423996,91.589302,-125.332016,1.141767,-0.520835,0.219689
5250123093,-153.491516,90.106071,-95.409355,1.124321,-0.723493,0.172915
5250143093,-140.301453,94.229462,-69.977325,1.073390,-0.867392,0.148707
5250163093,-109.889664,95.447701,-52.118946,1.020139,-0.892079,0.180567
5250183093,-78.763893,91.615700,-39.241287,0.982744,-0.824807,0.201505
5250203093,-57.132687,83.070938,-24.041895,0.896084,-0.728824,0.230902
5250243095,-37.586277,67.961838,1.455880,0.843179,-0.499275,0.324718
5250263095,-35.904896,63.330750,5.132072,0.822115,-0.438044,0.347919
5250283095,-29.359093,60.401699,3.952751,0.815744,-0.381161,0.343059
5250303095,-23.330475,56.703201,-2.274278,0.809017,-0.218801,0.352264
5250323095,-31.471054,47.670090,-13.131588,0.790862,0.047743,0.414665
5250363095,-95.591881,29.223999,-56.732422,0.739837,0.361158,0.425846
5250383094,-137.030136,27.477192,-93.110825,0.758781,0.507090,0.322362
5250403093,-184.011093,26.289083,-129.116852,0.782241,0.550170,0.261094
5250423094,-224.951630,24.455605,-160.914749,0.881510,0.512093,0.199466
5250443094,-243.809341,31.676779,-185.164001,1.045459,0.416217,0.177687
5250463094,-247.704407,51.092281,-191.883652,1.272219,0.150832,0.193990
5250483094,-245.186249,65.954330,-175.525162,1.358668,-0.197199,0.160438
5250503094,-245.937225,70.432533,-147.827240,1.453192,-0.453785,0.132037
5250523094,-231.469742,79.003578,-126.015709,1.394763,-0.584097,-0.014684
5250543094,-202.892014,89.291168,-137.835068,1.268114,-0.385896,-0.181553
5250563094,-190.616989,99.349770,-151.349564,1.072048,-0.345430,-0.325078
5250583095,-141.710052,80.005348,-161.030029,0.896391,-0.515193,-0.314934
5250603095,-73.191833,44.989323,-162.696564,0.786165,-0.703305,-0.086207
5250623095,-39.940140,6.484153,-137.679688,0.917821,-0.342983,0.443291
5250643095,-87.319366,-14.724082,-98.458527,1.192839,-0.126292,0.530937
5250663095,-143.005295,7.488874,-50.223862,1.222282,-0.496836,0.491410
5250683096,-165.818848,30.743292,-4.097100,1.139373,-0.663231,0.391516
5250703096,-157.465210,47.218315,28.018839,1.102924,-0.773817,0.277277
5250723094,-106.919708,54.094135,46.534744,1.056831,-0.845013,0.182494
5250743094,-44.496109,49.515739,52.334625,1.046497,-0.801438,0.277316
5250763095,-5.448469,51.024876,54.474815,1.014701,-0.599205,0.405696
5250783094,2.896134,56.042530,53.061272,0.954600,-0.363096,0.470788
5250803094,-5.359000,57.871384,47.869946,0.886228,-0.179463,0.458522
5250823095,-22.430025,56.922813,41.857555,0.812536,-0.028760,0.436856
5250843095,-44.987267,50.645397,36.023571,0.755162,0.029662,0.406921
5250863095,-51.147011,46.043533,24.969938,0.799753,-0.036873,0.410034
5250883094,-48.629986,49.407001,8.771810,0.818646,-0.011191,0.422235
5250903095,-55.072292,51.205338,-16.482306,0.765839,0.183756,0.461307
5250923096,-84.540077,46.116592,-47.778282,0.722186,0.401385,0.447398
5250943096,-127.295090,38.418079,-84.222473,0.759446,0.507573,0.331665
5250963096,-169.721375,35.629364,-118.988174,0.831674,0.485336,0.231483
5250983096,-201.646667,36.618359,-148.370239,0.934241,0.428062,0.199007
5251003096,-225.314224,41.400318,-173.711182,0.947488,0.413218,0.165983
5251023096,-243.161621,51.239429,-200.059158,1.061196,0.345238,0.170544
5251043096,-261.317932,68.821396,-214.456665,1.380533,0.100678,0.108557
5251063095,-274.822540,71.981178,-189.377075,1.484246,-0.361760,0.040176
5251083095,-257.456726,59.590607,-141.554825,1.354591,-0.687598,-0.007752
5251103095,-221.824799,59.800156,-124.285667,1.272939,-0.593475,-0.145386
5251123096,-188.775696,58.881969,-136.051849,1.079237,-0.233572,-0.178041
5251143095,-168.796295,44.233429,-148.676407,1.015812,-0.073980,-0.128682
5251163095,-141.525223,36.946358,-154.581436,1.119757,-0.176803,-0.140377
5251183095,-104.967834,41.168755,-154.197617,1.110739,-0.450204,0.052825
5251203095,-91.793304,32.356163,-131.260269,0.952709,-0.435922,0.467327
5251223095,-129.911469,4.893652,-93.375336,1.088346,-0.216843,0.407404
5251243096,-146.872894,11.799479,-60.142864,1.138585,-0.458147,0.206015
5251263097,-130.215317,23.405407,-19.098372,1.197954,-0.701867,0.179709
5251283097,-109.422981,36.692623,7.344096,1.178868,-0.617043,0.266329
5251303097,-95.419243,36.574497,21.445824,1.089909,-0.567189,0.238761
5251323097,-70.484833,37.566322,25.134695,1.006244,-0.565300,0.202316
5251343097,-36.918137,38.388397,25.441200,0.994998,-0.500113,0.236958
5251363097,-13.803785,41.753166,28.375298,1.000647,-0.360558,0.303465
5251383097,-11.657629,43.440434,33.373405,0.941937,-0.215090,0.376531
5251423096,-42.441483,40.630482,33.587555,0.882278,-0.071011,0.370160
5251443096,-53.895531,40.108772,29.287823,0.910431,-0.087770,0.346072
5251463096,-54.645054,38.687447,23.301815,0.915839,-0.088152,0.340112
5251483096,-50.322227,39.138645,14.791564,0.904528,-0.038318,0.343611
5251503096,-55.334118,40.771587,-0.969164,0.906558,0.136755,0.371043
5251523096,-82.637459,37.375084,-21.316858,0.792439,0.331737,0.442517
5251543096,-124.432541,31.787737,-49.256153,0.748729,0.360797,0.381975
5251563096,-159.624252,31.503983,-85.342941,0.794439,0.438369,0.229367
5251583096,-197.325912,28.156467,-124.246544,0.773546,0.599472,0.104269
5251603098,-245.247803,28.074663,-160.671249,0.819527,0.569231,-0.092288
5251623098,-223.286530,91.449257,-213.448669,0.851104,0.573649,0.034571
5251643098,-184.102829,-6.634591,-174.510025,1.580770,-0.564612,-0.035551
5251663098,-155.694061,69.071175,-140.132401,1.531881,-0.879568,0.053354
5251683098,-115.045151,55.958641,-155.905670,1.220691,0.004185,0.123025
5251703098,-177.275406,35.002800,-193.735886,1.209397,0.314384,0.165213
5251723108,-219.719635,20.159840,-213.696564,1.173282,0.268411,0.138921
5251743096,-240.890579,26.100386,-214.857880,1.274361,0.199007,0.114187
5251763096,-257.359161,32.318092,-196.367249,1.335246,0.124346,-0.019783
5251783097,-261.930969,25.586803,-154.861465,1.196748,0.048708,0.041556
5251803097,-274.498169,35.452995,-102.329781,1.194256,-0.326321,0.047840
5251823097,-266.714172,35.049374,-76.411774,1.127252,-1.112663,-0.025949
5251843097,-177.009201,16.420231,-39.173580,1.239014,-1.062964,-0.040091
5251863097,-90.727684,11.536349,-4.535426,1.228743,-0.840903,-0.006207
5251883097,-33.901012,15.621761,16.191040,1.180695,-0.669209,0.085810
5251903097,-15.602564,13.854380,30.759386,1.047702,-0.523450,0.348675
5251923097,-25.055185,6.826698,46.777828,0.992045,-0.346524,0.426488
5251943098,-36.023376,15.464741,59.494865,0.973915,-0.219750,0.371361
5251963099,-46.067318,23.758484,62.755661,0.887775,-0.169216,0.357403
5251983099,-50.872711,25.726896,60.124119,0.818055,-0.138076,0.346554
5252003099,-49.022133,25.256542,58.491543,0.816855,-0.143644,0.311417
5252023099,-40.850479,27.222473,59.858780,0.840406,-0.187970,0.304400
5252043099,-29.269846,29.553116,56.489605,0.828618,-0.206940,0.377911
5252063097,-25.406948,29.144905,51.427849,0.892660,-0.188953,0.414766
5252083098,-25.841686,34.657200,46.168900,0.957913,-0.186870,0.453702
5252103098,-32.560062,40.677135,39.705269,0.979451,-0.193396,0.486948
5252123098,-42.841331,46.459530,34.110111,0.996658,-0.213202,0.481496
5252143098,-48.866661,51.956207,30.297850,0.947277,-0.250119,0.522067
5252163098,-51.080826,56.577232,29.033129,0.893035,-0.214865,0.497627
5252183098,-51.713123,60.230808,27.286804,0.858733,-0.118929,0.429859
5252203098,-62.963493,59.249752,22.714645,0.806646,-0.048700,0.394231
5252223098,-86.413124,50.259003,11.714293,0.759649,0.042777,0.332697
5252243098,-113.730721,38.724911,-7.388151,0.682312,0.208907,0.316413
5252263099,-145.247025,25.072180,-28.772013,0.602325,0.294984,0.305072
5252283099,-178.760818,20.457550,-55.697235,0.681855,0.265750,0.184183
5252303099,-180.620148,25.941616,-87.349640,0.845691,0.316702,0.112350
5252323099,-172.285538,43.940369,-122.198257,1.090999,0.421574,0.301844
5252343099,-213.557465,64.743233,-127.013206,1.499611,-0.155192,0.407952
5252363099,-233.484497,100.725525,-70.637436,1.541531,-1.353524,0.241343
5252383099,-172.930710,100.291321,16.176319,1.087292,-1.786153,-0.114244
5252403098,-87.909554,94.316315,27.130445,0.786717,-1.111893,-0.228880
5252423098,-52.228306,65.572281,0.180913,0.388188,-0.756254,-0.284786
5252443098,-17.453968,27.102915,-26.431620,0.456997,-0.497508,0.015865
5252463098,-13.534040,31.462891,-22.776014,0.659797,-0.309140,0.374133
5252483098,-61.202801,25.891470,9.338603,0.844633,-0.522520,0.462188
5252503098,-93.783569,14.079590,38.426048,0.891146,-0.669197,0.432710
5252523099,-102.494537,25.843618,36.178307,0.894765,-0.576356,0.325509
5252543099,-83.795715,30.720564,27.225157,0.773434,-0.459727,0.234380
5252563099,-75.660141,16.879551,26.863173,0.625071,-0.549867,0.182460
5252583099,-88.906631,5.912474,28.174093,0.659517,-0.789114,0.050662
5252603100,-54.628574,-4.302666,28.079018,0.747499,-0.754963,-0.068836
5252623100,-17.508404,-22.617065,35.865387,0.700119,-0.657406,0.084256
5252643100,-14.351377,-40.301067,45.529091,0.640798,-0.692645,0.259154
5252663100,-12.827734,-40.344360,42.087429,0.715380,-0.786761,0.266094
5252683100,26.174372,-27.443842,45.756855,0.736693,-0.632974,0.321139
5252703100,28.486475,-20.993887,48.604801,0.700149,-0.235205,0.442180
5252723100,-12.046631,-25.343979,46.248692,0.730944,-0.210942,0.429986
5252743099,-26.390442,-17.283867,41.011333,0.736686,-0.471491,0.329786
5252763099,-12.814387,-3.238863,29.593042,0.665801,-0.542254,0.241223
5252783099,-12.364724,-5.360433,18.087612,0.679787,-0.634535,0.286566
5252803099,-15.945235,-6.863883,10.777425,0.749393,-0.798442,0.319704
5252823099,13.909164,12.064674,-14.514962,0.889017,-0.697484,0.364985
5252843099,26.143391,21.936661,-46.715187,0.892893,-0.332306,0.377474
5252863099,-13.208202,10.489452,-61.005875,0.866445,-0.355793,0.405846
5252883099,-16.784447,11.465343,-82.690063,0.815334,-0.674876,0.361889
5252903099,14.240699,21.892317,-128.368668,0.724463,-0.328485,0.236158
5252923099,30.405544,18.421272,-169.455582,0.580114,0.056877,0.137202
5252943101,18.277592,4.484042,-222.008011,0.671834,-0.068399,0.164679
5252963101,8.245914,3.642801,-291.986237,1.097150,0.011858,0.323708
5252983101,-27.331732,9.266429,-361.253937,1.832153,0.124184,0.457268
5253003101,-42.193184,19.176933,-396.605896,3.247466,-0.257115,0.321760
5253023101,-30.291079,95.393127,-336.439056,2.338294,-1.988019,0.795193
5253043101,47.071117,71.987823,-14.466921,0.468028,-5.570528,0.364469
5253063101,158.682480,6.341845,242.193573,0.313400,-2.046579,-0.344434
5253083100,135.654617,3.347626,316.725067,0.974529,-0.322770,0.701056
5253103100,98.753929,-22.018764,420.237946,2.626151,-0.491711,0.299406
5253123100,122.370110,13.406940,488.089935,2.363569,-0.165919,0.017104
5253143100,69.751907,-28.966579,467.593811,2.259817,1.039850,0.370427
5253163100,36.797661,-95.960541,369.560669,1.377614,1.388206,0.010117
5253183100,-15.477009,-122.613564,280.491241,0.492158,2.119767,0.117392
5253203100,-69.676361,-143.926056,182.788834,-0.523462,1.997139,0.557016
5253223100,-140.325272,-84.422379,29.487202,-0.516231,1.344182,0.467877
5253243100,-129.927734,55.976479,-126.869110,0.559212,0.976255,0.852234
5253263100,-143.177216,121.632919,-216.603607,1.777567,0.093756,0.829259
5253283101,-145.080505,114.661125,-99.563942,1.656193,-1.910513,0.506279
5253303102,-39.887074,122.257233,-54.026905,0.980533,-1.908635,-0.725592
5253323102,-47.311295,53.732513,-108.709152,-0.041595,-1.439325,-0.571971
5253343102,-14.265677,12.201555,-146.964874,-0.109372,-1.169659,-0.428478
5253363102,12.993449,6.165162,-203.259125,0.406140,-0.874394,0.081164
5253383114,4.050891,0.358227,-276.229156,1.094166,-0.159787,0.426380
5253403100,-7.815060,14.520954,-324.958527,1.434822,0.115271,0.370215
5253423101,12.432189,48.753971,-316.732910,1.626492,-0.042129,0.403570
5253443100,-8.247450,78.129654,-255.027008,2.205431,-0.264871,0.364111
5253463100,-84.788055,37.026340,-214.100586,1.650088,-1.507876,0.205766
5253483101,-107.175537,-17.011190,-94.018234,1.309313,-2.578063,0.003507
5253503101,24.407944,3.692390,68.209000,0.819257,-2.512005,-0.146564
5253523101,129.382034,1.373501,117.948814,0.724892,-1.242653,0.217005
5253543101,136.550293,-3.172550,110.527321,1.165671,-0.371299,0.165822
5253563101,99.934540,-28.658300,99.297119,1.113769,-0.203217,0.241072
5253583101,121.585732,-27.890978,98.670387,1.121761,-0.381515,-0.015985
5253603102,163.280548,16.363688,86.120384,0.994862,-0.072214,0.109793
5253623102,137.093521,13.860526,32.546841,0.516489,0.521768,0.182324
5253643102,83.418808,-25.476974,-38.729389,0.044861,0.866255,0.090006
5253663103,41.082462,-35.654369,-99.482132,0.183022,0.527877,0.343884
5253683102,-5.255653,0.908296,-115.683594,0.620738,0.173057,0.394425
5253703102,-26.904007,-10.698724,-130.677567,0.864863,0.162280,0.346059
5253723102,-37.549198,19.183249,-96.460999,1.273049,-0.811163,0.568629
5253743101,-41.220490,0.135635,-1.168598,1.088302,-1.017508,0.264090
5253763101,0.068337,12.035847,8.445192,1.060114,-0.588006,0.213697
5253803102,7.273644,-6.469769,6.299959,1.297421,-0.815495,0.270206
5253823102,7.181682,4.864627,7.031730,1.284369,-0.742869,0.275709
5253843102,0.168311,21.733927,11.569695,1.089779,-0.856993,0.289825
5253863102,16.375515,18.419209,38.009571,0.840117,-0.772550,0.154388
5253883102,19.186665,19.766035,48.857677,0.738203,-0.472984,0.075239
5253903102,1.966446,18.151251,40.523594,0.622921,-0.341868,0.027185
5253923102,-7.455403,12.534195,28.911915,0.516250,-0.311406,-0.054080
5253943103,14.111477,3.772715,9.231630,0.349305,-0.185353,-0.036992
5253963103,45.985157,1.165587,-18.692919,0.324753,-0.116395,0.044526
5253983103,63.785778,-3.288216,-43.976234,0.549750,-0.097657,0.143558
5254003103,67.941711,-12.426764,-68.324860,0.884813,-0.018380,0.240214
5254023103,62.998302,-16.220736,-94.989143,1.179725,0.024254,0.384826
5254043104,50.239204,-13.824074,-97.244324,1.372449,-0.203417,0.648407
5254063104,25.962557,-4.643440,-54.839153,1.317904,-0.503699,0.718877
5254083102,12.519203,3.190517,-11.816216,1.315242,-0.461278,0.668212
5254103102,-9.091576,12.560826,5.961674,1.359030,-0.497617,0.607640
5254123103,-23.002016,9.281034,26.672279,1.280974,-0.646541,0.490743
5254143102,-15.218439,1.357958,60.459282,1.102455,-0.782110,0.211632
5254163102,16.464436,-3.152790,80.146477,0.779829,-0.621816,0.129299
5254183102,11.025575,-2.335672,72.271912,0.633106,-0.500672,0.189083
5254203102,-8.218218,3.034539,70.967583,0.811677,-0.799178,0.080990
5254223103,-6.300366,-4.937413,105.450356,1.046982,-1.209048,-0.178247
5254243102,21.035086,-8.786711,135.132339,0.762800,-1.372336,-0.155977
5254263102,65.686462,-31.374624,141.801773,0.339206,-1.371011,-0.290702
5254283104,164.138306,-38.005833,139.565887,0.270357,-0.964797,-0.402444
5254303104,229.101379,-35.497383,139.447739,0.613468,-0.250583,-0.157385
5254323104,172.820831,-52.640362,111.771385,0.815528,0.470584,0.256632
5254343104,106.038971,-38.748547,60.155598,0.863142,0.318348,0.500992
5254363104,84.280304,-10.189677,31.559624,1.175140,-0.142565,0.657162
5254383104,86.714066,4.261890,20.486757,1.199535,-0.337453,0.713490
5254403103,78.641266,11.994061,-10.281126,0.984485,0.045194,0.618698
5254423103,59.445374,13.181274,-59.685696,0.831542,0.134612,0.427787
5254443103,41.450752,2.709422,-100.341667,0.825600,0.315009,0.186607
5254463103,18.530430,-14.429240,-136.370102,0.774866,0.754548,0.124521
5254483103,-18.977135,-33.798923,-172.352203,0.629885,1.044527,0.162937
5254503103,-57.773159,-33.713558,-219.694016,0.555663,1.140753,0.138820
5254523103,-101.857956,-63.456474,-270.075775,0.529033,1.168948,0.125713
5254543103,-165.117279,-101.120598,-304.063843,0.825330,1.078257,0.008042
5254563103,-198.005508,-102.764252,-327.950500,1.265501,0.968247,0.036694
5254583103,-202.569885,-70.096367,-331.778595,1.986659,0.699329,-0.096675
5254603104,-163.925705,-21.198000,-264.816254,2.614254,-0.085136,0.005069
5254623104,-190.769958,-17.312559,-122.223724,2.199383,-0.973106,0.572507
5254643105,-237.386398,-45.252876,39.601749,2.035875,-2.936721,-0.421507
5254663105,123.839989,1.557974,123.072441,1.764597,-3.683057,0.473125
5254683106,369.628204,-0.907618,271.493011,1.245610,-2.378093,0.364842
5254703105,566.473083,36.588043,364.283264,2.413349,0.183277,-0.676172
5254723105,508.567505,85.898186,374.986145,3.147111,3.160740,-0.732867
5254743103,32.657990,109.545753,358.533234,1.196849,2.749036,0.520641
5254763104,-217.642136,-4.176258,349.271851,0.900297,-0.020709,0.024131
5254783104,5.809159,9.067595,302.564728,1.203222,-1.433087,0.475684
5254803104,199.261932,52.764706,266.959167,1.510044,0.048357,0.608252
5254823104,106.045471,103.832008,213.304596,0.587271,1.149982,0.817831
5254843104,-9.173340,118.591766,138.872543,0.374920,0.419660,0.288827
5254863104,-26.272251,103.052773,60.459152,-0.000981,0.257652,0.036047
5254883104,-36.062794,83.026169,9.945083,-0.028677,-0.097365,0.012216
5254903104,-29.249748,52.555389,5.598879,0.198464,-0.500116,0.022333
5254923104,-4.494510,24.462963,-2.761323,0.490331,-0.126360,0.069880
5254943105,-20.415781,6.537365,-38.179829,0.225815,0.210918,0.155441
5254963105,-88.619827,-17.202282,-82.991913,-0.045656,0.167868,-0.008905
5254983105,-141.788818,-51.643711,-134.268387,-0.065511,0.215097,-0.244531
5255003105,-151.067734,-71.800659,-197.642273,0.166450,0.241672,-0.305361
5255023105,-109.334473,-78.802101,-267.319885,0.626072,0.193215,-0.209138
5255043106,-46.789570,-72.519196,-317.660492,1.225385,0.061463,-0.072829
5255063105,-2.924767,-49.561203,-338.695923,1.316615,0.208273,0.284315
5255083104,-32.518391,-62.452667,-351.056396,1.525389,0.528652,0.347536
5255103104,-71.956932,-79.432907,-335.547394,2.393049,0.582276,0.171098
5255123104,-94.551331,-57.903053,-247.283112,2.693573,0.578628,0.316934
5255143104,-247.248154,6.201328,-159.666229,2.458203,-0.756388,0.498263
5255163104,-290.295898,21.215925,-77.913208,1.787230,-2.670240,0.114543
5255183105,-106.980858,-26.824099,-10.860717,1.137544,-3.127445,-0.386665
5255203105,163.537079,-56.106201,51.657963,1.379313,-2.433222,0.058267
5255223105,372.473328,1.313999,159.934509,2.351599,-1.476989,0.455812
5255243105,446.313416,69.699020,245.782837,1.550154,0.397279,0.218178
5255263105,338.108154,49.392754,244.127380,1.145835,1.770133,-0.655301
5255283106,94.477043,85.692574,204.822021,1.231025,2.663186,-0.364960
5255303106,-167.617126,32.512188,225.760208,0.486465,0.707220,0.493779
5255323106,-201.103149,-21.859558,258.137634,0.946373,-1.375205,0.087001
5255343106,-7.282383,2.833547,249.852615,0.861247,-1.274981,-0.067728
5255363106,142.674393,32.285545,205.702667,1.101547,-0.372644,0.135642
5255383107,94.501617,41.403648,161.888840,1.097358,0.421904,0.512249
5255403106,-8.946095,53.570141,113.868073,0.918146,-0.139071,0.495165
5255423105,-6.190536,58.778687,84.764397,0.818152,-0.700230,0.239620
5255443105,56.036125,54.712978,58.303680,0.726307,-0.244291,0.112835
5255463105,65.974388,36.197823,15.101992,0.353958,0.319128,0.163278
5255483105,5.169376,16.959665,-40.950516,0.327945,0.444468,-0.003738
5255503105,-48.000404,-6.253123,-91.229187,0.303152,0.520757,-0.185313
5255523105,-97.011078,-49.926437,-146.100098,0.307564,0.655954,-0.215623
5255543105,-116.392670,-89.122421,-207.289703,0.451128,0.676755,-0.181933
5255563105,-107.906754,-97.679657,-272.567993,0.724221,0.667261,-0.034277
5255583105,-106.420891,-84.463905,-321.741577,1.137473,0.748499,0.099258
5255603105,-144.733490,-68.226982,-345.623657,1.665052,0.768868,0.118942
5255623107,-173.813873,-37.675896,-314.730438,2.392231,0.304829,0.144521
5255643107,-189.819199,-22.676186,-229.696350,2.510217,-0.554860,0.358500
5255663107,-144.911621,23.827988,-154.088516,2.391640,-1.546736,0.392978
5255683107,-73.967636,28.756319,-54.070530,1.867535,-2.363526,0.233143
5255703107,28.171549,1.670264,92.914017,1.354262,-2.935694,0.107968
5255723107,135.776062,16.415363,225.404816,1.250575,-2.415974,0.215241
5255743120,317.717285,41.366951,330.190186,1.524392,-1.233421,-0.303870
5255763106,482.072632,49.930962,381.820801,2.208544,0.209460,-0.566531
5255783106,371.751617,65.301933,378.896179,2.919366,2.231239,-0.484445
5255803106,46.584812,70.928528,317.159912,0.817139,2.824081,-0.076696
5255823106,-181.406845,21.132128,242.745300,-0.052201,0.580173,0.060678
5255843106,-140.486771,-22.456875,243.515930,0.693691,-1.251523,0.262436
5255863106,60.560638,39.283855,217.969406,1.281265,-0.564355,0.605967
5255883106,32.866535,78.776665,177.625214,0.822266,0.266355,0.625069
5255903106,-50.670967,89.469467,145.980331,0.598924,-0.205611,0.244864
5255923106,-75.745316,72.020149,122.091660,0.293784,-0.632027,-0.008340
5255943106,-55.803883,36.468586,105.557182,0.376963,-0.825302,0.063515
5255963108,-42.293259,15.766171,87.502884,0.502888,-0.798484,0.180216
5255983108,-26.281527,13.656924,78.198509,0.413667,-0.854154,0.217116
5256003108,-18.745848,2.146419,76.893990,0.299695,-0.785141,0.144580
5256023108,4.023426,-5.242766,69.277336,0.367355,-0.665879,0.072827
5256043108,12.847502,-12.329216,56.069107,0.329637,-0.491209,0.108531
5256063108,-2.912835,-27.113359,38.630856,0.372326,-0.497640,0.217881
5256083106,-16.558153,-30.614639,12.255770,0.391491,-0.498844,0.219278
5256103106,-18.266279,-27.250488,-17.715860,0.409086,-0.529521,0.159906
5256123106,-20.995876,-36.392372,-37.146645,0.455265,-0.529514,0.108103
5256143106,-38.674713,-55.559628,-52.215672,0.464886,-0.473109,0.220625
5256163106,-74.024170,-65.590561,-69.403610,0.544648,-0.486610,0.341859
5256183106,-88.075417,-50.688099,-86.893044,0.721968,-0.660525,0.317948
5256203107,-74.928879,-28.053606,-91.258133,0.867024,-0.787296,0.351731
5256223107,-71.619637,-21.430622,-63.915268,1.113590,-1.238913,0.393534
5256243107,-50.193485,3.817827,-9.944333,1.146033,-1.180959,0.489295
5256263107,-60.803310,43.012882,8.666418,0.852650,-0.615842,0.349773
5256283109,-91.819733,55.306236,-1.392743,0.672888,-0.352069,0.404752
5256303109,-96.090500,54.972160,-11.782809,0.824664,-0.561644,0.309526
5256323109,-104.598717,42.155251,9.280722,0.881386,-1.137334,0.083786
5256343109,-69.054771,32.167027,51.841507,0.515188,-1.122692,-0.083495
5256363109,-71.904808,22.962147,5.889876,0.459135,-0.396390,0.071891
5256383109,-56.463757,5.443675,-10.082647,0.330376,-0.775415,0.132790
5256403109,-12.390424,1.126546,-1.844336,0.736376,-0.689868,0.239094
5256423107,2.102186,16.829016,4.158545,1.156887,-0.237558,0.490690
5256443107,-31.000092,48.421047,-8.805522,1.157069,-0.190919,0.783419
5256463107,-80.742065,75.770210,-19.455345,1.056747,-0.602480,0.512255
5256483108,-73.161461,110.963470,-28.692717,1.060653,-0.317943,0.314726
5256503107,-70.786377,117.939995,-41.973232,1.038979,-0.067904,0.470021
5256523108,-97.275635,118.763901,-44.758911,1.121956,-0.470756,0.367495
5256543108,-101.832214,144.268280,-42.855083,1.036957,-0.393787,0.195064
5256563108,-116.550461,166.565399,-59.447884,0.982830,-0.098654,0.137444
5256583108,-137.167664,172.445129,-81.388031,0.949025,-0.291542,-0.025856
5256603108,-134.974655,173.662262,-100.196732,0.903639,-0.461910,-0.093750
5256623109,-121.142784,184.220657,-116.767937,1.059030,-0.185954,-0.043976
5256643109,-134.905090,191.086777,-122.618065,1.132979,-0.068824,0.132021
5256663109,-186.551834,179.442749,-117.952164,1.185552,-0.370400,-0.034121
5256683109,-203.456528,174.898926,-93.787247,1.038852,-0.730577,-0.201004
5256703109,-181.359390,159.434891,-74.158600,0.983727,-0.975788,-0.297857
5256723109,-104.040253,154.108810,-49.767006,1.138158,-1.256998,-0.173217
5256743109,-43.268414,144.508514,-36.193092,1.100571,-1.055734,0.075800
5256763108,-43.756416,130.130600,-24.506306,1.054554,-0.776619,0.276650
5256783108,-69.484314,113.876251,6.051844,1.146868,-0.725347,0.286370
5256803108,-69.617836,120.231918,45.874565,1.046818,-0.970463,0.116912
5256823108,-27.447340,117.510979,77.915451,0.744285,-0.961889,0.204312
5256843108,-16.659718,105.730911,99.129311,0.735141,-0.713294,0.289975
5256863108,-22.684649,108.789902,118.582069,0.709629,-0.559332,0.294285
5256883108,-33.246151,125.322182,123.920502,0.581097,-0.249159,0.294428
5256903109,-74.055199,131.382980,113.865936,0.404443,-0.063831,0.170309
5256923108,-114.490395,119.274673,89.650864,0.294537,-0.066674,0.056593
5256943109,-119.212654,100.818466,61.615757,0.247463,-0.178232,-0.039677
5256963110,-92.954224,95.375847,27.285477,0.402044,-0.169674,-0.165500
5256983110,-90.966774,91.059837,-15.495895,0.471095,-0.093315,0.158936
5257003110,-145.834137,93.720284,-55.039848,0.675239,-0.427282,0.399546
5257023110,-163.896088,127.971359,-65.934059,0.591198,-0.925419,0.289961
5257043110,-172.993744,118.806129,-37.239456,0.539700,-1.469544,-0.164483
5257063110,-112.290565,99.285568,7.157046,0.576252,-1.866155,-0.052119
5257083119,-51.599834,101.808434,20.562382,0.364026,-1.662689,0.250839
5257103109,-43.026848,85.436890,-11.859326,0.195832,-1.134515,0.135493
5257123109,-56.729458,61.327450,-37.813957,0.288305,-0.709742,0.073161
5257143108,-33.628510,42.500607,-38.768856,0.261225,-0.734070,0.226050
5257163109,-37.423187,26.823633,-37.798931,-0.013891,-1.020168,0.204963
5257183109,-48.587238,10.895992,-36.163467,0.110584,-1.137760,-0.071465
5257203109,6.656519,6.399436,-35.103542,0.396834,-0.884510,-0.080501
5257223109,51.056694,-8.609058,-36.674599,0.310694,-0.633300,0.175469
5257243109,67.661873,-32.975880,-40.804428,0.331851,-0.672067,0.394559
5257263109,75.770058,-26.376163,-41.570522,0.545123,-0.457306,0.668790
5257283109,45.180256,-25.395212,-39.337818,0.746064,-0.251884,0.716822
5257303110,8.879003,-19.590349,-47.610779,0.763897,-0.286679,0.605066
5257323110,11.705173,-11.869773,-80.822189,0.657684,-0.390632,0.527057
5257343110,23.378845,-4.823863,-109.511353,0.702597,-0.374822,0.491418
5257363111,37.452007,-3.504897,-122.249710,0.790610,-0.302726,0.546017
5257383111,30.645538,1.198759,-124.907295,0.819523,-0.106996,0.621200
5257403110,-0.180022,7.244143,-122.506508,0.858566,-0.153165,0.571860
5257423109,-39.256462,9.000177,-121.051682,0.992842,-0.497121,0.449242
5257463109,-17.148096,17.016539,-113.764458,0.953600,-0.530699,0.331603
5257483109,0.348830,22.703259,-108.474632,0.893524,-0.133254,0.331550
5257503109,-15.548779,15.980911,-109.260658,0.962739,0.028198,0.389787
5257523109,-35.327866,12.411941,-106.585564,1.000606,0.079226,0.333559
5257543110,-51.168045,14.983041,-109.260628,0.872301,0.029528,0.310592
5257563109,-65.308456,18.797802,-110.748383,0.898095,-0.007016,0.304389
5257583110,-84.213921,17.157925,-102.675293,1.055319,-0.033831,0.296077
5257603110,-84.307648,7.172034,-90.744232,1.130506,-0.275140,0.347335
5257623111,-68.302971,-3.697610,-78.761116,1.112828,-0.451499,0.200454
5257643111,-43.776268,-17.671638,-65.138603,1.143946,-0.257217,0.037880
5257663111,-86.422432,-4.751960,-75.436256,1.299478,-0.467528,0.030180
5257683111,-138.506485,8.007814,-73.455139,1.363756,-1.725850,-0.020076
5257703111,-28.696602,-35.792648,-35.822300,1.013123,-2.122806,-0.245001
5257723112,121.079231,-72.792809,-8.631557,1.197741,-1.681121,-0.132442
5257743112,204.594452,-57.773842,29.584290,1.250771,-1.237648,0.170594
5257763110,179.250977,-36.462986,53.222187,1.285668,-0.523990,0.542725
5257783111,93.859871,0.035828,71.548409,1.297738,-0.192105,0.457933
5257803111,23.102253,16.252333,71.022980,1.210086,-0.092576,0.136537
5257823111,-11.300755,9.912593,51.298607,1.047372,-0.120062,-0.094089
5257843111,-3.785927,10.382234,19.360140,0.832512,-0.197606,-0.209173
5257863110,42.956680,9.094193,-1.282149,0.563175,-0.348839,-0.122905
5257883110,86.241478,2.855863,-11.345924,0.450385,-0.405899,-0.008413
5257903110,91.424728,-8.714133,-33.256435,0.535011,-0.140682,0.056412
5257923110,77.816246,-25.477438,-76.343300,0.585969,0.282136,0.107256
5257943111,59.336750,-11.963510,-119.423584,0.547810,0.294760,0.386531
5257963112,16.705725,33.002903,-107.159760,0.813392,-0.342093,0.649379
5257983112,-51.557014,28.704416,-38.692814,1.497416,-0.943792,0.418496
5258003112,-45.501423,-5.719790,19.152525,1.479030,-0.552404,-0.038313
5258023112,-23.771673,7.604197,13.338963,0.854732,-0.383391,0.054420
5258043112,-18.837223,5.618047,-15.384865,0.819322,-0.615613,0.017770
5258063112,23.657188,5.423014,-29.880041,0.930584,-0.660212,-0.011803
5258083112,48.393761,-4.002339,-20.116766,0.941897,-0.485226,0.061515
5258103111,47.710083,-5.415135,-1.473669,0.904980,-0.339987,0.093665
5258123111,28.236111,2.206858,4.105452,0.885066,-0.227708,0.147381
5258143111,1.848000,7.262777,-3.464658,0.884477,-0.307822,0.144775
5258163111,-4.644930,9.497640,-12.077975,0.820203,-0.477393,0.085527
5258183111,8.566517,5.419931,-20.068745,0.724623,-0.443886,0.036617
5258203111,29.842693,6.834825,-29.169960,0.772008,-0.331216,0.026789
5258223111,50.499504,10.705768,-33.590683,0.883118,-0.290950,0.083022
5258243111,58.750641,5.152807,-32.318916,0.972043,-0.313624,0.161253
5258263111,59.229385,-3.457101,-32.312469,1.056494,-0.342368,0.202589
5258283111,48.909260,-4.633906,-35.793686,1.104794,-0.382015,0.254218
5258303113,37.554825,2.431996,-33.364864,1.151029,-0.445312,0.276454
5258323113,36.412304,0.240209,-25.020840,1.189779,-0.419361,0.228830
5258343113,39.300598,-2.644345,-18.903490,1.096790,-0.287635,0.205620
5258363113,37.678566,-1.994492,-19.506975,0.950726,-0.222789,0.188193
5258383113,33.177162,1.193278,-20.465977,0.884333,-0.190671,0.161673
5258403113,30.826870,4.779884,-9.878026,0.983750,-0.257178,0.159044
5258423113,33.241451,7.953112,14.604417,1.088540,-0.392490,0.165188
5258443112,29.227825,6.813870,37.555115,1.070537,-0.392155,0.187350
5258463112,11.128882,6.552013,44.037617,0.980861,-0.385269,0.199020
5258483112,7.850237,9.939695,45.792683,1.031138,-0.562586,0.098538
5258503112,36.530304,14.322957,64.381760,0.967778,-0.728224,0.048725
5258523112,63.314369,1.634404,80.313538,0.843539,-0.562111,0.095182
5258543112,74.981956,-8.108478,73.062241,0.902653,-0.312072,0.090658
5258563112,88.802681,-5.806197,64.986572,0.935829,-0.288741,0.074033
5258583112,97.649338,-9.078146,76.618378,0.919523,-0.238339,0.205176
5258603112,92.417503,-17.046759,91.261520,0.944106,0.088128,0.331942
5258623112,74.238289,-1.732927,82.604294,1.003435,0.307814,0.372948
5258643114,51.138374,18.974222,68.268402,1.031739,0.229775,0.520013
5258683114,-1.374588,38.792171,32.040421,1.025647,0.086973,0.397453
5258703114,-9.515509,45.557171,11.247559,0.782707,0.022406,0.391712
5258723114,-24.566904,35.899982,6.253336,0.735395,-0.132160,0.319907
5258743114,-20.994499,26.719036,5.039944,0.781776,-0.082706,0.229857
5258763117,-13.312456,15.262493,-9.062778,0.730114,0.279330,0.099264
5258783112,-39.683613,2.827533,-48.980042,0.554825,0.668892,0.057490
5258803112,-58.247665,-15.624086,-116.863655,0.424176,0.807904,0.201718
5258823112,-91.184898,-36.308193,-168.621689,0.635475,0.728168,0.298021
5258843112,-127.244461,-28.963501,-210.993332,0.795626,0.691973,0.356379
5258863112,-151.177826,-27.837030,-230.655014,1.106395,0.478902,0.284152
5258883112,-135.673645,-13.113654,-221.452972,1.379219,0.236529,0.160001
5258903113,-123.532181,12.182508,-171.003937,1.765141,0.091648,0.263349
5258923113,-186.486526,37.887688,-107.614029,2.073471,-1.133541,0.425113
5258943113,-138.624405,-9.198584,-12.673105,1.218355,-3.035258,0.044917
5258963113,87.993347,-63.802265,113.182182,1.390300,-2.878045,0.162358
5258983114,178.489441,-23.403423,268.653229,2.488839,-2.803508,0.626805
5259003114,343.452148,-11.315270,464.074951,1.674281,-1.538024,0.072385
5259023115,422.769196,28.984875,445.413147,2.678714,1.763165,-0.192617
5259043114,109.030914,78.742157,298.881989,1.936841,2.648944,0.460486
5259063114,-197.619507,3.867664,304.262268,0.429432,0.060856,0.261959
5259083115,-39.903740,-26.882074,317.884369,0.145741,-1.157713,-0.022459
5259103113,111.694977,33.610420,233.894943,1.032401,0.211702,0.852509
5259123113,14.871681,78.741219,191.804321,0.827226,0.532935,0.698831
5259143113,-53.043098,87.954613,145.093704,0.498761,-0.079091,0.437937
5259163113,-58.734299,86.104454,99.972824,0.292487,-0.513813,0.227268
5259183113,-42.102486,81.989166,68.127495,-0.025955,-0.451889,-0.002012
5259203113,-41.172592,54.985104,58.062546,0.091916,-0.558457,-0.000648
5259223113,-23.800364,30.534946,48.002110,0.385743,-0.664984,0.016444
5259243113,-9.495898,11.832900,27.731316,0.376619,-0.547285,0.077392
5259263114,-14.154431,-2.206883,9.828614,0.324149,-0.358246,0.174298
5259283113,-37.820168,-11.387634,-4.422407,0.371610,-0.342464,0.184932
5259303115,-65.068810,-18.132013,-21.593853,0.411683,-0.482505,0.088699
5259323115,-77.035355,-33.584164,-42.625690,0.438380,-0.648187,0.112037
5259343115,-75.372063,-50.920631,-63.817642,0.458552,-0.582896,0.213217
5259363115,-89.664330,-55.630348,-91.369789,0.620079,-0.466578,0.278003
5259383115,-156.639862,-71.474167,-102.064262,0.685710,-0.333952,0.139709
5259403115,-228.873856,-91.512268,-94.887665,0.792066,-0.445677,0.157456
5259423115,-225.342636,-101.256531,-66.650887,1.286611,-1.240596,0.303538
5259443114,-179.897583,-64.783585,-12.802551,1.176198,-1.536104,0.408856
5259463114,-121.280655,-19.975967,6.781221,1.223124,-1.259442,0.055079
5259483114,-59.619926,11.434165,-1.173766,0.778069,-0.860810,0.031430
5259503114,-16.165117,14.743150,-19.086117,0.607893,-0.526996,0.446647
5259523114,-8.749007,33.760975,-24.153370,0.959967,-0.698718,0.434678
5259543114,-7.737618,70.263229,-18.342781,1.164172,-0.515910,0.565277
5259563114,-46.052292,88.052757,-15.193472,1.007724,-0.536128,0.597763
5259583114,-60.249958,98.230621,-22.394127,0.924775,-0.668820,0.242035
5259603114,-28.368170,111.942780,-48.295269,0.882929,-0.202583,0.159379
5259623114,-31.835293,117.641258,-93.726501,0.753810,0.085048,0.292218
5259643115,-38.657948,130.374054,-141.925232,0.784589,0.278410,0.274506
5259663116,-40.227333,148.621277,-185.013000,0.985951,0.545931,0.450934
5259683116,-68.239182,162.214920,-208.671814,1.196792,0.330684,0.675740
5259703116,-153.347855,152.648727,-174.453033,1.412932,-0.369468,0.456801
5259723116,-189.947464,123.413368,-58.415443,1.472596,-1.067266,0.030739
5259743116,-201.667770,93.106117,16.309761,1.184319,-0.850912,-0.237826
5259763116,-194.563461,62.788174,28.474892,0.917436,-0.734733,-0.474353
5259783114,-86.677284,36.559544,7.233199,0.758065,-0.760190,-0.361272
5259803114,-26.490370,53.883026,-10.446742,0.639729,-0.609972,0.120501
5259823114,-30.219200,90.254364,-40.285191,0.775519,0.122294,0.392476
5259843114,-95.525192,99.200294,-69.292473,0.892227,0.492449,0.418066
5259863114,-178.625046,85.801720,-85.281906,0.924969,0.193413,0.164938
5259883114,-206.110291,79.124771,-88.211418,0.993516,-0.107375,-0.075032
5259903114,-187.018600,87.072693,-87.574730,1.054437,-0.244969,-0.166258
5259923114,-148.684952,92.099579,-96.686638,1.067769,-0.412599,-0.114656
5259943115,-130.708557,83.355476,-96.919106,1.218590,-0.507848,-0.073910
5259963114,-109.028435,80.005882,-77.890610,1.199811,-0.588940,0.012343
5259983116,-111.967453,76.967468,-54.411865,1.259404,-0.723913,-0.088332
5260003117,-121.540672,66.435066,-18.360338,1.265587,-1.078274,0.117304
5260023117,-99.488022,46.974373,70.926933,1.367868,-1.220824,-0.062091
5260063117,-60.460674,46.464256,172.559280,1.081765,-0.944757,0.008412
5260083117,-28.229860,47.592602,198.358688,0.986764,-0.878842,-0.042814
5260103121,-0.680163,56.161095,220.961624,1.040938,-0.832330,0.060547
5260123115,1.772172,76.286736,224.772827,1.005475,-0.619313,0.162090
5260143115,-5.853681,83.144516,211.067368,0.765453,-0.581124,0.302571
5260163115,-22.083338,88.161156,184.946640,0.668857,-0.320942,0.267955
5260183115,-36.305183,102.515694,136.683167,0.608243,0.081062,0.255422
5260203115,-65.598808,101.963600,76.169174,0.213694,0.478477,0.297793
5260223115,-114.178879,94.702034,10.704940,-0.204099,0.674669,-0.053314
5260243115,-156.589844,58.903786,-68.184921,-0.156573,0.642759,-0.230765
5260263115,-184.119797,26.376966,-118.568893,0.477366,-0.329385,0.239157
5260283115,-153.311676,27.819687,-42.829197,0.928461,-2.070672,0.147310
5260303115,-101.725494,57.526257,59.596714,0.891829,-2.432781,0.211796
5260323117,-69.438110,46.577759,51.511955,0.438025,-1.355536,-0.250813
5260343117,-27.933937,13.728726,22.586203,0.195614,-0.838747,-0.318843
5260363117,47.846367,0.918933,29.023525,0.193088,-0.922886,-0.027506
5260383120,71.743080,-7.702177,14.659099,0.426166,-0.744430,0.400817
5260403117,35.608044,-5.965944,10.401076,0.648800,-0.703833,0.543729
5260423117,16.188677,-6.014368,-1.813323,0.479837,-0.457662,0.337569
5260443116,10.519464,-7.809515,-18.923391,0.489040,-0.589021,0.243264
5260463116,12.119301,-15.973435,-38.591164,0.689970,-0.615103,0.198528
5260483116,20.053089,-40.171753,-41.253475,0.776236,-0.838273,0.275890
5260503116,28.424459,-46.822960,-33.457047,0.771829,-0.567113,0.395370
5260523116,-7.138130,-38.059059,-41.169247,0.644965,-0.620901,0.514413
5260543116,-18.608156,-21.134109,-71.347733,0.674048,-0.847059,0.507873
5260563116,20.311283,11.601175,-96.531334,0.710570,-0.653230,0.328028
5260583116,45.112438,27.288063,-99.056335,0.760585,-0.422282,0.367217
5260603116,32.948730,26.926739,-105.352173,0.800752,-0.183986,0.416045
5260623116,14.100787,27.111963,-121.058342,0.806286,-0.185723,0.379093
5260643117,-17.675154,23.706211,-131.422821,0.786757,-0.293427,0.376994
5260663117,-30.547935,25.954016,-145.980133,0.937389,-0.346417,0.353054
5260683117,-18.034155,34.699936,-157.977493,0.961731,-0.334398,0.250678
5260703117,-12.954013,41.923882,-164.029327,0.955340,-0.187672,0.235042
5260723118,-24.515469,37.289680,-177.087173,1.030075,-0.087696,0.325201
5260743118,-39.283222,30.943068,-194.636597,1.239382,-0.056980,0.424894
5260763118,-75.401596,32.477524,-209.396072,1.263251,0.184026,0.435753
5260783117,-113.579529,39.018749,-209.730087,1.301187,0.118219,0.187668
5260803116,-121.416359,46.996315,-183.132751,1.302000,-0.142792,-0.212586
5260823117,-126.561111,84.427200,-171.598770,1.459012,-0.718916,-0.313711
5260843116,-174.932892,33.828594,-166.300079,1.690083,-1.865240,-0.193069
5260863116,-73.884705,-56.394390,-74.104324,1.066596,-2.520213,-0.550683
5260883117,139.741928,-81.372559,-10.805729,1.076595,-2.055927,-0.114768
5260903117,217.937057,-53.911293,27.119642,1.191912,-0.881383,0.350336
5260923117,171.300522,-20.923050,42.001835,1.205875,-0.052444,0.577914
5260943117,49.704521,0.594356,25.961576,1.339218,-0.076863,0.384063
5260963117,11.745015,51.484798,50.662918,1.329896,-0.446837,0.021959
5260983118,56.990150,38.928658,68.500793,1.042060,-0.328785,-0.171936
5261003118,81.968521,11.927273,53.910767,0.809788,-0.006955,-0.095300
5261023119,53.161266,5.654243,27.374321,0.556524,0.193172,0.002424
5261043118,29.310978,-6.499080,-7.882142,0.449353,0.189035,0.011990
5261063118,51.800018,-3.846901,-43.470592,0.557613,0.055659,0.114099
5261083118,76.417236,7.801196,-86.245308,0.847545,0.224204,0.207196
5261103134,54.604424,11.541002,-114.827316,1.007200,0.335402,0.508566
5261123117,-29.621258,17.898346,-79.529663,0.869561,-0.225470,0.585761
5261143117,-68.299950,22.376299,5.070535,0.580101,-0.709535,0.100633
5261163117,-19.239220,-8.347074,42.116058,0.985521,-0.366963,-0.045857
5261183117,-3.118907,0.093323,45.180683,1.413306,-0.447229,0.245191
5261203117,-18.933414,-2.368311,48.972553,1.507517,-0.770699,0.097227
5261223117,-7.499885,-13.633534,45.399704,1.349440,-0.777022,-0.032518
5261243118,9.210130,-2.225796,40.947643,1.076921,-0.738646,0.098329
5261263117,6.270432,11.766109,42.455509,0.813207,-0.788106,0.088315
5261283118,9.861544,13.683442,51.853588,0.742183,-0.693822,-0.034984
5261303118,19.647423,13.168376,55.200531,0.785087,-0.552269,-0.072302
5261323119,28.755669,10.914749,46.741470,0.703358,-0.399848,-0.004865
5261343119,31.652256,7.264104,30.953373,0.485152,-0.220888,0.012446
5261363119,28.906403,3.682463,3.730933,0.360185,-0.063108,0.002834
5261383119,25.982874,2.122973,-31.403170,0.444962,0.029809,0.059271
5261403119,27.735815,-0.878914,-67.258835,0.643147,0.036620,0.123645
5261423119,40.102901,4.387560,-96.133080,0.834524,-0.024812,0.300648
5261443118,49.000286,17.185188,-101.558876,1.100475,-0.265097,0.477410
5261463118,36.527561,8.913307,-72.997292,1.313333,-0.368823,0.487714
5261483118,6.606127,5.766258,-38.451748,1.311667,-0.427137,0.469529
5261503118,-23.972538,12.518047,-21.844522,1.248404,-0.645462,0.365432
5261523118,-26.383051,14.757549,-12.382489,1.204578,-0.749495,0.164544
5261543118,5.989592,6.926848,-1.073065,1.076868,-0.729309,0.071002
5261563118,45.619888,-4.229447,17.604836,1.042042,-0.666962,0.088210
5261583118,70.545296,-8.517108,36.911522,0.997075,-0.525024,0.163658
5261603118,57.417332,-7.671379,43.541080,0.958341,-0.325943,0.252065
5261623118,24.655750,0.295026,46.306786,0.957486,-0.397427,0.235915
5261643120,2.760761,3.969621,67.197121,1.021327,-0.751525,0.087933
5261663120,13.223925,8.354378,97.952362,0.918189,-1.018702,0.081057
5261683120,31.874481,2.840511,104.040024,0.796468,-1.006346,-0.099781
5261703120,80.483047,0.132994,90.759399,0.957309,-0.910890,-0.324934
5261723120,169.523804,-9.278538,117.631363,0.977527,-0.846524,-0.046961
5261743120,163.284653,-22.591038,135.183472,0.503251,-0.195778,0.262997
5261763120,130.922409,-14.584312,112.633789,0.602546,0.259811,0.140786
5261783118,103.376236,-9.844245,95.548431,0.999340,0.178482,0.470488
5261803119,84.747597,2.806270,97.536804,1.163178,0.213372,0.692893
5261823119,49.606689,26.729174,75.558403,0.999599,0.375556,0.628825
5261843118,17.390696,39.164192,29.939194,0.960928,0.240561,0.584355
5261863118,-8.043173,43.327995,1.797366,1.061143,-0.180274,0.673742
5261883119,-26.727102,44.623684,-1.390876,1.003220,-0.365777,0.495218
5261903119,-14.745120,45.786880,0.182976,1.005848,-0.312656,0.412424
5261923119,4.642340,37.425594,-3.750942,0.989080,-0.141565,0.413275
5261943118,0.104965,25.728382,-14.711426,0.807240,0.318267,0.342626
5261963119,-43.383015,15.121753,-40.849590,0.601223,0.680992,0.228529
5261983120,-90.818489,4.768843,-77.039993,0.505675,0.695438,0.149902
5262003120,-128.864532,-18.642456,-115.053123,0.392671,0.626104,0.028876
5262023120,-157.476669,-42.821251,-164.740448,0.383358,0.702911,0.020852
5262043120,-176.722961,-56.803909,-219.866730,0.638212,0.701234,0.077900
5262063120,-152.683990,-26.974390,-260.616180,1.107894,0.310907,0.184768
5262083120,-117.409149,31.178852,-259.498291,1.330324,0.072636,0.323389
5262103120,-121.813034,25.481100,-212.123688,1.562096,-0.081834,0.182605
5262123119,-129.627380,10.347320,-139.985291,2.208939,-0.320414,0.204185
5262143119,-133.941223,13.065331,-112.544296,2.080759,-1.745755,0.305521
5262163119,-48.856895,-57.072361,-36.188496,1.322436,-3.182412,0.296061
5262183119,20.334328,-46.568108,121.772385,1.642983,-3.425800,0.476522
5262203119,141.682602,-55.173374,344.875153,1.880054,-2.872700,-0.218731
5262223119,353.860962,-62.442013,444.014526,1.914057,-0.932618,0.520668
5262243120,354.593994,64.829086,378.345947,3.170576,1.771041,0.298672
5262263119,53.347832,119.620621,241.310120,1.387617,1.571657,0.260069
5262283119,-167.913849,-38.166954,348.492035,0.005152,-0.768281,-0.218950
5262303120,0.207018,15.128498,391.710602,0.710646,-0.801082,0.484366
5262323121,64.998436,73.587418,277.304047,1.096200,1.054474,0.691245
5262343121,14.200233,82.817093,184.151581,0.145759,1.155145,0.194219
5262363121,-50.045315,69.558952,87.438835,0.102238,0.676892,0.409741
5262383121,-73.755890,73.335709,-14.095890,0.281168,-0.103634,0.458745
5262403121,-74.324188,90.424789,-58.026524,0.324632,-0.806228,0.321568
5262423121,-68.030495,75.801476,-27.933617,0.459031,-1.083587,0.399791
5262443120,-74.590683,47.628067,4.095679,0.449426,-1.057605,0.206463
5262463120,-85.679291,29.249191,11.509808,0.298155,-1.187477,0.226091
5262483120,-46.300060,27.208433,8.056265,0.264712,-1.352631,0.330637
5262503120,-4.736404,25.918131,3.343052,0.378976,-0.791948,0.135814
5262523120,-20.524525,8.890264,-3.149460,0.385565,-0.511997,0.187130
5262543120,-46.023926,-7.240695,-4.684907,0.385445,-0.625691,0.258930
5262563120,-44.855522,-10.637573,-16.172640,0.386045,-0.580981,0.296833
5262583120,-49.372082,-15.685436,-31.920547,0.467289,-0.412870,0.323619
5262603120,-63.613365,-8.798865,-49.957932,0.545732,-0.241132,0.345578
5262623120,-93.054596,-3.452605,-64.111633,0.623845,-0.130060,0.358523
5262643121,-133.509583,6.896396,-61.937134,0.776529,-0.273319,0.432954
5262663121,-165.397308,16.920475,-39.358078,0.916004,-0.725198,0.507433
5262683121,-182.435699,16.075830,-11.797221,0.768084,-1.019387,0.363514
5262703121,-159.766403,27.793657,-0.205318,0.957836,-1.310598,0.102086
5262723125,-89.387222,40.332130,-1.275180,1.008346,-1.281184,0.199562
5262743121,-44.801235,61.936588,-1.569180,0.950087,-0.855406,0.295417
5262763122,-51.903694,73.395378,-2.903366,0.721757,-0.538527,0.355842
5262783120,-84.564766,72.347481,-5.295201,0.636229,-0.484863,0.364555
5262803120,-96.242371,75.393845,-1.683980,0.764246,-0.637303,0.300868
5262823120,-93.758163,79.048393,5.150305,0.846604,-0.836899,0.241094
5262843121,-74.039429,90.265793,9.067428,0.826128,-0.931517,0.230940
5262863120,-53.072693,103.070923,7.598922,0.748130,-0.775886,0.248743
5262883120,-46.049736,110.731834,8.094465,0.776261,-0.651616,0.252317
5262903120,-48.315063,117.604507,5.657069,0.745706,-0.595614,0.277145
5262923120,-58.439022,120.844154,2.633696,0.742639,-0.563098,0.264300
5262943121,-63.546913,121.365311,3.391801,0.771667,-0.604173,0.193984
5262963121,-61.341343,124.663040,5.509790,0.791902,-0.579087,0.172822
5262983122,-55.859673,134.938065,11.320060,0.870695,-0.577294,0.167111
5263003122,-55.964169,148.287170,14.033781,0.857488,-0.509526,0.156816
5263023122,-77.236076,152.265182,12.190285,0.681948,-0.460688,0.120639
5263043123,-97.974998,148.958817,15.005369,0.642168,-0.499293,0.070115
5263063123,-99.598358,150.997406,29.252296,0.720578,-0.516699,-0.051697
5263083122,-119.862610,156.826141,42.191715,0.849392,-0.434841,-0.150172
5263103122,-121.447166,155.671921,56.901299,0.656072,-0.703209,-0.240488
5263123121,-119.902634,147.824600,60.820683,0.398987,-1.013071,-0.300981
5263143121,-119.608330,147.573822,41.654945,0.329151,-1.301908,-0.374507
5263163121,-80.797920,151.488831,20.113380,0.341127,-1.561281,-0.465905
5263183121,-33.773670,138.464371,15.565206,0.099153,-1.373771,-0.470766
5263203121,-18.410130,108.612732,19.923971,-0.014289,-1.131000,-0.374844
5263223121,-16.660183,85.470581,27.399837,0.182520,-1.170007,-0.160093
5263243121,-32.427296,65.914284,10.188431,0.301632,-1.078448,0.004801
5263263121,-40.243565,50.223446,-7.221206,0.185282,-0.982339,-0.020013
5263283121,-38.163822,30.704454,0.730688,0.085788,-1.016935,-0.069375
5263303121,-20.223392,18.583853,5.643249,0.198223,-1.085194,0.015448
5263323123,-16.427910,14.408432,-7.691994,0.273300,-0.821073,0.122883
5263343123,-30.891319,12.592657,-23.089943,0.240018,-0.807689,0.119514
5263363122,-30.982388,-3.688760,-23.593273,0.279137,-0.922010,0.129418
5263383123,-15.069116,-10.510473,-18.368700,0.389074,-0.900883,0.193231
5263403123,-11.152447,-8.696213,-12.870094,0.455770,-0.669119,0.288673
5263423123,-16.612122,-1.463188,-15.172944,0.387829,-0.699788,0.414339
5263443139,-21.976801,12.539083,-27.545633,0.501840,-0.745316,0.368389
5263463122,-22.424271,23.935492,-36.570065,0.593544,-0.945599,0.287193
5263483122,-2.538885,24.866224,-31.049213,0.499691,-1.158233,0.141562
5263503122,38.077469,24.890888,-35.589272,0.498469,-1.109113,0.110146
5263523122,79.382782,32.853210,-47.836193,0.515565,-0.712993,0.163614
5263543122,85.311150,28.903978,-53.932442,0.503723,-0.418344,0.293604
5263563122,51.701080,21.491840,-64.467972,0.516579,-0.378008,0.393360
5263583122,24.876633,17.526068,-67.709175,0.594752,-0.615750,0.317165
5263603122,25.756439,23.116053,-68.620049,0.666735,-0.605010,0.297657
5263623122,15.492693,16.562353,-77.221901,0.711216,-0.584472,0.305907
5263643122,4.317562,19.223677,-87.130440,0.696376,-0.606533,0.343131
5263663123,-7.172778,29.126005,-92.928741,0.729841,-0.512022,0.263387
5263683124,-16.262238,25.376833,-97.885788,0.838750,-0.663101,0.202953
5263703124,25.213694,23.117144,-101.241524,0.827541,-0.659433,0.283875
5263723124,41.565804,34.312008,-102.522064,0.832988,-0.519113,0.378099
5263743124,30.878681,43.940201,-101.255402,0.948827,-0.348382,0.397804
5263763124,7.739206,43.520287,-105.487022,0.985310,-0.266905,0.421822
5263783122,-9.876380,39.737572,-106.445724,0.942203,-0.464281,0.388481
5263803123,-0.594854,50.582909,-103.573532,0.875099,-0.327733,0.245051
5263823122,11.654975,52.432896,-106.601624,0.764358,-0.270953,0.262676
5263843122,-3.257613,42.584114,-106.838425,0.688966,-0.322461,0.356752
5263863122,-14.863526,44.212929,-114.422531,0.899254,-0.158842,0.324339
5263883122,-34.222031,51.868599,-137.371979,1.024912,0.095052,0.268523
5263903122,-62.008030,32.010391,-146.494629,0.783958,-0.044935,0.407719
5263923123,-102.665260,11.636435,-141.603760,0.859737,-0.225290,0.412256
5263943123,-99.686951,24.982307,-121.463631,1.121739,-0.398512,0.174737
5263963122,-69.140945,28.740334,-118.018112,1.186420,-0.308263,0.072112
5263983124,-78.396187,7.829892,-127.410599,1.269719,-0.222677,0.077838
5264003124,-148.120819,-5.415312,-107.547386,1.110657,-0.760562,-0.093645
5264023124,-155.724518,-30.753771,-68.337196,1.046442,-1.851009,-0.234703
5264043124,-0.041661,-70.795403,-37.413185,1.059864,-2.028936,-0.267226
5264063125,150.049988,-82.671707,-8.498731,1.166918,-1.606889,0.181352
5264083125,167.573349,-62.324150,35.420330,1.264713,-1.211082,0.548510
5264103124,133.905609,-34.326172,68.709496,1.316168,-0.475495,0.444777
5264123123,82.599243,-10.672144,75.645638,1.268571,-0.192279,0.243739
5264143123,31.734779,-5.309782,68.345528,1.077447,-0.331869,0.122368
5264163123,15.234514,-9.346233,57.845730,0.932290,-0.445833,-0.039526
5264183123,24.700916,-1.722792,48.557533,0.839774,-0.386295,-0.145268
5264203123,47.173569,3.513628,32.343346,0.781621,-0.297026,-0.136188
5264223124,64.812325,4.397502,15.137465,0.715619,-0.275942,-0.043861
5264243123,69.883598,3.522325,5.527905,0.700706,-0.346250,-0.004985
5264263123,78.957176,0.573906,-4.774477,0.749071,-0.367051,0.016984
5264283123,93.477753,-0.027317,-20.219135,0.927141,-0.292216,0.116962
5264303123,97.492882,4.258293,-38.875275,1.109375,-0.193575,0.292143
5264323125,75.153107,3.070109,-53.616943,1.151814,-0.165990,0.427694
5264343125,33.663944,-0.099275,-56.794762,1.059829,-0.235577,0.421817
5264363125,-1.218187,1.212295,-53.297665,0.998907,-0.291993,0.283330
5264383125,-9.015612,3.897718,-51.161606,0.941225,-0.256795,0.129147
5264403125,4.954799,3.467219,-54.916744,0.818325,-0.171098,0.065843
5264423125,8.409470,-2.456599,-62.436615,0.572271,-0.090716,0.109289
5264443125,-1.267541,-6.980775,-60.654449,0.307736,0.049210,0.074557
5264463124,-3.301786,-8.330271,-58.594822,0.296303,0.226856,0.026925
5264483124,-17.159666,0.032313,-55.947659,0.912486,-0.109224,0.272902
5264503124,-38.432178,26.768221,-11.188797,1.616991,-1.047398,0.349778
5264523124,-17.059616,-23.535845,41.832985,1.357465,-0.901573,-0.110156
5264543124,39.450382,-1.778195,13.054706,0.895997,-0.377433,0.087217
5264563124,-6.577399,11.798829,-23.326597,0.851759,-0.193662,0.234729
5264583124,-25.317919,20.949629,-29.506332,0.997819,-0.293043,0.106649
5264603124,-5.763886,15.595066,-18.172375,0.866463,-0.347474,0.066118
5264623124,7.362336,-0.071050,-12.872179,0.821201,-0.278860,0.061142
5264643124,14.721281,6.150047,-13.526743,0.850779,-0.255414,0.155215
5264663126,6.072889,17.767138,-11.298095,0.951021,-0.375678,0.234238
5264683126,-5.729218,13.027713,-1.404359,0.993828,-0.447080,0.174104
5264703126,-7.878993,1.524331,1.134991,1.012935,-0.392276,0.106227
5264723126,-1.155402,4.886610,-7.916176,1.008983,-0.420936,0.130436
5264743126,5.069632,10.328059,-11.282588,1.068681,-0.578743,0.143130
5264763126,10.920615,4.461542,-1.889943,1.117818,-0.679785,0.104860
5264783126,21.349621,-4.348682,6.894787,1.029594,-0.571506,0.063723
5264803125,30.784039,-4.166325,2.656032,0.926029,-0.454928,0.097011
5264823125,30.440264,1.172552,-2.131383,0.966776,-0.458858,0.124117
5264843125,35.678307,5.193946,1.656526,1.050922,-0.493299,0.097216
5264863125,45.532169,5.793298,8.546991,1.031101,-0.412291,0.093948
5264883125,42.342342,4.157442,5.757223,0.955512,-0.285521,0.124989
5264903125,30.954840,3.397538,-0.517562,0.924642,-0.292947,0.131998
5264923125,19.528187,4.548289,3.883837,0.977684,-0.444554,0.104395
5264943125,26.197645,3.735592,16.692333,1.120082,-0.585474,0.034838
5264963125,40.684650,3.579650,21.391647,1.102943,-0.547098,0.067553
5264983125,44.585190,5.149971,12.255109,0.931654,-0.497227,0.141502
5265003127,48.254570,7.170273,9.508628,0.965945,-0.582376,0.099189
5265023126,73.273087,6.548241,28.448700,0.866909,-0.547208,0.065908
5265043126,91.510216,-1.414301,38.941772,0.702112,-0.306231,0.138263
5265063127,86.516724,-1.531841,30.393059,0.793221,-0.170906,0.169118
5265083127,87.232712,-0.064205,29.972775,0.876065,-0.247957,0.129359
5265103127,83.255638,-8.063269,37.246571,0.859027,-0.203873,0.129057
5265123147,79.808197,-9.207912,33.361446,0.920518,-0.137316,0.221147
5265143126,83.076027,-1.646436,15.271420,1.172651,-0.070557,0.463563
5265163126,75.421959,5.297684,5.327374,1.395425,-0.144852,0.537823
5265183125,65.783928,17.110584,9.695068,1.206460,-0.277032,0.403863
5265203125,60.313011,31.597816,24.260309,1.088076,-0.400170,0.320279
5265223126,51.493961,40.280933,47.879967,0.941152,-0.340997,0.235522
5265243126,52.789047,35.202438,76.250191,0.807105,-0.386968,0.096047
5265263126,55.195908,17.287285,97.963326,0.799527,-0.255834,0.145219
5265283126,51.472527,10.257665,115.376678,0.821608,-0.082635,0.198514
5265303126,51.790958,5.859018,136.916489,0.891011,0.031771,0.228286
5265323126,42.176323,6.867028,150.991806,0.856806,0.084651,0.385299
5265343127,7.648525,11.273272,147.968231,0.970126,-0.036486,0.511626
5265363127,1.268389,21.552204,137.737274,1.065303,-0.165054,0.472965
5265383127,13.050019,7.985759,134.697601,1.153366,-0.302697,0.424793
5265403127,18.566975,16.118317,124.292854,1.002771,0.029900,0.637908
5265423127,15.982136,28.610243,102.073174,0.964335,0.124727,0.607148
5265443127,-12.885162,20.545801,78.850830,0.823534,0.349298,0.629463
5265463132,-81.794296,7.365829,51.312988,0.757000,0.128073,0.413090
5265483126,-120.347435,-9.623638,37.735321,0.688271,-0.430144,0.123608
5265503126,-110.422104,-23.044027,58.231026,0.470565,-0.594056,0.276997
5265523126,-115.393646,-26.860962,81.950569,0.404466,-0.493334,0.388531
5265543126,-134.080170,-32.928829,80.847534,0.452951,-0.566254,0.192655
5265563126,-119.374352,-21.712551,66.883530,0.528364,-0.988369,0.181201
5265583126,-75.009979,-13.373636,66.863464,0.709449,-1.334817,0.290509
5265603126,-12.441695,2.818608,77.675278,0.640835,-1.399444,0.252865
5265623126,38.774654,10.639114,86.661865,0.491807,-1.080241,0.313687
5265643126,60.354660,16.487570,94.744057,0.536786,-0.829802,0.290772
5265663127,52.656052,15.305828,101.540390,0.631615,-0.963854,0.293969
5265683128,47.744892,23.184013,107.067032,0.645255,-1.003798,0.343429
5265703128,41.484501,30.046017,93.454102,0.481248,-0.856303,0.319536
5265723128,28.090054,21.522804,66.226723,0.321727,-0.707188,0.180455
5265763128,23.064983,-29.040081,20.563692,0.211071,-0.477450,-0.064909
5265783128,23.193363,-49.162407,-8.641114,0.236012,-0.294524,-0.026421
5265803126,12.613728,-62.062599,-40.740292,0.266119,-0.230261,0.151041
5265823126,-22.540085,-69.593925,-71.117706,0.388302,-0.134900,0.293925
5265843127,-84.644402,-76.739143,-92.224159,0.503940,-0.149478,0.316840
5265863126,-137.654343,-90.489105,-78.924820,0.822737,-0.715900,0.472692
5265883127,-147.778519,-99.440399,-0.329257,1.130571,-1.858623,0.329797
5265903127,-101.036293,-66.665260,88.517258,0.625733,-2.063985,0.382053
5265923127,-9.500450,-27.503826,78.255257,0.681505,-1.284396,0.246855
5265943127,41.523842,9.498477,12.530556,0.849930,-0.661548,0.220099
5265963127,48.277672,14.768262,0.514463,0.698962,-0.407052,0.234828
5265983127,0.980297,-4.896661,6.283578,0.613099,-0.087997,0.200967
5266003127,-31.184589,-20.235683,15.163280,0.557680,-0.310628,0.176008
5266023129,-27.962364,-9.440178,28.170479,0.611258,-0.736946,0.187932
5266043129,-31.987934,-3.652624,24.172981,0.534895,-0.746806,0.141707
5266063128,-27.024721,-6.524261,0.134230,0.484520,-0.750734,0.103861
5266083129,-2.105335,-13.152990,-16.386913,0.543704,-0.796845,0.120216
5266103129,11.563528,-11.099974,-20.797882,0.623453,-0.825797,0.203559
5266123129,7.562965,-2.080253,-20.075758,0.679407,-0.868146,0.223837
5266143127,5.402462,9.364330,-23.104307,0.681788,-0.898428,0.213928
5266163127,15.912206,19.759319,-30.981157,0.772633,-0.943898,0.163182
5266183127,35.178974,26.831528,-38.123009,0.755580,-0.894696,0.247360
5266203127,36.490543,24.349077,-46.393425,0.670764,-0.682660,0.258025
5266223127,18.430561,16.422930,-43.394848,0.671157,-0.536069,0.223942
5266243128,8.773157,7.428207,-37.215290,0.758349,-0.580033,0.190377
5266263128,3.296274,4.170681,-37.601074,0.817293,-0.629803,0.204779
5266283128,-2.814929,0.918731,-40.430962,0.744103,-0.589360,0.184539
5266303128,0.172017,0.312115,-41.171394,0.679724,-0.570001,0.158783
5266323128,12.325110,3.728559,-38.666218,0.772320,-0.601104,0.199781
5266343129,22.737543,8.001060,-31.886150,0.895626,-0.611528,0.276527
5266363129,15.184262,8.695892,-26.451670,0.856480,-0.540195,0.299119
5266383129,8.388676,8.678083,-24.566311,0.814893,-0.556921,0.256632
5266403129,7.955135,9.092405,-25.903690,0.826711,-0.680874,0.207301
5266423130,15.812965,11.283412,-28.761272,0.823427,-0.767932,0.217271
5266443129,24.852665,10.217310,-32.802582,0.794710,-0.759240,0.223142
5266483128,35.660145,1.986680,-35.155231,0.780937,-0.647378,0.212346
5266503128,41.192692,0.791516,-34.673527,0.821863,-0.610848,0.227521
5266523128,47.035477,1.792448,-29.104046,0.890522,-0.621796,0.262951
5266543128,53.531052,3.569262,-21.914804,0.915975,-0.634958,0.301994
5266563128,59.232353,8.764811,-17.868359,0.908708,-0.615506,0.303812
5266583128,68.889786,17.167717,-18.543310,0.880886,-0.560006,0.303956
5266603128,77.092613,24.591753,-20.704254,0.841286,-0.477654,0.308221
5266623128,74.226654,25.634422,-26.091417,0.792789,-0.367633,0.345995
5266643128,59.353401,22.015825,-35.939404,0.785594,-0.322947,0.345236
5266663128,50.479179,14.012718,-43.849491,0.682834,-0.307515,0.318515
5266683130,38.627560,3.308142,-62.152416,0.611460,-0.209217,0.284634
5266703130,22.867701,-5.332504,-89.824432,0.634467,-0.128793,0.272228
5266723130,10.207217,-11.954586,-116.075890,0.650237,-0.069827,0.280602
5266743130,-4.673799,-17.669334,-137.161346,0.715765,-0.023486,0.293594
5266763130,-18.053707,-19.441145,-152.290863,0.790739,0.014421,0.322043
5266783130,-31.139263,-15.728741,-163.593719,0.891618,-0.005966,0.355481
5266803130,-41.697769,-12.237241,-168.455307,0.956058,-0.064492,0.458553
5266823128,-50.229305,-13.298471,-165.728943,0.999597,-0.077477,0.524046
5266843128,-68.612282,-10.252706,-163.014191,1.112148,-0.039189,0.507715
5266863129,-99.159447,-4.013432,-154.870453,1.319312,-0.078095,0.459044
5266883129,-121.051758,5.322355,-120.228210,1.437222,-0.469471,0.479653
5266903129,-120.828918,8.375996,-54.258041,1.264273,-0.949749,0.450902
5266923129,-63.640453,29.167498,0.793235,0.974244,-0.832021,0.199341
5266943129,-3.201286,58.144600,13.107087,0.696880,-0.424105,0.189917
5266983129,18.752197,10.371781,-0.257857,0.665447,-0.111604,0.102704
5267003129,37.005028,-4.505468,-0.896939,0.817147,-0.159432,0.129686
5267023130,53.997124,-3.543808,-0.272179,0.927688,-0.182460,0.246998
5267043130,60.942623,-4.207883,-1.136821,0.928302,-0.105077,0.332015
5267063130,52.021076,-15.986241,-7.638899,0.918618,0.029147,0.390696
5267083130,29.820604,-27.257317,-16.362423,0.955413,0.084142,0.457722
5267103130,5.588279,-26.192001,-23.225151,1.014841,0.037764,0.500172
5267123130,-8.234232,-12.782104,-27.151659,1.041931,-0.031066,0.501228
5267143130,-13.657654,2.010458,-27.125546,1.023202,-0.073358,0.472044
5267163129,-17.068697,11.311090,-24.682341,0.991528,-0.066034,0.422356
5267183129,-18.591766,14.909042,-22.563879,0.968571,-0.031216,0.375708
5267203129,-17.167393,15.934497,-20.918379,0.960025,-0.012446,0.353350
5267223130,-14.449817,16.150091,-18.841951,0.955710,-0.015489,0.350343
5267243129,-12.468843,15.356951,-16.058449,0.943121,-0.027263,0.347478
5267263129,-11.310933,13.042818,-12.914722,0.926599,-0.029616,0.336402
5267283129,-11.730616,9.441924,-10.320307,0.916925,-0.027634,0.333538
5267303129,-11.173521,6.061308,-8.947246,0.916614,-0.039951,0.329984
5267323130,-10.407712,3.362592,-8.376159,0.914906,-0.056438,0.331497
5267343130,-6.770524,1.284862,-6.992678,0.934587,-0.091024,0.332318
5267363131,-0.802848,-0.069234,-4.369230,0.926079,-0.109313,0.337621
5267383131,4.287278,-1.511737,-1.612184,0.922882,-0.103651,0.353739
5267403131,9.245722,-1.653872,0.318839,0.930082,-0.080930,0.364043
5267423131,12.412414,-1.542804,1.512165,0.932853,-0.047752,0.374234
5267443131,12.200715,-1.203827,2.127142,0.936264,-0.019898,0.381867
5267463132,9.599590,-1.218871,2.237883,0.922515,-0.003865,0.389236
5267483132,6.534719,-0.743687,0.919845,0.911626,-0.000758,0.393275
5267503130,4.205444,0.416965,-0.123485,0.907194,-0.007145,0.385119
5267523130,3.363913,1.525160,-0.079068,0.908186,-0.007604,0.373551
5267543130,3.031236,2.085955,0.611449,0.913863,-0.004964,0.375848
5267563130,2.206917,1.878999,1.512874,0.923536,-0.014055,0.383838
5267583130,1.825412,1.784021,2.168590,0.923377,-0.022149,0.383323
5267603130,1.787874,1.862584,2.639565,0.923998,-0.021077,0.376562
5267623130,2.214637,1.770163,2.698829,0.925135,-0.014472,0.376108
5267643131,3.072908,0.989467,2.584457,0.926295,-0.011606,0.374798
5267663130,3.846672,0.035528,2.874022,0.926276,-0.008251,0.374199
5267683130,3.675103,-0.808844,3.197805,0.922793,-0.008032,0.377992
5267703132,2.973107,-0.845549,3.079589,0.924413,-0.010882,0.384528
5267723132,2.686824,-0.081937,3.145829,0.919225,-0.005180,0.387764
5267743132,2.230214,0.155369,3.070846,0.910106,0.000358,0.392786
5267763132,0.580561,-0.252981,2.806656,0.910986,-0.002059,0.390369
5267783132,-0.647705,-0.265856,2.576746,0.920061,-0.007796,0.390457
5267803132,-0.546768,0.115170,2.589756,0.928286,-0.004646,0.394049
5267823132,-2.550194,0.714867,2.444202,0.919607,-0.016314,0.391678
5267843130,-4.799003,1.062500,2.057733,0.923060,-0.016851,0.390992
5267863131,-3.089784,1.231106,1.638797,0.928357,-0.022118,0.386565
5267883131,-2.433814,1.207158,1.803095,0.921496,-0.030612,0.392647
5267903131,-2.288030,1.345951,2.219763,0.925769,-0.027003,0.390719
5267923131,-2.615864,1.348304,2.525223,0.921981,-0.012118,0.389813
5267943131,-4.204746,0.871765,2.390254,0.918302,-0.012529,0.393796
5267963131,-6.769862,0.501388,1.544925,0.911206,-0.028374,0.387674
5267983131,-7.416989,0.865080,0.664710,0.910794,-0.038481,0.379616
5268003131,-5.812068,1.538608,0.540335,0.911572,-0.046741,0.375281
5268023131,-4.111155,1.445356,1.186532,0.910456,-0.051973,0.376445
5268043133,-3.342145,1.094503,1.625371,0.914292,-0.055780,0.376542
5268063132,-3.716206,1.049030,1.460100,0.917993,-0.056937,0.377418
5268083133,-3.137409,0.878433,1.199852,0.915996,-0.056053,0.379026
5268103133,-1.392008,0.576300,1.231246,0.913920,-0.054248,0.381440
5268123133,0.406787,0.230155,1.665359,0.918832,-0.048013,0.386046
5268143133,0.618573,-0.217672,2.228773,0.923206,-0.041121,0.391366
5268163133,-0.359465,-0.661167,3.002784,0.921623,-0.036851,0.395207
5268183131,-1.755432,-0.701822,3.252523,0.925738,-0.039921,0.396390
5268203132,-2.897173,-0.136063,2.890406,0.933894,-0.040603,0.398945
5268223132,-4.256268,1.305242,2.114949,0.943247,-0.031585,0.401364
5268243132,-5.571666,2.289397,1.440155,0.940927,-0.023205,0.405408
5268263132,-7.593616,3.775905,1.777023,0.935267,-0.026066,0.400378
5268283131,-10.485081,5.199564,2.824887,0.928159,-0.035909,0.388143
5268303131,-11.331126,6.708323,5.360090,0.929085,-0.044658,0.375243
5268323132,-10.043343,6.122872,8.115420,0.931414,-0.042169,0.374772
5268343132,-10.564271,5.358837,10.727836,0.925591,-0.055021,0.376462
5268363132,-11.447939,5.327775,13.330987,0.935262,-0.077067,0.374800
5268383133,-9.625039,4.985159,16.158762,0.945974,-0.113023,0.355575
5268403133,-5.215311,4.775812,19.688459,0.957097,-0.150115,0.327432
5268423133,1.793281,4.115475,22.911953,0.953644,-0.165840,0.309761
5268443133,9.992394,0.258325,26.433277,0.934341,-0.164732,0.314110
5268463133,17.273504,-2.557932,30.235249,0.919730,-0.142905,0.318553
5268483133,19.314756,-1.944895,33.734039,0.891993,-0.135026,0.313501
5268503133,17.426865,0.274746,36.020004,0.882975,-0.148370,0.326842
5268523132,15.761872,2.998596,37.018372,0.923711,-0.167267,0.305468
5268543132,22.224995,4.940898,38.826679,0.913850,-0.192257,0.234330
5268563132,35.285763,4.724577,44.429508,0.879423,-0.247222,0.236469
5268583132,48.864983,-2.784422,56.165291,0.913578,-0.378707,0.278330
5268603132,71.798119,-7.101038,72.981018,0.973566,-0.451141,0.298655
5268623132,79.124268,-5.217227,77.468216,1.025503,-0.385573,0.434449
5268643132,70.750511,-8.429637,80.089615,1.056775,-0.400796,0.376254
5268663132,78.741508,-7.796253,83.363541,1.032467,-0.452624,0.256855
5268683132,98.265793,-5.350439,84.927536,1.000420,-0.456976,0.178427
5268703132,127.939453,-10.857547,92.560669,0.968197,-0.393375,0.191902
5268723133,131.480408,-16.085728,98.480484,1.002635,-0.261534,0.257450
5268763134,107.038719,-36.992985,90.418823,1.022483,-0.380299,0.264948
5268783134,125.476349,-31.410980,101.586716,1.074776,-0.265774,0.411029
5268803134,144.939697,-44.950474,99.142593,0.752168,0.108645,0.248967
5268823134,133.643921,-56.125839,83.217850,0.770602,0.266509,0.425877
5268843134,71.891792,-52.100174,52.628380,0.799845,0.218069,0.679768
5268863133,46.749348,-45.565002,36.048256,0.760313,-0.037283,0.564347
5268883133,54.011684,-23.885185,34.328545,0.686408,-0.098200,0.549488
5268903133,35.579941,-12.894940,33.602989,0.659781,-0.126433,0.519096
5268923133,15.561658,-16.889652,34.776443,0.673401,-0.259020,0.415459
5268943133,17.834461,-18.976629,38.248421,0.721687,-0.422882,0.324783
5268963133,27.908056,-26.603395,42.279823,0.729996,-0.537913,0.258496
