Timestamp (us),Gyroscope X (deg/s),Gyroscope Y (deg/s),Gyroscope Z (deg/s),Accelerometer X (g),Accelerometer Y (g),Accelerometer Z (g)
5796429417,-8.466672,6.178159,-6.342278,0.908533,0.229812,0.435736
5796449378,-16.907579,8.241306,-7.299164,0.896777,0.201920,0.409751
5796469339,-15.644396,7.467743,-8.007238,0.907236,0.167478,0.380457
5796489300,-10.059392,7.454125,-9.681200,0.929289,0.158230,0.385292
5796509261,-7.134315,6.536720,-11.203226,0.929288,0.193424,0.405023
5796529222,-11.275699,4.505705,-14.234461,0.901546,0.260002,0.412894
5796549183,-19.198942,3.466289,-18.015848,0.871956,0.257337,0.383710
5796569146,-21.096476,4.621533,-21.363186,0.851705,0.237324,0.374561
5796589107,-17.549610,6.819986,-22.971294,0.872369,0.269720,0.404095
5796609068,-21.521629,12.327506,-24.715448,0.899070,0.278683,0.451608
5796629029,-11.730798,11.616483,-29.918724,0.941433,0.252874,0.463462
5796668952,-14.176369,10.201875,-48.883041,0.882664,0.262769,0.383545
5796688913,-8.618730,14.015786,-49.485119,0.875661,0.359258,0.387755
5796708874,-0.593612,9.303994,-46.476505,0.871915,0.435398,0.420041
5796728835,-14.385219,-0.109088,-52.329094,0.851815,0.442378,0.373298
5796748796,-36.244740,0.595212,-62.002987,0.849590,0.472632,0.327049
5796768757,-40.713512,0.889028,-62.913742,0.828881,0.474600,0.384916
5796788718,-46.902313,-1.829329,-63.089512,0.830977,0.450142,0.398468
5796808678,-52.888481,-4.732462,-67.825569,0.839365,0.438349,0.374957
5796828639,-54.683270,-7.180349,-70.218506,0.840938,0.451725,0.364568
5796848600,-58.540348,-7.335929,-70.511826,0.825091,0.458170,0.390033
5796868561,-64.151062,-5.754884,-68.475998,0.803202,0.463079,0.405669
5796888522,-73.219749,-6.793910,-66.349022,0.782429,0.442730,0.416731
5796908483,-81.308289,-10.741533,-68.176140,0.777188,0.417477,0.389275
5796928444,-79.119705,-17.083481,-68.204964,0.790443,0.432987,0.340364
5796948405,-79.048752,-23.105267,-67.444374,0.796880,0.443027,0.347693
5796968366,-91.193352,-28.697199,-68.971268,0.783508,0.405660,0.418724
5796988328,-87.222527,-36.302704,-70.510193,0.768367,0.393340,0.385957
5797008289,-79.758766,-36.266174,-66.979279,0.814326,0.402716,0.425712
5797028250,-89.322853,-36.321297,-60.453548,0.865625,0.383701,0.429787
5797048211,-90.040184,-31.769733,-55.931843,0.890639,0.326518,0.415975
5797068172,-89.724167,-27.250443,-54.457623,0.840939,0.309376,0.426909
5797088133,-83.646179,-28.480532,-55.194637,0.782171,0.298984,0.439297
5797108094,-73.564056,-31.256426,-54.360283,0.764141,0.326367,0.421762
5797128055,-66.581757,-29.834208,-50.802673,0.809221,0.368201,0.461333
5797148017,-69.653084,-29.803596,-48.035141,0.835626,0.378883,0.489417
5797167979,-74.129883,-30.213867,-51.153389,0.833907,0.400382,0.522544
5797187940,-71.957611,-26.959965,-55.742668,0.815261,0.367576,0.541043
5797207901,-62.282124,-24.973930,-54.931950,0.771219,0.303313,0.497669
5797227862,-50.175579,-27.665068,-54.113804,0.699394,0.373552,0.426176
5797247823,-49.838036,-28.426708,-50.385151,0.757436,0.417906,0.498089
5797267784,-52.816154,-22.998981,-44.885605,0.803100,0.372350,0.492114
5797287745,-48.001442,-25.732592,-50.269264,0.718847,0.443214,0.423479
5797307707,-55.429405,-31.599895,-60.181633,0.686624,0.514450,0.473263
5797327668,-63.040077,-32.989361,-56.053303,0.766056,0.426653,0.455760
5797347629,-67.551193,-37.571194,-38.658840,0.771733,0.300114,0.372339
5797367590,-63.738083,-36.889717,-26.572504,0.730932,0.286844,0.474252
5797387551,-53.695194,-35.038723,-28.029606,0.718683,0.280760,0.528218
5797407512,-42.020367,-34.380531,-26.329929,0.745332,0.306457,0.495412
5797427472,-34.792480,-35.566475,-22.221169,0.770443,0.398562,0.520954
5797447433,-42.226517,-32.536697,-21.187744,0.776937,0.335084,0.511095
5797467394,-43.394581,-31.506956,-17.747551,0.747391,0.267149,0.431986
5797487355,-33.181625,-33.447586,-9.810325,0.775369,0.273977,0.483656
5797507316,-26.913303,-32.553577,-5.335962,0.766996,0.204283,0.504495
5797527278,-17.556082,-27.131950,1.593221,0.728777,0.174699,0.480785
5797547239,-0.037900,-26.979061,14.621188,0.786025,0.333023,0.494722
5797567200,2.166387,-20.329746,19.399862,0.811038,0.390334,0.577655
5797587161,-0.903765,-14.575474,16.998043,0.845012,0.450404,0.594413
5797607122,-7.031892,-7.233063,24.176760,0.863837,0.542826,0.543889
5797627083,-18.234470,5.906132,28.005880,0.811555,0.593142,0.485192
5797647044,-50.878139,6.946400,20.769993,0.810045,0.738349,0.449367
5797667005,-98.475662,6.500742,-4.044629,0.839206,0.836124,0.442745
5797686966,-151.945160,9.235527,-44.881889,0.814747,0.800478,0.436961
5797706927,-194.018250,3.037789,-84.909195,0.783454,0.689675,0.384021
5797726888,-203.241898,-0.846316,-94.731804,0.904251,0.419610,0.345311
5797746850,-180.142365,-4.253185,-80.731392,0.957902,0.053324,0.380251
5797766811,-136.182190,-10.367280,-75.089844,0.869086,-0.152972,0.457673
5797786773,-92.702988,-19.186308,-61.484543,0.814048,-0.209278,0.515593
5797806734,-54.770412,-28.454201,-41.681179,0.782256,-0.264958,0.495979
5797826696,-18.092072,-32.174786,-22.216587,0.744613,-0.281239,0.499744
5797846657,13.245755,-31.445530,4.334983,0.757481,-0.224232,0.540844
5797866618,41.491875,-26.156956,35.491470,0.820110,-0.170275,0.588825
5797886579,69.733658,-17.585323,65.519798,0.909829,-0.151409,0.630957
5797906540,97.806084,-10.825486,79.324127,0.893511,-0.139939,0.632929
5797926501,123.541428,-7.571546,81.893631,0.804589,0.011210,0.599682
5797946462,137.401047,-9.708379,77.533173,0.764774,0.171712,0.488506
5797966423,145.557266,-11.318009,72.902641,0.896609,0.372465,0.460408
5797986384,123.047623,-6.186214,62.908817,0.896773,0.535232,0.426875
5798026305,59.621880,-12.787311,52.956692,0.858461,0.756543,0.385029
5798046266,10.547492,-22.898577,29.692282,0.866338,0.704123,0.293058
5798066227,-54.407734,-34.269871,-21.255768,0.879745,0.942695,0.386742
5798086188,-105.472466,-10.610162,-60.181053,1.130625,1.252126,0.658185
5798106149,-147.116470,24.754299,-68.773003,0.969001,0.699082,0.686681
5798126111,-128.849258,-11.697617,-85.817810,0.744472,0.118197,0.289129
5798146072,-116.482727,-35.821449,-104.410843,0.793385,-0.107313,-0.061057
5798166033,-95.520515,-28.688612,-82.851433,0.988591,0.035185,0.168299
5798185994,-51.846535,-31.287554,-58.014870,0.951145,0.249944,0.736600
5798205955,-59.132912,-56.883797,-79.873375,0.753636,0.246416,0.373615
5798225916,-59.849556,-44.010357,-93.130920,0.863339,0.532646,0.387967
5798245877,-73.804596,-29.585876,-78.573799,0.838909,0.559915,0.513739
5798265838,-107.611404,-27.536726,-70.104942,0.778973,0.433390,0.378484
5798285799,-120.118546,-29.541985,-77.375999,0.771909,0.314184,0.315107
5798305761,-99.537933,-37.656559,-82.540138,0.734993,0.311436,0.250094
5798325722,-72.713226,-50.725899,-79.790848,0.743216,0.376785,0.274034
5798345683,-68.609802,-55.809811,-71.436516,0.700701,0.468213,0.329763
5798365644,-81.392471,-62.411800,-65.754066,0.721018,0.546020,0.399889
5798385605,-104.698975,-60.718693,-62.577759,0.853386,0.424896,0.465859
5798405567,-111.100266,-47.500046,-57.002506,0.856836,0.170092,0.455253
5798425529,-88.505386,-36.498936,-52.982605,0.807786,0.059473,0.445966
5798445490,-57.165001,-33.670563,-45.164833,0.792257,0.076666,0.398412
5798465450,-35.204163,-36.474770,-39.562973,0.807630,0.180310,0.391806
5798485412,-24.697111,-38.127327,-39.138725,0.819355,0.243399,0.450178
5798505373,-14.212239,-35.368034,-38.258186,0.826019,0.294317,0.455840
5798525334,-7.157155,-36.131996,-32.587208,0.882318,0.348044,0.315484
5798545295,-25.836864,-32.302063,-25.938028,0.827939,0.420770,0.302186
5798565256,-33.700623,-28.141739,-23.101440,0.753988,0.380384,0.241755
5798585217,-26.417610,-38.965481,-16.314207,0.779702,0.398299,0.173363
5798605178,-21.316664,-38.655483,-16.669697,0.764661,0.477243,0.283800
5798625139,-11.908818,-31.031008,-22.228220,0.764834,0.438773,0.432045
5798645099,-0.766326,-23.544926,-14.499331,0.820605,0.390581,0.451978
5798665060,1.936741,-14.908071,-3.855364,1.008804,0.454073,0.451385
5798685021,-15.126100,5.026011,-3.698681,0.986727,0.508397,0.445810
5798704983,-36.556427,11.880029,4.803880,0.859541,0.402134,0.368089
5798724944,-54.595924,9.567581,32.464252,1.037650,0.355383,0.343073
5798744905,-68.726540,23.403711,41.610420,1.227935,0.471880,0.437993
5798764866,-91.612045,40.643318,16.357723,1.161904,0.650421,0.603597
5798784827,-122.063759,42.465359,-22.041801,0.910721,0.746071,0.620006
5798804788,-148.993088,26.876963,-37.430519,0.758922,0.679471,0.489552
5798824749,-158.341095,4.182142,-26.726421,0.807643,0.529080,0.291024
5798844710,-146.233047,-9.603291,-32.798050,0.837662,0.363608,0.086027
5798864671,-124.384827,-14.947309,-49.839577,0.846264,0.339195,0.069920
5798884632,-130.085526,-12.498001,-62.354244,0.819441,0.420607,0.216526
5798904593,-169.398880,-9.058374,-63.195118,0.829917,0.476690,0.373154
5798924554,-212.959396,-14.320372,-56.485561,0.813177,0.385068,0.430169
5798944515,-221.826553,-25.895807,-44.529060,0.807766,0.139164,0.344310
5798964477,-182.699310,-35.920944,-28.758177,0.845901,-0.126854,0.262676
5798984438,-126.082726,-51.660984,-17.231745,0.900455,-0.288831,0.221072
5799004400,-67.918152,-70.752075,-9.436769,1.029127,-0.286479,0.255448
5799024361,-21.071653,-76.812187,-2.624577,1.017294,-0.141786,0.357673
5799044322,-4.952276,-72.476082,-2.843418,0.981679,0.071606,0.466350
5799064284,-9.239762,-70.209839,-13.395077,0.876579,0.195095,0.519404
5799084244,-35.616264,-72.693832,-34.880665,0.794363,0.223969,0.496297
5799104206,-66.352226,-75.555191,-61.829300,0.817401,0.227016,0.416262
5799124167,-51.018433,-78.987602,-80.268890,0.987592,0.205190,0.355724
5799144128,-21.083271,-73.037186,-95.259018,1.000671,0.160097,0.370817
5799164089,-9.897247,-45.990463,-139.759186,0.777575,0.506227,0.541085
5799184050,-4.569983,-83.523010,-200.195847,0.589916,1.036170,0.513118
5799204011,-41.767151,-42.914879,-154.683624,1.480612,0.517119,0.285168
5799223972,-107.586205,-13.449129,-109.833717,1.468105,0.337615,0.290520
5799243932,-206.116272,-10.521223,-118.808037,0.906786,0.352355,0.516016
5799263893,-226.470978,-28.766119,-109.930496,0.805797,-0.073023,0.185660
5799283854,-128.437820,-26.882315,-102.831985,0.848902,-0.237483,0.015672
5799303815,-15.785424,-25.804787,-95.281746,0.832006,0.027841,0.226650
5799323777,17.115511,-31.353813,-83.401131,0.832760,0.287654,0.315564
5799343738,-16.038292,-33.873962,-77.040749,0.815049,0.558419,0.338305
5799363699,-62.958794,-35.207249,-65.855232,0.781416,0.609489,0.363169
5799383660,-86.441902,-35.436180,-50.677780,0.840031,0.414419,0.348953
5799403621,-81.285217,-32.453350,-34.158230,0.869647,0.294482,0.286352
5799423582,-67.467148,-28.975237,-26.050217,0.806800,0.293969,0.368529
5799443543,-53.333637,-25.823044,-20.665279,0.805286,0.244845,0.420938
5799463504,-38.728928,-26.529715,-8.579153,0.888014,0.244736,0.347604
5799483465,-28.006359,-23.544287,-4.556150,0.862006,0.320812,0.366006
5799503426,-27.258398,-22.845919,-7.772634,0.790713,0.357471,0.385680
5799523388,-16.851017,-22.238457,-6.836008,0.774434,0.384932,0.356065
5799543348,-7.217528,-20.992924,-7.489082,0.791043,0.433885,0.364947
5799563310,-5.201470,-17.714724,-7.828841,0.870535,0.500401,0.369868
5799583271,-10.754843,-8.610106,-8.323754,0.895252,0.580965,0.401602
5799603233,-19.034317,-3.228137,-15.030251,0.887951,0.549508,0.439592
5799623195,-29.944622,3.785852,-12.344599,0.868516,0.455795,0.438676
5799643156,-36.443638,9.819843,1.589422,0.844673,0.430849,0.456495
5799663117,-38.101685,18.120697,12.181534,0.827152,0.406422,0.439546
5799683078,-39.928501,28.169937,14.611857,0.834012,0.448986,0.439703
5799703039,-53.510704,34.051033,13.192090,0.828602,0.529540,0.443201
5799723000,-74.124023,37.030071,5.917168,0.807802,0.626601,0.395881
5799742961,-103.979225,29.534546,-9.720995,0.758919,0.691726,0.289197
5799762922,-137.686951,20.900269,-19.177225,0.798237,0.633814,0.241875
5799782883,-166.994263,3.575673,-16.872698,0.796077,0.464096,0.227496
5799802844,-190.216263,-21.758669,-24.637596,0.825001,0.387851,0.274351
5799822805,-210.725113,-31.882301,-46.502213,0.867816,0.403467,0.353194
5799842765,-223.744476,-35.830986,-56.648434,0.774718,0.292735,0.342191
5799862726,-210.762589,-46.419739,-41.228737,0.717491,0.047946,0.333313
5799882687,-173.088898,-54.410160,-21.913853,0.732531,-0.138735,0.408312
5799902649,-122.512054,-63.119156,-2.851245,0.775986,-0.285951,0.423449
5799922610,-63.885124,-78.846863,6.670619,0.773079,-0.329528,0.387776
5799942571,-7.311182,-99.350632,16.617844,0.836944,-0.266583,0.317617
5799962532,35.064556,-114.677498,29.455101,0.956968,-0.146060,0.308556
5799982493,54.119553,-114.466782,35.900448,1.048622,-0.005663,0.351738
5800002454,32.034935,-98.626556,30.688534,1.017085,0.171790,0.479746
5800022415,-14.355274,-81.890625,20.097548,0.984441,0.315675,0.524325
5800042376,-37.787209,-71.090263,13.841369,1.039044,0.334269,0.504168
5800062337,-46.441071,-62.261887,-7.822654,1.042061,0.403170,0.574670
5800082298,-57.421131,-59.515968,-58.780403,1.066174,0.990649,0.783673
5800102260,-140.245453,-30.715527,-106.606865,1.199451,1.146494,0.818714
5800122221,-237.314789,12.699326,-87.745781,1.155052,0.240278,0.605181
5800142182,-218.349609,36.558075,-90.587555,1.220072,-0.356305,0.277850
5800162143,-131.375244,47.433926,-103.233566,0.990085,-0.545967,-0.087326
5800182104,-15.285000,14.420207,-100.743866,0.740985,-0.539335,-0.332680
5800202066,72.345078,-36.011696,-88.235855,0.773236,-0.072667,-0.018466
5800222028,78.933044,-27.336704,-75.158081,1.000339,0.430515,0.568903
5800241989,-31.111931,-2.263179,-72.181923,1.014447,0.562667,0.577652
5800261950,-110.181412,12.961424,-69.437805,1.007280,0.446116,0.390931
5800281911,-118.696060,10.095304,-63.617805,0.948914,0.234128,0.212120
5800301872,-83.838852,10.669369,-63.139187,0.825724,0.081164,0.250886
5800321836,-44.787941,4.893314,-63.563118,0.808240,0.134698,0.362514
5800341795,-26.748747,0.054417,-62.464111,0.856295,0.289014,0.406671
5800361756,-34.763111,3.402708,-59.027241,0.851152,0.342811,0.439298
5800381717,-45.304386,2.075591,-51.258179,0.825076,0.306830,0.415642
5800401678,-44.145527,-0.743841,-40.913357,0.824476,0.268138,0.386305
5800421639,-35.729706,-1.309263,-36.452484,0.775850,0.282607,0.377800
5800441599,-27.394403,-3.171019,-33.849346,0.758784,0.284216,0.413612
5800461560,-17.543715,-5.954100,-25.646425,0.785185,0.295668,0.426020
5800481521,-16.970932,-8.683532,-16.851915,0.807171,0.359659,0.410259
5800501482,-22.739220,-10.048010,-16.261787,0.762964,0.399003,0.440038
5800521443,-23.264887,-11.531681,-17.445253,0.780596,0.370749,0.453664
5800541404,-17.834179,-12.737471,-14.708498,0.823903,0.341488,0.472512
5800561365,-8.865505,-12.155613,-13.662747,0.863299,0.337190,0.461376
5800581326,-10.641273,-6.223011,-16.090914,0.816398,0.337978,0.450942
5800601287,-10.109920,0.139153,-16.812069,0.784761,0.315384,0.462387
5800641210,16.770605,4.243540,-9.314521,0.832859,0.330931,0.502900
5800661171,27.392950,16.015938,-18.874847,0.788412,0.348530,0.605880
5800681132,30.123707,28.542862,-17.518452,0.790054,0.479896,0.564420
5800701093,30.060728,41.738670,-1.934551,0.844004,0.595794,0.577717
5800721054,9.858043,57.233124,5.360027,0.892321,0.617228,0.592002
5800741015,-27.485170,66.368027,-0.286944,0.830435,0.699897,0.575763
5800760976,-66.881027,71.441200,-13.296356,0.760094,0.754242,0.537431
5800780937,-99.756638,78.285065,-27.910999,0.679412,0.730483,0.453019
5800800900,-128.029053,75.876221,-34.019234,0.633413,0.625450,0.324132
5800820861,-142.922180,48.316437,-19.713633,0.695838,0.426489,0.139492
5800840822,-127.967499,7.579223,5.085022,0.736676,0.160938,0.098058
5800860783,-132.693970,-12.419362,2.541660,0.755810,0.152236,0.343599
5800880744,-169.363159,-18.076397,-17.280764,0.614298,0.301112,0.409957
5800900705,-189.900543,-33.517872,-2.548973,0.562657,0.147470,0.340954
5800920666,-177.293076,-50.959900,30.479567,0.627910,-0.148414,0.331152
5800940631,-136.423935,-70.817604,49.299076,0.702582,-0.357699,0.307266
5800960589,-80.014336,-94.025986,52.821571,0.753646,-0.358166,0.286628
5800980550,-34.090523,-121.517838,57.643955,0.824376,-0.265949,0.296158
5801000511,7.671867,-139.850891,72.153351,1.017545,-0.173432,0.363204
5801020472,40.761658,-138.193481,79.075516,1.129891,-0.078254,0.505398
5801040432,34.648586,-124.002640,65.676735,1.072456,0.058258,0.612657
5801060393,-4.072069,-111.330666,43.186619,1.086731,0.311474,0.607952
5801080354,-47.467201,-89.235214,21.312067,1.120648,0.477402,0.621792
5801100315,-80.021584,-75.410965,-15.829729,1.042305,0.433691,0.648025
5801120276,-90.782143,-70.180695,-67.655655,1.066233,0.412325,0.664750
5801140237,-83.886871,-63.525963,-105.468445,1.250048,0.488431,0.715593
5801160198,-76.412529,-25.696934,-149.033127,1.357566,0.677894,0.768643
5801180159,-124.365601,18.269468,-174.742538,1.195473,0.301824,0.727574
5801200121,-160.663239,45.995941,-161.144318,1.132447,-0.105170,0.151746
5801220082,-157.936569,54.951458,-132.012970,1.037285,-0.223464,-0.110866
5801240043,-108.980103,14.983850,-124.224808,0.917443,-0.027725,0.080059
5801260004,-67.175728,0.035036,-135.956909,0.998256,-0.074430,0.275539
5801279965,-31.894054,16.569613,-135.902985,0.914853,-0.066574,0.219062
5801299926,-7.686215,24.253170,-126.461548,0.919785,0.283903,0.375593
5801319887,-38.884323,22.780590,-114.191704,0.924296,0.392059,0.383920
5801339848,-67.213455,21.059967,-107.232201,0.882261,0.291973,0.347636
5801359809,-68.347679,20.624449,-102.507095,0.885684,0.225985,0.356702
5801379771,-54.148495,19.460428,-95.347145,0.837755,0.195935,0.368882
5801399733,-40.375191,15.717469,-85.528473,0.749314,0.238010,0.398715
5801419694,-32.873089,9.735815,-75.742340,0.703564,0.304194,0.410451
5801439655,-34.379639,4.141716,-69.052689,0.670486,0.345066,0.434490
5801459616,-34.738197,-0.616716,-64.743568,0.679282,0.353898,0.485319
5801479577,-24.830206,-0.182464,-56.226509,0.734130,0.314204,0.488888
5801499539,-6.294071,8.630363,-50.137253,0.791137,0.336100,0.572077
5801519500,6.956476,17.037348,-50.014957,0.777448,0.406998,0.624300
5801539461,17.612701,22.484579,-50.944153,0.784495,0.554398,0.595334
5801559422,7.216791,27.238901,-47.942253,0.776865,0.653701,0.524087
5801579383,-20.306709,33.263474,-45.560478,0.731167,0.691679,0.484198
5801599344,-59.388912,36.737457,-40.321518,0.666377,0.626198,0.417425
5801619305,-89.014938,35.256126,-37.426979,0.599476,0.480589,0.470580
5801639265,-101.884483,27.108418,-44.120838,0.565535,0.416366,0.449519
5801659226,-87.358673,15.386669,-41.247234,0.650576,0.320546,0.440628
5801679187,-68.746819,3.397856,-28.592155,0.765857,0.295948,0.487492
5801699148,-64.726761,1.959199,-30.420948,0.744592,0.323305,0.565514
5801719109,-75.142159,-4.854737,-31.796099,0.635548,0.282468,0.604978
5801739070,-87.331039,-10.207623,-16.710274,0.545105,0.170036,0.641313
5801759031,-90.487656,-18.317074,10.878925,0.484668,0.061064,0.649548
5801778993,-71.289818,-32.443626,46.664070,0.562162,-0.083503,0.552713
5801798954,-34.685078,-40.090405,68.760216,0.589522,-0.238169,0.513132
5801818915,8.031821,-49.530254,78.774132,0.635542,-0.172050,0.504515
5801838876,37.041386,-62.430145,89.795258,0.602875,0.012089,0.529311
5801858837,36.562260,-79.707077,101.044235,0.740877,0.298594,0.545179
5801878798,21.832977,-80.396423,116.729446,0.954451,0.415658,0.570946
5801898759,-3.582943,-66.373810,106.234589,0.864548,0.190603,0.626619
5801918720,-8.529105,-80.766426,85.095657,0.867418,0.199710,0.667136
5801938682,46.580620,-102.961273,72.537971,1.298140,0.351079,0.643872
5801958642,102.007935,-46.838558,-9.981071,1.263708,1.018454,1.240511
5801978604,117.365791,0.615517,-125.254028,0.858115,1.321564,1.173925
5801998566,33.869019,15.477852,-98.032974,0.786642,0.316556,0.257605
5802038488,-21.050667,-4.891865,-24.877893,0.875538,0.507016,0.608525
5802058449,-83.970787,-16.548136,-36.756096,0.712726,0.504813,0.404510
5802078410,-86.085617,-1.953476,-47.220337,0.573769,0.197907,0.341697
5802098371,-36.206524,-2.392435,-31.299229,0.550644,0.054568,0.375948
5802118332,9.159723,-9.310314,-10.989085,0.706847,0.189724,0.417213
5802138294,13.067945,-6.579700,-4.589967,0.867381,0.362893,0.531239
5802158255,-14.819364,-3.878007,-13.838991,0.838712,0.399710,0.523463
5802178216,-40.362820,-5.673891,-17.138630,0.821347,0.344616,0.572856
5802198177,-41.125870,-6.571209,-10.787474,0.828032,0.207008,0.553833
5802218138,-21.196432,-5.662104,-3.588927,0.855954,0.151657,0.574192
5802238098,-13.531645,0.650998,1.504284,0.861699,0.220521,0.606680
5802258059,-21.949116,3.524761,2.807908,0.814944,0.237114,0.558199
5802278020,-19.401400,2.922936,2.559187,0.780915,0.174284,0.439495
5802297981,-12.035001,-0.876485,0.653909,0.747175,0.203121,0.441955
5802317942,-21.767155,-3.373802,-4.876843,0.813392,0.290493,0.490001
5802337903,-33.381317,-2.462646,-5.129088,0.833149,0.270335,0.511729
5802357864,-37.732552,-1.292048,-0.993810,0.844957,0.186887,0.532527
5802377826,-36.381390,3.405790,3.913984,0.823439,0.085935,0.575947
5802397787,-34.293274,5.350575,9.951559,0.845678,0.050620,0.582397
5802417748,-28.209822,-4.886445,26.698847,0.843455,0.011736,0.513878
5802437709,-13.725528,-23.961143,48.822453,0.758474,-0.059446,0.409583
5802457670,0.421686,-43.313931,64.517136,0.732364,-0.052861,0.406265
5802477631,9.206009,-45.113682,72.168625,0.814490,0.034014,0.450240
5802497592,10.974859,-44.805172,73.335190,0.964696,0.186520,0.511326
5802517554,16.305309,-47.046146,60.408611,1.041878,0.294285,0.563064
5802537515,28.096371,-45.143959,34.359936,0.832287,0.266810,0.599646
5802557476,46.969395,-37.345490,5.677139,0.676936,0.395824,0.622002
5802577437,60.470753,-35.142403,-23.060581,0.781563,0.696221,0.588222
5802597399,25.477238,-24.146065,-33.400417,0.974011,0.673786,0.470642
5802617360,-26.426777,-10.175419,-28.690058,0.924163,0.435597,0.427097
5802637321,-67.884773,-0.166371,-22.239231,0.907232,0.215517,0.445689
5802657283,-68.881470,7.725481,-13.541677,0.874930,0.011527,0.428496
5802677244,-34.039955,-2.755736,-19.489992,0.865659,0.031586,0.394942
5802697205,0.013692,-17.296717,-29.821524,0.887886,0.116326,0.343604
5802717166,14.713799,-16.218468,-33.743820,0.903673,0.226075,0.375607
5802737127,0.542147,-7.000316,-33.075844,0.908185,0.303737,0.443260
5802757088,-23.616373,-2.571986,-32.509609,0.904244,0.290157,0.475373
5802777049,-33.879036,0.619211,-35.098335,0.917633,0.201198,0.474708
5802797010,-24.527058,4.674393,-38.261044,0.924911,0.137400,0.455944
5802816971,-7.263197,6.217017,-41.659481,0.904280,0.156962,0.442588
5802836943,3.983858,7.496135,-45.722507,0.888131,0.221298,0.442057
5802856892,6.414541,11.430789,-47.966820,0.893365,0.262481,0.446123
5802876853,2.365610,16.896587,-47.897297,0.904361,0.265858,0.454829
5802896814,-2.496147,21.602528,-48.800766,0.883595,0.258723,0.461941
5802916775,-3.569465,23.843519,-51.714405,0.852308,0.268625,0.470493
5802936737,1.345896,25.939054,-53.166050,0.826221,0.285568,0.460631
5802956698,6.665804,29.553082,-55.210602,0.798608,0.295061,0.456236
5802976659,10.133766,32.122963,-57.540520,0.781369,0.317547,0.464931
5802996620,13.009630,32.183346,-60.749023,0.797594,0.355134,0.479547
5803016581,12.379490,32.817940,-63.833347,0.810635,0.382660,0.493814
5803036542,13.407162,34.979004,-65.343475,0.798796,0.406921,0.491014
5803056503,15.675057,37.463726,-66.554001,0.759853,0.423073,0.492585
5803076464,15.538730,38.851337,-68.795403,0.705847,0.432174,0.492356
5803096425,15.576074,39.164742,-71.702484,0.675779,0.453604,0.494367
5803116386,15.032785,38.806377,-73.024307,0.663098,0.485420,0.491701
5803136348,14.496391,40.547680,-73.984955,0.648053,0.500097,0.490092
5803156309,15.862987,40.785069,-74.777672,0.642052,0.524621,0.503240
5803176270,17.557030,39.951302,-78.254372,0.624075,0.552450,0.510012
5803196231,15.619693,40.658810,-84.955688,0.573458,0.554683,0.521250
5803216193,17.316280,40.593388,-88.304504,0.504449,0.547481,0.526932
5803236154,24.995901,38.944244,-86.895393,0.457111,0.557320,0.525993
5803256116,31.805906,36.829891,-83.750481,0.445347,0.591870,0.524392
5803276077,35.101086,36.749722,-80.582275,0.436168,0.629640,0.533440
5803296038,35.413685,37.803204,-78.108665,0.404906,0.662169,0.547723
5803315999,36.321152,37.173820,-75.767189,0.386414,0.713449,0.560294
5803335960,34.746548,36.941624,-72.736282,0.355666,0.738153,0.555774
5803355921,33.591236,36.269226,-68.602859,0.307043,0.752058,0.552196
5803375882,36.829727,32.536324,-62.932472,0.256304,0.793635,0.543573
5803395843,38.872799,28.593426,-53.933971,0.217619,0.870467,0.536232
5803415805,30.811728,24.632610,-43.428177,0.202241,0.914137,0.521666
5803435766,20.141190,18.885330,-32.943512,0.192580,0.928829,0.524891
5803455725,16.899157,12.000180,-20.588373,0.182099,0.949852,0.531639
5803475686,15.295626,7.614332,-3.222546,0.168008,0.970141,0.541521
5803495647,9.795473,1.941895,14.838144,0.116666,0.976283,0.527366
5803515608,2.538742,-5.534420,29.374235,0.112035,0.960545,0.523259
5803535570,-0.487300,-9.244586,43.918686,0.133134,0.895349,0.499489
5803555531,0.497944,-11.775426,57.556301,0.196729,0.869158,0.493982
5803575492,-0.325873,-19.757137,69.253197,0.231558,0.879950,0.492076
5803595453,-0.105604,-30.456024,81.504044,0.267324,0.886962,0.480961
5803615414,3.376637,-39.317219,97.572815,0.333655,0.894328,0.472131
5803635375,-1.211868,-42.178932,111.776894,0.377085,0.848494,0.458016
5803655336,-9.795702,-42.027527,120.445763,0.391590,0.778325,0.450052
5803675297,-11.811410,-45.604725,127.123146,0.438214,0.730529,0.478098
5803695258,-7.429718,-49.621464,137.146454,0.523943,0.675704,0.494501
5803715220,-0.195377,-46.201004,143.950195,0.554526,0.617213,0.500937
5803735181,2.556928,-40.363625,142.956345,0.560266,0.608377,0.528597
5803755142,6.635116,-39.130478,142.444305,0.630148,0.659432,0.495076
5803775103,11.512992,-36.158928,141.651520,0.671020,0.701153,0.442964
5803795064,0.460559,-28.832350,140.738846,0.642439,0.672708,0.448096
5803815026,-6.384101,-26.160700,142.359131,0.585734,0.637714,0.426776
5803834987,-8.403403,-30.107889,142.813736,0.648436,0.642274,0.366385
5803854949,-21.671396,-28.329348,143.920807,0.685050,0.564250,0.327994
5803874910,-36.663429,-24.269588,149.701462,0.666632,0.443146,0.338200
5803894871,-41.374382,-24.508072,159.719452,0.682069,0.345936,0.346632
5803914832,-49.459888,-27.075550,163.468506,0.748589,0.271212,0.362462
5803934793,-60.655441,-27.828325,153.353912,0.782382,0.174418,0.362573
5803954754,-54.096931,-31.766758,141.595093,0.833620,0.093755,0.346803
5803974715,-32.670292,-35.689316,134.848892,0.898067,0.065074,0.327056
5803994676,-14.429875,-33.433109,124.834641,0.891264,0.075421,0.358451
5804014637,-7.905612,-30.484142,111.706940,0.872851,0.077944,0.393677
5804034598,-11.348410,-27.592527,103.365654,0.949265,0.071926,0.384341
5804054558,-20.569656,-26.362207,99.250244,1.047019,0.029079,0.358060
5804074519,-38.456715,-26.581715,90.304253,1.069692,-0.014183,0.355906
5804094481,-55.136204,-21.095131,76.929115,1.027652,-0.084719,0.363666
5804114441,-63.104416,-16.100691,63.348217,0.970795,-0.141882,0.355455
5804134402,-57.544724,-17.169552,51.255493,0.937673,-0.183889,0.325030
5804154364,-45.884720,-20.170124,41.250122,0.924987,-0.198385,0.313106
5804174325,-37.697628,-19.294645,32.062328,0.916033,-0.207682,0.298797
5804194286,-36.092522,-15.639222,22.051739,0.886839,-0.189895,0.300976
5804214247,-38.260872,-16.274881,16.421766,0.884183,-0.146232,0.282546
5804234208,-40.797432,-18.320055,20.211145,0.937188,-0.138519,0.232033
5804254169,-45.864277,-14.549042,26.746019,0.935543,-0.179943,0.220206
5804274130,-57.180943,-10.160821,27.764582,0.875601,-0.218833,0.259719
5804294091,-66.176208,-11.049902,28.942898,0.898464,-0.243901,0.283588
5804314053,-65.925034,-11.159113,35.508728,0.963909,-0.285843,0.240309
5804353975,-48.031048,-3.682934,37.719673,0.901285,-0.422515,0.211348
5804373936,-42.242985,-3.523440,31.712570,0.885887,-0.452855,0.189435
5804393897,-36.600533,-4.307731,25.091656,0.885941,-0.445801,0.168285
5804413859,-28.692728,-4.275506,19.668541,0.889428,-0.413086,0.157705
5804433821,-19.882307,-5.411408,17.172079,0.879995,-0.402745,0.155724
5804453782,-15.027059,-9.957823,17.976629,0.898149,-0.373876,0.153580
5804473743,-20.072195,-15.071455,23.507870,0.933108,-0.339177,0.151741
5804493704,-29.922031,-15.280404,32.491852,0.939824,-0.374110,0.160905
5804513665,-35.215504,-12.526914,39.429729,0.919181,-0.422640,0.203028
5804533626,-36.687866,-10.005489,39.178238,0.881431,-0.446593,0.197992
5804553587,-31.758406,-6.456014,30.916765,0.856291,-0.465848,0.143938
5804573549,-26.089851,-1.650564,16.872726,0.863110,-0.468097,0.137908
5804593509,-22.881020,3.128936,4.915277,0.914844,-0.443178,0.156752
5804613471,-23.403921,7.310640,-0.170017,0.975762,-0.421230,0.152957
5804633454,-26.512482,11.182533,-0.831176,1.000533,-0.436771,0.133359
5804653391,-33.714268,14.358793,-2.210637,0.950817,-0.453980,0.139741
5804673353,-41.532578,14.828247,-4.293906,0.877586,-0.460547,0.142330
5804693314,-44.499985,12.147443,-3.373797,0.847690,-0.471554,0.126845
5804713275,-39.984779,9.977234,2.374372,0.854839,-0.474465,0.100616
5804733236,-33.697548,10.144912,8.732057,0.827454,-0.486746,0.086747
5804773159,-24.653269,12.729595,15.011757,0.801936,-0.585763,0.054481
5804793120,-15.847737,12.022527,13.971806,0.825036,-0.638778,0.032188
5804813081,-5.892767,7.354104,7.621397,0.826359,-0.629130,0.040159
5804833042,2.118793,-0.579367,0.707827,0.856780,-0.598899,0.040404
5804853003,6.688148,-3.605106,-2.854753,0.891086,-0.575279,0.082443
5804872964,3.384981,-1.700497,-2.640832,0.938970,-0.537706,0.137161
5804892925,-1.597920,2.913284,-0.417729,0.977532,-0.526756,0.173567
5804912886,-2.139048,7.788828,-0.882168,0.940500,-0.517737,0.198511
5804952808,-5.026338,17.999363,-14.393352,0.870884,-0.540151,0.139322
5804972769,-3.432309,25.294704,-22.064291,0.856754,-0.583982,0.115740
5804992730,4.644788,30.910881,-26.258114,0.840938,-0.608954,0.100014
5805012693,15.185770,33.657726,-27.684555,0.849093,-0.601659,0.101137
5805032654,23.151514,32.924110,-28.135269,0.878779,-0.569261,0.124736
5805052615,27.897156,30.959616,-29.361311,0.903284,-0.528030,0.158203
5805072576,28.242077,28.572756,-32.043255,0.888338,-0.476266,0.187769
5805092537,26.022705,26.056982,-34.832150,0.858654,-0.434719,0.210675
5805112498,24.770412,23.967817,-35.728714,0.850762,-0.430345,0.205815
5805132460,26.790674,22.309763,-36.387424,0.850429,-0.433209,0.202395
5805152421,28.200796,24.266399,-36.848644,0.898223,-0.430590,0.210241
5805172382,27.851299,30.462116,-34.771973,0.904739,-0.474967,0.226112
5805192343,34.005974,18.391830,-36.964882,0.912595,-0.485851,0.202212
5805212304,42.717831,13.536469,-36.177483,0.953977,-0.467803,0.210051
5805232265,48.964298,13.427832,-31.140076,1.011173,-0.488522,0.219909
5805252225,53.817398,15.678227,-23.796030,1.085048,-0.532704,0.259596
5805272186,70.148865,16.500164,-20.259748,1.100605,-0.512474,0.211742
5805292147,85.527618,25.681866,-17.262779,1.093881,-0.413518,0.217010
5805312108,87.155319,36.348156,-12.613443,1.063585,-0.354482,0.248178
5805332069,90.207321,44.887039,-8.502659,1.037278,-0.322656,0.248905
5805352030,92.981598,51.428177,-3.668811,0.992113,-0.284259,0.231876
5805371992,94.305244,55.305378,1.536104,0.945371,-0.238132,0.226347
5805391952,89.374535,58.840134,8.041420,0.935056,-0.188937,0.238921
5805411914,81.566193,60.681545,15.017891,0.936397,-0.152866,0.238719
5805431875,74.889389,60.798489,20.938162,0.919910,-0.124280,0.254885
5805451836,68.596123,60.740990,27.694794,0.893813,-0.099273,0.299255
5805471797,61.081448,59.923920,32.976177,0.872047,-0.071367,0.358499
5805491758,52.998268,55.092651,34.193760,0.862847,-0.042559,0.407488
5805511719,46.270351,48.786274,33.907734,0.864460,-0.027934,0.439058
5805531680,42.603558,45.514023,30.819208,0.826135,-0.025907,0.488406
5805551642,41.417149,45.583595,25.737869,0.785248,-0.038746,0.557529
5805591563,36.418922,37.978806,25.429140,0.761969,-0.056609,0.643721
5805611526,38.665794,35.657944,24.544481,0.690987,-0.178066,0.611171
5805631487,60.574520,36.942947,25.191755,0.610338,-0.257504,0.591961
5805651448,93.799263,39.367779,28.227440,0.544591,-0.257635,0.586205
5805671409,125.777786,40.316994,32.923290,0.523216,-0.203555,0.663968
5805691371,139.660141,40.198227,33.728287,0.575172,-0.027683,0.786522
5805711332,129.592316,40.160671,25.574404,0.583564,0.149383,0.835408
5805731293,109.097794,40.678970,20.094654,0.550640,0.218160,0.822112
5805751257,84.219528,39.988472,15.406698,0.533223,0.242684,0.820845
5805771215,55.516014,41.585590,3.948107,0.526191,0.265950,0.840459
5805791176,28.386152,40.516014,-11.250464,0.489147,0.282942,0.876017
5805811137,10.526248,32.570839,-19.691498,0.443438,0.259895,0.890036
5805831098,3.292807,22.092531,-22.970781,0.416552,0.171240,0.869140
5805851058,-0.697369,13.233432,-25.202011,0.395088,0.121468,0.850621
5805871019,-10.885108,6.587502,-29.635195,0.414183,0.138192,0.845324
5805890980,-18.492647,3.697464,-34.217255,0.429901,0.184296,0.851414
5805910941,-22.019333,2.072380,-34.856400,0.426533,0.211870,0.844890
5805930902,-25.139870,1.110925,-33.863472,0.427701,0.217954,0.832883
5805950863,-30.875889,0.560729,-32.948105,0.434709,0.233132,0.825205
5805970824,-41.265205,-1.785965,-32.720894,0.460389,0.259007,0.828803
5805990785,-57.176292,-4.088962,-34.652210,0.500575,0.268177,0.837859
5806010746,-76.412605,-5.877599,-39.448898,0.518420,0.211494,0.828278
5806030707,-88.898132,-9.189416,-45.951382,0.490387,0.106390,0.806902
5806050668,-88.764633,-15.088531,-52.127499,0.492277,0.029292,0.776146
5806070630,-82.227463,-19.582048,-56.356834,0.509018,-0.026809,0.762074
5806090591,-71.004356,-24.829878,-57.647648,0.516284,-0.079955,0.744501
5806110552,-55.859100,-32.603439,-56.948467,0.521490,-0.075349,0.746160
5806130513,-45.475044,-40.210312,-56.553673,0.543237,-0.032256,0.749495
5806150474,-41.792519,-46.245819,-56.874004,0.564249,-0.019853,0.736018
5806170435,-41.014706,-51.541508,-56.962181,0.573380,-0.023143,0.716388
5806190396,-39.730053,-55.858074,-57.194347,0.583425,-0.007120,0.712759
5806210357,-37.442760,-56.983986,-57.534218,0.569243,0.018392,0.681848
5806230320,-48.503292,-62.013824,-57.677094,0.495231,0.062847,0.710632
5806250281,-65.190948,-72.389961,-51.683151,0.668546,0.036838,0.602413
5806270242,-32.524040,-72.311401,-40.198784,0.714866,-0.039995,0.490603
5806290203,-22.606611,-79.465332,-42.196877,0.721614,-0.046007,0.519419
5806310164,-26.180630,-88.065674,-43.683357,0.770282,-0.027830,0.472752
5806330125,-25.736143,-91.966736,-42.848808,0.783764,-0.024196,0.419942
5806350086,-21.979679,-96.009674,-39.248150,0.809074,-0.041662,0.399657
5806370048,-19.408556,-100.708992,-34.929436,0.832518,-0.051256,0.375566
5806390009,-19.673286,-105.262283,-34.331535,0.859997,-0.028611,0.345922
5806409970,-19.776550,-109.309776,-35.320038,0.897971,0.020803,0.308110
5806429931,-19.246895,-111.184341,-36.340057,0.939698,0.045209,0.266040
5806449907,-17.880350,-110.238396,-36.488743,0.967220,0.043344,0.220134
5806469852,-14.537905,-110.746071,-34.055916,0.999122,0.038667,0.177632
5806489813,-10.038960,-110.564980,-27.651035,1.056345,0.024200,0.123918
5806509774,-3.405264,-106.964203,-19.119175,1.147658,0.014036,0.065294
5806529735,3.258925,-94.762878,-14.614868,1.166240,-0.004813,0.032706
5806549697,6.583731,-78.057983,-14.659204,1.188606,-0.011521,0.031131
5806569657,6.424318,-60.500816,-12.431913,1.248487,0.016542,0.065645
5806589619,3.551512,-46.854019,-7.680473,1.294723,0.045375,0.099622
5806609580,4.950966,-34.994255,-3.640828,1.317235,0.038492,0.111075
5806629541,13.191210,-21.517628,-1.554239,1.316753,0.012481,0.103570
5806649502,24.358503,-7.751303,-2.016042,1.308966,0.026337,0.075882
5806669463,33.148048,3.018298,-2.663370,1.297969,0.080596,0.061223
5806689424,34.427505,10.706022,-1.061676,1.249080,0.119929,0.049575
5806709385,33.685829,15.201624,2.071171,1.179048,0.128211,0.037955
5806729347,32.103691,17.476805,3.982664,1.129230,0.127634,0.037871
5806749308,26.985872,21.404428,5.143829,1.129550,0.136652,0.045560
5806769269,19.108673,26.707661,5.269250,1.090528,0.128462,0.054631
5806789230,13.477226,28.761055,3.927014,1.024335,0.112153,0.061152
5806809192,15.012026,27.991884,2.058651,0.975640,0.096601,0.094570
5806829153,20.183924,27.051096,0.043186,0.967692,0.113696,0.132937
5806849115,25.505766,29.253952,-0.344759,0.971191,0.175683,0.159760
5806869076,25.504002,33.243538,1.933686,0.952066,0.230219,0.195669
5806889037,20.710270,35.178795,3.668106,0.944937,0.238553,0.207331
5806908998,14.635540,34.449425,1.941504,0.938690,0.223052,0.218306
5806928959,5.349928,29.497679,-1.914434,0.931830,0.204501,0.231597
5806948920,-2.438303,24.633276,-5.340547,0.940648,0.174661,0.248639
5806968881,-6.305804,22.124809,-7.117911,0.929318,0.142827,0.276726
5806988842,-5.741031,20.650986,-5.466940,0.930632,0.117600,0.293100
5807008804,-1.638055,20.902903,-2.273795,0.969882,0.076350,0.297318
5807028765,2.569595,26.501930,-2.253079,1.036717,0.002262,0.294658
5807048732,6.294057,37.261227,-8.480167,1.099433,-0.070801,0.315673
5807068686,11.065116,50.432152,-20.149010,1.090254,-0.151416,0.378656
5807088647,32.347889,48.941803,-31.559229,1.061421,-0.182739,0.435463
5807108608,64.026131,42.177547,-39.656178,1.049085,-0.113245,0.367623
5807128568,81.964653,48.109207,-45.259872,1.039522,0.010131,0.300135
5807148529,96.050194,59.163170,-47.347294,1.036933,0.138944,0.292514
5807168491,97.772156,69.832092,-45.012421,0.997679,0.252072,0.317715
5807188452,84.405983,76.113243,-40.049374,0.989283,0.265842,0.320978
5807208413,65.607872,80.476242,-36.998768,0.949785,0.213170,0.333774
5807228374,55.879669,79.072540,-35.738617,0.876848,0.168170,0.362768
5807248335,55.501011,73.787262,-32.498882,0.843114,0.174766,0.379708
5807268296,65.539169,70.887146,-25.463938,0.880772,0.184104,0.398458
5807288257,83.915657,71.923431,-17.997492,0.986182,0.152524,0.383515
5807308219,96.954178,76.843819,-16.201015,1.034228,0.149296,0.389458
5807328180,98.799522,79.897194,-22.696018,0.949859,0.185453,0.477561
5807348141,103.422493,79.917740,-20.274925,0.950202,0.194554,0.522129
5807368102,123.746635,87.858032,-6.589048,0.979266,0.132832,0.399556
5807388063,138.446625,102.357033,-0.179444,1.043466,0.131612,0.311695
5807408024,143.402710,118.132690,1.642405,0.952768,0.241752,0.351026
5807427986,154.081070,119.891838,15.950746,0.853148,0.330492,0.356488
5807447948,157.928223,120.729889,34.062950,0.805120,0.363109,0.240426
5807467909,154.323517,124.379692,46.909634,0.765187,0.436182,0.136598
5807487870,150.213806,126.611908,57.434410,0.697486,0.510240,0.136602
5807507831,151.852310,120.407280,68.036324,0.651943,0.560373,0.132396
5807527792,156.526810,112.635353,75.576904,0.627408,0.619178,0.102025
5807547753,152.880386,105.629280,76.372215,0.569618,0.729507,0.090416
5807567714,140.299133,100.153465,78.934402,0.517689,0.773749,0.132722
5807587675,132.216446,92.342232,80.725647,0.501170,0.777058,0.142199
5807607636,129.611237,83.994186,73.914215,0.448635,0.814485,0.140623
5807667518,94.620674,51.793034,47.754318,0.457853,1.030877,0.243790
5807687480,64.955093,40.920391,35.916534,0.489019,0.993876,0.309166
5807707441,44.717201,30.729465,26.340179,0.492391,0.951177,0.307013
5807727402,24.326784,23.435125,16.083527,0.486682,0.866200,0.372499
5807747363,11.938176,14.748499,6.895150,0.482419,0.805239,0.402923
5807767324,8.636855,8.058428,-0.968391,0.449206,0.847376,0.413917
5807787285,-4.346250,5.381032,-2.904647,0.431308,0.912286,0.420357
5807807245,-21.976643,1.254904,-6.538944,0.443191,0.940625,0.389878
5807827207,-42.654015,-4.539465,-12.594251,0.438143,0.943255,0.360967
5807847168,-65.587700,-12.309911,-17.857170,0.443459,0.928631,0.334350
5807867129,-81.429932,-21.745220,-22.896845,0.460325,0.904713,0.314471
5807887090,-95.954895,-31.996962,-27.194771,0.485021,0.875926,0.302829
5807907051,-110.513847,-42.315582,-30.771719,0.482282,0.854092,0.318344
5807927012,-123.295662,-55.710426,-29.670708,0.475807,0.851281,0.295506
5807946973,-135.970367,-71.077431,-22.107803,0.469915,0.879945,0.249852
5807966935,-157.895370,-82.152786,-12.889446,0.482850,0.864581,0.202898
5807986896,-184.372406,-87.672295,-4.992224,0.526822,0.758864,0.128307
5808006857,-207.196106,-93.115036,-2.259021,0.594170,0.605089,0.072233
5808026819,-225.318008,-99.108376,-4.890350,0.663396,0.522994,0.058274
5808046781,-236.714584,-102.300491,-3.124551,0.724075,0.490499,0.054820
5808066742,-241.716171,-101.177017,6.769012,0.833411,0.451241,0.045903
5808086703,-250.995132,-96.135193,7.034390,0.983397,0.303603,0.089045
5808106664,-268.727356,-85.626694,-17.971128,1.103616,0.113586,0.271569
5808126625,-274.081696,-66.127037,-56.223061,1.175425,0.097678,0.478036
5808146586,-250.777908,-49.040535,-80.465286,1.188410,0.114807,0.577160
5808166547,-213.289474,-41.521717,-90.158157,1.125231,0.117889,0.593981
5808186508,-178.472107,-38.082924,-98.419365,1.152730,0.191710,0.520791
5808206469,-156.911392,-27.887209,-106.962158,1.137732,0.273830,0.450328
5808226430,-155.238525,-14.934341,-118.534653,1.078493,0.360646,0.408754
5808246391,-161.323212,-0.763020,-126.491692,1.062385,0.409652,0.391811
5808266351,-171.966003,8.895820,-131.732452,1.025600,0.411795,0.381722
5808286312,-184.879684,9.915404,-140.595551,0.950830,0.389644,0.336912
5808306273,-192.025879,8.977217,-149.504959,0.925523,0.388477,0.270174
5808326234,-200.960800,6.558543,-156.255081,0.985800,0.407169,0.204772
5808346196,-213.576691,3.163794,-162.606094,1.049474,0.412616,0.168515
5808366157,-225.423981,3.429453,-174.060120,1.029785,0.317364,0.149225
5808386118,-228.057159,2.100618,-188.509491,0.983232,0.239382,0.166768
5808406079,-223.649887,-3.031397,-203.476349,0.991957,0.218674,0.161713
5808426040,-215.679428,-12.802854,-213.028412,1.103460,0.206503,0.141829
5808446001,-207.016602,-14.511720,-217.042389,1.141511,0.125459,0.190205
5808465962,-204.277206,-14.130292,-223.416611,1.122570,0.084383,0.270938
5808485923,-200.039749,-17.102919,-227.564758,1.138938,0.037541,0.311708
5808505884,-190.700485,-18.494488,-227.789841,1.096772,-0.020349,0.345030
5808525845,-173.595062,-20.813797,-223.236923,1.011101,-0.081003,0.413477
5808545806,-147.728760,-25.427734,-211.343002,1.022841,-0.123470,0.482958
5808565768,-119.849297,-24.481670,-192.104202,1.060643,-0.171388,0.564843
5808585729,-98.493614,-21.159296,-170.120361,1.019179,-0.203830,0.635734
5808605690,-76.529495,-19.195719,-145.946762,0.967863,-0.212946,0.666085
5808625651,-56.272453,-15.465601,-119.618439,0.941215,-0.191412,0.665152
5808645613,-35.985138,-8.418002,-88.619904,0.882938,-0.146281,0.651780
5808665575,-22.135223,-3.510056,-57.829178,0.788442,-0.097025,0.633759
5808685536,-6.513183,-3.430048,-31.176785,0.753011,-0.110238,0.593987
5808705497,19.132385,-4.571700,-6.143935,0.760122,-0.076867,0.612147
5808725458,37.446808,-6.758271,17.082739,0.720102,0.005291,0.638661
5808745419,47.352749,-7.259377,36.909401,0.680087,0.054532,0.651964
5808765380,55.441456,-6.268762,54.435841,0.693683,0.099743,0.670140
5808785342,60.138508,-3.483699,66.446053,0.703368,0.156022,0.677774
5808805303,59.183224,0.067264,72.197952,0.647013,0.223454,0.692664
5808825264,54.767342,3.807238,79.456017,0.679791,0.279079,0.696816
5808845225,47.301689,15.290975,86.624130,0.758364,0.248844,0.686459
5808865186,40.792393,26.092129,88.696320,0.851611,0.174880,0.710963
5808885146,43.662922,31.956932,90.169395,0.916182,0.119260,0.745112
5808905107,50.586178,34.670311,92.806564,0.894595,0.102156,0.741262
5808925068,56.618202,33.820587,95.818001,0.872182,0.076761,0.716863
5808945029,64.763062,31.761452,98.291779,0.917540,0.029747,0.679308
5808964990,77.166451,31.378635,97.809662,0.993317,0.017858,0.672060
5808984951,84.311539,32.115028,93.415146,0.901361,0.090810,0.635121
5809004912,81.319206,35.116234,94.857941,0.789848,0.124824,0.613305
5809024874,81.931480,34.805389,103.823517,0.840788,0.116334,0.584692
5809044835,86.900482,37.362755,112.723328,0.913137,0.051997,0.562668
5809064796,96.115067,36.094788,113.256569,0.873901,0.012367,0.572432
5809084757,109.012543,28.536362,111.489021,0.808811,0.044416,0.567162
5809104718,118.480324,19.043560,114.243912,0.866889,0.106113,0.531976
5809124680,121.935402,18.890018,118.991356,0.885762,0.106218,0.508917
5809144641,121.412483,22.756802,123.651337,0.836888,0.132272,0.521709
5809164602,118.928688,19.187094,129.530258,0.787773,0.169882,0.522650
5809184563,118.391510,6.551434,134.283157,0.839288,0.189520,0.497139
5809204524,123.066399,-0.682277,137.200989,0.952038,0.156565,0.418155
5809224485,130.455017,6.183806,133.253479,0.922132,0.090855,0.416406
5809244447,136.995499,9.194901,128.314697,0.834545,0.139649,0.415184
5809264408,148.876862,0.170294,129.483109,0.844445,0.262454,0.359810
5809284370,163.518707,-8.826869,126.015839,0.861140,0.311397,0.287103
5809304330,172.491302,-10.969162,118.755280,0.813206,0.319132,0.266154
5809324291,179.685364,-9.839079,117.327782,0.792402,0.409359,0.242531
5809344253,178.996964,2.225093,113.846710,0.742279,0.485385,0.265317
5809364214,161.026413,15.379933,103.430893,0.687133,0.606407,0.303119
5809384175,133.230621,15.066777,96.455902,0.645450,0.774374,0.340763
5809404136,96.843735,3.566623,94.637634,0.680045,0.845345,0.326394
5809424097,58.303795,-5.861280,91.253326,0.715853,0.744854,0.323779
5809444058,29.013998,-18.322821,84.033524,0.676689,0.574233,0.370749
5809464019,18.942795,-39.184952,74.734390,0.633815,0.443325,0.433028
5809483979,25.599905,-63.548416,71.536942,0.647899,0.339336,0.436902
5809503940,45.628208,-88.091072,76.072021,0.707625,0.224979,0.423024
5809523901,73.344307,-112.916878,88.123688,0.903592,0.180473,0.371435
5809543862,97.083481,-117.356194,92.747238,0.973235,0.093743,0.308022
5809563823,103.150269,-120.071968,83.117607,0.831451,0.108345,0.304818
5809583784,110.898445,-169.418457,58.634865,1.112379,0.584452,0.402158
5809603745,98.041954,-122.265480,58.354942,1.710264,0.613742,0.372940
5809623706,-13.861855,-17.217615,51.361969,1.366470,0.429379,0.843996
5809643668,-120.915833,-1.637477,39.039177,1.064430,0.247444,1.106336
5809663629,-106.006454,-9.135115,21.613651,1.014055,-0.103145,0.835237
5809683590,-19.990974,21.637081,8.380706,1.026564,-0.319645,0.516016
5809703551,24.184734,30.541039,-1.512228,0.999218,-0.291816,0.211186
5809723512,36.626980,15.204793,4.524676,0.970761,-0.218659,0.052748
5809743473,44.391785,9.995098,9.111769,0.877971,-0.088187,0.119664
5809763434,42.833561,8.236066,5.511868,0.808097,0.047607,0.131548
5809783396,36.165493,-2.066466,3.554750,0.751060,0.117752,0.101488
5809803356,27.045542,-21.048210,4.258795,0.794513,0.112087,0.130242
5809823317,19.054134,-30.368219,4.709270,0.928376,0.099835,0.189174
5809843280,12.960960,-24.519476,2.881702,0.995068,0.129368,0.242001
5809863241,2.057671,-23.039778,-0.913299,0.980039,0.173839,0.288805
5809883202,-12.521305,-25.495409,-4.767691,1.021959,0.175897,0.310029
5809903163,-25.709843,-17.335848,-7.054756,1.060518,0.116922,0.307604
5809923124,-31.945112,-6.031930,-7.896733,1.044850,0.052616,0.293800
5809943085,-32.789551,-0.272117,-7.801879,1.011643,-0.003716,0.265885
5809963046,-32.543995,3.539746,-6.524154,0.985858,-0.045674,0.237779
5809983008,-28.853294,4.902537,-3.705913,0.976050,-0.083927,0.225750
5810002969,-22.164879,3.946538,0.438669,1.003393,-0.076329,0.217658
5810022930,-15.756626,6.325273,2.247392,1.000583,-0.057626,0.232781
5810042891,-12.181711,8.643211,-0.400552,1.010510,0.010158,0.237863
5810062852,-9.223396,12.277890,-3.485098,0.984650,0.124926,0.241701
5810082812,-19.511147,12.577644,-18.182285,0.989189,0.172686,0.290995
5810102773,-44.350090,13.036061,-33.815758,0.961085,0.159511,0.308816
5810122734,-62.828243,5.791251,-42.882217,0.910430,0.152098,0.344160
5810142695,-75.333206,2.486433,-38.425667,0.973925,0.207413,0.373741
5810162656,-92.393829,18.587292,-27.144760,1.091067,0.130372,0.372598
5810182617,-98.908722,44.256668,-17.254936,1.095354,-0.039431,0.375640
5810202578,-94.073067,52.898502,-12.068304,0.992318,-0.097764,0.416412
5810222539,-76.592514,47.620930,-10.659324,0.931510,-0.072786,0.347047
5810242501,-41.472103,42.359627,-14.709576,0.939777,-0.019129,0.279935
5810262462,-19.663048,43.038357,-24.459217,0.919765,0.048879,0.272900
5810282423,-15.876727,39.064190,-35.703453,0.867078,0.078845,0.270805
5810302384,-14.119891,33.345802,-43.961559,0.889125,0.117031,0.280692
5810322345,-13.425220,28.831480,-45.144051,0.871309,0.117633,0.240834
5810342306,-18.240698,9.158045,-41.222019,0.791881,0.101408,0.200122
5810362267,-28.752628,-18.912796,-32.031616,0.899817,0.130333,0.209460
5810382228,-43.016441,-10.462638,-20.168417,1.107538,0.143531,0.276978
5810402189,-70.643417,22.962755,-14.040816,1.011998,0.057340,0.425979
5810422150,-81.608429,25.325939,-13.518967,0.817632,-0.059721,0.482521
5810442113,-52.392258,0.200296,-11.996006,0.872720,-0.054369,0.414965
5810462074,-23.537846,-13.140486,-12.411973,1.012524,0.035254,0.376722
5810482035,-21.116453,-7.782892,-18.028141,0.978011,0.055455,0.409724
5810501996,-29.672224,1.208880,-22.661446,0.880988,0.080615,0.420555
5810521957,-41.195702,-0.402610,-21.687727,0.922097,0.100188,0.401865
5810541919,-43.927933,0.988752,-18.647892,1.026252,0.075972,0.417194
5810561880,-36.374783,9.593500,-23.751055,0.963967,-0.041639,0.498568
5810581841,-35.453102,14.503336,-31.276453,0.856353,-0.095540,0.472344
5810601802,-26.229044,8.581183,-26.956692,0.864676,-0.015251,0.411354
5810621763,1.521415,9.010333,-26.630358,0.870991,0.022140,0.430344
5810641724,1.684721,14.192360,-36.139503,0.840887,0.067337,0.447719
5810661685,-5.816021,18.891758,-40.687012,0.859667,0.187193,0.464313
5810681658,-0.860086,15.039207,-31.299545,0.872361,0.220423,0.464366
5810701606,11.077059,1.961841,-25.950733,0.893852,0.213530,0.405956
5810721567,-1.690711,-2.612596,-36.763054,0.869708,0.262260,0.351990
5810741528,-21.739925,3.831527,-44.511833,0.840432,0.326266,0.406681
5810761489,-33.774349,5.258642,-42.246555,0.831726,0.286540,0.475104
5810781450,-37.153843,-3.113158,-39.459900,0.856179,0.229949,0.451620
5810801411,-33.523155,-7.285087,-43.441292,0.873380,0.235242,0.384280
5810821372,-30.575968,-2.143699,-46.080349,0.867247,0.223088,0.406677
5810841334,-29.846804,0.060577,-45.496845,0.858441,0.219605,0.435804
5810861294,-30.583977,-0.985460,-44.958870,0.873182,0.244217,0.444777
5810881256,-33.797657,0.200139,-46.656113,0.874651,0.268238,0.441132
5810901217,-36.998028,0.917565,-46.682938,0.880431,0.276399,0.437644
5810921178,-41.924099,-1.598963,-46.596794,0.869336,0.254691,0.468302
5810941139,-45.082012,-7.414540,-46.742737,0.866552,0.218920,0.456908
5810961100,-35.211357,-6.761210,-46.536537,0.859964,0.234939,0.434943
5810981061,-32.463184,-2.263715,-44.477448,0.857438,0.247810,0.468014
5811001022,-32.261513,-0.396113,-41.982658,0.860721,0.253190,0.465255
5811020983,-33.104443,-0.863135,-41.096786,0.848612,0.255720,0.455612
5811040945,-30.589725,-1.406147,-42.400627,0.821862,0.254992,0.442840
5811060907,-22.865396,-2.174623,-41.668137,0.817494,0.249308,0.461338
5811080868,-17.221392,-3.064600,-40.373135,0.829152,0.277549,0.455170
5811100829,-16.985317,-2.608323,-40.008747,0.823176,0.307379,0.464316
5811120790,-19.654028,-2.425471,-40.298645,0.796189,0.320060,0.473266
5811140751,-18.319078,-2.401620,-37.675926,0.798697,0.317699,0.468979
5811160713,-14.948233,-3.316518,-33.489243,0.801749,0.305953,0.475966
5811180674,-12.214463,-7.457234,-30.969515,0.808785,0.329755,0.455126
5811200635,-11.097950,-8.645041,-29.916710,0.816572,0.363873,0.444055
5811220596,-13.454123,-7.625389,-29.584497,0.795699,0.365002,0.456767
5811240557,-14.031034,-11.511383,-26.673849,0.794219,0.371945,0.445608
5811260518,-13.802790,-15.952110,-22.279781,0.823569,0.374318,0.423524
5811280479,-19.081873,-16.724031,-24.990313,0.811293,0.382817,0.449021
5811300439,-23.353649,-14.951599,-27.739267,0.802225,0.354307,0.463527
5811320400,-21.685747,-15.761809,-27.125393,0.777569,0.292992,0.455246
5811340361,-17.215712,-16.273746,-25.015177,0.787612,0.277937,0.439832
5811400245,8.349298,-16.136562,-14.563764,0.844181,0.358439,0.440098
5811420206,4.983689,-12.996832,-12.902319,0.811321,0.386606,0.422187
5811440167,0.080833,-13.234773,-14.208364,0.759512,0.405996,0.399793
5811460128,1.829090,-14.729432,-13.471771,0.753960,0.405043,0.399069
5811480089,4.144762,-15.470211,-11.345566,0.761650,0.417747,0.409201
5811500050,1.449151,-16.543398,-8.522019,0.805372,0.462566,0.428119
5811520011,-6.218430,-11.057318,-4.138519,0.830496,0.501986,0.456254
5811539972,-16.454708,-5.637228,1.162498,0.803528,0.461449,0.456150
5811559933,-23.760191,-1.190435,3.636216,0.787748,0.439138,0.467063
5811579894,-32.225750,1.993549,4.081615,0.811020,0.442253,0.460336
5811599855,-39.774376,7.687904,2.583403,0.831840,0.466982,0.438002
5811619817,-47.056469,15.767657,-3.516676,0.831180,0.466756,0.428341
5811639778,-60.221527,19.180428,-10.183249,0.844262,0.462834,0.455327
5811659740,-79.934555,17.856873,-15.149174,0.856900,0.473511,0.473414
5811679701,-97.083328,12.432179,-17.095089,0.895687,0.450556,0.466488
5811699662,-105.497131,9.134847,-13.755859,0.907167,0.386096,0.473855
5811719623,-110.559570,7.788390,-14.423265,0.810808,0.316074,0.528145
5811739585,-104.411743,8.654314,-20.270857,0.742403,0.243335,0.559316
5811759546,-85.945930,6.763958,-23.333845,0.730407,0.177156,0.575479
5811779507,-59.700768,1.722058,-23.163685,0.733435,0.162876,0.577043
5811799468,-40.317116,-1.703026,-20.286428,0.766786,0.157606,0.551060
5811819429,-29.152985,-1.519403,-17.145741,0.778873,0.139561,0.531544
5811839390,-24.885967,0.593286,-14.895922,0.736963,0.149020,0.527069
5811859351,-23.901854,-0.784065,-10.003031,0.723621,0.185560,0.517483
5811879312,-20.810253,-4.416423,-3.733711,0.741428,0.192594,0.507587
5811899272,-15.394906,-7.424340,-0.903238,0.749671,0.196202,0.517696
5811919233,-13.167024,-9.610565,0.830188,0.772675,0.233374,0.546011
