Timestamp (us),Gyroscope X (deg/s),Gyroscope Y (deg/s),Gyroscope Z (deg/s),Accelerometer X (g),Accelerometer Y (g),Accelerometer Z (g)
5017813900,0.693603,-2.441516,0.009215,0.995763,-0.054846,-0.169523
5017833952,0.594629,-2.457106,0.047198,0.993252,-0.054229,-0.176910
5017854004,0.273280,-2.095196,-0.014568,0.995164,-0.050341,-0.178486
5017874056,0.142736,-1.725792,-0.288638,0.990166,-0.052284,-0.180226
5017894108,0.225220,-1.452245,-0.335083,0.984598,-0.055258,-0.177595
5017914161,0.817722,-1.190451,-0.366508,0.983291,-0.060509,-0.169728
5017934212,0.823897,-0.894435,-0.382688,0.978456,-0.061054,-0.168938
5017954265,1.111005,-0.639874,-0.042613,0.980530,-0.058198,-0.166502
5017974317,0.599592,-0.414748,0.070475,0.980084,-0.051906,-0.171213
5017994369,0.492611,-0.241947,-0.104399,0.982803,-0.050689,-0.169118
5018014421,0.219518,-0.433473,-0.096065,0.980965,-0.047319,-0.168261
5018034473,-0.442263,-0.626338,0.101884,0.980696,-0.046792,-0.169450
5018054525,-0.723365,-0.734457,0.102355,0.985576,-0.048970,-0.176480
5018074578,-0.783598,-0.878947,0.125611,0.985479,-0.052385,-0.173805
5018094629,-0.691619,-0.932400,-0.018237,0.983114,-0.057906,-0.171940
5018114680,-0.296317,-0.891089,0.102746,0.983136,-0.059223,-0.175106
5018134732,-0.303424,-0.929862,-0.018382,0.985105,-0.055882,-0.170495
5018154784,-0.738038,-0.840883,0.095148,0.981395,-0.054063,-0.176178
5018174836,-0.935079,-1.054255,0.171742,0.982929,-0.056367,-0.172323
5018194889,-0.318404,-0.990549,0.004570,0.983047,-0.060130,-0.175005
5018214941,0.206379,-0.933593,0.064821,0.982055,-0.059526,-0.177109
5018234993,0.438909,-1.782185,0.090401,0.987013,-0.053658,-0.154966
5018255045,-0.381063,-2.272588,0.221220,0.993301,-0.051873,-0.170938
5018275097,0.119175,-2.286613,1.085094,1.000198,-0.039951,-0.202564
5018295149,-0.300583,-1.330652,2.620476,0.988132,-0.043999,-0.210601
5018315201,-5.426731,1.988678,3.391465,0.981559,-0.070425,-0.195891
5018335253,-8.199262,2.005153,4.059328,0.986254,-0.049207,-0.167656
5018355305,-10.227285,0.080548,3.142037,0.999466,-0.027510,-0.177357
5018375357,-8.347327,1.892941,-0.313292,1.005858,-0.070632,-0.188627
5018395410,-6.135245,2.923313,-4.122254,0.996350,-0.081774,-0.178477
5018415462,-4.540051,3.133084,-6.207749,0.985318,-0.072285,-0.167578
5018435514,-2.092732,2.254476,-6.016104,0.970257,-0.069566,-0.165716
5018455566,-0.909868,1.504828,-5.733513,0.962843,-0.065811,-0.162450
5018475618,-1.658835,1.552309,-4.657204,0.960419,-0.049809,-0.161289
5018495670,-4.033526,2.132443,-2.907631,0.958256,-0.030982,-0.159523
5018515722,-6.086339,2.431870,-1.460364,0.968461,-0.014074,-0.166917
5018535774,-6.863477,2.526106,-1.361890,0.985067,-0.010283,-0.171205
5018555826,-7.082429,2.587807,-2.180553,1.001958,-0.025916,-0.167815
5018575880,-5.363441,2.216047,-3.915456,1.001051,-0.065352,-0.148824
5018595932,-2.507996,1.043648,-4.981049,0.989312,-0.083743,-0.143332
5018615984,-0.836117,0.277639,-5.388258,0.978476,-0.066385,-0.154153
5018636036,0.688413,-0.145212,-5.402493,0.980109,-0.055177,-0.158451
5018656088,3.048352,-0.573027,-4.666686,0.982184,-0.046458,-0.158992
5018676141,5.029702,-0.344673,-3.023533,0.983638,-0.051495,-0.155652
5018696193,5.735726,0.260500,-0.502072,0.970499,-0.042206,-0.158488
5018716245,6.352613,1.032198,0.836528,0.988251,-0.042597,-0.169536
5018736297,8.015334,1.825815,0.962053,0.997485,-0.059869,-0.165272
5018756349,9.816642,2.039056,1.604899,0.982459,-0.076812,-0.159638
5018776401,11.273017,2.038443,3.597657,0.975270,-0.072079,-0.164288
5018796453,11.220027,2.663397,5.232577,0.989736,-0.053481,-0.168491
5018816506,11.855597,3.111804,5.852283,1.001101,-0.052390,-0.163788
5018836558,11.827108,3.436802,4.456646,0.991790,-0.067408,-0.138687
5018856610,13.001322,2.329673,5.839420,0.952776,-0.078512,-0.134018
5018876660,13.908181,0.735661,8.535125,0.971321,-0.062184,-0.164249
5018896712,11.494776,1.801007,6.629981,1.024728,-0.036266,-0.189982
5018916765,9.040130,2.945261,2.844998,1.006575,-0.027077,-0.192671
5018936817,7.964220,3.233620,0.343325,0.992971,-0.047537,-0.179079
5018956869,7.168307,3.047850,-0.595547,0.990468,-0.067689,-0.177410
5018976921,5.348074,3.225983,-0.557629,0.979275,-0.057478,-0.185969
5018996973,5.448560,3.020417,-0.754009,0.982909,-0.043960,-0.175102
5019017025,6.473267,2.333109,-1.252210,0.985911,-0.036049,-0.162358
5019037077,6.453606,1.575314,-1.014645,0.986506,-0.037657,-0.154155
5019057129,6.480391,0.658447,-0.768968,0.994436,-0.046478,-0.149544
5019097233,4.810349,0.865047,0.011538,0.976385,-0.025728,-0.144277
5019117286,2.362993,1.278793,0.738549,0.971988,-0.019012,-0.144113
5019137338,0.119988,1.966692,1.388754,0.978701,-0.032759,-0.147088
5019157390,-1.313562,2.173539,1.964544,0.981844,-0.044494,-0.148656
5019177442,-1.831393,2.163236,2.070866,0.980415,-0.050613,-0.150595
5019197494,-1.669701,1.852317,1.958197,0.980760,-0.053180,-0.145928
5019217546,-1.271708,1.467124,1.860858,0.977844,-0.054723,-0.145385
5019237598,-1.054716,0.814176,1.628084,0.983906,-0.060954,-0.149996
5019257650,-0.798650,0.308990,0.712682,0.997741,-0.062404,-0.145519
5019277702,-1.549616,-0.039703,0.373093,0.997637,-0.055789,-0.146687
5019297754,-2.417375,0.007190,0.282288,0.993189,-0.057378,-0.149154
5019317807,-3.041610,-0.094187,0.502646,0.990070,-0.057427,-0.145722
5019337860,-3.156543,-0.235572,1.071595,0.982219,-0.065899,-0.139681
5019357912,-3.354640,-0.318884,1.306899,0.996923,-0.068276,-0.143003
5019377964,-3.516860,0.300786,1.024399,0.996738,-0.063939,-0.144690
5019398017,-4.128551,0.880954,0.961982,0.993651,-0.057302,-0.150242
5019418069,-4.504022,1.657019,0.421334,0.996126,-0.064456,-0.148960
5019438121,-4.431564,2.356350,0.487109,0.988774,-0.082322,-0.145534
5019458173,-3.535647,2.780175,0.553546,0.984234,-0.095908,-0.141864
5019478225,-1.975957,2.829576,0.749882,0.982028,-0.102636,-0.135440
5019498277,0.147722,2.768406,0.885771,0.978142,-0.097095,-0.128534
5019518330,2.074369,2.538838,1.007150,0.977801,-0.087731,-0.121737
5019538381,3.042120,2.377573,0.916420,0.982992,-0.080218,-0.124514
5019558433,3.759207,2.258390,0.537632,0.983350,-0.071902,-0.127516
5019578486,3.866842,2.009005,0.606664,0.985065,-0.062383,-0.129250
5019598538,3.845020,1.661428,0.888291,0.984702,-0.055713,-0.132965
5019618590,3.731783,1.335933,1.154715,0.986086,-0.051237,-0.137915
5019638641,3.436436,1.097847,1.026797,0.995561,-0.051924,-0.136567
5019678745,2.721853,1.128442,0.602520,0.989056,-0.060111,-0.142608
5019698797,2.204971,0.943347,0.679128,0.994444,-0.064901,-0.141696
5019718849,1.925403,0.726504,0.293447,1.002321,-0.065386,-0.132274
5019738901,1.021949,0.669906,-0.516991,1.005811,-0.072567,-0.133075
5019758953,-0.026530,0.853319,-1.638941,1.007772,-0.083229,-0.135573
5019779005,-0.397291,1.062975,-2.912798,1.003835,-0.083558,-0.132598
5019799057,-0.130220,1.513053,-4.043708,0.996976,-0.083792,-0.128827
5019819110,-0.587728,2.179463,-5.031108,0.986784,-0.087468,-0.130129
5019839162,-0.294422,2.842471,-4.934969,0.977269,-0.089482,-0.123357
5019859214,0.600118,3.082171,-3.973581,0.966910,-0.091711,-0.112407
5019879266,2.105649,2.690911,-2.578232,0.955383,-0.088122,-0.107441
5019899318,3.575140,2.062010,-1.507946,0.962999,-0.083675,-0.102531
5019919370,4.307428,1.545526,-1.104738,0.972903,-0.075723,-0.100735
5019939422,4.926188,1.206700,-1.300840,0.981440,-0.072057,-0.112623
5019959474,5.166575,0.687525,-2.011557,0.990429,-0.058599,-0.113169
5019979527,5.763999,0.254913,-2.609013,0.995557,-0.049440,-0.121600
5019999579,6.033818,-0.209101,-3.031930,0.994126,-0.049509,-0.126245
5020019631,5.975224,-0.725038,-2.924027,0.991230,-0.049207,-0.130086
5020039683,5.777314,-1.041284,-2.308972,0.987380,-0.045014,-0.128526
5020059735,6.037064,-1.484364,-1.814904,0.986644,-0.042203,-0.128836
5020079787,6.310781,-1.616820,-1.435596,0.982257,-0.040382,-0.127888
5020099839,6.341280,-1.744236,-1.207798,0.988099,-0.040116,-0.129213
5020119893,6.309109,-1.410272,-1.186201,0.990760,-0.040151,-0.132102
5020139945,5.698898,-1.298657,-0.913529,0.988744,-0.038777,-0.131042
5020159997,5.491348,-1.137562,-0.436538,0.987818,-0.032972,-0.131570
5020180049,5.126003,-1.454950,0.171001,0.988920,-0.032177,-0.133298
5020200101,4.996365,-1.567700,0.482172,0.989864,-0.038115,-0.135768
5020220153,5.045894,-2.154235,0.120386,0.993162,-0.041034,-0.137074
5020240205,4.559929,-2.160295,-0.334161,0.993098,-0.040921,-0.141892
5020260257,3.760996,-2.181229,-0.417178,0.992071,-0.038880,-0.138742
5020280309,2.809235,-2.321695,-0.037412,0.990044,-0.037570,-0.135773
5020300362,1.835940,-2.742949,0.381223,0.983046,-0.037727,-0.139365
5020320414,1.900408,-3.471174,0.406446,0.980108,-0.038806,-0.150916
5020340466,2.031770,-3.887563,0.453309,0.981897,-0.039260,-0.144718
5020360518,1.652409,-4.080505,0.348001,0.985811,-0.040499,-0.143040
5020380570,0.724452,-4.005707,-0.068774,0.988659,-0.040765,-0.162193
5020400622,1.660407,-1.933051,-1.016035,0.967749,-0.038554,-0.188723
5020420673,2.770900,-1.076406,-2.353272,0.992506,-0.019470,-0.160322
5020440725,1.057946,-1.251780,-1.904909,1.041858,-0.000686,-0.144012
5020460777,-3.071693,0.234695,-0.279110,1.034119,-0.023591,-0.149891
5020480829,-5.024754,-0.423162,-0.245843,0.989645,-0.030980,-0.164299
5020500881,-4.498751,0.973176,-3.267264,0.977800,-0.020066,-0.155239
5020520934,-7.224998,1.483402,-3.798594,1.023178,-0.006844,-0.126987
5020540985,-12.850962,1.617498,-0.795820,1.030759,0.021182,-0.112352
5020561038,-19.908901,2.532042,1.052766,1.007217,0.072517,-0.134199
5020581090,-24.715471,3.731803,0.065050,0.960793,0.088884,-0.138898
5020601142,-29.291788,4.230994,-0.298857,0.962402,0.066732,-0.137994
5020621194,-35.747902,5.200739,1.253748,1.005132,0.052596,-0.141890
5020641246,-42.642555,8.814816,2.441184,0.990658,0.060903,-0.149723
5020661298,-48.458015,10.513064,2.088736,0.970387,0.056246,-0.141815
5020681350,-53.666977,9.431861,2.170075,1.004572,0.051582,-0.123705
5020701402,-62.523033,8.910515,4.509291,1.035649,0.070170,-0.131152
5020721455,-72.874161,8.919647,7.044256,1.019435,0.070824,-0.133729
5020741507,-81.247078,8.235209,8.307653,0.983989,0.058797,-0.130660
5020761559,-87.414726,6.674326,9.156456,0.959625,0.064804,-0.145353
5020781611,-91.009186,6.145182,10.826909,0.960995,0.048163,-0.152967
5020801663,-93.077484,4.821738,12.567775,0.961821,0.032954,-0.161964
5020821715,-94.435661,3.145025,14.135293,0.979095,0.032797,-0.169292
5020841767,-94.835838,1.867126,15.352470,0.983222,0.024279,-0.200338
5020861819,-90.312759,3.005876,15.475804,0.963693,-0.021974,-0.236113
5020881873,-81.506958,3.613050,14.750628,0.957607,-0.048744,-0.226485
5020901925,-75.418541,2.493052,11.432774,0.938523,-0.036674,-0.211764
5020921977,-71.874413,0.142833,8.286783,0.954311,0.016847,-0.194549
5020942029,-71.125137,-1.753768,7.724634,0.989835,0.028455,-0.195159
5020962081,-75.049232,-1.701959,9.165832,0.981489,0.015887,-0.195981
5020982134,-81.041725,-1.297443,12.092013,0.953851,0.010371,-0.221834
5021002185,-91.072517,-0.545371,12.934199,0.969042,-0.008718,-0.237592
5021022238,-100.169861,-0.278605,6.918773,1.084774,0.005515,-0.283196
5021042290,-98.442192,4.063710,1.522145,1.088897,-0.066376,-0.266339
5021062342,-87.301056,5.267142,0.233253,1.057194,-0.204014,-0.248067
5021082394,-77.498199,5.528547,0.221341,1.014374,-0.198273,-0.240257
5021102446,-67.759239,5.380836,-0.789562,0.979389,-0.163873,-0.198914
5021122498,-60.232635,5.755747,-0.907173,0.953523,-0.154350,-0.176941
5021142550,-54.510578,5.565355,0.281376,0.942077,-0.119570,-0.170063
5021162602,-48.913715,5.502437,2.545741,0.929523,-0.066228,-0.154683
5021182654,-46.721802,3.995047,5.604487,0.939784,-0.049238,-0.156261
5021202705,-47.239449,5.888746,7.864252,0.947786,-0.078207,-0.169320
5021222757,-43.152687,8.076612,9.863706,1.011168,-0.095471,-0.211114
5021242809,-38.491394,11.470243,11.063013,1.059496,-0.029338,-0.168185
5021262862,-38.893070,12.812872,13.696004,1.066118,0.032426,-0.100235
5021282914,-43.645203,14.665839,19.883291,0.977066,0.046011,-0.032042
5021302966,-53.780533,17.215656,19.400578,1.015442,0.061082,-0.038761
5021323018,-62.206123,16.994659,13.591232,1.053424,0.040290,-0.069152
5021343070,-73.265175,15.785061,6.641788,1.062706,0.032693,-0.093719
5021363122,-85.649574,14.520107,3.103531,1.012386,0.044395,-0.100027
5021383174,-96.418037,14.170815,5.814193,0.952214,0.024926,-0.105318
5021403226,-101.870308,11.415098,9.054235,0.901305,0.022280,-0.066296
5021423279,-103.719810,8.204739,6.322361,0.893152,0.027961,-0.093594
5021443331,-100.412354,8.115544,2.016663,0.921370,-0.000395,-0.149686
5021463383,-103.042374,9.611532,3.596431,0.921240,0.021723,-0.185206
5021483435,-107.579247,13.039088,8.853584,0.941925,0.029187,-0.187418
5021503487,-109.779373,14.671502,8.757782,1.064737,0.017659,-0.199229
5021523539,-110.375580,15.967480,4.236466,1.157878,0.039004,-0.220446
5021543591,-105.281380,16.228374,3.013572,1.114267,-0.000562,-0.210391
5021563643,-100.545105,13.720522,1.315289,1.057312,-0.080041,-0.174612
5021583695,-97.873619,11.133006,-2.435893,1.003062,-0.110287,-0.127295
5021603747,-94.412636,7.112432,-5.523044,0.946040,-0.110821,-0.072981
5021623800,-90.792473,3.259482,-8.679039,0.919694,-0.107685,-0.059208
5021643852,-85.611153,0.528326,-11.331656,0.899442,-0.112529,-0.038937
5021663904,-79.936325,-1.832991,-11.242139,0.920017,-0.117649,-0.031552
5021683957,-78.405144,-3.708278,-8.053050,0.932236,-0.084880,-0.048386
5021704009,-74.356102,-2.053941,-5.149849,0.956124,-0.038258,-0.134188
5021724062,-66.437874,-1.868751,-3.266099,0.994075,0.019307,-0.136312
5021744114,-59.076172,-1.445405,4.422506,1.059723,0.040576,-0.133093
5021764166,-60.896095,0.849658,15.048512,1.035539,0.042299,-0.129558
5021784218,-60.986160,2.997554,22.233572,1.013895,0.021555,-0.128290
5021804270,-60.569969,2.451333,24.258892,1.002294,0.033402,-0.130327
5021824322,-61.834579,1.043663,21.467548,1.022029,0.127594,-0.122462
5021844375,-71.778305,3.711854,14.314879,1.007037,0.222309,-0.085129
5021864427,-90.204880,6.273002,8.605552,0.994123,0.215918,-0.040613
5021884479,-106.648651,8.567629,7.906138,1.032063,0.102047,-0.048478
5021904531,-116.064270,9.338465,6.284882,1.053041,0.013913,-0.083936
5021924583,-117.596214,7.485271,1.752009,0.976992,-0.045371,-0.113690
5021944636,-110.020424,5.801074,1.308001,0.904336,-0.074482,-0.130682
5021964688,-102.877434,4.265020,3.122164,0.895215,-0.088592,-0.169482
5021984738,-105.909653,5.477606,10.705585,0.922883,-0.083601,-0.148622
5022004790,-107.759018,6.000874,12.523378,1.014753,-0.046467,-0.100777
5022024843,-111.614738,7.606107,5.061503,1.104801,0.037816,-0.123290
5022044895,-112.335159,8.277281,2.702386,1.082225,0.067548,-0.143788
5022064947,-112.747131,7.830861,0.968487,1.100389,0.055678,-0.157155
5022084999,-111.625603,6.062330,-2.527289,0.994356,0.048107,-0.136461
5022105051,-106.272247,2.308733,-4.971812,0.930887,-0.040980,-0.104525
5022125103,-100.661507,-1.304754,-7.136486,0.924266,-0.122181,-0.069823
5022145155,-93.278259,-4.131742,-10.411017,0.903191,-0.166394,-0.045013
5022165207,-86.043869,-6.319464,-13.286017,0.927394,-0.168342,-0.051544
5022185259,-78.996094,-7.790271,-13.056046,0.957326,-0.137998,-0.056318
5022205311,-76.592239,-7.921055,-12.215175,0.977679,-0.109347,-0.121124
5022225363,-69.427040,-3.111804,-10.642673,1.020867,-0.067271,-0.184652
5022245416,-62.917320,-3.314168,1.012181,1.060277,0.029810,-0.206581
5022265468,-61.178535,1.232242,14.615293,1.036039,0.056060,-0.190607
5022285520,-60.394058,2.401831,21.060678,1.071520,0.073263,-0.155564
5022305572,-66.501648,2.924264,21.151966,1.051740,0.065984,-0.121265
5022325624,-75.225090,0.480088,23.020287,1.048056,0.125737,-0.129254
5022345677,-87.179260,0.377782,21.607561,1.036582,0.232382,-0.122481
5022365728,-104.060349,4.579152,15.566144,0.988514,0.262095,-0.102080
5022385781,-117.984436,8.352049,11.935277,0.929856,0.190067,-0.059583
5022405833,-125.398865,8.609114,8.640141,0.943419,0.031663,-0.039113
5022425885,-129.245819,6.015993,5.937156,0.995208,-0.090460,-0.041604
5022445938,-130.294449,5.907275,5.437687,0.956445,-0.078299,-0.106820
5022465991,-131.634369,6.738745,9.838666,0.940124,-0.027204,-0.178599
5022486043,-129.039688,6.663991,13.331913,0.922943,-0.047698,-0.192298
5022506095,-123.710701,3.678904,9.990437,1.054168,-0.082508,-0.181513
5022526147,-118.018471,3.505700,7.935142,1.066737,-0.084036,-0.163138
5022546199,-109.304245,2.062026,8.331170,1.019968,-0.091726,-0.128027
5022566251,-103.432983,0.856859,3.778314,1.028186,-0.083669,-0.118610
5022586303,-101.380280,-0.379372,-1.735626,0.992440,-0.089369,-0.098621
5022606355,-98.085152,-2.834044,-5.532958,0.949987,-0.122966,-0.071449
5022626407,-94.684250,-5.571073,-8.472931,0.940449,-0.117436,-0.064492
5022646459,-92.012299,-7.706161,-10.315775,0.935445,-0.125721,-0.077701
5022666511,-87.888527,-8.878388,-10.267707,0.952413,-0.120517,-0.097726
5022686563,-84.241821,-9.625133,-6.082826,0.980277,-0.074279,-0.115332
5022706616,-78.962318,-9.965778,-4.188762,1.012068,-0.097642,-0.114745
5022726668,-76.188530,-7.360941,-4.517025,1.021462,-0.151055,-0.166591
5022746719,-66.931374,-2.070030,-3.371339,0.973425,-0.071064,-0.207665
5022766771,-58.467869,-3.243271,5.209121,1.064927,-0.026785,-0.193987
5022786823,-60.719967,3.645085,15.129766,1.059833,0.005643,-0.180948
5022806875,-66.079704,5.952203,16.942642,1.108029,0.050865,-0.151774
5022846979,-82.245285,3.315758,15.320333,1.041412,0.133557,-0.166109
5022867032,-97.949936,5.017620,6.581429,0.983888,0.201827,-0.122682
5022887084,-113.923035,9.350623,2.403664,0.929102,0.173616,-0.047128
5022907136,-125.808136,11.744284,1.846314,0.939130,0.057130,-0.004538
5022927188,-131.578964,10.247486,-0.776406,1.007662,-0.026396,-0.036350
5022947240,-132.758591,9.358333,-2.099247,0.966306,-0.047343,-0.078207
5022967292,-134.118073,9.529255,2.311594,0.931843,-0.030698,-0.148262
5022987344,-127.758858,7.987184,9.969428,0.963327,-0.067593,-0.166425
5023007396,-118.400642,6.708913,8.250133,1.071617,-0.111825,-0.188502
5023027449,-108.563492,7.103630,6.479431,1.019828,-0.076310,-0.142838
5023047500,-100.219002,4.783636,4.347237,0.996316,-0.075762,-0.113474
5023067552,-94.683929,2.015964,0.360725,1.015673,-0.071656,-0.089663
5023087604,-91.119499,-0.736480,-3.981360,0.994894,-0.093059,-0.064570
5023107657,-86.734177,-2.577226,-6.667083,0.966593,-0.098798,-0.054888
5023127709,-81.897041,-4.065611,-8.126386,0.944547,-0.102043,-0.056007
5023147761,-75.985962,-5.305144,-7.366288,0.932043,-0.112140,-0.048526
5023167813,-70.637047,-6.374988,-4.408682,0.932785,-0.091959,-0.060660
5023187865,-65.474075,-6.973110,-1.096424,0.956585,-0.065218,-0.075070
5023207919,-61.086456,-8.774763,1.181935,0.983068,-0.065823,-0.051427
5023227971,-61.790520,-8.582654,2.272889,1.021976,-0.063963,-0.079983
5023248023,-58.716984,-6.459259,4.727657,1.035962,-0.023054,-0.137978
5023268075,-54.042057,-5.869941,9.036417,1.055898,0.017514,-0.137761
5023308179,-54.164619,-2.289158,23.128561,1.019316,0.069577,-0.112812
5023328231,-59.516022,-3.335538,25.256149,1.049596,0.051208,-0.105841
5023348284,-68.535812,-4.643019,24.710546,1.050154,0.106162,-0.119651
5023368336,-82.915787,-4.309391,21.516113,1.029657,0.218154,-0.131635
5023388388,-100.761375,-0.367107,15.119716,0.979278,0.249563,-0.106636
5023408440,-114.244667,3.545321,11.488214,0.959815,0.127488,-0.069189
5023428492,-120.462921,4.103446,10.139414,0.982431,-0.013231,-0.077851
5023448544,-122.884033,3.275608,8.991113,0.989689,-0.076295,-0.117968
5023468596,-119.715393,4.899386,7.983985,0.957305,-0.051846,-0.189007
5023488649,-120.947418,7.426690,11.530239,0.930070,-0.053533,-0.207630
5023508717,-119.129333,6.083919,14.596128,1.001841,-0.100167,-0.188496
5023528752,-112.807785,4.837355,12.627682,1.081541,-0.136171,-0.189786
5023548803,-103.244637,3.809311,10.649769,1.036752,-0.181312,-0.162679
5023568856,-94.522736,2.223399,5.369645,1.020674,-0.164989,-0.149622
5023588908,-87.504478,0.600453,-0.402385,0.998276,-0.156548,-0.127612
5023608960,-82.431557,-1.309507,-3.936953,0.955235,-0.186889,-0.095029
5023629012,-78.428421,-3.943758,-4.459805,0.923625,-0.172683,-0.075151
5023649064,-75.854401,-6.831914,-5.238966,0.907237,-0.133812,-0.067264
5023669116,-73.637665,-8.895016,-4.838527,0.903351,-0.116541,-0.066128
5023689168,-71.284416,-10.022546,-3.099885,0.916935,-0.100454,-0.074216
5023709220,-71.855682,-11.352682,-0.366676,0.963800,-0.078611,-0.117125
5023729273,-67.783493,-9.271482,1.587676,0.992136,-0.062751,-0.169003
5023749325,-59.396748,-8.516399,6.660039,1.038215,-0.011325,-0.201626
5023769377,-59.271164,-3.741371,13.684393,1.062465,-0.014892,-0.168695
5023789429,-61.082943,-1.177256,17.647566,1.045204,0.023846,-0.182807
5023809481,-64.252457,-1.272971,18.990480,1.045807,0.059027,-0.194298
5023829533,-72.626617,-1.826918,20.480797,1.057554,0.124348,-0.209240
5023849586,-85.795212,-2.789378,22.353149,1.039266,0.198948,-0.205870
5023869638,-102.175323,1.006238,17.654430,1.015234,0.200873,-0.181797
5023889690,-113.272934,6.021235,10.645657,0.943626,0.095989,-0.122197
5023909742,-122.912491,9.441697,8.075558,0.945601,-0.024347,-0.119064
5023929794,-129.410812,10.387763,8.332258,0.997634,-0.120235,-0.129582
5023949846,-130.176193,10.198070,10.334024,1.004673,-0.112806,-0.183240
5023969898,-124.025078,8.998693,12.389901,1.015878,-0.127904,-0.205252
5023989952,-113.954872,7.486186,12.505272,1.002787,-0.184806,-0.198688
5024010004,-103.471054,5.430128,12.675423,0.965607,-0.177088,-0.174139
5024030056,-95.488098,3.596947,11.064626,0.954649,-0.146858,-0.155026
5024050108,-86.712090,1.881851,5.709140,0.984655,-0.128249,-0.135307
5024070160,-80.811897,-0.035440,0.165884,0.978710,-0.128358,-0.116444
5024090212,-76.720146,-1.931105,-3.694285,0.951049,-0.147363,-0.100515
5024110264,-71.614441,-3.423023,-5.987356,0.933243,-0.174023,-0.113329
5024130316,-66.707726,-4.175095,-6.335115,0.933180,-0.181671,-0.114423
5024150369,-61.283913,-4.311555,-4.714646,0.944875,-0.172956,-0.123166
5024170421,-55.753788,-4.499210,-2.896986,0.961470,-0.162823,-0.128709
5024190473,-52.291107,-5.712411,-0.248962,0.998838,-0.140666,-0.122520
5024210525,-49.290123,-3.212168,3.045797,1.032105,-0.086072,-0.179537
5024230577,-40.058880,-1.618179,6.652235,1.045488,-0.036367,-0.232276
5024250629,-41.776962,0.322302,7.949731,1.031279,0.008475,-0.194634
5024270682,-46.509644,2.142574,12.553123,1.057223,0.068886,-0.218325
5024290732,-52.324474,4.363890,16.867510,1.073323,0.054654,-0.173876
5024310784,-61.537624,6.050562,20.586191,1.056366,0.040531,-0.135752
5024330837,-67.803787,7.262363,21.804422,1.006940,0.083465,-0.092611
5024350889,-73.222687,9.516278,20.078129,0.953552,0.087676,-0.069409
5024370941,-83.031944,13.514982,14.292620,0.953988,0.081499,-0.062972
5024390993,-97.836983,16.771221,7.912680,1.002136,0.053477,-0.066760
5024411045,-108.202446,16.830881,4.065993,0.999104,0.004782,-0.085122
5024431097,-110.137344,14.475080,3.294156,0.996678,-0.064027,-0.118879
5024451149,-102.933037,11.629927,4.521649,0.980819,-0.112906,-0.141873
5024471201,-100.320236,10.239783,6.480896,0.931403,-0.122836,-0.136111
5024491254,-101.251488,8.860257,10.176928,0.945652,-0.060505,-0.125279
5024511306,-104.120346,7.392340,12.706782,0.976730,-0.030344,-0.091963
5024531358,-101.076332,6.559278,8.691741,1.014855,-0.043014,-0.119902
5024551410,-92.776596,5.571590,3.606757,1.022195,-0.100835,-0.129996
5024571462,-84.063507,4.682034,0.400873,1.014959,-0.127694,-0.126464
5024591514,-77.038689,4.583702,-1.996199,0.967563,-0.110239,-0.105644
5024611566,-73.695168,3.494731,-3.577619,0.931841,-0.082218,-0.091135
5024631618,-71.103195,1.683493,-4.549971,0.931667,-0.061450,-0.087378
5024651670,-69.880127,-1.166978,-3.979734,0.942986,-0.082248,-0.094964
5024671722,-67.424858,-2.331321,-3.362686,0.958012,-0.093492,-0.102089
5024691775,-63.825085,-2.523958,-2.734230,1.000968,-0.099974,-0.117341
5024711827,-58.305931,-1.361111,-2.232379,1.023272,-0.121723,-0.116750
5024731879,-54.141415,-0.635175,-0.993389,1.009347,-0.109770,-0.111079
5024751933,-52.910355,0.123819,1.299988,1.009379,-0.056812,-0.111874
5024771985,-55.458088,0.772874,2.124750,1.030535,0.019389,-0.104244
5024792037,-61.483589,0.928801,0.602952,1.038098,0.052200,-0.104571
5024812089,-64.506081,-0.078880,-3.144101,1.003383,0.053161,-0.108281
5024832141,-64.530685,-1.233200,-3.178010,0.994741,-0.022181,-0.089385
5024852193,-64.671791,-0.575615,0.101462,1.013374,-0.151661,-0.092934
5024892297,-50.013752,-2.503882,13.722362,0.931922,-0.023840,-0.196328
5024912349,-42.666527,-2.963101,13.941161,1.025964,0.031250,-0.170305
5024932402,-35.633583,-2.695162,10.633348,1.074260,-0.098322,-0.101936
5024952454,-28.371458,-3.908677,6.921299,1.021393,-0.273866,-0.062471
5024972506,-23.955286,-3.448298,5.531217,0.962743,-0.330239,-0.075594
5024992558,-16.148787,-0.180463,6.396382,0.913932,-0.234820,-0.085770
5025012610,-5.769214,1.611380,4.105307,0.960826,-0.137162,-0.093929
5025032662,4.970769,1.562113,-1.567344,1.052275,-0.110706,-0.062141
5025052717,11.479445,0.185932,-5.013306,1.054278,-0.122115,-0.040546
5025072765,16.085499,-2.414359,-9.181964,1.015551,-0.179608,-0.045972
5025092817,21.317507,-3.391538,-14.235594,0.994845,-0.211781,-0.043474
5025112869,27.441879,-1.169373,-17.307293,0.996505,-0.172952,-0.035005
5025132922,29.775808,-0.386161,-14.726385,1.019074,-0.117787,-0.024668
5025173026,30.524822,2.512089,2.172019,0.923823,0.158295,-0.165320
5025193078,32.051331,2.315895,18.739761,1.040757,0.306814,-0.140853
5025213130,27.215803,0.680393,31.585844,1.045955,0.269045,-0.184458
5025233182,15.591998,-1.808388,36.593021,1.134605,0.298416,-0.190077
5025253234,4.188165,-0.892814,32.311749,1.055129,0.335391,-0.165257
5025273286,-6.474295,6.349151,20.474934,0.932036,0.421688,-0.204846
5025293339,-29.697699,16.542160,15.263937,0.913111,0.357428,-0.101446
5025313391,-56.703434,24.743681,19.549976,1.171381,0.335039,-0.105718
5025333443,-77.254066,31.704407,20.245609,1.205469,0.321060,-0.097316
5025353495,-100.740318,36.506832,15.235174,1.115549,0.388769,-0.094739
5025373547,-130.865952,38.784649,18.807560,1.016278,0.502411,-0.106301
5025393599,-158.192764,38.458336,19.470045,0.991927,0.419742,-0.172044
5025413652,-180.798248,38.735134,18.188581,0.971184,0.258516,-0.223311
5025433704,-196.641586,38.628983,16.587757,0.893444,0.194881,-0.226579
5025453756,-217.007828,34.549255,14.373157,0.853008,0.217053,-0.213762
5025473808,-241.136887,27.144617,13.687119,0.832474,0.271643,-0.237170
5025493860,-256.960114,21.897839,8.314521,0.879552,0.301643,-0.351789
5025513913,-255.499817,24.133858,1.462505,0.837915,0.152733,-0.530403
5025533965,-252.461365,26.958599,-1.572296,0.680054,0.125012,-0.647260
5025554018,-264.105011,27.679462,-3.988390,0.835610,0.032615,-0.683805
5025574070,-263.510101,24.119408,-15.299294,1.477576,-0.145432,-0.684918
5025594122,-232.955597,21.069471,-21.355070,1.560214,-0.338825,-0.579940
5025614174,-214.175812,15.698766,-17.303555,1.192616,-0.354153,-0.444588
5025634226,-209.146378,9.452913,-22.149485,0.987116,-0.222900,-0.383308
5025654278,-213.148987,0.632335,-26.240643,0.862509,-0.073682,-0.336296
5025674330,-216.744217,-7.044156,-31.108934,0.839959,0.013161,-0.327463
5025694382,-215.896408,-11.555988,-32.351791,0.791904,0.007940,-0.323018
5025714434,-211.108109,-14.427942,-32.858944,0.771044,-0.116259,-0.326091
5025734486,-207.398727,-16.940622,-31.866320,0.959075,-0.186450,-0.345848
5025774591,-184.965683,0.596851,-1.042774,1.003868,0.188675,-0.616164
5025794643,-183.259827,9.860880,31.044327,1.207824,0.212079,-0.631076
5025814695,-182.101440,17.617790,39.134258,1.173519,0.120462,-0.487570
5025834746,-188.186234,21.020157,33.637497,1.211557,0.173296,-0.471007
5025854799,-203.691864,25.738113,33.414459,1.147416,0.119007,-0.528363
5025874851,-215.754196,28.106922,15.956181,1.025907,0.109149,-0.416959
5025894902,-222.425003,23.227816,-3.123644,0.939661,-0.114522,-0.351363
5025914955,-237.969681,20.083008,-17.310329,0.967458,-0.213627,-0.316028
5025935007,-257.595245,18.004049,-12.453342,0.980665,0.119430,-0.402585
5025955059,-279.695801,22.014374,10.626082,0.791312,0.354307,-0.519342
5025975111,-290.766663,20.701818,17.379753,0.827221,0.445488,-0.578673
5025995163,-274.042908,22.372938,5.075070,1.229531,-0.181436,-0.622823
5026015216,-249.900070,23.392895,0.955308,1.023117,-0.790139,-0.518359
5026035267,-225.793015,10.947435,-1.564357,0.791572,-0.614556,-0.313089
5026055319,-208.462067,0.183340,-15.683249,0.824645,-0.398922,-0.277542
5026075371,-196.982376,-8.040758,-32.658527,0.798356,-0.269526,-0.227604
5026095423,-193.385086,-15.286308,-44.025993,0.895655,-0.138625,-0.250605
5026115475,-196.374481,-19.839882,-41.909885,0.965647,0.016262,-0.339696
5026135528,-196.097992,-26.709745,-26.531343,1.017373,0.024047,-0.458296
5026155580,-199.739349,-33.873352,-5.549566,1.055048,-0.077032,-0.256550
5026175632,-186.110779,-30.746019,7.857220,1.024463,-0.021624,-0.323117
5026195684,-164.787750,-14.035361,21.979979,1.241986,-0.417021,-0.483863
5026215737,-148.209717,2.194673,26.260992,1.101738,-0.593651,-0.405106
5026235789,-125.252434,6.408064,18.151688,1.160794,-0.508553,-0.288886
5026255841,-100.318283,10.587148,10.974020,1.208710,-0.548941,-0.184652
5026275894,-74.141075,15.375736,7.643928,1.101012,-0.585248,-0.114378
5026295946,-44.791267,18.343828,8.464688,0.999877,-0.546260,-0.066106
5026315998,-17.621895,17.890827,8.380946,0.971133,-0.539940,0.044133
5026336051,-0.492335,15.227507,12.484342,0.945807,-0.465867,0.081813
5026356103,10.847866,11.003902,18.338303,0.888065,-0.352483,0.077638
5026376155,20.615046,8.117453,17.594509,0.881104,-0.279254,0.046658
5026396207,28.754135,4.352736,9.328412,0.893171,-0.307725,0.055253
5026416259,37.311089,0.487325,7.497048,0.877424,-0.354177,0.043227
5026436311,50.785027,-2.715978,10.428846,0.902971,-0.308743,0.001348
5026456363,65.212570,-4.080994,8.958179,0.937542,-0.440122,-0.029604
5026476415,84.457253,-6.720420,7.467483,1.019400,-0.565428,-0.043388
5026496468,111.104752,-7.957369,7.606414,1.021492,-0.631826,-0.087138
5026516520,145.786713,-10.460388,5.723313,1.025557,-0.693668,-0.143105
5026536572,177.023315,-12.385142,1.611214,1.065386,-0.674897,-0.228471
5026556624,202.735443,-10.570965,1.398907,1.103728,-0.576555,-0.302136
5026576676,223.564301,-7.878899,6.983187,1.004740,-0.462549,-0.377592
5026596727,243.572174,-6.900783,12.497870,0.899554,-0.455039,-0.446588
5026616779,267.704254,-9.690348,17.008512,0.903709,-0.467764,-0.511485
5026636831,285.284607,-11.263927,21.297468,0.937886,-0.410726,-0.569251
5026656883,298.658325,-13.261303,25.346832,0.899387,-0.321291,-0.624908
5026676935,309.122192,-14.421110,25.604851,0.865762,-0.251329,-0.708934
5026696987,326.149567,-20.416882,16.699116,0.843734,-0.351009,-0.789369
5026717039,343.624573,-27.305830,4.158402,0.964430,-0.506587,-0.803889
5026737092,353.677216,-18.550959,0.032077,1.108270,-0.552514,-0.995377
5026757144,356.329346,-4.160164,6.378201,1.257033,-0.138170,-1.136899
5026777196,334.161835,4.457796,25.849344,1.482945,0.336274,-1.063627
5026797248,305.580261,2.361627,32.437531,1.409035,0.750143,-0.808103
5026817300,273.122986,-10.895311,40.482803,1.126320,0.637926,-0.547879
5026837352,243.689331,-23.551884,46.705994,0.934761,0.248132,-0.443117
5026857404,233.488937,-33.421036,51.253052,0.813201,-0.002511,-0.467070
5026877456,241.565933,-40.486462,46.909084,0.748651,-0.083242,-0.441510
5026897509,247.835648,-44.473419,37.848618,0.780289,-0.103390,-0.432054
5026917561,250.792511,-47.994183,31.493389,0.866312,-0.108204,-0.438841
5026937613,249.691635,-49.601665,30.544365,0.930706,-0.004637,-0.449399
5026957665,247.464127,-52.097237,28.386162,0.960148,0.110994,-0.475158
5026977717,247.890823,-57.100384,23.128296,0.922760,0.061460,-0.464217
5026997769,246.726410,-62.825661,19.366535,0.977599,-0.062973,-0.457116
5027017821,242.038269,-64.901268,20.125645,1.053325,-0.143680,-0.457918
5027037873,236.811630,-65.871590,20.949347,1.137510,-0.183663,-0.522477
5027057927,238.302353,-65.742599,18.204798,1.164973,-0.205879,-0.561923
5027077979,241.875977,-66.301933,14.908628,1.078771,-0.265963,-0.569746
5027098031,245.944412,-66.322144,13.512745,1.081130,-0.309932,-0.608119
5027118083,246.658081,-62.402405,9.565509,1.067543,-0.208213,-0.596032
5027138135,242.237427,-58.554810,4.324318,0.951516,-0.064776,-0.547892
5027178240,220.391998,-56.075600,-21.551136,1.030809,0.100905,-0.518256
5027198292,197.975693,-46.042572,-32.468819,1.170608,0.106611,-0.528328
5027218344,177.440277,-33.304497,-28.193098,1.196051,0.207692,-0.471333
5027238396,166.318024,-30.566006,-12.275250,1.157506,0.305644,-0.445566
5027258448,156.562958,-35.879211,-3.257303,1.070327,0.367963,-0.285767
5027278500,134.825562,-43.819931,2.431572,0.983161,0.383875,-0.213952
5027298553,118.402588,-50.413216,2.028042,0.981482,0.271064,-0.166671
5027318605,105.604904,-47.015125,-0.813717,0.993207,0.206427,-0.081771
5027338657,90.853729,-39.887169,-6.062594,0.907595,0.175277,-0.080382
5027358708,80.094162,-36.605980,-13.876459,0.879773,0.150781,-0.111924
5027378759,75.010849,-32.142815,-23.121229,0.866546,0.101306,-0.132530
5027398811,70.942101,-28.132299,-29.371105,0.903629,0.034419,-0.126676
5027418864,65.453087,-23.363001,-29.431093,1.029255,0.046432,-0.163823
5027438916,56.862164,-17.303364,-27.531490,1.070029,0.064288,-0.192279
5027458968,47.425716,-14.427047,-25.135567,1.141482,0.069315,-0.175653
5027479020,35.900120,-12.358128,-19.810654,1.197043,0.095627,-0.180380
5027499072,26.643608,-8.795417,-14.711471,1.170126,0.095343,-0.145123
5027519124,19.823235,-4.085404,-11.974150,1.122447,0.075158,-0.119598
5027539176,13.024158,0.924893,-12.186087,1.093513,0.040035,-0.080498
5027559229,5.669374,4.645747,-12.840545,1.070018,0.018129,-0.058417
5027579280,-2.733357,7.393847,-12.574230,1.021443,0.045346,-0.028175
5027599333,-12.908653,9.393117,-11.243659,1.001782,0.083648,-0.021487
5027619385,-23.870676,10.137952,-9.385542,0.998897,0.100964,-0.004531
5027639437,-36.034904,10.708877,-7.374827,0.963240,0.079894,0.008002
5027659489,-46.928265,11.363782,-5.402741,0.971477,0.053724,0.000093
5027679541,-53.422134,12.197545,-3.705654,0.958259,0.038278,-0.023452
5027699593,-55.643421,12.277295,-4.402415,0.937951,-0.015164,-0.047153
5027719646,-55.651882,11.713297,-5.938997,0.946164,-0.063960,-0.055255
5027739698,-56.478329,12.618498,-6.002458,0.980134,-0.052204,-0.070782
5027759750,-54.054482,12.712279,-4.487839,0.978868,-0.075638,-0.076518
5027779802,-49.962967,11.634257,-3.917134,0.977017,-0.125129,-0.093590
5027819908,-39.520416,8.097335,-2.582286,1.009052,-0.185772,-0.069576
5027839960,-35.077076,8.123447,-1.848773,1.035136,-0.152733,-0.056687
5027860012,-32.426945,7.717709,-1.522408,1.047960,-0.138068,-0.043314
5027880064,-29.380518,6.810925,-0.406243,1.027502,-0.129274,-0.041471
5027900116,-26.478559,6.165295,0.140651,1.013459,-0.120235,-0.029769
5027920168,-24.093189,5.333850,0.650471,1.006634,-0.111852,-0.020644
5027940221,-22.731764,5.525331,0.709966,0.982519,-0.111879,-0.012454
5027960272,-22.352249,5.987869,0.230765,0.973493,-0.107567,-0.014476
5027980325,-20.360939,7.271517,1.870278,0.960242,-0.094077,-0.015817
5028000386,-19.811300,8.212189,2.389792,0.955787,-0.080363,-0.009100
5028020429,-20.108652,8.286449,2.435114,0.974159,-0.076521,-0.003743
5028040481,-19.910654,8.744966,1.508832,0.998751,-0.097471,-0.004871
5028060533,-18.593796,9.525890,-0.010111,1.013327,-0.136338,0.000681
5028080585,-16.327866,9.433941,1.111098,0.999389,-0.136622,0.014763
5028100637,-14.110499,8.501326,4.993961,0.987412,-0.111847,0.008211
5028120692,-12.175638,7.265452,6.839229,1.009883,-0.106673,-0.001959
5028140740,-10.304203,6.586703,5.620701,1.010967,-0.123917,-0.007205
5028160792,-9.088316,4.305068,4.915715,0.986266,-0.127733,0.009387
5028180844,-7.899143,1.650270,6.447817,0.964177,-0.109492,0.004929
5028200897,-5.526080,-0.976759,6.349934,0.978329,-0.105312,-0.016377
5028220949,-4.317422,-2.831923,4.665795,1.002441,-0.088277,-0.016948
5028241001,-4.630229,-4.691650,2.633573,1.006424,-0.068403,-0.006426
5028261053,-8.125608,-6.168954,3.132519,0.972431,-0.046685,0.011804
5028281105,-15.212512,-7.860098,3.542513,0.951086,-0.052476,0.016810
5028301157,-21.323910,-9.787797,3.952981,0.969648,-0.042285,0.002191
5028321209,-25.677507,-11.515323,4.187826,0.998622,-0.025311,-0.003435
5028341261,-28.732243,-11.862836,2.818302,0.983077,-0.025399,-0.026356
5028361314,-27.357391,-11.932942,1.120376,0.967852,-0.083017,-0.044247
5028381366,-25.925152,-11.889132,0.566459,0.994730,-0.106053,-0.045517
5028401418,-24.037609,-11.366481,-0.368214,1.021487,-0.113683,-0.049510
5028421470,-20.287823,-10.705288,-0.530964,1.016962,-0.125773,-0.049220
5028441522,-15.691541,-10.199959,-1.004210,1.003048,-0.138516,-0.048717
5028461574,-10.935195,-9.881592,-1.196446,1.002216,-0.144845,-0.059192
