Timestamp (us),Gyroscope X (deg/s),Gyroscope Y (deg/s),Gyroscope Z (deg/s),Accelerometer X (g),Accelerometer Y (g),Accelerometer Z (g)
7623530054,-0.167608,-0.184442,0.109270,0.357759,0.861772,-0.352147
7623550083,-0.107433,-0.336967,0.118162,0.360714,0.862953,-0.354827
7623570113,-0.237337,-0.373828,0.270051,0.359667,0.861704,-0.358142
7623590143,-0.473796,-0.608740,0.211252,0.360447,0.861413,-0.355850
7623610173,-0.662292,-0.295971,0.117550,0.358316,0.858446,-0.360294
7623630202,-0.958072,-0.279868,-0.087445,0.361171,0.860533,-0.361963
7623650232,-1.343652,0.239712,-0.107159,0.360523,0.860111,-0.367181
7623670262,-1.881984,0.523862,-0.208372,0.362554,0.860293,-0.369246
7623690292,-2.428580,0.640575,-0.315766,0.359889,0.860082,-0.361440
7623710323,-2.310009,1.690120,-0.392760,0.355463,0.863947,-0.332080
7623730353,-1.575971,0.887192,-0.332589,0.358384,0.862878,-0.339346
7623750383,-1.330523,-0.193914,-0.012526,0.369397,0.865149,-0.334307
7623770413,-0.697053,0.205359,-0.250618,0.358757,0.871386,-0.330314
7623790442,0.051372,-2.110092,0.497068,0.355965,0.872286,-0.325513
7623810472,1.231441,-3.249098,0.916636,0.364528,0.873210,-0.321165
7623830501,2.334658,-1.597236,0.418045,0.360836,0.870972,-0.324076
7623850531,3.321745,-1.723435,0.662210,0.352027,0.867244,-0.331466
7623870575,3.950371,-2.182901,0.833178,0.359599,0.863701,-0.341235
7623890589,4.150074,-1.750351,0.753821,0.351799,0.858130,-0.361681
7623910619,3.611437,-1.442958,0.773726,0.365951,0.857140,-0.378897
7623930649,2.893860,0.948318,-0.012492,0.350725,0.858664,-0.374109
7623950679,2.614730,3.087615,-0.341456,0.366743,0.853764,-0.378824
7623990738,1.254789,1.412371,-0.411451,0.393857,0.849553,-0.372854
7624010768,0.831165,0.258388,-0.182085,0.362589,0.857331,-0.361148
7624030798,0.910595,2.425114,-0.844719,0.365019,0.857547,-0.353894
7624050827,0.976874,0.263981,-0.553585,0.375320,0.856136,-0.357209
7624070857,1.212939,0.323497,-0.591881,0.347109,0.862249,-0.344373
7624090887,1.658153,-0.218115,-0.238341,0.353543,0.863328,-0.348915
7624110917,2.067486,-0.196099,0.163524,0.351459,0.865920,-0.353854
7624130948,2.264426,-0.333973,0.217851,0.358833,0.859283,-0.363930
7624150978,2.042388,-0.644594,0.303755,0.361697,0.858194,-0.367636
7624171007,1.837171,-0.597710,0.341173,0.363197,0.858656,-0.370438
7624211067,1.356496,-0.983255,0.374506,0.359037,0.854748,-0.367437
7624231097,1.212121,-0.944356,0.396856,0.357665,0.854207,-0.367008
7624251126,1.051817,-1.057503,0.450804,0.356202,0.857392,-0.364903
7624271156,1.044763,-0.813437,0.585229,0.358485,0.856838,-0.366058
7624291185,0.884215,-1.102133,0.496590,0.362022,0.857121,-0.371475
7624311214,0.694715,-0.948846,0.510375,0.364568,0.853019,-0.373572
7624331244,0.156002,-0.885966,0.251795,0.363208,0.852789,-0.379621
7624351274,-0.337454,-0.777095,0.159657,0.362618,0.851356,-0.383204
7624371304,-1.094807,-0.286908,-0.132945,0.361097,0.850556,-0.384971
7624391334,-1.784518,0.157862,-0.243163,0.358837,0.851936,-0.384995
7624411364,-2.305817,0.784011,-0.476135,0.357731,0.855174,-0.376675
7624431393,-2.576238,1.447068,-0.656222,0.355482,0.855253,-0.372147
7624451423,-2.765763,1.600380,-0.634855,0.359347,0.860087,-0.361632
7624471452,-2.566715,1.903663,-0.675215,0.360115,0.861120,-0.352206
7624491482,-2.065861,1.726173,-0.605244,0.360559,0.860172,-0.346182
7624511512,-1.474583,1.319728,-0.571217,0.360910,0.861891,-0.344609
7624531543,-0.989166,1.196059,-0.365227,0.360960,0.861546,-0.347989
7624551573,-0.563838,1.056670,-0.401761,0.358690,0.861048,-0.353965
7624571603,-0.495361,1.086830,-0.379235,0.359892,0.862173,-0.360690
7624591632,-0.580328,0.737045,-0.406668,0.361406,0.860517,-0.359586
7624611662,-0.625478,0.790311,-0.482958,0.360460,0.858601,-0.357975
7624631692,-0.594767,0.942711,-0.385655,0.358996,0.860150,-0.356524
7624651722,-0.434725,0.949119,-0.491781,0.357198,0.860680,-0.351619
7624671752,-0.276815,0.667263,-0.307368,0.359421,0.862011,-0.348010
7624691780,0.124864,0.414208,-0.229228,0.361422,0.861273,-0.348623
7624711810,0.389508,0.123845,-0.143258,0.360005,0.861114,-0.350930
7624731839,0.685949,0.183499,-0.045048,0.360309,0.862338,-0.358217
7624751869,0.653984,-0.158702,0.003302,0.360127,0.860341,-0.359152
7624771899,0.506399,-0.812061,0.145195,0.360379,0.860785,-0.357591
7624791929,0.535483,-1.032519,0.275956,0.359103,0.861212,-0.351309
7624811958,0.897239,-1.635015,0.501070,0.358740,0.861090,-0.345564
7624831988,1.416456,-2.641199,0.896458,0.357888,0.866624,-0.340780
7624852018,2.198619,-2.820179,0.966578,0.363380,0.866573,-0.337861
7624872048,2.952663,-2.634467,0.790994,0.359372,0.863208,-0.350191
7624892078,3.077693,-3.311087,1.236498,0.358484,0.858291,-0.365314
7624912107,2.752069,-3.119606,1.075509,0.358810,0.852381,-0.383074
7624932137,1.856499,-2.711373,1.094394,0.359011,0.846185,-0.398740
7624952169,0.346753,-2.125786,0.823374,0.362230,0.840127,-0.409972
7624972198,-1.199891,-1.273623,0.542515,0.359640,0.839853,-0.407004
7624992228,-2.707692,-0.414867,0.018992,0.359999,0.843483,-0.405139
7625012258,-4.057021,0.329612,-0.283614,0.359703,0.852255,-0.393834
7625032288,-4.874830,0.995542,-0.471572,0.355308,0.860048,-0.382056
7625052318,-5.291215,1.401035,-0.513088,0.354359,0.862424,-0.366712
7625072347,-5.290292,1.644678,-0.492387,0.359668,0.861035,-0.352671
7625092377,-4.864271,1.680379,-0.522809,0.359669,0.862909,-0.346080
7625112405,-4.660201,1.420656,-0.475037,0.362251,0.859876,-0.344149
7625132435,-4.097770,1.341434,-0.512011,0.365694,0.860488,-0.343448
7625152465,-3.808041,1.392571,-0.694271,0.363244,0.862354,-0.348492
7625172495,-3.760597,1.703836,-0.863668,0.360511,0.859404,-0.355046
7625192524,-4.093213,2.093459,-0.965667,0.360328,0.858348,-0.361266
7625212554,-4.561404,2.704155,-1.183320,0.361374,0.857756,-0.370384
7625232584,-5.213449,3.118507,-1.225025,0.355595,0.863948,-0.363757
7625252614,-5.762084,2.908643,-1.117379,0.355769,0.867908,-0.355683
7625272643,-5.862880,2.681872,-0.804657,0.357406,0.872647,-0.342101
7625292673,-5.621443,2.300318,-0.710351,0.368700,0.872489,-0.327038
7625312703,-4.712883,3.017745,-0.973728,0.356697,0.877271,-0.306192
7625332733,-3.205132,1.914452,-0.736272,0.368994,0.879380,-0.290361
7625352764,-1.248877,0.602482,-0.731892,0.362280,0.878959,-0.273402
7625392823,4.055437,-1.157951,0.210472,0.354403,0.887407,-0.276739
7625412853,6.156841,-1.898140,0.710540,0.352928,0.878787,-0.296653
7625432883,7.521663,-2.597133,0.982443,0.356507,0.874338,-0.318638
7625452912,8.069506,-2.501109,0.974319,0.359367,0.869623,-0.341093
7625472942,8.085703,-2.265260,0.964765,0.356012,0.867169,-0.354134
7625492972,8.669771,-2.587990,0.982921,0.357812,0.879033,-0.312822
7625513021,10.162933,-3.302022,1.512804,0.343435,0.870446,-0.308844
7625533030,11.573341,-3.856000,1.973064,0.356866,0.869792,-0.320409
7625553060,12.934794,-3.741450,1.965178,0.353043,0.867393,-0.326701
7625573090,14.308931,-5.328761,2.926934,0.349875,0.869572,-0.337961
7625593119,15.424167,-5.553877,3.384291,0.358755,0.858881,-0.341659
7625613149,16.145390,-7.085188,4.125380,0.357964,0.853580,-0.369018
7625633179,15.685548,-10.816417,5.240728,0.377561,0.833453,-0.406407
7625653209,14.447460,-9.144927,4.627108,0.343556,0.819516,-0.432742
7625673239,11.844040,-6.605765,4.104110,0.349673,0.812162,-0.490682
7625693268,8.484305,-8.140259,4.259429,0.390684,0.815375,-0.475927
7625713298,6.853137,-7.523684,3.957762,0.326977,0.851271,-0.408982
7625733328,7.633790,-8.778723,5.462353,0.322325,0.871464,-0.351903
7625753357,9.801641,-12.475016,7.526442,0.371510,0.861612,-0.354938
7625773389,11.713464,-16.195408,8.809652,0.393187,0.847001,-0.371793
7625793418,13.224540,-19.136301,10.381826,0.361626,0.858804,-0.362793
7625813448,15.500114,-22.696896,12.224947,0.355422,0.858649,-0.360887
7625833478,18.170975,-26.007278,14.399772,0.337120,0.858800,-0.351597
7625853508,22.054098,-29.625521,17.480038,0.309191,0.876146,-0.328428
7625873538,27.682642,-33.326118,21.456530,0.290382,0.891739,-0.279656
7625893567,36.127171,-37.678864,26.076756,0.272563,0.919653,-0.236323
7625913597,45.848957,-43.146523,31.647141,0.297004,0.910457,-0.247514
7625933625,55.544357,-48.205395,36.501362,0.322342,0.890112,-0.268927
7625953655,65.660751,-53.819611,42.118664,0.317418,0.895231,-0.282654
7625973685,76.466911,-59.206020,48.659401,0.302501,0.885125,-0.314577
7625993715,87.081642,-64.337799,55.925797,0.295060,0.876481,-0.371106
7626013744,96.525093,-67.406990,63.545822,0.250164,0.846075,-0.451725
7626033774,105.215645,-70.632370,73.335281,0.242032,0.828316,-0.537929
7626053804,113.314659,-71.846024,82.849770,0.220172,0.786053,-0.593269
7626073834,120.068558,-71.203598,92.150894,0.222053,0.722865,-0.678452
7626093864,125.816025,-69.375961,101.464317,0.229005,0.662198,-0.732581
7626113893,130.213394,-65.740730,109.715591,0.220121,0.570850,-0.803867
7626133923,132.465347,-60.411407,115.851357,0.248714,0.483888,-0.854601
7626153953,134.598755,-55.061581,123.374420,0.239108,0.458717,-0.902006
7626173984,137.668076,-48.525223,129.834045,0.196568,0.409063,-0.932918
7626194014,140.500671,-41.038883,135.474289,0.217478,0.329045,-0.947743
7626214044,143.469940,-32.429626,140.248413,0.208122,0.271550,-0.950161
7626234073,146.757217,-22.949436,144.204086,0.205751,0.200528,-0.999151
7626254103,150.053864,-12.447021,146.574097,0.222539,0.126140,-1.038184
7626274133,153.326569,-2.027418,149.179840,0.203298,0.047553,-1.068346
7626294163,153.195831,8.476272,151.055344,0.253998,-0.095384,-1.071674
7626314193,154.515579,18.844078,153.289062,0.209570,-0.064525,-1.020712
7626334221,159.539307,30.887600,154.896347,0.198150,-0.104784,-1.040168
7626354251,163.726425,43.287346,154.726013,0.236601,-0.228124,-1.064146
7626374281,167.679489,56.343971,154.860931,0.155463,-0.311572,-1.022233
7626394311,170.994507,70.687347,154.097626,0.151845,-0.400266,-1.022565
7626414340,174.821060,85.086876,150.452881,0.164586,-0.461605,-0.982482
7626434370,178.049881,99.402519,145.822891,0.146657,-0.560551,-0.943062
7626454399,181.503006,113.002274,139.159424,0.119245,-0.636957,-0.884965
7626474429,183.822479,125.851990,129.499207,0.167130,-0.744806,-0.825752
7626494459,185.542007,138.398499,119.257416,0.092797,-0.797792,-0.734878
7626514489,186.264633,149.460724,107.458099,0.135984,-0.879917,-0.677147
7626534519,187.774689,158.259659,93.858467,0.111795,-0.925562,-0.602188
7626554548,188.459656,165.133240,79.091782,0.086266,-0.981658,-0.498499
7626574578,188.275848,171.394379,64.170609,0.062606,-1.020259,-0.413516
7626594609,187.925507,175.049408,48.133915,0.058196,-1.028192,-0.297352
7626634669,186.161743,176.944794,15.870430,0.059180,-1.097239,-0.077500
7626654698,183.903030,173.601349,0.407159,0.044068,-1.083722,-0.004677
7626674728,182.252609,171.064835,-14.076918,0.038539,-1.030998,0.082632
7626694758,180.710754,165.888840,-27.841225,0.044443,-1.031629,0.169452
7626714788,178.272369,159.555283,-40.921440,0.044090,-1.007598,0.266987
7626734818,176.463974,152.050125,-52.823868,0.032035,-0.974281,0.362228
7626754846,173.098877,142.640625,-63.050579,0.044446,-0.935081,0.469058
7626774876,169.542313,132.469360,-71.496765,0.027241,-0.860028,0.535113
7626794905,165.540665,120.814278,-78.224739,0.031899,-0.814245,0.583176
7626814935,162.390259,108.857018,-82.925346,0.051179,-0.761088,0.663315
7626834965,158.768631,97.406563,-87.054199,0.059293,-0.718585,0.692050
7626854995,159.057556,94.928085,-99.323837,0.185878,-0.867170,0.623076
7626875024,163.600235,91.215866,-109.602150,0.032033,-0.783765,0.698947
7626895054,166.092148,84.012093,-117.903519,0.009946,-0.651089,0.760708
7626915084,167.419128,75.402306,-125.124573,0.036849,-0.588728,0.816133
7626935114,169.864563,65.104317,-132.368835,-0.000907,-0.588910,0.809492
7626955144,174.196838,55.161896,-139.554504,-0.022297,-0.560311,0.895773
7626975173,176.921906,44.466640,-146.787689,0.023804,-0.317857,1.006857
7626995205,175.120468,33.102772,-151.727676,-0.041032,-0.224836,0.962569
7627015235,173.924026,20.470402,-152.645767,0.007871,-0.140914,0.967700
7627035264,173.477264,8.028244,-152.405029,-0.001980,-0.063797,0.999750
7627055294,171.717499,-4.394052,-152.855072,-0.016128,0.059119,1.007960
7627075323,169.714691,-16.929852,-151.219208,-0.014020,0.120308,0.993679
7627095353,168.244202,-28.589571,-148.528931,0.003116,0.152623,0.963217
7627115383,168.849472,-39.855347,-145.386047,-0.060028,0.185884,0.981213
7627135413,170.142410,-52.580482,-145.066284,0.043373,0.331456,0.977850
7627155461,170.419144,-64.607231,-142.379669,-0.021721,0.327677,0.929467
7627175471,172.575058,-77.325333,-138.602097,-0.013969,0.369658,0.922951
7627195501,175.640854,-90.229218,-134.306931,-0.038764,0.459071,0.876815
7627215530,177.785522,-102.836548,-129.294403,-0.042647,0.608345,0.820892
7627235560,178.206055,-114.916634,-121.860886,-0.025936,0.673055,0.733481
7627255590,179.159393,-125.700768,-113.004959,-0.051748,0.716034,0.684890
7627275620,179.568054,-136.087250,-102.196442,-0.029008,0.812450,0.621059
7627295649,179.613846,-145.549072,-90.880287,-0.036438,0.872918,0.536960
7627315679,179.600220,-154.133026,-78.904305,-0.037672,0.918969,0.450728
7627335709,179.285843,-160.769760,-65.557289,-0.023033,0.960995,0.334498
7627355739,179.566696,-166.762146,-52.063759,0.002344,0.972140,0.301600
7627375769,178.590469,-168.541626,-37.218678,-0.015265,1.034979,0.149434
7627395798,176.088486,-170.093842,-22.838760,0.018951,1.064291,0.052851
7627415830,173.181931,-172.337814,-8.824748,0.012349,1.035273,-0.072506
7627435860,170.454956,-171.109909,5.736439,0.089467,1.037163,-0.167185
7627455889,167.354645,-165.866760,18.572924,0.073246,1.016353,-0.236751
7627475919,162.522003,-161.143051,30.404510,0.114424,0.989265,-0.322148
7627495949,159.224304,-155.134903,41.801453,0.127619,0.943996,-0.367908
7627515979,156.924927,-147.881058,51.717495,0.134040,0.938125,-0.462073
7627536008,153.911865,-139.340454,60.613964,0.158170,0.906043,-0.516024
7627556038,150.321060,-130.040298,68.108665,0.199224,0.849691,-0.612558
7627576066,146.075699,-117.518433,72.884354,0.188669,0.806500,-0.677126
7627596096,141.796875,-108.822403,78.465523,0.138462,0.792824,-0.636712
7627616126,143.409195,-107.256424,89.469963,0.228812,0.794837,-0.625183
7627636156,142.979980,-101.006065,95.915146,0.197673,0.672123,-0.698307
7627656186,142.562347,-94.094864,101.960510,0.215620,0.646613,-0.795297
7627676216,139.718475,-87.376259,108.029068,0.241641,0.564762,-0.876700
7627696245,136.659302,-79.874527,113.491959,0.225658,0.521061,-0.878733
7627716275,135.233765,-71.784355,117.692070,0.206822,0.490603,-0.883977
7627736305,134.461685,-63.590237,122.141838,0.230480,0.435466,-0.935683
7627776364,130.837997,-47.103149,127.726143,0.254958,0.269903,-0.967674
7627796394,128.292114,-38.836342,128.353043,0.266726,0.222236,-0.975410
7627816424,127.271835,-31.209406,128.978485,0.266611,0.180892,-0.992592
7627836455,126.134552,-23.410656,130.716995,0.270001,0.133326,-0.992886
7627856485,124.444557,-15.733635,131.599472,0.268058,0.036560,-1.016910
7627876514,120.214729,-7.523053,130.959839,0.281049,-0.113911,-1.015808
7627896544,113.375519,0.374156,128.084839,0.253679,-0.171671,-1.015965
7627916584,110.498268,7.172049,128.238678,0.271251,-0.075419,-0.998813
7627936604,108.240608,14.108049,127.428719,0.294702,-0.222052,-0.979703
7627956634,103.510384,20.752941,124.428787,0.292400,-0.343018,-0.945164
7627976663,94.279518,26.511669,117.908417,0.314838,-0.472867,-0.929202
7627996692,84.702408,29.593708,111.637840,0.329257,-0.482306,-0.903310
7628016721,75.474709,33.025806,105.895226,0.340395,-0.515804,-0.887554
7628036751,66.669876,34.555420,98.690285,0.266089,-0.508858,-0.811919
7628056781,58.982090,35.139580,90.508156,0.302511,-0.545847,-0.818060
7628076811,49.989983,34.259659,79.486809,0.333146,-0.572237,-0.745227
7628096841,42.063377,33.319580,70.369583,0.348006,-0.598470,-0.761114
7628116870,33.835896,31.101463,60.997581,0.338768,-0.626645,-0.746187
7628136900,24.803991,27.204645,51.404236,0.374932,-0.646262,-0.716293
7628156930,15.655963,22.599724,41.566566,0.366283,-0.653041,-0.700337
7628176960,6.628686,17.146652,30.955122,0.352837,-0.652722,-0.693797
7628196990,-1.830441,12.113081,21.492912,0.371766,-0.596420,-0.700272
7628217019,-6.748847,11.870889,20.946657,0.434653,-0.521653,-0.780906
7628237051,-10.372108,11.504606,21.759266,0.364931,-0.562696,-0.712396
7628257080,-16.254776,8.422824,17.308851,0.302181,-0.612758,-0.745740
7628277110,-23.727354,8.094247,14.206913,0.374795,-0.595192,-0.742572
7628297140,-29.530951,7.691907,14.442532,0.361236,-0.551382,-0.790499
7628317170,-33.728786,7.921533,14.999651,0.329240,-0.531531,-0.802338
7628337200,-38.349743,8.089555,14.677555,0.349983,-0.535512,-0.766159
7628357229,-43.875984,7.429781,13.490031,0.377862,-0.542028,-0.740478
7628377259,-49.958084,6.399295,12.100634,0.382943,-0.535180,-0.748823
7628397288,-56.945286,5.480953,10.944905,0.395565,-0.565883,-0.745432
7628417317,-65.149651,4.072953,9.390845,0.386988,-0.570197,-0.762045
7628437347,-74.538162,3.433606,8.193699,0.371552,-0.571058,-0.785583
7628457377,-84.642120,2.745327,7.163426,0.357351,-0.570395,-0.806166
7628477406,-95.435608,2.425190,5.871936,0.352503,-0.554652,-0.814134
7628497436,-106.328529,2.136765,4.800013,0.351061,-0.522004,-0.834944
7628517466,-116.818199,1.807688,3.592149,0.361950,-0.488349,-0.854266
7628537496,-127.269707,1.485919,2.353913,0.368600,-0.452783,-0.868710
7628557525,-137.805496,0.676080,0.710300,0.388336,-0.417533,-0.889883
7628577555,-147.985886,0.324922,0.215489,0.393090,-0.355982,-0.922285
7628597585,-157.536224,-0.280782,-0.284462,0.381271,-0.297493,-0.958727
7628617615,-166.354492,-0.449296,-0.909044,0.381486,-0.219107,-0.983561
7628637646,-174.406265,-0.268835,-0.671825,0.366463,-0.137701,-0.978853
7628657676,-180.392532,-0.387205,-0.029247,0.364543,-0.068107,-0.993030
7628677705,-186.610596,-0.286637,-0.290890,0.371401,0.010031,-0.966542
7628697735,-191.231812,-1.150104,0.495083,0.390478,0.120796,-0.940376
7628717765,-193.440750,-1.852728,0.848692,0.387933,0.195216,-0.906498
7628737795,-194.669952,-2.330277,-0.497508,0.384211,0.306108,-0.862077
7628757824,-193.592239,-1.906116,-1.690940,0.399284,0.391103,-0.864424
7628777854,-194.806473,-0.541558,-2.999525,0.390475,0.350318,-0.906026
7628797883,-197.860153,-1.926667,-0.942202,0.372362,0.473166,-0.928921
7628817912,-203.601608,-1.451807,-2.328910,0.391298,0.471251,-0.933104
7628837942,-207.254120,-2.308309,-2.475126,0.351341,0.574366,-0.780978
7628857972,-208.367233,-2.627933,-1.942233,0.353667,0.594491,-0.688182
7628878002,-209.478455,-1.512636,-2.513211,0.398094,0.647781,-0.689341
7628898031,-212.021118,-0.823316,-2.990319,0.428080,0.687759,-0.672873
7628918061,-215.297089,-2.236111,-2.729831,0.276734,0.691076,-0.595602
7628938091,-218.795563,-3.202337,-1.305555,0.365989,0.800281,-0.564201
7628958121,-221.137985,-2.287382,-2.277298,0.455043,0.875921,-0.430409
7628978151,-219.594711,-0.667630,-4.845324,0.338666,0.889034,-0.320618
7628998180,-218.680313,-5.841041,-2.617795,0.349745,0.886292,-0.252175
7629018210,-217.011536,-3.491958,-3.137132,0.382156,0.884941,-0.148042
7629038242,-215.282898,-3.817334,-4.369448,0.393662,0.868808,-0.095602
7629058271,-212.654282,-2.400017,-4.304256,0.322063,0.844783,0.071814
7629078301,-207.759720,0.900490,-4.284109,0.397980,0.907425,0.104850
7629098330,-204.423080,-0.361967,-5.492616,0.351743,0.845297,0.171447
7629118360,-201.035004,-1.248369,-5.703416,0.362244,0.889888,0.245978
7629138390,-197.245773,-2.693027,-6.053395,0.319979,0.865917,0.325499
7629158420,-193.277588,-5.197460,-6.637017,0.331073,0.846894,0.373980
7629178450,-188.848663,-6.233817,-6.792980,0.324105,0.774561,0.461936
7629198478,-183.683273,-5.377562,-6.600537,0.323423,0.734057,0.504732
7629218508,-179.943497,-4.899661,-5.723217,0.330869,0.751766,0.442846
7629238538,-181.239365,-0.876680,-2.057552,0.339105,0.817783,0.422045
7629278597,-183.306702,0.257047,-3.182642,0.329233,0.696360,0.574957
7629298627,-182.594528,-3.076705,-6.528345,0.348767,0.615036,0.676862
7629318657,-180.016022,-2.954005,-8.992314,0.379419,0.531065,0.705068
7629338686,-177.651886,-2.393002,-10.474392,0.341284,0.473362,0.690768
7629358716,-175.443512,-2.033763,-11.082910,0.362374,0.439157,0.755065
7629378746,-173.311584,-2.025270,-11.991803,0.327125,0.418452,0.782054
7629398776,-173.389160,-2.153239,-11.687482,0.303987,0.465148,0.796534
7629418806,-175.184860,-1.790696,-10.827034,0.309456,0.465863,0.824566
7629438837,-178.537445,-1.039481,-10.016095,0.302677,0.420758,0.866216
7629458866,-180.937851,-1.059531,-10.707059,0.352237,0.367530,0.866073
7629478896,-184.063721,0.494434,-8.492477,0.321438,0.278035,0.844386
7629498926,-185.910172,1.145285,-5.723783,0.312516,0.163448,0.869656
7629518956,-185.455841,1.534581,-4.680501,0.312157,0.053428,0.883605
7629538985,-183.876892,1.337659,-4.162500,0.306181,-0.037895,0.899370
7629559016,-181.215485,1.498989,-4.056418,0.286058,-0.108378,0.917746
7629579045,-178.420807,0.960057,-3.732093,0.296819,-0.185257,0.938024
7629599087,-175.208939,1.634999,-6.215558,0.293342,-0.122641,0.950689
7629619104,-177.890472,0.928462,-5.505786,0.319254,-0.178673,0.893807
7629639133,-177.047043,1.658150,-6.754971,0.309747,-0.330194,0.864224
7629659163,-173.396729,1.408736,-4.999644,0.309344,-0.428945,0.851162
7629679193,-171.453766,1.677068,-3.628595,0.333447,-0.346506,0.903167
7629699222,-172.376846,2.632823,-3.811455,0.322920,-0.414240,0.813997
7629719252,-171.673401,2.327049,-3.088247,0.305169,-0.491028,0.770547
7629739282,-169.021347,2.612383,-4.605783,0.284045,-0.651039,0.725268
7629759312,-162.842010,4.079459,-6.791179,0.307919,-0.704496,0.666368
7629779341,-156.884109,5.556285,-8.688643,0.310527,-0.765074,0.617190
7629799371,-149.184143,7.382142,-10.436554,0.310455,-0.828607,0.546488
7629819401,-141.635803,8.528207,-10.851960,0.318801,-0.789165,0.553105
7629839431,-135.699142,6.465125,-8.367582,0.290539,-0.823526,0.492713
7629859462,-129.777756,4.149948,-6.176796,0.302950,-0.837987,0.522817
7629879492,-124.875916,2.903253,-4.753685,0.326094,-0.887736,0.500731
7629899521,-119.704514,-0.946801,-0.670011,0.294513,-0.880998,0.456368
7629919551,-116.922928,-8.159837,4.608390,0.267859,-0.817460,0.523441
7629939581,-112.203278,-10.177825,4.999138,0.282513,-0.988472,0.263188
7629959611,-102.496658,-11.235765,4.474385,0.306215,-0.979478,0.226134
7629979640,-93.399803,-11.944952,4.841098,0.306065,-0.992911,0.218065
7629999670,-82.400177,-13.552814,5.800098,0.296532,-1.076985,0.086856
7630019699,-68.964600,-9.482757,3.649430,0.294903,-1.053739,0.085402
7630039728,-56.809517,-7.657353,1.994663,0.313375,-1.029864,0.111028
7630059758,-47.278667,-8.568216,1.923516,0.289020,-0.983275,0.145299
7630079788,-40.225746,-6.355961,0.884767,0.320605,-0.965482,0.200479
7630099818,-35.341461,-5.506084,1.001306,0.324457,-0.952147,0.221480
7630119847,-31.584883,-4.953453,1.491320,0.335238,-0.944931,0.237881
7630139877,-28.803246,-4.684315,2.157630,0.340037,-0.934814,0.231662
7630159907,-25.995136,-3.906942,2.342014,0.328433,-0.929696,0.209610
7630179937,-22.430202,-2.503391,2.051415,0.306567,-0.936234,0.182445
7630199966,-18.512148,-2.350929,1.498535,0.291570,-0.950740,0.171112
7630219996,-14.548131,-2.084408,0.982630,0.290383,-0.964884,0.176805
7630240026,-10.493236,-2.009092,0.339479,0.285918,-0.972087,0.151286
7630260057,-5.601054,-1.648740,-0.237421,0.287232,-0.986003,0.130637
7630280087,0.143083,-1.018169,-0.603879,0.302045,-0.988737,0.099356
7630300117,6.764945,0.483293,-0.916569,0.322426,-0.984453,0.092606
7630320147,14.243864,1.577233,-1.096526,0.324057,-0.994959,0.064782
7630340176,22.387178,3.513078,-1.124007,0.335679,-0.994734,0.076476
7630360206,30.253929,4.673672,-1.243680,0.324963,-0.991671,0.078065
7630380236,38.261765,6.769341,-1.492449,0.324152,-0.992798,0.100408
7630400266,45.993172,8.127840,-1.826148,0.322003,-0.986663,0.112938
7630420294,53.281830,8.940167,-2.299536,0.312667,-0.970391,0.160044
7630440324,60.581631,10.467315,-2.960890,0.317270,-0.978300,0.152377
7630460353,68.125656,10.616511,-3.299690,0.309722,-0.985206,0.173371
7630480383,75.956841,11.721292,-4.230196,0.302204,-0.984106,0.195991
7630500413,83.942947,12.004597,-4.736715,0.304493,-0.985371,0.223313
7630520443,92.174141,12.613444,-5.382327,0.297947,-0.976895,0.245196
7630540472,100.520546,11.997663,-5.585420,0.290367,-0.976636,0.271459
7630600562,126.292839,10.999218,-6.118069,0.283715,-0.933046,0.380028
7630620591,134.617584,9.396482,-5.585003,0.268156,-0.940805,0.431102
7630640621,143.330505,7.638394,-5.368893,0.268015,-0.888753,0.486997
7630660652,149.983871,6.081450,-5.170632,0.258650,-0.810534,0.564072
7630680682,155.292068,4.821480,-4.793545,0.271639,-0.762357,0.614575
7630700712,159.674072,3.075985,-3.123871,0.294919,-0.717380,0.655813
7630720742,163.930145,2.008030,-1.626752,0.309907,-0.662311,0.709333
7630740771,166.628448,2.093863,-1.277391,0.305767,-0.585945,0.770683
7630760801,167.618988,2.254572,-1.725606,0.288636,-0.475582,0.842178
7630780831,168.074341,2.061921,-1.708604,0.307845,-0.498916,0.839901
7630800861,169.758179,1.537348,-1.127145,0.270950,-0.427579,0.845347
7630820914,171.619644,0.405296,0.172219,0.260600,-0.348911,0.846089
7630840919,173.610489,-1.415340,2.895283,0.275012,-0.344877,0.826093
7630860949,176.198593,-1.691993,3.930024,0.333205,-0.230689,0.895470
7630880979,176.715820,-1.824746,6.016469,0.286467,-0.187641,0.873107
7630901008,177.961334,-1.455447,6.885913,0.305796,-0.103661,0.900034
7630921038,178.415421,-0.699012,8.456860,0.319653,-0.049910,0.914907
7630941068,179.177582,-0.406857,8.257641,0.331013,0.000841,0.931355
7630961098,180.696594,0.052848,7.011049,0.293376,0.036870,0.916013
7630981128,181.764496,-0.040452,5.844704,0.318801,0.109040,0.930970
7631001158,182.741333,-0.355075,4.361724,0.308408,0.169054,0.896938
7631021187,183.555511,-0.245415,4.300540,0.300604,0.204316,0.871941
7631041217,185.858231,-1.754750,2.744830,0.282075,0.253472,0.865612
7631061246,186.272079,-1.485016,4.388083,0.327077,0.389252,0.806798
7631081277,186.210388,-0.299065,6.114399,0.301479,0.401142,0.794441
7631101307,186.179092,-0.015209,6.726151,0.304591,0.489396,0.745553
7631121337,185.533188,0.660500,7.455630,0.332215,0.564792,0.719950
7631141367,184.128784,1.728189,8.113213,0.321420,0.611393,0.659038
7631161397,182.260925,1.911341,7.572442,0.338481,0.691304,0.620068
7631181426,179.869217,2.776812,7.655004,0.331783,0.723406,0.557629
7631201456,176.701721,3.692493,7.865664,0.356753,0.796569,0.480016
7631221486,171.629120,5.738568,8.482929,0.370721,0.852716,0.395768
7631241514,165.511475,9.146467,9.512854,0.354825,0.888474,0.325178
7631261544,158.668365,11.690079,10.428369,0.348662,0.919639,0.297887
7631281574,153.011108,13.677315,10.734978,0.321140,0.900216,0.284114
7631301604,148.343155,13.396042,10.280156,0.333173,0.915896,0.253141
7631321634,144.452011,13.506766,9.913404,0.347157,0.916183,0.235660
7631341663,140.993790,13.325219,9.329432,0.356054,0.920710,0.167923
7631361693,136.512970,11.807690,8.233020,0.386288,0.930628,0.137375
7631381723,133.590668,8.845046,5.398026,0.427559,0.898531,0.177645
7631401753,134.478439,4.959424,3.459733,0.375318,0.885901,0.244145
7631421782,137.948425,0.375055,1.520972,0.386389,0.887552,0.198693
7631441812,140.026352,2.585803,1.253205,0.353154,0.891282,0.125152
7631461842,142.372055,3.486520,1.170955,0.346622,0.914908,0.094773
7631481873,145.945114,6.020718,2.114333,0.317230,0.922955,0.073646
7631501903,148.751724,6.310447,2.151168,0.350312,0.946171,-0.022830
7631521933,150.679901,7.166866,1.818878,0.321005,0.923384,-0.051727
7631541962,153.596313,6.344414,1.774120,0.373123,0.908322,-0.070556
7631561992,157.963837,5.179010,1.626792,0.353699,0.886382,-0.051720
7631582022,163.576477,3.703108,1.649480,0.386801,0.890201,-0.117517
7631602052,168.800003,1.779698,1.531678,0.380165,0.868408,-0.185019
7631622082,172.816940,0.364790,1.333201,0.389734,0.871181,-0.296673
7631642110,175.710739,-0.732909,0.888891,0.357439,0.845309,-0.403155
7631662140,175.761642,-0.172946,-0.018057,0.374917,0.809541,-0.521245
7631702199,175.133804,2.234655,-0.334279,0.340826,0.739304,-0.561796
7631722229,176.439072,4.523015,-1.376446,0.344772,0.718979,-0.579540
7631742259,178.503616,5.211079,-1.760331,0.373181,0.675031,-0.633896
7631762288,179.907684,4.342438,-2.078389,0.410247,0.622492,-0.676687
7631782318,180.323090,3.257685,-2.577082,0.386849,0.568147,-0.720387
7631802348,181.172028,1.360392,-1.817694,0.406090,0.539334,-0.814556
7631822378,180.751678,0.776295,-1.881232,0.361438,0.470800,-0.823310
7631842407,180.721985,0.057368,-0.677236,0.341463,0.421603,-0.862981
7631862437,180.404297,-0.194734,0.818403,0.353534,0.396779,-0.914687
7631882467,180.598389,-0.360266,1.699411,0.340373,0.327151,-0.894091
7631922528,181.215744,-0.678339,3.158145,0.364008,0.212412,-0.924712
7631942558,181.802948,-1.378690,4.066581,0.376575,0.172614,-0.939392
7631962588,182.853790,-1.798569,5.359573,0.375706,0.111019,-0.934863
7631982625,183.831299,-2.029703,6.074705,0.374189,0.050102,-0.952523
7632002647,184.801865,-2.009261,6.893871,0.359106,-0.000082,-0.968661
7632022677,185.987320,-1.648019,7.535891,0.348438,-0.062364,-0.976532
7632042706,186.489868,-1.345733,7.677655,0.344558,-0.152598,-0.978159
7632062735,186.653015,-0.937401,7.128393,0.332923,-0.213180,-0.964028
7632082765,186.451126,-0.496461,6.646920,0.341402,-0.293105,-0.950114
7632102794,185.376053,-0.785859,4.904945,0.341860,-0.365643,-0.913438
7632122824,183.623932,-0.903123,3.487228,0.348028,-0.455583,-0.866514
7632142854,178.497040,-2.065897,0.476832,0.346080,-0.588692,-0.796111
7632162884,170.755264,-1.503139,1.711830,0.347440,-0.650914,-0.748553
7632182914,162.129852,-0.276653,4.267696,0.364415,-0.730075,-0.702814
7632202943,150.768311,-1.299066,3.755204,0.347011,-0.833509,-0.565196
7632222973,136.115280,-6.439734,-2.031779,0.298558,-0.869248,-0.507521
7632243003,124.199097,-8.506853,-6.251002,0.315006,-0.789085,-0.542025
7632263033,115.554260,-9.179261,-7.053240,0.327811,-0.791458,-0.554986
7632283062,107.649246,-9.491096,-8.115939,0.292854,-0.841034,-0.513195
7632303094,100.081894,-10.411637,-8.574377,0.316932,-0.836098,-0.494773
7632323123,92.227051,-10.712972,-8.696959,0.356982,-0.833704,-0.447906
7632343153,84.294800,-10.722060,-8.048657,0.373974,-0.834756,-0.426003
7632363183,77.560814,-10.283449,-5.925024,0.375482,-0.835744,-0.430004
7632383213,71.978279,-9.151228,-3.973463,0.360338,-0.826626,-0.415376
7632403242,66.701859,-7.892730,-2.470159,0.350288,-0.851103,-0.393308
7632423272,61.303787,-7.451413,-1.968473,0.327244,-0.841108,-0.395690
7632443302,57.292408,-6.347847,-1.539916,0.313712,-0.849351,-0.404933
7632463332,53.839081,-4.562420,-1.185054,0.310584,-0.862917,-0.402644
7632483360,50.279152,-2.814487,-0.829928,0.313590,-0.880247,-0.370346
7632503390,45.445988,-1.874051,-0.407981,0.326648,-0.901316,-0.332351
7632523420,42.357544,0.819066,1.084335,0.343588,-0.876287,-0.394289
7632543449,40.877670,3.056030,3.013439,0.370878,-0.832062,-0.447482
7632563480,42.569126,7.896857,5.597022,0.372358,-0.811476,-0.480681
7632583509,47.891785,14.853928,9.423220,0.369100,-0.779629,-0.565799
7632603539,55.850689,22.303404,12.169903,0.352589,-0.786187,-0.563755
7632623569,62.570812,28.513054,13.228002,0.312977,-0.825861,-0.481049
7632643598,66.722687,34.390774,13.392955,0.282788,-0.888312,-0.407348
7632663628,67.207657,39.197216,12.897905,0.267631,-0.943542,-0.275546
7632683658,64.725166,42.561848,11.306540,0.240936,-0.966550,-0.221782
7632703688,60.512623,44.082554,8.698652,0.224607,-0.983742,-0.114023
7632723719,54.342693,45.571259,7.075762,0.277485,-0.961864,-0.094976
7632743749,51.413185,48.646336,6.957541,0.360450,-0.932301,-0.208567
7632763778,52.108967,53.866531,7.604018,0.400934,-0.908991,-0.203312
7632783809,52.765118,55.389397,8.789522,0.391867,-0.901276,-0.188963
7632803838,54.524757,60.872040,9.934730,0.391471,-0.919765,-0.235974
7632823868,58.802937,66.423409,10.587741,0.359028,-0.950363,-0.265268
7632843898,64.728889,75.376793,9.158232,0.252048,-0.976172,-0.286600
7632863927,74.367729,88.534302,5.231033,0.262471,-1.020040,-0.398489
7632883978,86.902008,102.334991,0.200428,0.193503,-1.040015,-0.351317
7632903985,98.341988,113.205978,-6.307366,0.222467,-1.029398,-0.265206
7632924015,108.177345,120.554832,-12.437585,0.221858,-1.033069,-0.181259
7632944045,115.680466,129.274567,-19.763250,0.226683,-1.016683,-0.011771
7632964075,118.221756,134.501862,-27.698889,0.231013,-0.987102,0.160571
7632984104,116.889229,137.063278,-35.462372,0.223753,-0.955500,0.279427
7633004134,113.555946,138.558807,-44.188389,0.175430,-0.918729,0.367446
7633024164,108.920189,137.411484,-53.165794,0.155732,-0.891105,0.478668
7633044194,103.650345,133.098831,-60.517109,0.133130,-0.837648,0.473500
7633064224,98.473549,127.729141,-67.419739,0.123945,-0.815447,0.566037
7633084253,90.899956,119.844322,-72.262825,0.129937,-0.691199,0.668894
7633104283,82.571121,115.252541,-76.891296,0.195725,-0.733197,0.756760
7633124313,73.680328,110.609673,-79.480019,0.358417,-0.756010,0.589386
7633144344,74.085732,113.967552,-87.598122,0.222781,-0.884571,0.536786
7633164374,77.527351,115.021393,-97.029884,0.246956,-0.777480,0.531322
7633184404,78.168839,110.895302,-102.969620,0.157598,-0.713619,0.625680
7633204433,76.422585,105.467712,-108.103477,0.174537,-0.649885,0.785031
7633224463,70.052101,99.951630,-112.882462,0.172153,-0.506453,0.839908
7633244493,60.734699,93.492874,-115.152870,0.181998,-0.402666,0.948389
7633264523,48.174786,86.138031,-112.837723,0.167663,-0.297374,0.948948
7633284552,34.231968,77.475227,-107.790268,0.200343,-0.209684,0.965627
7633304581,20.064785,68.886360,-101.477356,0.252223,-0.174924,0.978843
7633324611,6.368556,61.174435,-93.950844,0.282845,-0.155164,0.962816
7633344640,-6.136881,54.544384,-86.516251,0.316257,-0.174970,0.965367
7633364671,-18.479214,49.102329,-78.659355,0.308977,-0.190820,0.941822
7633384700,-29.419447,44.429256,-70.800674,0.308119,-0.215302,0.939208
7633404730,-39.727013,39.942257,-63.201035,0.329128,-0.229442,0.936224
7633424760,-50.031372,36.353893,-55.464890,0.305964,-0.267551,0.919792
7633444789,-59.333168,32.386749,-47.876713,0.297356,-0.274668,0.915478
7633464819,-69.421875,28.068413,-39.573246,0.314222,-0.261846,0.916784
7633484849,-80.049530,22.773808,-30.435398,0.307960,-0.265952,0.908975
7633504879,-91.239105,16.640799,-20.244450,0.295875,-0.255548,0.902667
7633524909,-102.983696,8.783452,-9.872486,0.303286,-0.315590,0.865989
7633544938,-111.751648,8.395970,-9.888636,0.475496,-0.453036,0.822235
7633564970,-119.909180,9.164987,-6.820701,0.250275,-0.489946,0.815494
7633585000,-128.210037,7.487797,-4.816538,0.222083,-0.466245,0.858346
7633605029,-139.283249,3.323360,-2.110441,0.329678,-0.495845,0.821021
7633625059,-149.532623,0.810278,-0.494470,0.289444,-0.562220,0.733663
7633645096,-157.390549,-0.236952,-0.603209,0.267613,-0.663875,0.678687
7633665118,-165.047546,-1.785272,-0.010088,0.281339,-0.645773,0.668305
7633685148,-174.278809,-3.508239,0.492752,0.314813,-0.717627,0.614230
7633705178,-181.536652,-5.842084,1.267050,0.291820,-0.761400,0.537677
7633725206,-188.131409,-8.226941,1.496184,0.309838,-0.873008,0.397167
7633745236,-190.991913,-5.940094,0.232134,0.283844,-0.902531,0.379765
7633765266,-194.810776,-5.191649,-0.519044,0.309467,-0.923612,0.217575
7633785296,-194.174347,-2.838804,-1.546912,0.314324,-0.996235,0.059591
7633805325,-192.694336,-3.761230,-1.894811,0.306974,-0.946073,0.087872
7633825355,-195.447220,-0.902911,-2.814831,0.290490,-0.941525,0.122337
7633845385,-202.225113,-8.353504,-4.029344,0.316805,-0.961905,0.137275
7633865415,-208.442261,-8.735423,-5.166460,0.274796,-0.974550,-0.056337
7633885444,-211.155853,-11.473246,-6.456490,0.283333,-0.989408,-0.173831
7633905474,-213.141907,-10.734990,-7.350755,0.292920,-0.978094,-0.218761
7633925504,-216.413925,-10.271655,-8.273663,0.324743,-0.956976,-0.282046
7633945534,-219.281448,-8.940705,-8.597091,0.324977,-0.894054,-0.373301
7633965565,-220.194885,-7.971787,-9.379045,0.328741,-0.843663,-0.475297
7633985595,-220.301666,-6.365859,-9.597296,0.327793,-0.832074,-0.572251
7634005624,-219.529221,-5.228081,-9.568566,0.326861,-0.798437,-0.654393
7634025654,-219.753494,-2.708474,-7.626063,0.347769,-0.773123,-0.691158
7634045684,-220.268875,-1.744317,-6.929271,0.351488,-0.719827,-0.759897
7634065714,-219.761780,-2.065673,-6.623044,0.350211,-0.602361,-0.799457
7634085744,-216.697083,-0.026570,-4.310976,0.342554,-0.506286,-0.881953
7634105773,-212.658600,0.141800,-4.469660,0.352013,-0.391442,-0.889227
7634125804,-205.850571,0.385114,-5.143220,0.338460,-0.264244,-0.928897
7634145832,-198.238251,0.113682,-5.963710,0.357460,-0.222553,-0.929024
7634165861,-190.774185,0.519452,-7.093242,0.374060,-0.182031,-0.944721
7634185891,-185.608994,-0.588584,-11.570050,0.310828,-0.122402,-0.949853
7634205921,-179.141586,0.618038,-11.523980,0.341457,-0.039256,-0.995785
7634225951,-171.493790,2.970828,-6.035424,0.376917,0.042768,-1.025947
7634245981,-170.143982,4.213389,1.180546,0.368821,-0.235718,-1.011491
7634266011,-177.100128,3.500479,-2.221199,0.296514,-0.135671,-0.986909
7634286040,-178.687439,2.200368,0.260718,0.412107,0.023681,-0.945031
7634306070,-177.958328,2.411285,0.752137,0.345319,0.099118,-0.860515
7634326100,-175.309479,2.027418,1.689240,0.399584,0.225609,-0.929581
7634346129,-171.576141,0.585803,2.158076,0.396607,0.264861,-0.878051
7634366159,-169.890564,-0.972305,3.241051,0.423529,0.255092,-0.903083
7634386190,-169.808594,-2.469046,4.201422,0.388993,0.281921,-0.906044
7634406220,-170.564606,-3.921435,5.714509,0.377260,0.355560,-0.900441
7634426250,-171.014877,-5.208929,6.945822,0.357683,0.404593,-0.868718
7634446280,-171.899780,-4.574591,6.310752,0.359156,0.415436,-0.870876
7634466309,-174.320328,-3.252112,4.167905,0.363744,0.409362,-0.865106
7634486339,-178.093018,-1.526211,2.157495,0.403068,0.492068,-0.828463
7634506369,-181.260803,-1.221817,-0.598899,0.448165,0.528095,-0.822193
7634526399,-184.622620,-0.117532,-3.468252,0.377841,0.569760,-0.753293
7634546427,-187.997711,0.770945,-4.887617,0.393568,0.646619,-0.719826
7634566457,-189.128082,1.156596,-5.164358,0.372759,0.714622,-0.612174
7634586487,-188.155243,1.327579,-4.846874,0.355581,0.776573,-0.501414
7634606516,-184.758698,2.603236,-4.954510,0.332259,0.819437,-0.406999
7634626546,-181.333282,2.336432,-4.199985,0.358315,0.860760,-0.382457
7634646576,-178.205353,1.529558,-3.805010,0.339755,0.869906,-0.305987
7634666606,-174.359848,0.020421,-2.865462,0.358296,0.896683,-0.231125
7634686635,-168.433823,-2.154254,-1.896573,0.336830,0.934868,-0.054102
7634706665,-159.350220,-5.792568,-1.126167,0.332341,0.922236,0.024221
7634726695,-150.651810,-10.623714,-0.300439,0.367312,0.925549,0.059511
7634746725,-141.192932,-14.198030,-0.281018,0.338502,0.905727,0.163026
7634766754,-131.037247,-16.894407,-0.662902,0.374649,0.892564,0.179468
7634786784,-121.799164,-18.999813,-1.042609,0.350652,0.858614,0.200857
7634806815,-113.967049,-17.521458,-1.794281,0.387506,0.882626,0.183055
7634826845,-107.799484,-15.568556,-2.126145,0.355122,0.888120,0.212889
7634846875,-101.161758,-15.940372,-2.642979,0.364227,0.909514,0.220903
7634866905,-95.515594,-15.608246,-3.636295,0.383440,0.922249,0.234662
7634886941,-90.010483,-14.147635,-4.275212,0.374517,0.886709,0.278375
7634906965,-84.922379,-11.791714,-4.163637,0.369389,0.860985,0.321966
7634926994,-79.239929,-9.042830,-3.964089,0.326553,0.838184,0.357120
7634947024,-71.962547,-8.264890,-3.360533,0.357725,0.860887,0.382851
7634967052,-65.873276,-4.704252,-3.326828,0.435976,0.932027,0.345798
7634987082,-62.971073,0.594376,-3.043884,0.299212,0.870620,0.337804
7635007112,-57.426300,0.394703,-1.621671,0.276020,0.821654,0.434567
7635027142,-50.487278,0.291692,-0.950226,0.359832,0.808213,0.526551
7635047171,-41.956837,0.101364,-1.103727,0.329735,0.818033,0.499038
7635067201,-35.690880,0.311627,-1.140373,0.345333,0.828814,0.429369
7635087231,-32.069500,1.031437,-0.947531,0.354836,0.821496,0.393030
7635107261,-29.193783,1.541766,-0.844276,0.328086,0.830635,0.400896
7635127291,-26.319712,1.931488,-0.391232,0.329028,0.834605,0.406334
7635147320,-23.657604,2.497196,-0.000425,0.336426,0.833872,0.414847
7635167350,-20.547516,2.610175,0.015294,0.328595,0.820083,0.444993
7635187380,-16.822643,2.652182,0.266952,0.326879,0.815602,0.465647
7635207411,-12.422550,2.210548,0.363773,0.326841,0.798183,0.500907
7635227441,-6.736223,2.051191,0.413354,0.325280,0.782745,0.541639
7635247471,0.210611,1.443457,0.399069,0.320357,0.773845,0.573795
7635287530,16.080055,0.012166,0.418760,0.308933,0.767562,0.569990
7635307560,23.808722,-0.690132,0.678604,0.308052,0.771484,0.570012
7635327590,31.441307,-0.401089,1.324347,0.318270,0.784747,0.549577
7635347619,39.565529,-1.312063,1.267685,0.315537,0.777425,0.558503
7635367659,47.478989,-1.345085,1.650895,0.323685,0.782746,0.527462
7635387677,55.404819,-2.674665,1.294367,0.339042,0.799392,0.499200
7635407707,62.931961,-2.775901,1.154797,0.348202,0.790940,0.501827
7635427737,70.497223,-2.808656,1.067744,0.345152,0.809229,0.461229
7635447767,78.111923,-3.938457,0.777628,0.341194,0.831363,0.433981
7635467797,85.639282,-3.757098,0.923805,0.338446,0.840773,0.416495
7635487826,92.930534,-3.635230,1.115860,0.326547,0.861224,0.373766
7635507857,100.175766,-3.466837,1.489473,0.326979,0.870433,0.356055
7635527886,108.053055,-2.951225,1.989372,0.335258,0.882571,0.342973
7635547916,116.450645,-1.524517,2.618351,0.336542,0.883507,0.290235
7635567946,123.715477,-0.260054,3.013099,0.341018,0.894895,0.206332
7635587976,130.091965,1.023165,3.058482,0.354606,0.929462,0.136667
7635608006,135.368820,2.699154,2.728513,0.349801,0.927210,0.106076
7635628036,141.795868,3.144041,2.545914,0.360763,0.911016,0.059545
7635648066,146.594696,3.239524,2.282059,0.352841,0.903121,-0.047288
7635668096,150.054001,1.501617,2.487876,0.382049,0.942964,-0.132353
7635688126,151.589294,0.706719,1.668843,0.423287,0.920780,-0.230942
7635708156,153.054077,2.482298,0.047236,0.371562,0.916598,-0.286780
7635728185,153.917068,3.001174,-0.479869,0.362146,0.873775,-0.290433
7635748215,156.864578,2.613538,-0.194651,0.377168,0.867392,-0.336716
7635768245,158.109573,1.653434,-0.800139,0.356870,0.802532,-0.345315
7635788278,161.646530,3.444461,-1.351797,0.336742,0.813110,-0.388817
7635808303,164.521362,1.234900,0.283135,0.375362,0.760030,-0.450030
7635828333,166.761520,4.359230,-1.948409,0.383689,0.733242,-0.536141
7635848362,169.149109,2.833046,-1.585663,0.364477,0.707540,-0.544269
7635868392,170.991043,5.182821,-3.894299,0.394284,0.670235,-0.661898
7635888422,172.177826,6.413923,-4.889736,0.337046,0.640355,-0.678625
7635908452,173.331818,5.989122,-4.900776,0.386503,0.598563,-0.765941
7635928482,173.086090,5.977496,-6.485459,0.373103,0.546990,-0.779965
7635948511,173.573212,4.934974,-5.627274,0.378121,0.505016,-0.835504
7635968541,173.732452,4.430086,-6.123376,0.373848,0.454078,-0.811669
7635988571,174.888519,3.399449,-5.204309,0.375119,0.409703,-0.825936
7636028630,177.946732,1.638917,-3.300104,0.383450,0.289699,-0.890542
7636048662,178.290924,0.343471,-0.915860,0.381168,0.206253,-0.933437
7636068691,176.265060,-0.765827,-1.241138,0.382483,0.085843,-0.967487
7636088721,171.794128,-1.315006,-1.830093,0.367746,-0.005298,-0.989475
7636108751,165.667221,-1.276017,-2.151832,0.368258,-0.082750,-1.016659
7636128781,158.779068,-1.163222,-2.095452,0.341022,-0.130421,-0.997549
7636148811,152.708984,-1.273307,-1.384745,0.346927,-0.173006,-1.011267
7636168840,146.463776,-1.137622,-0.297080,0.344028,-0.209877,-0.964365
7636188870,140.605896,-0.843050,1.115469,0.341102,-0.264597,-0.917993
7636208899,134.368607,0.301096,1.049771,0.358470,-0.310253,-0.917129
7636228929,130.001801,0.350025,4.201407,0.448814,-0.265776,-0.955784
7636248958,129.980164,-2.242055,2.956948,0.370622,-0.214243,-0.930925
7636268988,131.719345,-3.885154,-0.789142,0.333996,-0.230776,-0.883652
7636289017,136.354218,-4.059686,-2.385260,0.375902,-0.167497,-0.939810
7636309047,145.059875,-4.029619,-2.366139,0.362643,-0.163931,-0.943735
7636329077,153.118530,-4.392846,-2.616984,0.356266,-0.297032,-0.932837
7636349107,158.223633,-4.721444,-1.747396,0.373927,-0.395008,-0.910450
7636369136,162.195099,-4.882747,-0.447581,0.361572,-0.446360,-0.869222
7636389166,165.887909,-4.762419,0.409973,0.356877,-0.507153,-0.857718
7636409196,168.699127,-4.981802,0.716459,0.344236,-0.552795,-0.795535
7636429226,170.793945,-5.722973,0.913248,0.345351,-0.616618,-0.738775
7636449256,172.099228,-6.751622,0.391768,0.364709,-0.658847,-0.718493
7636469287,173.920776,-6.689252,1.438457,0.368008,-0.690559,-0.688240
7636489317,176.649429,-7.184430,1.087574,0.339259,-0.715894,-0.655163
7636509347,180.527191,-6.876545,1.420477,0.323985,-0.731352,-0.643321
7636529376,184.816574,-6.938819,0.975730,0.318140,-0.777520,-0.592170
7636549406,188.754440,-7.754128,0.135283,0.307800,-0.813535,-0.527670
7636569436,191.667267,-7.801042,-0.173781,0.316652,-0.870901,-0.445984
7636589466,193.316010,-8.343679,-0.494458,0.322895,-0.913535,-0.341745
7636609495,193.006927,-9.514078,-0.439288,0.343056,-0.947298,-0.258470
7636629524,192.086914,-8.515500,0.802931,0.345335,-0.975487,-0.190406
7636649554,190.435272,-8.000444,1.973035,0.332582,-0.977247,-0.124441
7636669584,188.979034,-6.360644,2.913908,0.335685,-0.962516,-0.060623
7636689613,187.455994,-4.607511,3.497438,0.340415,-0.963672,0.008096
7636709643,185.464798,-4.162062,3.803602,0.317729,-0.940731,0.081797
7636729673,183.049652,-3.540446,3.766886,0.307093,-0.924562,0.148235
7636749703,180.221802,-4.878709,4.262011,0.305343,-0.912905,0.213316
7636769732,178.010071,-4.722504,4.221719,0.306146,-0.919476,0.246134
7636789762,176.743195,-2.807952,3.408909,0.306474,-0.913572,0.280155
7636809792,175.515823,0.862790,2.020297,0.320460,-0.899606,0.338574
7636829822,174.081146,2.641222,1.208549,0.333518,-0.873817,0.432693
7636849852,172.399170,6.266870,-0.725816,0.306219,-0.863721,0.464569
7636869883,171.864273,7.288921,-0.954538,0.321884,-0.841168,0.454168
7636889913,172.647308,7.475929,-0.697937,0.269395,-0.786780,0.508777
7636909943,172.413879,2.331279,1.483301,0.262209,-0.733399,0.562926
7636929972,172.796768,0.117732,2.533239,0.272600,-0.752283,0.604094
7636950002,173.568527,-1.785619,3.633836,0.272330,-0.720934,0.664725
7636970032,173.880829,-0.687329,2.510195,0.307161,-0.690088,0.727291
7636990062,174.566818,0.575980,1.248871,0.312033,-0.617441,0.744657
7637010092,174.141586,1.548391,2.279250,0.332617,-0.569973,0.767798
7637030120,176.239365,3.181040,-0.106645,0.287070,-0.601548,0.716736
7637050150,179.678864,1.417319,1.448996,0.290577,-0.534139,0.743618
7637070179,183.869217,0.400450,2.187443,0.260911,-0.487853,0.757350
7637090209,188.359665,-1.187149,3.446410,0.261497,-0.453081,0.776305
7637110239,192.001587,-2.360601,4.292056,0.277430,-0.334989,0.861829
7637130269,192.779831,-2.734283,5.311573,0.284553,-0.185979,0.949960
7637150298,188.055496,-3.837297,9.405307,0.272535,0.122890,0.964034
7637170328,174.466827,-3.594837,12.573605,0.298404,0.452439,0.968232
7637190358,153.109390,-3.396529,19.810112,0.308477,0.609898,0.946755
7637210388,135.530487,-2.202142,16.811813,0.414801,0.114898,0.948743
7637230417,117.845016,-10.072126,2.690794,0.482501,-0.144385,0.932017
7637250448,31.865217,-9.436087,-11.549831,0.357694,0.043159,0.421664
7637270477,-61.445190,4.234222,-4.756936,0.293154,0.071162,0.782855
7637290508,-61.039249,-6.570671,-9.761195,0.398271,-0.016209,1.035269
7637310538,101.919098,-1.460620,0.988216,0.117383,0.513219,1.158026
7637330568,120.674423,-0.312767,5.188136,0.179083,0.734119,1.120720
7637350598,109.171532,1.788103,-1.628637,0.322877,0.520207,1.036449
7637370628,91.825310,-1.662517,-2.525486,0.256220,0.619754,0.826676
7637390658,41.420296,-5.999413,-6.691187,0.314352,0.209473,0.784478
7637410687,-80.243385,2.388000,-15.259329,0.308077,0.211012,0.698574
7637430717,-185.779846,-3.320946,-25.369377,0.313411,0.067433,0.681539
7637450745,-221.131302,-3.082573,-26.017788,0.375951,0.030228,0.857587
7637470775,-137.541061,-2.878759,-21.596621,0.344635,0.153193,1.174731
7637490805,33.689514,-1.901728,-11.339253,0.194472,0.318842,1.232251
7637510835,66.767487,-0.171510,-15.136425,0.335488,0.373073,1.075097
7637530865,58.127319,0.771460,-19.970741,0.335040,0.311078,0.959304
7637550894,49.828053,-0.326683,-22.338736,0.265202,0.183282,0.908601
7637570924,46.627285,-1.486785,-21.511675,0.246461,0.130874,0.887362
7637590954,48.754299,-3.376482,-23.276575,0.277867,-0.053079,0.909177
7637610983,56.465916,-5.215909,-28.466312,0.268509,-0.181065,0.968004
7637631013,66.037041,-8.506621,-36.759212,0.215201,-0.128909,1.015914
7637651043,74.967758,-13.962889,-47.195137,0.170705,-0.014411,1.015976
7637671073,80.848076,-18.468742,-53.690247,0.204108,0.108835,0.979225
7637691103,82.960762,-21.513414,-57.143845,0.270311,0.231797,0.940629
7637711134,82.550125,-23.888269,-60.050797,0.325717,0.363501,0.882311
7637731163,74.992508,-24.772694,-58.803558,0.326211,0.583715,0.793336
7637751193,73.830841,-27.948067,-67.815338,0.314671,0.177979,0.953451
7637771223,78.828758,-32.876675,-72.389038,0.227296,0.242131,0.932448
7637791260,83.699287,-40.894356,-79.037109,0.151771,0.233871,0.945478
7637811283,88.864639,-50.203480,-84.453484,0.138955,0.386913,0.893552
7637831312,88.278053,-58.507252,-87.432053,0.158620,0.604106,0.802213
7637851342,84.607201,-66.575615,-90.906937,0.194831,0.655078,0.785470
7637871371,79.444649,-72.838318,-91.706047,0.224452,0.755993,0.660900
7637891400,70.611107,-77.202545,-90.566681,0.264327,0.828319,0.570284
7637911430,61.779922,-80.728439,-89.108322,0.272214,0.795063,0.579234
7637931460,54.893887,-83.820076,-86.735245,0.241092,0.775458,0.569143
7637951490,48.973587,-85.472382,-82.629890,0.249287,0.796718,0.553953
7637971520,43.633209,-86.365547,-78.219765,0.228435,0.797188,0.558092
7637991549,38.939514,-86.849846,-73.433655,0.223041,0.859286,0.536303
7638011579,33.116806,-86.743523,-69.085236,0.272822,0.829611,0.526795
7638031609,27.941158,-89.790543,-68.865021,0.374726,0.998315,0.478522
7638051639,20.027855,-91.913002,-69.647133,0.364559,0.799495,0.469854
7638071668,18.260038,-97.181007,-70.354393,0.317348,0.706281,0.573121
7638091698,20.361328,-102.254662,-70.553406,0.325432,0.694618,0.596698
7638111730,22.291494,-105.771988,-69.969444,0.281227,0.753633,0.535541
7638131759,20.864162,-109.702492,-68.526863,0.285595,0.859949,0.449227
7638151789,16.838469,-112.765099,-66.592400,0.313862,0.933479,0.399060
7638171819,10.835757,-113.631050,-64.192078,0.321064,0.968472,0.325735
7638191849,3.762600,-111.909584,-61.389420,0.299419,0.973858,0.283986
7638211886,-4.453188,-108.078003,-57.634506,0.332023,0.965399,0.215419
7638231908,-13.204770,-102.810715,-53.330833,0.378509,0.943796,0.199724
7638251938,-21.261003,-96.771034,-49.124290,0.411517,0.934334,0.209577
7638271968,-29.047520,-90.461304,-45.678101,0.408436,0.928369,0.189022
7638291996,-37.128510,-84.068016,-42.748341,0.412709,0.955394,0.189250
7638312026,-45.549152,-77.346802,-40.170265,0.427197,0.967875,0.220640
7638332056,-53.511593,-70.897598,-38.537460,0.396673,0.955194,0.256818
7638352086,-60.572193,-64.931740,-36.612038,0.376839,0.935883,0.262434
7638372115,-67.632385,-58.477108,-34.205456,0.382179,0.931416,0.273070
7638392145,-74.669144,-51.801582,-31.717323,0.414649,0.925197,0.289790
7638412175,-81.103996,-44.725452,-29.118528,0.417341,0.882837,0.319204
7638432205,-86.953262,-37.293327,-26.120586,0.423507,0.869273,0.342641
7638452234,-92.574715,-29.395891,-22.466799,0.416390,0.839543,0.372195
7638472264,-97.808159,-20.996309,-18.271126,0.409221,0.825191,0.388744
7638492294,-103.241432,-12.738691,-13.596689,0.359860,0.818684,0.401484
7638512324,-108.849976,-10.097426,-11.119481,0.437709,0.815610,0.455489
7638532354,-113.750015,-11.680549,-14.277880,0.349501,0.764785,0.581305
7638552385,-117.921883,-9.161365,-14.156989,0.260310,0.866943,0.542640
7638572415,-126.792908,-6.372053,-11.273170,0.392873,0.895802,0.450207
7638592444,-136.969925,-3.730449,-9.101459,0.376167,0.795606,0.515471
7638612474,-144.874847,-2.353175,-8.108424,0.325688,0.728086,0.589617
7638632504,-151.343903,-1.257546,-7.119913,0.324856,0.711565,0.612183
7638652534,-159.576004,0.618531,-5.441253,0.351702,0.705211,0.611100
7638672564,-168.478622,2.897090,-2.833697,0.406585,0.639340,0.712079
7638692593,-176.700317,3.402088,-3.691109,0.321335,0.670571,0.679669
7638712622,-185.581635,4.145768,-2.511256,0.299676,0.541750,0.770058
7638732652,-192.095016,4.025122,-1.110702,0.302428,0.408103,0.818257
7638752681,-195.898148,3.909346,-0.785538,0.308211,0.297774,0.863160
7638772711,-199.190414,3.307874,-1.487216,0.283696,0.249484,0.876283
7638792741,-202.490707,2.546347,-2.263375,0.287185,0.175735,0.898572
7638812771,-204.920685,2.487499,-0.952351,0.297846,0.057038,0.888884
7638832801,-207.408966,1.952634,1.317988,0.304163,0.038816,0.883066
7638852831,-211.599731,1.426078,1.108083,0.301160,0.006584,0.915494
7638872861,-214.879318,1.010524,1.390525,0.283341,-0.156279,0.918902
7638892890,-216.006912,0.636729,1.635746,0.259331,-0.257385,0.881607
7638912920,-216.913971,0.169994,1.752958,0.301272,-0.288386,0.873602
7638932950,-219.437286,0.067834,1.350744,0.293685,-0.324893,0.831238
7638952979,-221.926453,-0.466232,1.589070,0.300676,-0.414058,0.790814
7638973010,-223.616058,-0.730667,1.780026,0.300687,-0.502292,0.738508
7638993040,-224.466278,0.281296,0.315353,0.304843,-0.606003,0.727757
7639013070,-224.597321,0.306758,0.891316,0.284183,-0.683210,0.649472
7639033100,-222.658630,-3.945190,2.596019,0.227519,-0.800922,0.573606
7639053137,-218.899887,-4.747685,0.754539,0.274751,-0.894569,0.477375
7639073159,-212.507568,-3.411796,-1.626787,0.270470,-0.948758,0.354836
7639093189,-205.531921,-3.039794,-2.248271,0.300966,-0.942595,0.311659
7639113219,-199.340042,-2.938143,-3.011923,0.280224,-0.936493,0.224010
7639133247,-192.365112,-4.025201,-2.916020,0.319583,-0.964570,0.138391
7639153277,-185.266693,-1.415604,-3.427336,0.324310,-0.960011,0.116782
7639173307,-180.494415,-1.438460,-2.704536,0.336481,-0.953338,0.131101
7639193337,-178.445175,-1.919578,-2.206669,0.372651,-1.034851,0.184981
7639213366,-179.846802,-0.067450,-1.419194,0.296354,-0.966191,0.160092
7639233396,-181.584503,0.030039,-2.330706,0.234607,-0.920352,0.065205
7639253426,-181.712112,-0.742967,-3.787625,0.337552,-0.971976,-0.033292
7639273456,-180.976318,-0.905639,-3.467454,0.350371,-0.984237,-0.069075
7639293485,-181.190125,-0.918839,-3.202073,0.298144,-0.963384,-0.122134
7639313515,-181.620987,-0.407012,-3.335474,0.309729,-0.929304,-0.168373
7639333545,-181.777420,0.286066,-3.462684,0.335028,-0.906088,-0.272278
7639353575,-178.918686,0.240328,-3.506410,0.324747,-0.899593,-0.407592
7639373606,-174.577698,0.401087,-3.187212,0.344655,-0.902551,-0.468736
7639393636,-169.726471,0.757021,-2.876988,0.297451,-0.820049,-0.571446
7639413666,-165.394409,2.210783,-2.871936,0.348897,-0.845493,-0.511139
7639433696,-162.100357,3.139113,-2.301897,0.335426,-0.768643,-0.602123
7639453726,-155.073242,5.148324,-0.374349,0.346529,-0.701327,-0.724658
7639473755,-148.208939,5.778126,0.798909,0.400506,-0.716859,-0.711509
7639493785,-142.974411,5.548022,1.735972,0.362061,-0.653520,-0.691828
7639513815,-138.137802,3.075471,0.682411,0.337155,-0.646462,-0.704127
7639533859,-135.122711,-1.355038,-3.759958,0.337562,-0.621254,-0.747891
7639553873,-129.509537,-2.984491,-6.397301,0.284406,-0.538333,-0.806416
7639573903,-124.347519,-4.035769,-9.843420,0.319224,-0.515992,-0.816690
7639593933,-117.361885,-2.435680,-9.679089,0.290005,-0.388686,-0.905456
7639613962,-105.600540,1.683418,-4.392928,0.397234,-0.295832,-1.026831
7639633992,-92.202911,-0.138892,-2.308815,0.480060,-0.334851,-0.999645
7639654022,-79.600296,-3.328646,-5.217797,0.310907,-0.193629,-0.934808
7639674052,-64.152489,4.066236,4.425101,0.305714,-0.095605,-0.947406
7639694082,-53.511368,4.570926,6.033416,0.451097,-0.352582,-0.879589
7639734141,-39.200901,-2.011154,-2.494930,0.315982,-0.276514,-0.925176
7639754171,-32.730339,-0.364327,-0.557026,0.321128,-0.287684,-0.905111
7639774201,-26.065689,-0.098437,-1.534128,0.335186,-0.257197,-0.931167
7639794232,-19.088293,0.027282,-0.690196,0.380883,-0.281702,-0.932569
7639814262,-14.150126,0.050820,0.509968,0.356565,-0.308353,-0.881447
7639834292,-10.723300,0.141830,1.284236,0.354864,-0.320551,-0.865246
7639854321,-7.682524,0.515955,1.889134,0.353016,-0.311581,-0.870762
7639874351,-4.246456,0.933910,2.569676,0.341895,-0.308406,-0.872282
7639894381,-1.258633,1.269825,3.045973,0.344739,-0.331101,-0.872811
7639914411,1.054155,1.676445,3.111916,0.348475,-0.344780,-0.874064
7639934440,3.121215,1.368366,3.032099,0.351856,-0.343158,-0.874724
7639954469,5.859460,1.062208,2.315694,0.361724,-0.329444,-0.878363
7639974498,9.394862,0.531346,1.677381,0.365286,-0.300979,-0.890092
7639994528,14.373771,-0.166596,1.162483,0.362220,-0.261992,-0.902837
7640014558,21.306442,-0.110341,1.650618,0.361506,-0.237444,-0.910016
7640034588,28.703541,-0.026632,1.979523,0.358271,-0.250891,-0.912384
7640054617,36.032402,0.133680,2.345661,0.349679,-0.266552,-0.904178
7640074647,43.331978,0.002542,2.009098,0.341111,-0.274870,-0.905764
7640094677,50.898602,-0.016320,1.527660,0.348513,-0.290275,-0.927422
7640114707,58.807308,-0.098090,0.986258,0.335771,-0.294148,-0.921366
7640134737,67.649734,0.336422,1.525215,0.346748,-0.321631,-0.921624
7640154767,76.682343,0.502300,1.702579,0.352796,-0.330709,-0.917684
7640174796,86.139099,0.392423,2.034105,0.364125,-0.330309,-0.904624
7640194826,96.120476,0.684836,2.855344,0.368690,-0.346169,-0.907618
7640214857,107.553375,1.207176,4.168191,0.363555,-0.347226,-0.939755
7640234887,120.706276,2.742856,6.216409,0.343981,-0.383861,-0.947077
7640254917,133.912018,4.202190,8.280457,0.349517,-0.439593,-0.908155
7640274947,145.683411,5.108514,8.869944,0.355230,-0.503742,-0.878619
7640294976,156.535126,5.591371,8.840808,0.334543,-0.565268,-0.849124
7640315006,166.945618,5.679388,8.405340,0.335617,-0.646152,-0.803295
7640335036,175.339767,5.137588,7.640573,0.342193,-0.723594,-0.712884
7640355066,180.987335,4.421237,7.232303,0.341017,-0.829991,-0.615838
7640375094,183.956573,3.147944,6.751593,0.307406,-0.868655,-0.556488
7640395124,185.355896,2.704485,6.103931,0.355576,-0.936138,-0.421670
7640415154,185.676483,3.160069,6.274649,0.330393,-0.937640,-0.402648
7640435183,187.968246,3.893667,6.208941,0.312421,-0.916564,-0.405028
7640455213,191.889557,5.128157,6.003336,0.318894,-0.915874,-0.342380
7640475243,197.278412,4.711478,6.024606,0.291684,-0.908710,-0.323401
7640495273,202.081635,5.245766,4.968528,0.325429,-0.891083,-0.226284
7640515303,206.101624,6.135964,4.394340,0.366570,-0.949125,-0.125455
7640535332,209.826431,6.369101,4.894602,0.284816,-0.993826,-0.073060
7640555362,214.375870,4.362558,3.890065,0.266218,-0.980630,-0.003948
7640575392,216.722382,6.072524,2.254270,0.294449,-1.009046,0.169707
7640595422,217.586914,3.020701,3.773988,0.300189,-0.937360,0.195021
7640615452,218.755905,6.180438,1.329330,0.266517,-0.931713,0.278425
7640635483,218.798080,2.048865,1.887207,0.264633,-0.861847,0.390054
7640655512,217.600739,2.280527,0.982411,0.277932,-0.810695,0.445337
7640675542,216.687241,2.011372,0.991812,0.307649,-0.790477,0.539948
7640695572,214.969482,1.805919,0.568108,0.276529,-0.735290,0.575283
7640715602,213.671478,2.039920,0.201574,0.288684,-0.683137,0.663605
7640735632,210.774094,1.689067,-0.047090,0.281479,-0.590755,0.730805
7640755661,206.585449,1.603668,-0.351683,0.280054,-0.480705,0.808030
7640775691,199.791321,-0.121084,1.198682,0.288116,-0.367383,0.860516
7640795722,191.715179,-0.840705,3.103929,0.283166,-0.281825,0.908152
7640815750,183.288025,-1.885817,4.996575,0.275732,-0.211290,0.910327
7640835779,174.770706,-2.671683,6.879417,0.284872,-0.142619,0.949180
7640855809,165.372284,-3.469022,8.488976,0.278862,-0.065701,0.932813
7640875838,156.258560,-3.904444,9.519392,0.316618,-0.073398,0.947506
7640895868,151.106842,-2.963204,7.408754,0.312355,-0.161571,0.936396
7640915898,150.985809,-1.549392,4.356397,0.335468,-0.280023,0.902628
7640935928,156.838654,0.515033,0.467435,0.337419,-0.383050,0.870576
7640955958,164.361877,0.127349,1.156718,0.306237,-0.284726,0.865409
7640975988,170.800995,-0.922610,2.389368,0.286452,-0.194173,0.900160
7640996017,175.041504,-1.241060,4.918934,0.275283,-0.051745,0.964837
7641016047,177.016891,-0.852665,5.826483,0.289943,0.052049,0.956723
7641036077,177.053986,-0.561579,4.163574,0.318624,0.169036,0.952063
7641056108,175.635437,0.184081,4.103552,0.327998,0.247643,0.910582
7641076138,174.104187,0.302193,2.858354,0.330445,0.264918,0.866322
7641096168,173.400284,2.702732,4.854699,0.367993,0.299281,0.837762
7641116198,174.273468,2.798635,5.324407,0.278688,0.228792,0.821325
7641136227,179.169098,2.620651,7.648394,0.280937,0.233441,0.865500
7641156257,184.902710,2.153724,9.118434,0.264804,0.283931,0.799334
7641176287,190.440216,1.365197,9.711554,0.284827,0.394704,0.823051
7641196316,194.491913,1.566081,10.189501,0.298799,0.490212,0.768016
7641216346,197.076691,0.933513,9.498507,0.340879,0.636907,0.715189
7641236375,196.865417,2.163490,8.229447,0.364444,0.675530,0.642163
7641256405,197.158051,1.432021,6.203726,0.349891,0.719961,0.582540
7641276434,196.985352,1.247255,5.310504,0.351759,0.708131,0.515634
7641296464,197.867126,0.814733,4.836889,0.310707,0.713147,0.495659
7641316494,199.523483,0.791782,5.148749,0.321847,0.749152,0.432176
7641336523,201.756378,0.323769,5.305401,0.302258,0.778641,0.362747
7641356553,202.325943,1.238623,6.632446,0.298249,0.839723,0.263280
7641376583,201.733734,-0.570440,6.457797,0.340656,0.929096,0.151957
7641396613,198.210327,-0.036481,5.769219,0.349443,0.954758,0.036759
7641416643,193.371902,-1.773465,4.492506,0.359771,0.986939,-0.057812
7641436672,187.497787,-3.449776,3.783440,0.354968,0.984085,-0.094617
7641456702,182.425751,-5.692015,3.549605,0.344472,0.957268,-0.155563
7641476734,178.041031,-10.486030,3.860693,0.350948,0.959147,-0.156628
7641496763,175.535233,-13.556072,3.703288,0.353540,0.930327,-0.184514
7641516793,173.804337,-13.175006,3.380803,0.326838,0.878873,-0.236274
7641536822,171.711441,-11.105838,4.241942,0.350431,0.878137,-0.323175
7641556852,170.009018,-5.892643,3.552867,0.318884,0.867710,-0.313468
7641576882,170.419556,-5.183937,4.441804,0.321187,0.904885,-0.333628
7641596912,171.632233,-5.752117,4.894506,0.362700,0.890595,-0.411415
7641616942,172.098190,-5.688013,4.317952,0.350235,0.859669,-0.452803
7641636976,173.281128,-7.410737,5.455142,0.340712,0.826629,-0.462576
7641657000,176.878525,-8.279336,6.343699,0.337247,0.815656,-0.420008
7641677029,182.042450,-6.145265,6.244874,0.345998,0.730634,-0.501539
7641697059,183.501785,-4.058350,6.660237,0.345653,0.608411,-0.645367
7641717089,176.846588,4.959653,0.091014,0.364136,0.353300,-0.968050
7641737119,150.275681,17.105572,-8.591601,0.423500,-0.022404,-1.603044
7641757149,126.938522,14.022592,-13.732834,0.359832,0.629877,-0.718156
7641777179,128.719131,9.838543,-14.728010,0.455799,0.560958,-0.842671
7641797208,112.169449,7.861286,-1.746419,0.486693,0.620481,-0.741743
7641817238,45.960152,5.104574,9.056803,0.364399,1.149692,-0.641517
7641837268,-65.787148,-5.066041,4.682961,0.408143,0.908186,-0.650982
7641857298,-123.199005,-1.794461,6.606660,0.397246,0.361248,-0.834606
7641877327,-81.034195,6.642505,-0.775693,0.379559,-0.332754,-1.033759
7641897358,48.504082,6.545548,-6.649035,0.187509,-0.288477,-1.128039
7641917388,100.458641,-4.387024,2.187309,0.331358,0.612375,-0.984263
7641937418,88.209167,1.433789,-4.206133,0.269837,0.295338,-1.066068
7641957448,71.777649,1.683005,-1.243984,0.350811,0.207144,-1.070498
7641977478,37.853634,1.984588,-1.217427,0.334366,0.723826,-0.870526
7641997508,-49.110176,-1.375326,-5.590979,0.405289,0.866704,-0.830165
7642017537,-140.163269,-0.212625,-2.452700,0.431213,0.871283,-0.720697
7642037567,-204.385880,-2.233520,1.657883,0.401643,0.802281,-0.648963
7642057596,-222.867874,-4.948751,7.161192,0.361365,0.564470,-0.671445
7642077625,-186.052063,-7.117844,8.652972,0.355526,0.151455,-0.833481
7642097655,-92.177177,-4.177048,5.648409,0.357748,-0.139265,-1.061082
7642117685,16.722090,-1.569005,2.054919,0.261322,0.360992,-0.880456
7642137715,37.810478,-9.535185,6.870822,0.450294,0.696988,-0.701732
7642157745,32.631760,-9.223817,7.555676,0.343272,0.595514,-0.696467
7642177774,24.649479,-8.066558,6.374454,0.326151,0.593201,-0.734836
7642197804,6.991448,-8.504031,6.915501,0.376928,0.689028,-0.664015
7642217834,-7.310342,-7.174237,6.343926,0.385047,0.631862,-0.663316
7642237863,-5.440240,-7.512464,8.311437,0.345720,0.581157,-0.673645
7642257893,12.108091,-9.577898,10.278284,0.305207,0.604032,-0.679387
7642277923,20.630444,-13.780023,14.540923,0.313469,0.726296,-0.629827
7642297953,22.467625,-15.774021,17.530743,0.324113,0.704926,-0.600182
7642317984,25.674417,-17.738155,20.240433,0.325014,0.699128,-0.590726
7642338014,30.261972,-19.897654,23.619659,0.323688,0.726225,-0.534169
7642358043,38.884735,-23.306999,28.383692,0.326952,0.796897,-0.472752
7642378073,48.933548,-27.950998,34.940578,0.321569,0.795760,-0.506537
7642398103,59.720940,-33.815094,44.275532,0.295501,0.805022,-0.536454
7642418133,68.365791,-38.064362,52.830105,0.325124,0.691543,-0.665199
7642438163,73.467766,-41.958664,61.766670,0.325730,0.647725,-0.712245
7642458192,77.197624,-43.839691,69.654488,0.288457,0.569956,-0.738494
7642478221,78.550545,-43.953102,76.555817,0.291883,0.453092,-0.836473
7642498251,70.251549,-37.767681,76.173843,0.314895,0.059981,-1.116264
7642518280,56.931076,-37.383430,81.191116,0.266843,0.387297,-0.867433
7642538310,53.341076,-35.253510,81.914536,0.335162,0.260288,-0.997773
7642558340,44.623112,-33.665817,87.621483,0.308167,0.159219,-1.006633
7642578370,34.398422,-32.466347,90.942596,0.356163,0.131962,-1.022812
7642598399,25.011703,-32.190090,94.939102,0.360193,0.135257,-0.982820
7642618429,17.306568,-31.778875,98.707809,0.329355,0.155709,-0.958027
7642638459,11.437255,-30.960577,101.928078,0.330225,0.148038,-0.924213
7642658489,5.236025,-29.394241,102.973419,0.403312,0.081812,-0.954313
7642678518,-2.663270,-27.602472,100.467628,0.366818,0.046043,-0.935791
7642698548,-11.300620,-25.653460,96.019135,0.412996,0.023574,-0.990390
7642718578,-20.240717,-24.307962,92.712883,0.420742,0.070735,-0.947650
7642738610,-25.970798,-24.761633,93.646515,0.408469,0.159785,-0.976058
7642758639,-28.404236,-25.886883,96.998505,0.370136,0.256008,-0.925305
7642778669,-26.619921,-26.986565,103.286575,0.363582,0.317513,-0.890516
7642798699,-21.935680,-27.539261,109.298523,0.357818,0.333148,-0.863168
7642818729,-20.507717,-25.833279,111.832481,0.326268,0.210278,-0.846011
7642838758,-19.683994,-25.305136,114.004501,0.418145,0.177568,-0.895671
7642858788,-21.036613,-24.740726,114.476784,0.419119,0.137364,-0.906526
7642878818,-23.739801,-24.699373,113.459122,0.432806,0.072257,-0.940410
7642898846,-29.373220,-23.622999,110.027840,0.409019,0.043438,-0.924357
7642918877,-34.626129,-22.380854,106.693909,0.422205,0.049733,-0.940335
7642938906,-39.505451,-21.264048,102.891113,0.403459,0.069605,-0.922745
7642958935,-43.420368,-20.487467,99.030991,0.392108,0.071138,-0.939348
7642978965,-48.213181,-19.458132,94.250870,0.415620,0.061577,-0.949370
7642998995,-53.538811,-19.204977,88.696068,0.402421,0.058977,-0.942488
7643019025,-58.558876,-18.702688,83.010422,0.415463,0.078087,-0.937626
7643039055,-63.127346,-18.297590,76.294647,0.419232,0.089188,-0.923950
7643059084,-67.545746,-17.249329,68.671272,0.416700,0.088323,-0.913318
7643079114,-72.438393,-15.675999,60.254715,0.439430,0.070183,-0.935301
7643099144,-78.922066,-14.283386,49.913052,0.444754,0.061177,-0.943149
7643119174,-86.608124,-12.172549,38.480534,0.448262,0.048014,-0.970237
7643139204,-95.750153,-9.576232,28.787127,0.423915,0.121841,-0.889246
7643159235,-101.672958,-12.922560,36.174591,0.486741,0.174463,-0.999299
7643179265,-110.067307,-14.880100,31.607370,0.294328,0.161743,-1.003000
7643219324,-138.761536,-11.693712,21.717579,0.442579,0.074960,-1.024400
7643239354,-152.556213,-10.486774,17.090853,0.417544,0.182416,-0.977161
7643259384,-163.011932,-10.834943,14.783758,0.373713,0.258667,-0.932252
7643279414,-173.259201,-10.606520,12.236877,0.411994,0.309711,-0.947865
7643299443,-183.167908,-10.811948,10.232134,0.416840,0.414987,-0.902352
7643319472,-190.043060,-12.202753,9.095589,0.441846,0.547323,-0.879815
7643339501,-198.325226,-14.426385,7.070667,0.427569,0.543577,-0.862554
7643359531,-204.320740,-14.856521,5.524629,0.386109,0.636986,-0.699952
7643379561,-206.639297,-12.475347,3.736883,0.428756,0.675614,-0.605325
7643399591,-208.220078,-12.773373,3.162380,0.390354,0.734258,-0.561403
7643419621,-212.132889,-13.855929,3.290892,0.365456,0.761974,-0.570681
7643439650,-216.053452,-12.806044,1.475638,0.398521,0.834617,-0.504014
7643459680,-218.982529,-12.865115,-0.337406,0.401976,0.855476,-0.413384
7643479710,-221.670502,-12.961437,-1.528288,0.386326,0.858983,-0.357278
7643499740,-224.352234,-14.699611,-2.022992,0.362896,0.862370,-0.256382
7643519769,-226.264648,-14.563138,-2.934916,0.414883,0.885117,-0.150704
7643539799,-226.561066,-13.896809,-4.449494,0.394310,0.878954,-0.039443
7643559829,-221.610626,-14.986403,-6.037777,0.353579,0.895943,0.216405
7643579860,-216.538589,-19.103138,-6.728642,0.388580,0.839552,0.164506
7643599890,-215.207169,-18.423332,-8.462426,0.430305,0.881547,0.197617
7643619920,-213.763809,-12.430121,-9.914741,0.410909,0.854234,0.200609
7643639950,-210.879822,-13.074562,-9.134561,0.255909,0.768804,0.506786
7643659979,-203.737366,-15.011185,-10.161177,0.390549,0.762055,0.521145
7643680009,-197.393112,-16.332333,-12.770426,0.376724,0.702161,0.513063
7643700039,-194.334824,-14.294513,-13.119671,0.390082,0.727527,0.459743
7643720069,-193.499359,-10.056167,-12.229836,0.391565,0.690709,0.540039
7643740097,-191.587784,-7.623829,-12.507127,0.381093,0.653943,0.624341
7643760127,-189.302551,-7.067120,-13.124847,0.363948,0.648129,0.655687
7643780156,-188.232162,-5.932369,-13.528127,0.375800,0.633054,0.698101
7643800186,-188.059204,-4.280472,-13.215882,0.307229,0.579199,0.681151
7643820216,-188.053436,-3.980521,-12.285799,0.293086,0.498160,0.707195
7643840246,-187.157547,-3.540663,-11.356459,0.331161,0.412116,0.770741
7643860276,-184.410889,-3.419674,-11.795909,0.340815,0.327213,0.840865
7643880306,-181.130417,-2.485290,-11.711184,0.338543,0.307832,0.855530
7643900335,-178.612305,-1.636478,-11.110524,0.319612,0.206687,0.882496
7643920365,-174.390778,-0.697685,-10.494632,0.332123,0.124130,0.921923
7643940395,-168.223846,-0.165709,-10.086683,0.310508,0.037949,0.947341
7643960424,-162.893936,0.203320,-9.655024,0.327270,0.010510,0.948729
7643980456,-157.940506,0.845811,-7.717003,0.303602,-0.012930,0.947945
7644000485,-154.090607,1.602310,-5.302800,0.285409,-0.040673,0.960904
7644020515,-150.093842,1.614161,-4.535174,0.305369,-0.090859,0.939037
7644040545,-146.508301,1.315477,-3.954692,0.298807,-0.095657,0.909398
7644060575,-144.746292,1.384596,-0.989815,0.309386,-0.137367,0.928173
7644080605,-142.772644,1.560791,0.192469,0.284374,-0.174611,0.937464
7644100635,-141.386246,0.717699,0.655145,0.258179,-0.201906,0.881645
7644120665,-140.016022,0.051393,-0.665468,0.311298,-0.262939,0.888425
7644140697,-138.401688,-0.089535,0.716441,0.275629,-0.313327,0.882358
7644160722,-135.851501,-0.037511,-0.169870,0.301245,-0.391482,0.886799
7644200782,-128.062332,-0.525784,0.452147,0.259776,-0.535837,0.802534
7644220812,-123.238106,-0.555374,-0.750827,0.294288,-0.538193,0.794857
7644240842,-118.611382,-0.973797,-0.184001,0.286557,-0.610739,0.762929
7644260871,-112.927376,-0.588208,-1.064015,0.301686,-0.642527,0.762242
7644280901,-108.575546,-0.125077,-1.353919,0.321641,-0.635810,0.760620
7644300931,-104.327271,0.091184,-0.519649,0.293692,-0.674950,0.707127
7644320961,-99.889206,-0.037227,-0.023588,0.309658,-0.684922,0.697617
7644340991,-95.182526,-0.093182,-0.195231,0.290136,-0.718123,0.647785
7644361020,-90.356812,-0.621002,-0.158137,0.278790,-0.729045,0.642662
7644381050,-85.945549,-0.493070,-0.437616,0.295203,-0.748198,0.629422
7644401081,-81.542320,-1.335262,0.519348,0.289109,-0.765621,0.593192
7644421111,-77.217751,-2.739965,1.579565,0.294893,-0.806764,0.582042
7644441141,-72.739616,-2.962395,1.340970,0.285209,-0.794953,0.550497
7644461170,-68.442780,-3.796437,2.290233,0.294799,-0.794877,0.558505
7644481200,-63.921425,-5.224203,3.593365,0.298624,-0.881647,0.500980
7644501230,-57.500996,-4.619769,3.310857,0.298005,-0.913831,0.491178
7644521260,-49.707203,-3.331985,2.416706,0.312574,-0.885746,0.454609
7644541290,-41.431908,-1.804731,1.058268,0.303419,-0.934396,0.355961
7644561318,-33.710712,0.045551,-0.181836,0.315819,-0.892975,0.441175
7644581348,-28.760942,0.171953,-0.066772,0.311731,-0.835114,0.473413
7644601377,-26.205622,0.348763,-0.051857,0.300751,-0.810218,0.495924
7644621407,-24.171139,-0.109798,0.339665,0.294688,-0.821802,0.489419
7644641437,-21.676617,-1.270174,1.002675,0.293710,-0.851065,0.463205
7644661467,-17.953041,-1.624294,1.159092,0.283668,-0.871206,0.428529
7644681497,-13.241323,-2.212707,1.105654,0.291799,-0.890315,0.416616
7644701526,-7.933539,-2.180609,0.903233,0.296509,-0.907872,0.391881
7644721556,-1.639086,-1.020877,0.312717,0.309844,-0.923699,0.373784
7644741586,5.034188,-0.022308,-0.071546,0.310970,-0.927418,0.369751
7644761616,12.161763,0.662390,-0.270984,0.308475,-0.926873,0.372819
7644781646,19.098995,1.417159,-0.304295,0.301141,-0.922403,0.379406
7644801677,25.643473,1.147255,-0.086565,0.296201,-0.902954,0.408080
7644821706,31.650043,1.076982,-0.204385,0.286963,-0.898165,0.408796
7644841736,37.774891,0.512702,0.091435,0.303436,-0.890052,0.421555
7644861766,43.946350,0.092389,0.264755,0.293946,-0.887625,0.437308
7644881796,49.824589,0.312317,0.227840,0.303254,-0.879771,0.455334
7644901826,55.885433,0.615209,0.250974,0.300182,-0.869084,0.453375
7644921855,62.094810,0.194796,0.454641,0.300663,-0.870574,0.474275
7644941885,68.451286,0.237150,0.427030,0.314034,-0.853033,0.498026
7644961914,74.695038,0.607425,0.404194,0.287255,-0.837001,0.510885
7644981943,80.972374,0.049542,0.578720,0.290872,-0.835652,0.541540
7645001973,87.160126,-0.142662,0.704640,0.293601,-0.820744,0.559616
7645022003,93.618950,-0.662278,1.227709,0.297499,-0.823846,0.587678
7645042033,100.882156,-1.268686,2.108255,0.284026,-0.817928,0.586874
7645062062,108.662773,-1.786520,2.980726,0.306036,-0.784264,0.617031
7645082092,115.942497,-2.241470,3.655292,0.294086,-0.756015,0.627688
7645102122,123.932785,-2.206928,3.878747,0.305897,-0.752552,0.646171
7645122152,131.217529,-2.689859,5.296597,0.308646,-0.677333,0.725150
7645142182,136.767532,-3.085859,7.198133,0.312858,-0.596864,0.776814
7645162211,139.787933,-4.020905,10.058318,0.302429,-0.490933,0.835687
7645182241,140.711700,-3.953147,11.294080,0.269450,-0.442530,0.864904
7645202271,141.994431,-3.376923,10.372425,0.331806,-0.391044,0.935777
7645222302,142.697830,-2.031886,8.541766,0.330742,-0.360588,0.883912
7645242332,143.970123,-0.711450,7.083111,0.341710,-0.329013,0.893512
7645262362,145.968384,-0.567816,7.674276,0.304489,-0.285441,0.849124
7645282391,149.137848,-0.751655,10.065717,0.280963,-0.283897,0.780742
7645302421,153.918274,-1.738048,11.744375,0.278796,-0.262119,0.813135
7645322451,158.116684,-2.266144,15.246193,0.324287,-0.172321,0.876693
7645342481,161.263168,-2.403931,15.446005,0.254871,-0.075826,0.929682
7645362511,162.322449,-1.854096,15.381245,0.305974,0.056492,0.990347
7645382539,160.047089,-0.510066,15.353695,0.333136,0.224435,0.948977
7645402569,154.617813,0.023804,13.898404,0.339044,0.296699,0.905647
7645422599,150.031387,0.454972,12.656682,0.335322,0.283640,0.899714
7645442629,147.185272,0.839477,11.598164,0.324993,0.273422,0.882105
7645462658,145.721848,0.934903,10.504831,0.330917,0.292435,0.848508
7645482688,144.783112,1.249152,9.667706,0.323526,0.339432,0.825634
7645502718,143.508209,1.719703,9.511497,0.324736,0.390149,0.811789
7645522748,141.182541,2.442009,10.133622,0.316322,0.490138,0.762092
7645542777,136.622635,3.526688,10.872938,0.337664,0.591105,0.731785
7645562807,130.428711,4.397732,11.150750,0.336910,0.687429,0.724812
7645582837,123.452248,5.249423,11.231212,0.313117,0.707944,0.699601
7645602867,117.582413,4.447738,10.310087,0.298759,0.673233,0.684713
7645622898,114.246201,2.912287,7.948165,0.329929,0.606782,0.722583
7645642928,115.428238,1.625910,5.283053,0.328503,0.523362,0.752920
7645662957,118.493942,1.814299,5.017580,0.330824,0.523104,0.732049
7645682987,122.904739,3.180934,6.403346,0.339827,0.526621,0.744278
7645703017,128.393051,3.917254,7.658447,0.303471,0.555602,0.701869
7645723047,132.579788,3.958775,8.494156,0.299380,0.625676,0.669950
7645743077,136.267487,3.640867,8.043681,0.378704,0.767757,0.666072
7645763106,138.847717,5.236973,6.871465,0.403757,0.787323,0.657804
7645803164,145.356171,5.546003,4.893086,0.386946,0.770987,0.476801
7645823194,147.555511,8.826411,6.011505,0.312980,0.671210,0.499690
7645843224,153.379761,8.894546,6.021330,0.349017,0.740227,0.449881
7645863254,157.221008,11.555143,6.493686,0.367687,0.787797,0.362982
7645883284,159.820221,10.220096,5.171701,0.378679,0.844949,0.312748
7645903314,161.970947,11.631187,4.895519,0.355705,0.882636,0.231197
7645923343,163.841217,11.193303,4.384517,0.312646,0.910259,0.210395
7645943373,165.335831,9.904528,3.766745,0.367959,0.949537,0.116163
7645963403,166.712067,11.914902,3.924919,0.327920,0.934031,0.068536
7646003462,168.620758,13.845728,3.902048,0.345286,0.888299,-0.012035
7646023492,170.210220,12.934945,2.659416,0.413482,0.906771,-0.097668
7646043524,171.988831,15.165304,0.958320,0.380857,0.866591,-0.107973
7646063553,173.826172,14.072845,0.407305,0.377957,0.854864,-0.171851
7646083583,175.718262,13.047300,-0.530933,0.394795,0.873917,-0.224078
7646103612,177.581085,12.425861,-1.313354,0.361377,0.853845,-0.308341
7646123642,178.167694,10.778341,-1.390222,0.367241,0.855285,-0.421710
7646143672,177.018738,10.173871,-1.870958,0.361519,0.798488,-0.517092
7646163702,173.346832,10.613257,-3.756786,0.408228,0.738658,-0.616853
7646183732,168.320236,11.252295,-4.992884,0.358269,0.700903,-0.649784
7646203767,163.028870,10.829068,-5.636368,0.408164,0.677119,-0.780291
7646223790,155.785034,11.843857,-7.278545,0.384294,0.674554,-0.799418
7646243819,150.278519,8.772034,-5.898218,0.310551,0.635969,-0.710684
7646263849,149.228546,0.784164,0.605556,0.304167,0.645147,-0.605715
7646283879,152.684235,-2.042832,5.165066,0.416026,0.657199,-0.589087
7646303909,157.515366,-5.480235,9.192036,0.402540,0.627840,-0.616692
7646323939,160.733765,-8.151600,12.119970,0.396159,0.515775,-0.793847
7646343968,158.644531,-9.120399,12.733663,0.381234,0.410510,-0.909089
7646363998,153.374283,-8.013568,9.878531,0.403721,0.352890,-1.049757
7646384028,148.507843,-4.838589,4.716429,0.278717,0.368044,-0.921464
7646404058,148.288666,-3.829847,5.557051,0.317086,0.379307,-0.925757
7646424087,150.690109,-2.221164,5.582615,0.308135,0.404081,-0.852912
7646444117,155.791061,-0.910059,5.119146,0.341940,0.355962,-0.853447
7646464149,160.817963,-0.464148,5.299803,0.354664,0.313648,-0.826974
7646484178,166.332184,-0.648354,4.477566,0.414145,0.270132,-0.847590
7646504208,172.486969,-1.678429,6.650093,0.397948,0.211211,-0.895232
7646524238,177.986969,-2.337334,7.249690,0.352902,0.123452,-0.934023
7646544267,180.941696,-2.136091,8.371581,0.357375,-0.011137,-1.008230
7646564298,180.900177,-1.551507,7.851069,0.341012,-0.127383,-1.018792
7646604357,176.196320,-0.443759,6.163846,0.337651,-0.292390,-0.959571
7646624385,172.605637,-0.827823,3.996851,0.363801,-0.353267,-0.934969
7646644415,169.471893,-1.597278,1.120595,0.358392,-0.371362,-0.887477
7646664445,166.791016,-2.916048,-1.417217,0.373878,-0.411146,-0.844777
7646684475,166.815552,-1.992992,1.494157,0.359960,-0.324575,-0.867847
7646704505,169.915985,2.563081,9.911454,0.370969,-0.430540,-0.905714
7646724534,170.838150,5.353553,14.991230,0.352762,-0.491512,-0.848693
7646744564,171.689423,12.037310,23.313755,0.361243,-0.625699,-0.760603
7646764594,165.964340,10.194929,18.716534,0.234911,-0.735844,-0.621439
7646784623,157.913528,11.818800,15.840549,0.275466,-0.816035,-0.580348
7646804653,149.302902,13.886210,14.962250,0.302815,-0.855248,-0.570406
7646824683,143.625107,17.468706,16.544413,0.288352,-0.825101,-0.601494
7646844713,139.972183,22.192095,18.792784,0.313486,-0.824054,-0.541917
7646864743,135.917694,26.633385,20.269953,0.355885,-0.828956,-0.480198
7646884774,133.415146,31.661715,22.205456,0.348356,-0.806615,-0.476279
7646904804,131.976562,35.912868,23.321547,0.343753,-0.853575,-0.446935
7646924834,129.013168,39.977524,23.164671,0.309210,-0.924591,-0.336684
7646944863,121.935822,40.243183,20.838892,0.209994,-0.967711,-0.176831
7646964899,116.246674,45.373196,18.556345,0.243365,-0.951992,-0.347593
7646984923,117.663261,50.392239,17.104616,0.264859,-0.934422,-0.384694
7647004953,121.248077,55.123207,14.890558,0.253953,-0.897383,-0.367183
7647024982,126.253258,57.677452,12.725796,0.287343,-0.907284,-0.376227
7647045011,133.763321,63.348557,11.059239,0.304820,-0.930848,-0.384012
7647065041,141.177399,71.057915,8.731042,0.314448,-1.029261,-0.277586
7647085070,146.158401,77.717850,5.129103,0.281146,-1.033052,-0.216357
7647105100,151.627243,86.804329,-0.456741,0.153532,-1.057089,-0.159677
7647125130,157.206909,93.340591,-8.212349,0.156943,-1.065375,-0.085294
7647165189,168.471130,106.559258,-25.377640,0.147442,-1.070890,-0.066510
7647185219,179.039398,108.864365,-34.027905,0.166708,-1.070453,-0.021003
7647205249,188.375488,114.248802,-45.654068,0.129498,-1.078235,0.120100
7647225279,196.330368,116.191048,-57.684174,0.122281,-1.063903,0.216795
7647245309,203.614807,118.413300,-71.263702,0.047862,-1.044298,0.340292
7647265338,209.259277,117.065010,-85.337219,0.004361,-0.967895,0.468833
7647285369,212.622253,110.348816,-98.942162,-0.044577,-0.889968,0.591640
7647305399,214.332748,100.716850,-110.749214,-0.051488,-0.784006,0.704343
7647325429,214.948471,89.447525,-119.995453,-0.087732,-0.694006,0.757993
7647345459,214.977646,77.120125,-127.906227,-0.070322,-0.575451,0.824739
7647365489,213.756836,64.389885,-133.077087,-0.047276,-0.467432,0.880433
7647385519,208.895737,50.638115,-135.382660,-0.006238,-0.110304,1.123592
7647405548,199.185638,38.072212,-134.470551,-0.039411,-0.188209,0.927603
7647425578,196.580627,25.655621,-136.824158,-0.009613,-0.235567,0.957320
7647445608,196.157578,13.800837,-138.438385,0.002380,-0.137114,0.978053
7647465636,194.404770,2.059326,-140.152786,-0.043892,0.068928,1.011251
7647485666,189.751984,-10.618793,-139.745285,-0.001043,0.157470,0.964289
7647505695,184.898605,-22.047070,-136.937271,0.039123,0.232000,0.949107
7647525725,180.120071,-31.984001,-131.912628,0.040427,0.380476,0.915354
7647545755,172.439651,-40.065903,-123.068390,0.026691,0.566086,0.855680
7647565785,162.067596,-46.650524,-112.334930,0.058161,0.653688,0.810259
7647585815,151.139755,-51.228951,-101.201553,0.106580,0.698079,0.752846
7647605844,140.981415,-53.688339,-90.244827,0.106872,0.738155,0.705749
7647625874,130.395737,-54.156677,-78.660553,0.176875,0.813086,0.652073
7647645904,118.627983,-52.941399,-68.524002,0.232829,0.871918,0.578026
7647665934,106.930023,-51.085934,-60.311062,0.264759,0.857070,0.543990
7647685964,95.122765,-47.560841,-51.482887,0.314979,0.909721,0.473810
7647705995,82.107208,-42.562492,-43.319717,0.317706,0.950106,0.433694
7647726024,70.805222,-37.637341,-36.118042,0.304055,0.888668,0.471977
7647746054,61.187199,-31.639521,-28.704676,0.331865,0.891093,0.447985
7647766084,51.829987,-25.003408,-21.205551,0.300846,0.891842,0.446301
7647786114,43.306244,-20.677097,-15.680732,0.326017,0.890891,0.473542
7647806144,36.010994,-16.598749,-11.790970,0.358646,0.867865,0.466647
7647826173,29.182919,-12.365828,-8.736312,0.371173,0.870431,0.450441
7647846203,22.430580,-8.797985,-6.411498,0.356521,0.845368,0.452984
7647866232,16.932724,-5.725964,-4.688482,0.368810,0.833961,0.474806
7647886261,12.550950,-2.696487,-2.539973,0.351086,0.797647,0.488789
7647906291,8.988607,-0.242880,-0.583366,0.342385,0.796401,0.493110
7647926321,5.843097,1.957641,1.466553,0.338267,0.792044,0.510622
7647946351,2.697462,3.607965,2.876612,0.346131,0.805313,0.507221
7647966381,-0.279632,5.263737,3.907601,0.350892,0.802688,0.515125
7647986411,-2.901358,6.124722,4.558748,0.348114,0.782802,0.538724
7648006441,-4.685968,6.667087,4.583659,0.352206,0.761171,0.557579
7648026471,-5.574791,6.671056,4.363315,0.349340,0.738596,0.573940
7648046500,-6.038982,6.780941,4.619960,0.337399,0.730715,0.579242
7648066530,-5.561830,6.214672,4.480885,0.334798,0.701880,0.622297
7648086560,-4.209154,5.749566,4.113920,0.335246,0.708359,0.619808
7648106589,-2.858367,4.682568,3.577621,0.340044,0.701443,0.629225
7648126620,-1.702732,4.355438,3.186657,0.333180,0.708801,0.624435
7648146650,-0.441772,3.700222,2.730259,0.346650,0.702666,0.631170
7648166680,0.805136,3.204416,2.120874,0.344836,0.707561,0.621600
7648186710,1.678964,2.971007,1.994361,0.345532,0.711246,0.613611
7648206740,2.424053,3.150504,2.220677,0.340615,0.709579,0.607947
7648226769,3.185191,3.718870,2.671200,0.322027,0.703458,0.615257
7648246799,3.929252,3.738909,3.012586,0.324213,0.717380,0.615330
7648266829,4.581123,3.110720,2.843787,0.337192,0.730811,0.610005
7648286857,4.898979,2.017524,1.943267,0.342364,0.733355,0.605548
7648306887,5.034159,0.887289,1.058133,0.344537,0.735281,0.600945
7648326916,5.186615,0.091161,-0.042097,0.347328,0.719868,0.601304
7648346946,5.633697,-0.910973,-0.822006,0.347185,0.712128,0.601139
7648366976,6.309255,-1.746556,-1.512218,0.336849,0.715319,0.595888
7648387006,6.809808,-2.229475,-1.727802,0.337498,0.724654,0.587586
7648407036,6.930651,-2.634395,-1.982135,0.336529,0.743998,0.582819
7648427065,6.405248,-3.058830,-2.266946,0.340704,0.762673,0.562245
7648447095,5.219344,-3.014492,-2.267892,0.343052,0.772260,0.555799
7648467125,3.729583,-2.953525,-2.329781,0.343180,0.773306,0.548050
7648487155,2.308368,-2.594949,-2.060523,0.341538,0.767226,0.545776
7648507185,1.199280,-1.925060,-1.528354,0.337827,0.757738,0.552384
7648527216,0.295029,-1.401029,-1.040354,0.336869,0.750515,0.558145
7648547246,-0.168826,-1.153908,-0.716622,0.342225,0.747780,0.568614
7648567275,-0.321296,-1.259688,-0.723390,0.338892,0.744381,0.577018
7648587305,-0.252795,-1.443569,-0.972022,0.344717,0.742012,0.586677
7648607335,0.287157,-1.698807,-1.325977,0.344798,0.733583,0.595091
7648627364,0.810830,-2.258601,-1.730458,0.342674,0.734252,0.591867
7648647394,1.365640,-2.482988,-1.940605,0.340921,0.739317,0.584308
7648667424,1.774989,-2.866092,-2.043340,0.336728,0.737338,0.584496
7648687454,2.087128,-2.722946,-1.991316,0.334368,0.741111,0.580384
7648707482,2.192267,-2.913259,-1.830443,0.339507,0.745767,0.573116
7648727513,2.245538,-2.791297,-1.694963,0.341455,0.751402,0.573017
7648747542,2.238271,-2.776316,-1.778495,0.342841,0.751097,0.577145
7648767572,2.686719,-3.176020,-2.229849,0.340278,0.730620,0.592525
7648787601,3.712506,-3.624146,-2.589532,0.341965,0.719717,0.601672
7648827661,6.402895,-4.409303,-3.218536,0.341960,0.736475,0.586307
7648847691,7.177174,-4.870760,-3.411422,0.344483,0.736668,0.581785
7648867720,8.013530,-4.745283,-3.260429,0.338374,0.735969,0.583140
7648887750,8.949005,-4.337811,-2.846382,0.340605,0.739824,0.575726
7648907780,9.854455,-4.129303,-2.794620,0.338150,0.740894,0.582269
7648927809,11.260622,-4.082857,-2.612359,0.339731,0.734108,0.588440
7648947841,12.864370,-3.968573,-2.316841,0.337225,0.727711,0.594822
7648967871,14.871837,-3.780767,-2.158223,0.335137,0.727815,0.594880
7648987900,17.123146,-3.319650,-1.827393,0.333477,0.734878,0.588072
7649007930,19.228386,-3.276500,-1.523453,0.339128,0.737701,0.582164
7649027960,21.304665,-2.951871,-1.312876,0.339293,0.745359,0.580868
7649047990,23.342829,-2.626940,-1.071991,0.340417,0.747794,0.568128
7649088049,27.083961,-2.456155,-0.980630,0.349324,0.761901,0.544758
7649108084,28.454115,-1.914739,-0.794961,0.352449,0.777326,0.520211
7649128107,29.230803,-1.354449,-0.458095,0.353711,0.783321,0.506045
7649148137,30.030928,-0.940149,-0.491515,0.347063,0.789509,0.498508
7649168167,30.678968,-0.188709,-0.103242,0.350006,0.803902,0.479335
7649188197,30.741913,0.603710,0.231330,0.348734,0.815161,0.455408
