Timestamp (us),Gyroscope X (deg/s),Gyroscope Y (deg/s),Gyroscope Z (deg/s),Accelerometer X (g),Accelerometer Y (g),Accelerometer Z (g)
7116360375,-0.388686,-0.022661,0.164602,-1.001925,0.027088,0.052727
7116380419,-0.749320,-0.061025,0.095313,-1.003436,0.027536,0.050120
7116400465,-0.665076,-0.007642,0.101142,-1.001438,0.025173,0.049363
7116420511,-0.918233,0.053144,0.052362,-0.996868,0.025817,0.049557
7116440557,-0.588906,0.015202,0.084305,-0.997839,0.016712,0.045957
7116460603,-0.358986,0.137259,0.110003,-0.999863,0.014069,0.044998
7116480648,-0.131466,-0.076290,0.014601,-1.004011,0.014523,0.047882
7116500694,0.198492,0.023016,0.076641,-0.997887,0.015988,0.048229
7116520740,0.382418,0.152667,0.095565,-0.992928,0.016088,0.049596
7116540786,0.589841,0.549107,0.136069,-0.999650,0.014254,0.046628
7116560832,0.688030,0.427051,0.073439,-1.004083,0.018337,0.044336
7116580878,1.031543,0.152740,0.052403,-1.006948,0.025699,0.043011
7116600925,0.776711,-0.061025,-0.079486,-1.000960,0.027714,0.045811
7116620971,0.602584,-0.037986,0.015513,-0.998315,0.027090,0.050396
7116641017,0.219754,-0.000056,-0.015392,-1.001197,0.030183,0.052800
7116661063,0.121731,-0.068487,0.063153,-1.002725,0.031274,0.054186
7116681108,-0.252607,0.007656,0.077804,-1.000889,0.029558,0.059423
7116701154,-0.483745,-0.076458,-0.016770,-1.001659,0.025922,0.061984
7116721200,-0.613503,-0.007881,-0.006839,-0.999593,0.018379,0.064503
7116741265,-0.184524,-0.022902,0.038378,-0.996516,0.017752,0.067810
7116761291,0.005115,0.106499,-0.049789,-0.995715,0.006288,0.066000
7116781336,0.434665,0.365885,0.017427,-0.992926,0.016759,0.069203
7116801383,0.634121,0.678458,0.043082,-0.994597,0.018119,0.067868
7116821428,-0.038186,0.480218,0.079712,-0.999677,0.082522,0.068846
7116841474,-3.125127,-0.053772,0.210162,-1.012328,0.128801,0.064446
7116861520,-5.292098,-0.412921,0.047087,-1.011575,0.008665,0.033859
7116881566,-5.190848,-0.488857,0.152355,-0.986913,0.028601,0.020515
7116901612,-5.193605,0.334773,0.394193,-0.997473,0.017099,0.007098
7116921658,-3.610977,0.441872,0.386052,-1.013760,-0.030693,0.002644
7116941703,-1.057541,-0.076657,-0.036201,-1.011320,-0.025398,0.011308
7116961749,0.954029,-0.633305,-0.401963,-1.012343,-0.004822,0.021367
7116981797,1.769526,-1.090646,-0.530886,-1.003135,0.007398,0.030903
7117001843,2.038040,-1.029493,-0.482810,-0.994678,0.008707,0.043556
7117021888,1.972668,-0.602325,-0.307210,-0.989921,0.011642,0.053819
7117041934,1.867895,-0.076256,-0.199948,-0.993670,0.018551,0.054053
7117061980,1.632922,0.228761,-0.097065,-0.998522,0.017360,0.053412
7117082026,1.914162,0.152417,-0.186324,-1.003176,0.016353,0.053583
7117102072,2.639135,-0.144762,-0.252892,-1.005776,0.018174,0.056257
7117122116,2.659291,-0.411829,-0.397582,-1.002860,0.021544,0.056111
7117142163,2.852807,-0.495293,-0.263513,-0.996594,0.022095,0.054188
7117162208,2.524771,-0.129509,-0.235441,-0.995187,0.021009,0.056072
7117182254,2.404834,0.129861,-0.111714,-0.995530,0.019100,0.057170
7117202300,2.475290,0.389184,-0.029889,-0.994921,0.018916,0.055526
7117222346,2.636763,0.389346,0.020468,-0.997079,0.019371,0.057378
7117242391,2.697078,0.381631,-0.026526,-0.999380,0.024188,0.056774
7117262438,3.026405,0.343689,0.005418,-1.000641,0.026545,0.052979
7117282483,2.895526,0.381639,-0.045659,-0.998219,0.029638,0.050844
7117302529,2.559223,0.381564,-0.039133,-0.999058,0.028543,0.049862
7117322575,2.353126,0.373933,-0.019826,-1.003347,0.027627,0.050027
7117342622,2.114003,0.175468,-0.129147,-1.002097,0.027172,0.048463
7117362668,1.869576,-0.030315,-0.108436,-1.001998,0.026263,0.048826
7117382714,1.701029,0.000077,-0.128191,-1.001629,0.023443,0.048825
7117402760,1.822406,-0.152421,-0.175887,-1.000467,0.022533,0.047445
7117422806,1.592351,-0.030646,-0.217677,-0.999507,0.022174,0.049880
7117442852,1.501507,0.053272,-0.170345,-0.995735,0.023812,0.046545
7117462898,1.540284,0.068594,-0.140583,-0.998811,0.028268,0.048406
7117482943,1.259850,0.106940,-0.005364,-1.001158,0.026993,0.049809
7117502988,1.111688,0.030322,-0.162705,-0.999558,0.028547,0.052412
7117523034,0.892369,0.015335,-0.028495,-0.997099,0.023819,0.051743
7117543079,0.725846,-0.030212,0.066586,-0.999647,0.018266,0.051886
7117563126,1.128463,0.221027,-0.087251,-0.998820,0.019268,0.052233
7117583171,1.229132,0.335524,-0.020812,-0.998505,0.032465,0.055202
7117603217,0.903558,0.427296,0.153312,-0.998507,0.043747,0.055818
7117623263,0.071310,0.495806,0.215081,-1.001219,0.047749,0.057583
7117643309,-0.732888,0.251561,0.147443,-1.004294,0.043471,0.058913
7117663355,-1.865789,-0.305196,0.094865,-1.005813,0.037185,0.055500
7117683401,-2.346614,-0.526202,0.150780,-1.002174,0.029001,0.054181
7117703446,-2.477350,-0.480613,0.107316,-1.000302,0.020811,0.051258
7117723494,-2.546279,-0.244417,0.092585,-1.000365,0.017265,0.052535
7117743539,-2.493987,-0.191220,0.022620,-0.993725,0.017008,0.055872
7117763585,-2.108386,0.274153,0.189341,-0.994553,0.012093,0.055259
7117783631,-1.398384,0.045595,0.138118,-1.000681,0.010082,0.054731
7117803677,-1.153578,0.190464,0.140527,-0.997632,0.012810,0.051861
7117823723,-0.592738,0.168103,0.290189,-0.997979,0.015260,0.048141
7117843769,-0.518971,0.327800,0.135397,-0.998987,0.014439,0.047887
7117863813,-0.318104,0.457669,0.245689,-0.999209,0.016801,0.045980
7117883860,-0.174182,0.594698,0.166026,-0.999631,0.019806,0.047980
7117903905,0.093021,0.533755,0.145761,-1.002038,0.020254,0.046295
7117923951,0.023989,0.350820,0.140068,-1.003122,0.019244,0.042049
7117943997,0.430283,0.282483,0.201185,-1.002739,0.017054,0.037961
7117964043,0.513203,0.190908,0.138749,-1.005942,0.015866,0.037564
7117984089,0.824018,0.297329,-0.012824,-1.001444,0.018241,0.038936
7118004135,1.174594,0.213452,-0.072838,-1.001309,0.015962,0.036214
7118024181,1.389936,0.129849,-0.000323,-1.001257,0.015338,0.043839
7118044227,1.510431,0.122023,-0.101974,-1.001320,0.016433,0.045382
7118064273,1.701396,0.160152,-0.113448,-1.001314,0.015341,0.045656
7118084318,2.091896,0.167949,-0.082844,-0.997875,0.018900,0.049041
7118104366,2.213311,0.320269,-0.139198,-0.999035,0.023177,0.050778
7118124411,1.960611,0.457318,-0.165316,-1.000328,0.027450,0.050248
7118144457,1.792122,0.350552,-0.176974,-1.001105,0.031994,0.048075
7118164503,1.349664,0.152435,-0.114239,-1.002208,0.033993,0.047819
7118184549,1.059466,0.099060,-0.093147,-1.002856,0.037176,0.047552
7118204595,0.644939,-0.137496,-0.176014,-1.000400,0.037542,0.047056
7118224641,-0.056358,-0.221231,-0.055146,-1.000172,0.036455,0.049414
7118244685,-0.368821,-0.076397,-0.003717,-1.000037,0.031083,0.046516
7118264731,-0.543814,-0.122054,0.045679,-1.001270,0.028720,0.048810
7118284777,-0.841731,-0.304986,0.067352,-1.001104,0.028355,0.047900
7118304823,-1.278808,-0.122379,-0.008831,-0.999837,0.026172,0.047156
7118324868,-1.216292,-0.137427,0.066421,-0.998423,0.023358,0.049315
7118344914,-1.285490,-0.129876,0.044814,-0.998286,0.023453,0.051763
7118364960,-1.215755,0.076012,0.088624,-0.999635,0.022452,0.052787
7118385006,-1.178618,-0.122249,0.035074,-1.001478,0.020355,0.051823
7118425098,-1.193159,-0.023091,0.073233,-1.000776,0.021810,0.050356
7118445144,-1.078910,-0.000256,0.048016,-0.999498,0.027634,0.050688
7118465191,-1.292770,0.022577,0.059731,-1.000223,0.031728,0.051238
7118485237,-1.622733,-0.084351,-0.002284,-0.998424,0.037468,0.055010
7118505283,-2.157235,-0.130124,0.038806,-1.000245,0.037020,0.060126
7118525329,-2.615080,-0.023444,0.085542,-1.000138,0.039842,0.061118
7118545374,-3.082256,-0.214178,0.049394,-1.004924,0.018104,0.067590
7118565421,-3.005107,-0.168346,0.085952,-0.989059,0.019861,0.071038
7118585466,-2.331130,0.296823,0.132456,-0.985096,0.008944,0.067358
7118605512,-2.145680,0.678142,0.226927,-0.990388,-0.002362,0.057300
7118625557,-0.248219,1.402748,0.271752,-0.995439,-0.025746,0.059240
7118645603,0.800001,1.867964,0.295712,-1.003982,-0.000751,0.053353
7118665649,1.438460,1.646653,0.093024,-1.001252,0.011609,0.043845
7118685694,1.169970,1.387375,0.053248,-1.006270,0.027333,0.040274
7118705740,0.734251,0.815746,0.078889,-1.010851,0.041700,0.040419
7118725786,-0.512236,0.426748,0.081447,-1.008219,0.060900,0.040705
7118745832,-2.163523,0.068180,0.107041,-1.002086,0.081108,0.042655
7118765878,-4.094820,0.007104,0.282266,-1.004073,0.096864,0.054554
7118785923,-6.889117,-0.297926,0.520897,-1.016174,0.166048,0.090503
7118805969,-10.794140,-1.510341,0.677122,-0.995023,-0.005792,0.024251
7118826015,-6.929074,-1.166879,0.455792,-0.989008,-0.127942,-0.018042
7118846063,-0.601975,0.274578,0.198317,-0.994128,-0.140176,-0.038450
7118866109,2.542551,0.609991,-0.123626,-1.021396,0.043945,-0.019954
7118886154,2.856436,-0.282444,-0.493536,-1.024582,-0.016348,-0.057109
7118906200,5.309323,-1.562191,-0.529230,-1.017485,-0.059796,-0.041816
7118926246,9.261268,-2.438591,-0.977427,-1.033762,-0.134674,-0.032791
7118966338,18.628096,-2.681840,-1.784972,-0.980217,-0.153400,0.035046
7118986382,24.597227,-1.574601,-1.530053,-0.956541,-0.181940,0.029424
7119006428,31.682585,0.073971,-1.298596,-0.982310,-0.182351,0.023964
7119026474,37.468170,0.410509,-1.442547,-1.005566,-0.178404,0.011554
7119046520,44.609840,0.395249,-2.268805,-1.033870,-0.208105,0.010362
7119066566,52.614956,-0.747659,-3.085139,-0.994369,-0.245073,0.010294
7119086612,62.275246,-1.020932,-3.730166,-1.027989,-0.239243,-0.009113
7119106657,71.885315,-2.055823,-4.165365,-1.020799,-0.242402,-0.000970
7119126703,82.297981,-2.747613,-4.624920,-1.012611,-0.256472,-0.042481
7119146749,92.524895,-2.929183,-5.227757,-1.016722,-0.256140,-0.057117
7119166795,102.411690,-3.477098,-6.021453,-1.015075,-0.254897,-0.076301
7119186841,111.897552,-3.552105,-6.594982,-1.006124,-0.225102,-0.108548
7119206888,120.123184,-3.916844,-7.081962,-1.011380,-0.186662,-0.128221
7119226934,127.185699,-3.679022,-7.219796,-1.003344,-0.129019,-0.153962
7119246980,132.548401,-4.066832,-7.467752,-1.022152,-0.082861,-0.170058
7119267026,137.365982,-4.447465,-7.842700,-1.012933,-0.067987,-0.203555
7119287072,141.763763,-4.744291,-8.179214,-1.017421,-0.048698,-0.198155
7119307118,145.280228,-5.452126,-8.191601,-1.036602,-0.027436,-0.196773
7119327164,147.806976,-6.733181,-8.794192,-1.041942,0.015721,-0.172063
7119347209,148.455338,-7.465754,-9.278104,-0.991559,0.072879,-0.146237
7119367254,145.964813,-3.747432,-9.295647,-0.995676,0.064914,-0.171390
7119387300,148.315948,-3.792025,-9.081310,-1.003216,0.005544,-0.197125
7119407346,152.857758,-4.279484,-9.481117,-1.034605,-0.073661,-0.205173
7119427391,157.574890,-5.695652,-9.453314,-1.002777,-0.031694,-0.214954
7119447437,162.544067,-4.566597,-9.530570,-1.005203,-0.078717,-0.259497
7119467483,167.831360,-4.413250,-9.740656,-1.035629,-0.046199,-0.262845
7119487529,172.185501,-5.205122,-9.937131,-1.000161,-0.087567,-0.278541
7119507575,176.989838,-4.411961,-10.239315,-1.022931,-0.032897,-0.261903
7119527621,180.065948,-4.114614,-10.536880,-1.021254,0.025229,-0.266295
7119547666,181.635529,-4.916034,-11.237114,-1.030437,0.036277,-0.287671
7119567712,183.381454,-5.060997,-11.507396,-1.006381,-0.004826,-0.298180
7119587760,185.965439,-4.960293,-11.107025,-1.022420,0.017456,-0.236487
7119607805,188.288101,-4.501679,-10.794474,-1.060847,0.034968,-0.282521
7119627851,188.840958,-5.819544,-10.617419,-0.989909,0.034258,-0.279553
7119647897,190.675781,-5.134238,-11.075583,-1.037023,0.068838,-0.286160
7119667943,191.106628,-5.751024,-10.906136,-1.010820,0.068443,-0.325731
7119687989,191.579651,-5.110923,-10.986219,-1.018111,0.065756,-0.295828
7119708035,191.449158,-5.889287,-11.409018,-1.022232,0.097849,-0.304162
7119728080,190.729401,-6.347828,-11.874936,-1.033590,0.064058,-0.317620
7119748125,189.987289,-5.898485,-11.915522,-1.002946,0.094546,-0.284242
7119768171,189.211884,-5.562820,-11.679992,-1.001804,0.079753,-0.316735
7119788217,188.136108,-5.090349,-11.568992,-1.029682,0.094839,-0.302215
7119808263,187.395309,-5.851477,-11.070672,-1.041504,0.115207,-0.298143
7119828309,186.373520,-6.463006,-11.744181,-0.979727,0.064259,-0.299748
7119848355,186.050446,-4.900184,-11.483305,-0.985900,0.114393,-0.289740
7119868400,184.061646,-3.519562,-10.731014,-1.047302,0.093879,-0.316346
7119888446,183.088440,-5.631932,-11.201792,-1.038246,0.132140,-0.293870
7119908492,181.229706,-6.584083,-10.788124,-1.028163,0.117097,-0.268599
7119928538,179.782761,-5.395939,-10.932116,-1.000736,0.092244,-0.249418
7119948586,178.404831,-4.329676,-11.061756,-1.035050,0.095248,-0.271895
7119968631,176.845016,-6.075158,-11.002754,-1.006876,0.189832,-0.259007
7119988677,174.486572,-6.876379,-11.168283,-0.979220,0.024934,-0.314034
7120008723,174.017670,-3.764757,-10.145589,-1.018458,0.187454,-0.204702
7120048815,168.637970,-3.515325,-10.408821,-1.037194,0.143836,-0.212843
7120068860,166.076706,-4.864796,-10.354630,-1.022593,0.119226,-0.200524
7120088906,163.919174,-4.881789,-10.855250,-1.007947,0.113362,-0.184605
7120128997,156.513809,-4.082190,-10.263371,-0.965393,0.132836,-0.164575
7120149043,152.488373,-4.225558,-9.191395,-1.007816,0.266038,-0.066124
7120169088,145.372757,-4.242351,-9.037984,-0.994753,0.237623,-0.043515
7120189134,137.767471,-3.846828,-8.494371,-0.979638,0.182638,-0.025163
7120209180,134.385635,-3.068782,-7.804741,-0.952700,-0.088597,-0.178495
7120229226,143.305389,-1.101728,-8.465781,-1.047034,-0.236481,-0.235010
7120249272,148.841019,-2.334740,-8.423903,-1.074859,-0.030410,-0.201018
7120269318,150.449295,-2.998922,-9.102423,-1.011722,-0.029466,-0.233959
7120289364,152.946091,-4.278909,-9.245948,-1.047183,0.013441,-0.222623
7120309410,154.266220,-6.130638,-9.326530,-1.033566,-0.033766,-0.230039
7120349503,158.411819,-5.162539,-9.700571,-0.983591,0.032005,-0.220561
7120369548,158.545197,-4.088588,-9.974185,-1.005493,0.068740,-0.212351
7120389594,157.241547,-4.377024,-9.328971,-1.028026,0.077493,-0.234585
7120409640,157.453079,-4.605908,-9.462219,-1.013971,0.046490,-0.183665
7120429686,157.331345,-4.362012,-9.437745,-0.995774,0.066756,-0.210516
7120449732,157.250031,-3.386268,-9.317151,-1.005325,0.029691,-0.225270
7120469777,157.773407,-3.804800,-9.111954,-1.019475,0.033657,-0.234295
7120489822,158.873138,-5.389703,-9.128016,-1.057998,-0.006446,-0.245282
7120509868,161.115662,-5.040253,-9.860424,-1.023658,-0.023441,-0.212524
7120529914,163.651260,-5.123768,-10.016328,-1.018106,-0.034470,-0.228849
7120549960,166.674698,-4.818705,-10.267047,-1.025614,-0.009678,-0.247735
7120570006,168.841629,-5.755021,-10.061451,-1.017296,0.007240,-0.256075
7120590052,170.727722,-5.503361,-10.205868,-0.988294,0.016957,-0.238430
7120610098,172.839645,-4.337661,-10.579311,-0.987681,0.025962,-0.239272
7120630144,173.596283,-3.848806,-10.190623,-1.004863,0.030807,-0.263770
7120650189,174.297821,-4.046990,-10.287633,-1.041339,0.070345,-0.253228
7120670235,173.743835,-5.067724,-10.021317,-1.040010,0.042304,-0.266911
7120690283,173.576782,-5.449629,-10.368309,-1.016562,0.094917,-0.216472
7120710328,172.497406,-5.655832,-10.430736,-1.000982,0.073089,-0.278249
7120730374,171.950760,-4.673448,-10.675568,-1.027977,0.091301,-0.245684
7120750420,170.802094,-4.635885,-10.775666,-1.022943,0.125991,-0.233300
7120770466,168.298096,-5.092284,-10.121883,-1.010759,0.131158,-0.201925
7120790512,166.429855,-4.238658,-9.874514,-1.005520,0.090127,-0.207575
7120810558,164.887421,-4.490277,-9.752048,-1.007609,0.122970,-0.204961
7120830602,163.095871,-4.521554,-9.885292,-1.018766,0.090074,-0.227138
7120850648,161.753540,-5.078752,-10.101918,-1.012973,0.101327,-0.195211
7120870694,160.851135,-4.415057,-9.712184,-0.990726,0.077428,-0.198819
7120890740,159.320297,-4.285145,-9.384895,-1.027247,0.091686,-0.182516
7120910786,157.863312,-4.164162,-9.624479,-1.023879,0.104543,-0.167798
7120930832,156.032730,-4.370818,-9.794589,-1.024233,0.107512,-0.186406
7120950877,154.199661,-4.767316,-9.673643,-1.009771,0.102566,-0.165675
7120970923,153.054108,-4.669377,-10.026172,-1.003796,0.104498,-0.158699
7120990969,151.133759,-3.998468,-9.693126,-1.007954,0.112255,-0.141303
7121011015,149.382095,-3.639888,-9.324106,-1.005633,0.079309,-0.151091
7121031061,147.819077,-3.662598,-9.079741,-1.023634,0.097396,-0.145459
7121051108,146.312515,-4.638445,-9.062542,-1.020703,0.090586,-0.140595
7121071154,144.172714,-5.065621,-8.989033,-0.998008,0.083973,-0.143604
7121091200,142.079575,-4.067678,-8.921173,-0.979609,0.089744,-0.136302
7121111246,140.341888,-3.587340,-8.629246,-0.990106,0.104576,-0.125254
7121131291,137.791931,-2.992154,-8.016280,-1.006938,0.096088,-0.127132
7121151337,136.242096,-3.053234,-7.886665,-1.010264,0.086535,-0.124881
7121171383,134.852585,-3.022863,-7.775747,-1.005183,0.075829,-0.112785
7121191429,133.410202,-2.945705,-7.205473,-1.014763,0.091109,-0.106384
7121211474,131.294281,-3.007968,-7.515715,-1.016253,0.116431,-0.086883
7121231520,128.357269,-3.123186,-7.565321,-1.015971,0.170982,-0.053936
7121251565,121.796349,-3.726056,-7.160913,-1.022974,0.305076,0.004603
7121271611,113.418976,-4.696745,-7.407763,-0.980194,0.234118,0.021330
7121291657,104.608185,-3.026635,-5.920386,-0.955302,0.322519,0.039005
7121311703,93.633720,-1.717230,-5.260950,-0.996748,0.372800,0.057966
7121331749,81.089745,-2.115472,-4.657070,-1.013426,0.339843,0.057941
7121351795,71.031891,-2.148109,-4.423590,-1.004973,0.278018,0.071335
7121371841,61.621990,-1.858787,-3.462533,-0.980633,0.311721,0.075675
7121391886,52.149109,-1.029665,-3.044595,-0.993289,0.295867,0.072014
7121411932,43.730915,-1.297647,-2.612904,-1.006458,0.209669,0.056132
7121431980,38.057919,-1.275279,-2.174316,-0.991266,0.177785,0.070269
7121452026,34.806061,-1.222121,-1.882150,-0.983668,0.072844,0.035546
7121472072,33.291855,-0.413820,-1.503952,-1.000783,0.041782,0.026903
7121492117,33.660046,-0.635549,-1.854224,-1.010646,-0.022630,0.032806
7121512163,36.245232,-1.024373,-2.216392,-0.996806,-0.062530,0.042531
7121532209,38.847355,-0.840461,-2.084102,-0.992838,-0.062082,0.035019
7121552254,40.790192,-0.710294,-2.045820,-1.008257,-0.012774,0.048726
7121572299,42.094898,-1.206614,-2.604386,-1.006587,0.006866,0.041584
7121592345,41.812721,-1.320902,-2.560323,-0.996964,0.050100,0.045978
7121612391,40.203873,-1.282655,-2.315271,-1.000820,0.070472,0.046191
7121632437,37.550697,-1.047141,-2.325704,-1.005888,0.133611,0.052618
7121672529,25.457150,-1.651101,-1.752804,-1.004172,0.275891,0.050628
7121692574,15.506238,-1.210269,-1.117978,-0.997413,0.364906,0.070699
7121712620,3.053558,-1.151327,-0.555599,-0.986718,0.315039,0.053442
7121732666,-4.146047,-0.694675,0.010504,-0.960306,0.036390,-0.021346
7121752712,-0.639584,0.473769,0.649229,-0.958953,-0.204376,-0.105211
7121772758,7.922362,1.269380,0.961854,-1.037146,-0.087989,-0.020465
7121792805,12.214534,-0.767702,-0.505394,-1.030147,-0.116599,0.000251
7121812851,19.307989,-0.698463,-1.040623,-0.988376,-0.174309,-0.001817
7121832897,28.571159,0.295179,-0.856886,-0.988942,-0.295226,-0.010231
7121872993,52.232403,-0.473464,-3.109194,-1.024096,-0.380120,0.009482
7121893035,63.243694,-0.945796,-4.299393,-1.008347,-0.353123,-0.015977
7121913080,74.362862,-1.033998,-4.186275,-1.037786,-0.258846,-0.026161
7121933130,84.481583,-1.940670,-5.250728,-1.031785,-0.228229,-0.054910
7121953171,94.693207,-2.787196,-6.676332,-1.018911,-0.216889,-0.083652
7121973217,104.441818,-2.648401,-7.102842,-0.964940,-0.236845,-0.095251
7121993263,114.906067,-1.281944,-7.318083,-0.998824,-0.315471,-0.133940
7122013308,125.650826,-0.722489,-7.215139,-1.035302,-0.241974,-0.160310
7122033354,133.711288,-1.178322,-7.530499,-1.020821,-0.254472,-0.192490
7122053400,141.839767,-2.138175,-8.296346,-1.051222,-0.179349,-0.230767
7122073446,147.482346,-4.201789,-8.230852,-1.034561,-0.091185,-0.237915
7122093492,152.370743,-5.336554,-8.467117,-1.034989,-0.067858,-0.215525
7122113538,155.648895,-7.302966,-8.929178,-1.042296,-0.041162,-0.238139
7122133584,158.686356,-7.525853,-10.080103,-0.990788,-0.001616,-0.192423
7122153631,160.274780,-6.976025,-9.784173,-1.028733,-0.033146,-0.191542
7122173677,164.436722,-7.167068,-10.483253,-1.002687,-0.137671,-0.211875
7122193723,172.020157,-6.273625,-10.587530,-0.991258,-0.161268,-0.241896
7122213768,179.417511,-5.341474,-10.413232,-0.987565,-0.176604,-0.274795
7122233814,187.949829,-4.683906,-10.466362,-1.053312,-0.167966,-0.326702
7122253860,195.431747,-5.506333,-11.052008,-1.045781,-0.149103,-0.367076
7122273906,202.663071,-5.924730,-11.557723,-1.013701,-0.127429,-0.432838
7122293952,208.910324,-5.437264,-12.391224,-1.047254,-0.095612,-0.417885
7122313997,213.761124,-6.611054,-13.016342,-1.053326,-0.018497,-0.429983
7122334043,216.814377,-6.694722,-13.296911,-1.034056,-0.013019,-0.434678
7122354089,218.096039,-6.283248,-13.468340,-0.994416,0.065440,-0.444561
7122374134,218.188690,-6.274497,-12.996396,-1.021979,0.109966,-0.450338
7122394180,216.049210,-6.525373,-12.487918,-1.012750,0.174611,-0.426728
7122414226,212.715973,-5.567044,-12.923122,-1.049311,0.115360,-0.412208
7122434272,209.155731,-5.811492,-12.761528,-1.064219,0.232860,-0.420592
7122454317,204.478333,-7.131810,-13.033161,-1.007048,0.156363,-0.357714
7122474363,200.831818,-6.537333,-12.597592,-0.984862,0.199082,-0.345908
7122494409,195.981964,-4.959546,-11.935629,-1.020923,0.202042,-0.339851
7122514455,190.618179,-5.189118,-11.723806,-1.026165,0.215531,-0.321447
7122534502,185.299286,-5.608326,-11.137790,-0.991467,0.198859,-0.259920
7122554548,181.625732,-4.144679,-10.536478,-0.981498,0.134178,-0.268152
7122574594,177.666138,-3.625443,-9.651381,-1.006375,0.197397,-0.251312
7122594640,173.212753,-4.427221,-9.814466,-1.028173,0.271922,-0.274121
7122614686,163.028778,-5.023295,-9.347418,-1.004337,0.403824,-0.246787
7122654778,135.082077,-2.687492,-7.781317,-1.019030,0.265029,-0.113680
7122674822,131.164658,-2.787956,-7.926570,-0.992147,0.237347,-0.099296
7122694868,124.363762,-1.643241,-6.476444,-1.008546,0.207499,-0.142631
7122714914,117.499832,-3.064174,-7.156160,-1.049063,0.310933,-0.109886
7122734960,110.741592,-3.333593,-7.528461,-1.050012,0.271849,-0.089834
7122755006,104.370476,-3.823271,-7.624806,-0.999119,0.225993,-0.135651
7122775051,98.249481,-3.365269,-6.605867,-0.964042,0.243274,-0.115036
7122795097,92.788200,-1.367501,-5.520799,-0.958177,0.161988,-0.094757
7122815143,88.241859,-0.133839,-5.398481,-0.982056,0.150668,-0.097509
7122835189,83.527130,0.292991,-4.834647,-1.006371,0.249315,-0.058314
7122855235,76.661858,0.444648,-4.373354,-0.995289,0.229656,-0.072541
7122875281,69.720978,0.840246,-3.873200,-1.003079,0.291837,0.012547
7122895328,61.612606,0.961501,-3.234855,-0.996522,0.254832,0.018942
7122915374,53.440605,1.097661,-2.732872,-1.005309,0.299716,0.098538
7122935420,43.576397,0.730106,-2.349205,-0.994612,0.306699,0.128664
7122955466,32.851540,-0.109708,-1.763872,-1.010830,0.354364,0.192133
7122975512,22.036610,-1.696122,-1.059682,-0.955886,0.171718,0.056967
7122995557,25.628265,-0.124627,-0.798383,-1.012560,-0.049071,-0.051268
7123015603,26.168396,-0.703982,-0.929199,-1.062846,0.194208,0.053579
7123055694,18.782949,0.025656,-0.925865,-0.992051,0.072854,-0.055724
7123075740,18.594841,-0.560766,-0.736868,-1.033665,-0.034877,-0.084701
7123095786,19.214249,-1.475029,-0.699995,-1.001563,-0.030294,-0.091974
7123115831,18.847580,-1.589389,-0.677216,-1.009066,0.036159,-0.112835
7123135877,17.784981,-1.673473,-0.663959,-1.008943,0.050495,-0.134557
7123155923,17.119816,-1.544102,-0.666766,-1.006109,0.062145,-0.133716
7123175970,16.960625,-0.934340,-0.612216,-1.006518,0.042554,-0.151832
7123196015,17.419268,-0.850407,-0.621395,-1.011182,0.036334,-0.167084
7123216061,18.143196,-0.460900,-0.346364,-1.016683,0.012279,-0.184289
7123236107,18.519825,-0.492015,-0.659227,-1.000107,0.047591,-0.189532
7123256154,17.468266,-0.050846,-0.900100,-1.005923,0.065194,-0.211158
7123276200,16.259752,-0.278848,-0.493819,-1.017247,0.076451,-0.215159
7123296246,14.869483,-0.080925,-0.429293,-1.005750,0.082124,-0.205742
7123316292,13.654952,0.397991,-0.804676,-1.018964,0.067292,-0.248793
7123336338,12.530459,-0.645375,-0.374386,-0.998370,0.102852,-0.220064
7123356383,9.649149,0.177004,-0.336497,-1.019884,0.126215,-0.211475
7123376429,6.869285,1.502619,-0.202913,-1.000243,0.133193,-0.191487
7123396475,5.068873,1.174984,0.031791,-1.024053,0.113261,-0.176524
7123416519,3.260328,1.570224,-0.209524,-1.058373,0.037119,-0.199323
7123436565,2.481599,0.021252,-0.938119,-0.989363,0.087619,-0.198587
7123456611,2.007057,-1.502014,-0.488277,-1.040301,-0.001888,-0.202472
7123476657,0.753858,-3.012074,-0.818080,-1.064090,0.084816,-0.126320
7123496703,-0.536199,-4.731682,-2.758817,-1.076856,0.117674,-0.001611
7123516749,-4.061788,-7.095038,-2.720746,-1.017477,0.110983,0.076092
7123536795,-4.857965,-6.440032,-2.799174,-0.868728,-0.048413,0.049129
7123556841,-1.667998,-2.888567,0.130194,-0.880668,-0.074374,0.039209
7123576886,-0.541264,0.444167,1.014209,-1.045624,-0.034756,0.046948
7123596932,1.303886,-2.654824,-1.280788,-1.186303,0.028152,-0.017842
7123616978,0.797846,-5.449145,-3.378348,-1.029326,0.043460,-0.082273
7123637026,-0.641668,-5.825859,-1.362384,-0.967781,0.027961,0.003215
7123657072,-1.442590,-4.991242,0.407912,-0.837031,0.097785,0.077667
7123677118,-5.204770,2.605173,0.119400,-0.863353,-0.075623,-0.065115
7123697163,-3.765673,5.410058,0.112704,-0.909099,0.084769,0.081822
7123737255,-7.574371,6.625498,2.131132,-1.018866,0.089027,0.059177
7123757301,-8.427368,7.264818,1.870463,-0.983718,0.000377,0.057545
7123777345,-8.781729,7.929333,2.547574,-1.012131,0.025705,0.102559
7123797391,-9.093040,6.854072,2.282103,-1.041807,-0.010133,0.130085
7123817437,-7.369156,3.453349,1.327717,-1.043187,-0.011979,0.168329
7123837483,-5.670483,2.079334,0.176037,-1.017216,-0.063210,0.191029
7123857529,-3.599113,0.723383,0.186206,-1.011866,-0.042459,0.243735
7123877575,-0.971526,0.075028,-0.359316,-1.034445,-0.145816,0.255821
7123897621,4.824005,-0.588381,-1.187861,-0.959375,-0.073539,0.322776
7123917667,2.678186,0.586908,-0.233162,-0.901855,0.080968,0.243470
7123937712,-2.294237,1.047420,1.726305,-0.940015,0.131803,0.160249
7123957758,-0.647586,4.957455,1.742467,-1.055530,-0.076296,0.022767
7123977804,3.443286,2.996197,0.133685,-1.036894,0.006420,0.071695
7123997852,2.271727,3.590044,0.016895,-0.994355,0.078086,-0.027371
7124017898,1.778879,2.569324,0.282025,-1.040044,0.049563,-0.068937
7124037943,2.289362,-0.342732,-0.138466,-1.038667,0.028120,-0.055309
7124057989,3.749772,-1.890256,-0.505517,-1.024144,-0.037599,-0.088581
7124078035,5.369850,-3.733062,-0.064690,-1.021078,-0.028600,-0.095002
7124098081,5.944843,-4.152818,-0.387749,-1.048424,-0.095930,-0.130191
7124118127,7.637125,-4.443591,-1.084425,-1.021245,-0.032729,-0.167342
7124138179,8.480234,-4.055453,-1.407735,-0.966162,-0.002527,-0.213902
7124158217,8.839843,-2.339757,-1.030711,-0.991905,0.047227,-0.248858
7124178263,8.363081,-1.385711,-0.367471,-1.019856,0.095358,-0.221591
7124198309,8.103852,-1.333335,-0.752329,-1.006641,0.092463,-0.223355
7124218354,7.927731,-1.181010,-0.772343,-1.039572,0.028965,-0.195818
7124238400,9.558843,-1.889927,-1.030877,-1.027134,-0.010309,-0.139047
7124258446,11.530364,-2.379230,-1.923346,-1.045571,-0.028662,-0.110289
7124278492,13.324798,-3.712613,-2.007217,-1.062810,-0.029286,-0.036101
7124298538,15.319585,-5.191519,-2.423073,-1.003811,-0.036442,0.035980
7124318584,16.535103,-5.803820,-3.682536,-1.009550,0.029820,0.060296
7124338630,16.422207,-6.316840,-1.447333,-0.916624,0.199106,-0.024812
7124358676,12.986086,-3.648071,-0.442003,-0.939117,0.160042,0.025019
7124378723,11.582115,-3.163349,-1.570233,-1.070734,0.109737,0.032067
7124398769,9.969452,-2.505375,-0.287933,-1.160476,0.091978,-0.112343
7124418814,10.349704,-5.211750,-0.729506,-1.034764,-0.031117,-0.118639
7124438860,10.962172,-5.035223,-0.268208,-0.896438,-0.011406,-0.042690
7124458906,12.028791,-1.759678,-1.018106,-0.815943,0.011155,-0.006064
7124478952,10.769537,1.617086,-0.584634,-0.932410,0.101833,-0.025107
7124498998,9.138800,2.529818,-1.159704,-0.982548,0.117353,-0.004217
7124519043,7.345053,2.043022,-0.550168,-1.023324,0.103255,0.031815
7124539088,5.453074,2.698410,-0.339884,-0.958017,0.122368,0.086316
7124559134,3.400289,6.432338,-0.251351,-0.846934,0.063137,0.092962
7124579180,2.595644,13.084438,-0.586466,-0.793856,0.047782,0.111872
7124599402,-1.188239,17.719992,3.957055,-1.160888,-0.060565,0.002115
7124619448,1.281188,14.406772,4.485635,-1.167279,0.250945,0.123621
7124639494,-1.995665,6.822772,1.120534,-1.109335,-0.178351,-0.027526
7124659539,1.780672,0.069095,0.045787,-1.097798,0.095697,0.141576
7124679585,0.666797,-5.429119,-1.320321,-1.081505,-0.015596,0.160818
7124699631,2.503604,-7.755573,-2.410380,-1.039615,-0.021276,0.207136
7124719677,4.135701,-6.169649,-2.271576,-0.843727,-0.026815,0.258090
7124739725,6.360070,0.283626,0.009704,-0.900972,-0.062794,0.228080
7124759771,7.344277,5.286524,1.410543,-0.917995,-0.060908,0.279929
7124779816,10.976619,7.587916,0.935043,-0.981616,-0.021687,0.236105
7124799862,10.231228,5.230564,-0.036034,-1.043602,0.074986,0.166195
7124819908,7.392416,0.924030,-0.004819,-1.029594,0.082724,0.105213
7124839954,8.598429,-0.935273,-0.052596,-1.035642,0.023592,0.110225
7124860000,8.588346,-3.839932,-0.508859,-1.046220,0.076612,0.109591
7124880045,6.916751,-4.061991,-0.766059,-1.000440,0.157180,0.052304
7124900090,4.620291,-1.967363,-0.988281,-0.995841,0.059780,0.013989
7124920136,3.715975,-1.638219,-0.268816,-1.000543,0.063843,-0.051297
7124940182,3.177698,0.008224,-0.072816,-0.987105,-0.073413,-0.102951
7124960228,5.645072,-1.734480,0.710385,-1.010201,0.074821,-0.112517
7124980274,4.450963,-4.389828,-0.541367,-1.053111,0.025224,-0.138754
7125000320,4.024012,-4.858593,-2.151510,-1.121821,0.089031,-0.165103
7125020365,1.318468,-7.786375,-2.410205,-0.974459,0.162299,-0.164016
7125040411,-1.917843,-6.079566,-2.162053,-0.956528,0.100783,-0.137168
7125060457,-3.364154,-3.272854,-1.058246,-0.983997,-0.003139,-0.132533
7125080503,-2.890313,-2.761199,-0.664147,-1.044758,-0.066758,-0.098530
7125100550,-0.881228,-3.425847,-1.587328,-1.052254,-0.096973,-0.047244
7125120596,1.892223,-3.814002,-1.685700,-1.041651,-0.085118,0.012196
7125140642,5.338175,-5.753593,-0.477628,-1.024316,-0.017925,0.029854
7125160688,2.924433,-4.570796,0.459320,-0.751172,0.122507,0.045025
7125180734,1.127240,4.055881,0.557171,-0.771807,0.125562,0.040833
7125200780,-1.606363,9.335520,0.149433,-1.082872,0.096582,-0.041143
7125220825,-4.832884,2.617494,2.083637,-1.328744,0.121243,-0.091912
7125240870,-6.196808,-3.821761,-0.818059,-1.224617,-0.005088,-0.109636
7125260916,-6.627058,-10.846112,0.161215,-1.095202,-0.031024,-0.014940
7125280962,-7.715012,-7.571618,2.463860,-0.842337,0.031192,0.029393
7125301007,-6.872951,-2.090571,-0.214669,-0.766095,-0.101337,-0.024066
7125321054,-5.974963,1.750762,-0.160827,-0.866771,-0.009940,-0.009610
7125341099,-7.284196,2.456211,1.833724,-0.957251,0.048791,0.044758
7125361145,-7.245903,2.621892,0.984228,-1.016137,-0.066262,0.005194
7125381191,-6.102201,2.948469,0.372557,-0.979957,-0.001137,0.072915
7125401237,-7.035673,6.463090,1.059058,-0.858654,-0.005534,0.058055
7125441329,-7.474568,15.139792,6.089687,-1.147455,0.021606,0.056126
7125461376,-7.790582,13.833324,4.724707,-1.162803,0.006898,-0.017844
7125481422,-7.208512,6.190095,1.659354,-1.117086,-0.067477,0.018900
7125501468,-6.482252,0.595958,1.427001,-1.073070,0.089840,0.100950
7125521513,-7.295850,-5.412467,0.194310,-1.093499,-0.009830,0.086757
7125541559,-6.166147,-9.286516,-1.044987,-1.094742,0.042381,0.135621
7125561605,-6.348616,-9.966624,-1.810968,-0.904270,-0.013358,0.147989
7125581651,-5.547746,-4.308406,-0.424036,-0.862548,-0.013157,0.176053
7125601696,-6.340471,1.290978,2.056176,-0.908676,-0.080387,0.162155
7125621742,-5.535948,5.079713,2.440589,-0.930979,0.056078,0.184367
7125641788,-6.279690,5.931729,1.871435,-1.015774,-0.003593,0.154776
7125661833,-8.003685,4.513408,1.718573,-1.049443,0.051257,0.179587
7125681879,-7.677844,-0.458320,0.460321,-1.063684,-0.019811,0.180493
7125701925,-8.303968,-3.180822,-0.244403,-1.021247,-0.000848,0.116466
7125721971,-7.068142,-5.298317,0.097814,-0.987590,-0.033650,0.058393
7125742017,-4.564560,-2.757653,1.041806,-0.998206,-0.107255,0.062509
7125762063,-2.575670,-2.335218,-1.038461,-1.015093,0.056821,0.107278
7125782109,-4.808294,-0.734556,-0.671885,-0.920059,0.056341,0.065535
7125802155,-7.022589,1.913467,1.096875,-0.968107,0.059836,0.075335
7125822202,-8.512440,0.770160,1.198364,-1.069925,0.011899,0.059359
7125842248,-9.006156,-2.038792,-0.639577,-1.097252,-0.000632,0.043142
7125862293,-8.327234,-5.035589,-1.468051,-1.027862,-0.039465,0.044021
7125882339,-5.286850,-5.713332,-1.593563,-0.972111,-0.088040,0.052410
7125902385,-2.069492,-5.093442,-0.855705,-0.894860,-0.030033,0.020677
7125922432,-2.203109,-2.073321,0.107297,-0.957807,0.037889,0.053409
7125942477,-2.787998,0.662721,0.224159,-1.007882,-0.046362,0.037428
7125962531,-1.977488,2.050837,0.601166,-0.954871,0.052142,-0.017925
7125982567,-3.424577,3.537146,0.861183,-1.031351,0.021904,-0.026102
7126002613,-3.592778,2.765464,0.041739,-1.067683,-0.002464,-0.040965
7126022659,-3.283592,1.613327,-0.579382,-1.017936,-0.000078,-0.018396
7126042705,-1.853076,0.766956,-0.932905,-0.995155,-0.057690,-0.000534
7126062751,0.207840,-0.336900,-0.663562,-0.997127,-0.044463,0.021718
7126082797,1.836251,-1.219452,-0.218452,-0.987388,-0.007522,0.017315
7126102843,2.456532,0.586858,-0.228861,-0.959344,0.036705,0.054164
7126122889,2.671314,1.175756,0.636137,-0.985226,0.033224,0.061964
7126142935,2.598402,2.502135,0.785965,-0.997061,-0.010799,0.075946
7126162980,3.971883,2.570725,0.629180,-0.996089,-0.013488,0.098356
7126183028,4.946770,3.150632,0.822293,-0.997957,-0.015297,0.105744
7126203073,4.695465,3.074492,0.880913,-1.028456,-0.002984,0.097257
7126223119,5.966750,2.052984,0.607478,-1.009387,-0.010675,0.105386
7126243165,7.153424,0.818018,0.313471,-1.012436,0.006223,0.094880
7126263211,7.992218,0.040676,0.215727,-1.039274,0.018931,0.101399
7126283257,9.877150,-1.942558,-0.761786,-1.011468,0.025410,0.089204
7126303303,10.185963,-3.398566,-0.969250,-1.011873,0.027722,0.111538
7126323363,11.467624,-3.985358,-1.106788,-1.023368,0.011777,0.106495
7126343393,12.474887,-4.450188,-1.201200,-1.016178,0.032537,0.111240
7126363439,13.382347,-4.244507,-1.341756,-0.956528,0.044592,0.087872
7126383485,13.539598,-2.133070,-1.176084,-0.964191,0.028808,0.067967
7126403531,14.081546,-0.889936,-0.846873,-0.987359,0.039678,0.060628
7126423577,14.822378,0.391364,-0.514007,-0.964303,0.018275,0.027318
7126443623,16.392155,0.414953,-0.384076,-0.981539,-0.007686,0.022299
7126463669,18.231161,0.545509,-0.168027,-1.013855,0.034145,0.040482
7126483714,19.881830,-0.994459,-0.584644,-1.017878,0.028820,0.015687
7126503760,21.362595,-1.986027,-1.114412,-1.006094,0.007399,0.033859
7126523806,23.265656,-0.363478,-1.638152,-0.967681,0.027137,0.052234
7126543853,25.597569,1.102224,-0.847721,-0.987944,0.036770,0.063366
7126563899,27.668339,1.926602,-0.523858,-0.994806,-0.006887,0.074630
7126583945,30.855228,1.453815,-1.012044,-1.000232,0.059982,0.081692
7126603991,32.736549,1.660124,-0.995746,-0.981688,0.022673,0.060015
7126624037,36.125706,1.835570,-1.314262,-1.016513,0.003573,0.091595
7126644083,39.368614,1.051679,-1.229390,-1.035555,0.050753,0.087394
7126664129,40.880341,0.502148,-1.753589,-0.999891,0.053117,0.109113
7126684176,44.616096,0.151220,-2.336887,-0.979728,0.056650,0.083799
7126704219,47.082233,0.336300,-1.689985,-0.993581,0.084803,0.067740
7126724265,50.163734,-0.204884,-2.084201,-1.027748,0.059494,0.085340
7126744311,54.102943,-1.898317,-3.209520,-1.024057,0.025524,0.060914
7126764356,59.281570,-3.285509,-3.878498,-1.015430,0.009479,0.086393
7126784402,64.669243,-3.849311,-4.432010,-0.985880,0.034586,0.061247
7126804448,70.097717,-3.649743,-4.446312,-0.985306,-0.029428,0.078137
7126824494,76.916855,-2.885022,-4.107408,-0.988936,0.019285,0.053245
7126844540,82.813858,-2.275538,-4.865745,-0.973561,0.038374,0.031709
7126864586,88.842606,-1.427576,-4.687535,-0.993601,0.068985,0.021924
7126884632,93.006660,-1.670696,-4.843940,-1.016875,0.104385,-0.004064
7126904679,98.507027,-3.004381,-5.481132,-1.027149,0.129030,-0.000026
7126924725,103.286194,-4.323342,-6.257207,-1.012175,0.137851,-0.014366
7126944771,107.581200,-4.688224,-6.354616,-0.960672,0.170116,-0.022833
7126964817,112.119171,-4.342589,-5.725526,-1.009630,0.171418,-0.017824
7126984863,116.158585,-4.708960,-6.429286,-1.015238,0.177576,-0.029086
7127004908,119.627373,-4.358806,-7.002097,-0.996192,0.243835,-0.027342
7127024954,120.998917,-3.458858,-6.871237,-0.972758,0.215098,-0.041038
7127045011,122.897728,-2.458754,-6.338302,-0.977119,0.258922,-0.051658
7127065045,124.291832,-2.586603,-5.768895,-1.009125,0.249873,-0.049281
7127085090,125.386398,-2.579525,-6.126381,-0.982926,0.276542,-0.063117
7127105136,125.773567,-2.874990,-5.422256,-0.997966,0.292345,-0.065337
7127125182,126.545433,-3.653098,-5.839639,-1.031865,0.316413,-0.059534
7127145228,126.858185,-4.683837,-6.690477,-1.037551,0.334534,-0.045034
7127165274,127.404633,-5.515826,-7.309627,-1.006310,0.300461,-0.047053
7127185320,128.967789,-4.540556,-7.580090,-0.979652,0.265869,-0.030475
7127205366,131.984833,-3.883806,-7.350445,-0.991292,0.180871,-0.037851
7127225412,136.147858,-4.020376,-7.568316,-0.998369,0.131041,-0.018948
7127245458,142.652939,-4.629457,-8.059304,-0.994508,0.077526,-0.035537
7127265505,149.560577,-5.207303,-8.275474,-0.996013,0.133388,-0.082990
7127285551,154.289429,-5.900002,-8.471907,-1.009098,0.177434,-0.115520
7127305597,158.804321,-6.365123,-9.092868,-1.009795,0.231892,-0.134662
7127325643,162.909866,-6.205028,-9.539855,-1.036793,0.230540,-0.156984
7127345688,167.219864,-6.281367,-10.089361,-0.986234,0.230229,-0.169102
7127365734,172.243942,-5.106395,-10.091422,-0.968436,0.192544,-0.196485
7127385780,177.063538,-3.814936,-9.142363,-0.961286,0.207700,-0.223321
7127405826,181.196915,-3.416976,-8.902951,-1.027395,0.242245,-0.234597
7127425870,184.176437,-4.035717,-9.860398,-1.070732,0.261307,-0.274467
7127445917,186.041351,-5.867164,-11.105478,-1.077339,0.367107,-0.269537
7127465963,183.711319,-8.240433,-12.183300,-0.985532,0.245988,-0.262005
7127486008,186.985672,-6.712265,-10.861180,-0.994663,0.454986,-0.234328
7127506054,183.859299,-6.584445,-11.244144,-0.957906,0.328690,-0.332512
7127526100,183.904556,-4.691695,-10.074541,-0.994658,0.451512,-0.244036
7127546146,181.453629,-2.657280,-9.957341,-0.981453,0.423486,-0.311026
7127566192,179.061462,-1.292759,-9.525753,-1.008069,0.426546,-0.307854
7127586237,177.809067,-1.613940,-9.851889,-1.045663,0.390804,-0.322586
7127606283,175.998169,-2.101974,-9.769275,-1.044033,0.399889,-0.279056
7127626329,172.359344,-3.739257,-8.829732,-0.979607,0.394674,-0.297212
7127646377,168.429337,-4.089853,-8.393158,-1.003393,0.423620,-0.268259
7127666422,164.538239,-4.570891,-8.338978,-1.007156,0.460130,-0.247468
7127686468,159.541412,-3.695423,-8.168518,-1.032823,0.528966,-0.243241
7127706514,153.553421,-3.850590,-8.655484,-1.005902,0.479327,-0.247612
7127726560,147.773361,-3.203386,-8.239823,-0.984927,0.481697,-0.210392
7127746606,141.523819,-2.950980,-7.133649,-0.981663,0.479939,-0.177765
7127766652,135.266434,-2.669113,-6.462985,-1.010293,0.482302,-0.155403
7127786696,128.327148,-3.470694,-6.256892,-1.011472,0.503451,-0.129365
7127806742,121.391037,-3.540310,-5.900469,-1.008983,0.482158,-0.134365
7127826788,114.823494,-4.945166,-6.257406,-1.034808,0.473150,-0.114120
7127846834,108.217323,-6.006176,-6.225025,-1.015693,0.455191,-0.099347
7127866880,101.528633,-6.746949,-6.115695,-1.006120,0.433146,-0.072513
7127886925,95.656479,-6.618989,-6.124440,-1.020753,0.384604,-0.091064
7127906971,90.769783,-6.645268,-7.022919,-1.009665,0.349777,-0.091286
7127927017,85.320015,-5.571041,-6.538674,-0.962359,0.341995,-0.106877
7127947063,79.056992,-4.350622,-5.366688,-0.981829,0.338525,-0.098097
7127967109,72.899185,-3.330526,-5.135975,-0.979083,0.332144,-0.107937
7127987155,65.678589,-3.102237,-4.454082,-0.979287,0.387410,-0.081337
7128007202,56.805172,-3.155522,-3.410599,-0.991746,0.405767,-0.082153
7128027248,47.890480,-4.063681,-2.928935,-1.049093,0.438149,-0.089036
7128047294,36.925179,-5.698502,-3.352601,-1.093888,0.479525,-0.112760
7128067340,26.778936,-8.652292,-4.101069,-1.070416,0.399091,-0.088698
7128087386,19.277281,-5.663294,-2.567071,-0.836799,0.219448,0.044055
7128107432,15.711527,-0.584504,-0.780180,-0.956442,0.133087,-0.028471
7128127477,17.803484,0.251918,-1.824587,-0.928826,-0.099835,-0.070404
7128147533,18.547373,-0.513279,0.020398,-0.939495,0.224561,-0.015386
7128167568,12.097371,1.406717,0.551802,-1.054158,0.121738,-0.037861
7128187614,7.261455,0.373220,-0.886852,-1.082274,0.208652,-0.046150
7128207660,1.772055,0.189900,-0.435859,-0.985607,0.142836,0.004689
7128227705,-2.964388,0.450227,0.625645,-0.961261,0.139734,0.031422
7128247751,-7.209478,1.289102,1.354748,-0.963059,0.096495,0.069197
7128267797,-10.780607,2.942686,1.693630,-0.963490,0.105049,0.071096
7128287843,-14.239707,5.176093,2.288217,-0.946850,0.101006,0.086252
7128307889,-16.857738,7.334516,3.309937,-0.969478,0.051637,0.069926
7128327935,-17.973179,7.548691,3.774073,-1.014526,0.018916,0.071928
7128347981,-18.572609,7.187994,2.770592,-1.035388,0.003210,0.107895
7128368028,-18.280769,4.854434,2.077326,-1.052836,-0.062777,0.103763
7128388074,-17.549362,3.070142,1.572380,-1.027334,-0.014351,0.151450
7128408120,-17.089323,2.016842,0.833381,-0.992320,-0.007735,0.211754
7128428166,-16.931408,2.306113,0.676524,-0.973216,-0.064826,0.218694
7128448211,-15.882235,2.956325,1.593900,-0.978519,0.007599,0.281210
7128468257,-16.117542,3.878545,1.656527,-0.997769,-0.113334,0.279833
7128488303,-12.962921,1.388126,1.993319,-0.968520,-0.049536,0.270241
7128508349,-11.396277,4.395818,3.962608,-0.882435,-0.296385,0.018910
7128528394,-1.627934,3.959703,2.108677,-1.240599,0.072808,0.177273
7128548439,-5.935651,-2.032741,-1.662000,-1.026368,-0.141218,0.068583
7128568485,0.499207,-0.856882,-1.446913,-0.936775,-0.039763,0.006066
7128588531,0.568016,-0.991054,-0.171679,-1.027250,0.019504,0.002427
7128628623,4.874382,-1.637406,-0.054411,-0.993386,0.098396,-0.066909
7128648669,4.553479,-1.439334,-0.048844,-1.035128,0.021089,-0.125074
7128668715,5.531172,-3.619607,-0.450271,-1.036640,0.031594,-0.151391
7128688760,6.649117,-6.259699,-1.960898,-1.071118,-0.032622,-0.220777
7128708806,7.947324,-7.739887,-2.844645,-1.013167,-0.023461,-0.232674
7128728852,8.939921,-7.022495,-2.522429,-0.975240,0.013799,-0.234199
7128748899,8.563703,-5.350970,-1.397400,-0.977910,0.037681,-0.204691
7128768945,7.592087,-2.774641,-1.096749,-0.982876,0.060592,-0.156441
7128788991,7.624272,-1.410385,-1.056066,-0.995243,0.035517,-0.179337
7128809037,7.642030,-0.092734,-1.389380,-1.047956,0.047781,-0.144962
7128829083,10.054665,-2.035723,-1.513783,-1.041248,-0.037584,-0.065504
7128849129,13.139411,-3.743389,-2.110497,-1.042499,-0.070636,0.074914
7128869175,16.203932,-2.117646,-1.403588,-0.919850,0.024515,0.021194
7128889219,17.304670,0.229677,-1.501534,-0.791453,0.100988,-0.053472
7128909265,15.011383,4.388160,0.920895,-1.054826,0.146573,-0.037800
7128929311,12.969748,0.483995,0.201722,-1.203377,0.154797,-0.048535
7128949357,12.966555,-3.874576,-2.786796,-1.085539,0.089446,-0.061964
7128969403,11.271141,-2.483905,-1.031559,-1.029432,0.040945,-0.063748
7128989449,10.100985,-2.260296,0.213034,-0.934782,0.064675,-0.046701
7129009494,9.229964,-0.623069,-0.234002,-0.886839,0.026923,0.018448
7129029540,8.382558,1.242861,-0.651692,-0.867369,0.034249,0.029361
7129049586,7.637314,3.765519,-0.515725,-0.923937,0.077886,0.059755
7129089678,4.780423,7.214452,1.629627,-1.059881,0.066014,0.043030
7129109725,4.706139,8.039695,2.568219,-1.010389,0.156680,0.086698
7129129771,3.305864,8.206827,2.503137,-1.033530,-0.058020,-0.001150
7129149817,5.327323,6.895069,1.864604,-1.056645,0.126451,0.058579
7129169863,4.207047,2.837259,0.516750,-1.097452,0.027801,0.019678
7129189909,5.174475,-1.815322,-1.213501,-1.095618,0.069511,0.095558
7129209955,5.359641,-4.637557,-2.292784,-0.994965,0.008542,0.106016
7129230001,5.476779,-3.697922,-1.343004,-0.926111,0.044019,0.150989
7129250048,5.612359,-0.387950,-0.302134,-0.925384,-0.016268,0.166509
7129270091,6.736063,2.571986,0.850632,-0.917317,-0.012125,0.187788
7129290137,7.830504,5.926358,1.215583,-0.952528,-0.047382,0.188084
7129310183,9.190070,6.295292,2.395323,-1.029666,-0.031867,0.176937
7129330228,12.400942,4.090847,1.178857,-1.095690,-0.002632,0.199074
7129350274,15.361692,-1.369249,-0.648516,-1.052386,0.002314,0.233822
7129370320,17.542252,-3.794716,-1.752556,-1.029956,0.038090,0.229023
7129390366,17.229588,-5.540742,-2.069258,-0.996920,0.207044,0.160096
7129410412,13.864024,-5.210178,-0.461480,-0.913598,0.102055,0.086500
7129430458,13.691733,0.162574,-0.453099,-0.949143,0.111129,0.154448
7129450504,10.033979,1.937734,-0.258129,-1.020645,0.084158,0.085722
7129470551,8.480062,1.916207,0.490392,-0.968644,0.132512,0.017217
7129490597,6.194044,3.363473,0.445876,-1.030283,0.070081,-0.048894
7129510643,5.169674,-0.982354,-0.238075,-1.066336,0.032638,-0.049761
7129530689,7.001868,-3.896173,-1.562973,-1.036902,-0.002151,-0.147972
7129550734,8.694531,-5.508868,-0.497722,-1.053260,0.133720,-0.105980
7129570780,8.358673,-8.607702,-2.475307,-1.112873,0.010173,-0.111839
7129590826,8.232100,-9.275223,-4.380991,-0.966729,0.099343,-0.067637
7129610871,4.993509,-6.938883,-2.163396,-0.932161,0.093160,-0.094996
7129630917,3.215229,-4.132675,-1.236542,-1.015449,0.009561,-0.075009
7129650962,3.789411,-4.865961,-2.017029,-1.031015,-0.027328,-0.035557
7129671008,5.217188,-6.054611,-2.086625,-0.991253,-0.035462,0.014069
7129691054,7.104064,-7.019129,-0.874470,-0.958930,0.009305,-0.008162
7129711100,6.648391,-6.493048,-0.722192,-0.871220,0.115950,-0.015009
7129731146,5.754282,1.411045,-0.127483,-0.769148,0.102458,0.039918
7129751192,3.986484,5.286455,1.766073,-1.168356,0.101568,-0.083902
7129771238,2.958221,1.875440,-0.013642,-1.173407,0.071591,-0.106642
7129791283,2.703455,-2.336332,-2.119000,-1.049433,0.102181,-0.040360
7129811329,0.451373,-4.530151,-1.426114,-1.043273,0.063251,-0.094141
7129831376,-1.980281,-5.684167,0.718669,-0.903301,0.066096,0.063508
7129851422,-3.268413,0.434148,0.303016,-0.825934,0.034107,0.017761
7129871468,-4.348780,5.315220,-1.266410,-0.854030,-0.026550,0.001456
7129891514,-6.324203,7.211117,1.478325,-1.047942,0.060181,0.026678
7129911560,-8.271503,4.911551,2.540079,-1.053135,0.014635,0.048901
7129931606,-7.727703,5.366063,1.305382,-0.981351,-0.013961,0.075684
7129951652,-8.243389,6.869664,2.334337,-0.957312,0.048165,0.051205
7129971696,-9.336578,6.618915,2.776664,-1.037892,0.061876,0.051195
7129991742,-9.452752,4.511510,1.074249,-1.119824,0.018756,0.068096
7130011788,-9.280312,0.630379,0.174492,-1.077744,0.006466,0.080380
7130031834,-8.651783,-1.376374,-0.939034,-1.004154,-0.022692,0.096330
7130051880,-8.580760,-1.330346,-0.818302,-0.988128,-0.032647,0.112504
7130071926,-8.387819,-1.008024,0.116780,-0.980970,-0.029986,0.119277
7130091972,-8.566835,1.200423,-0.559547,-0.916026,-0.017922,0.149195
7130112017,-9.119774,3.284279,0.926686,-0.971067,-0.045259,0.168970
7130132063,-8.784053,4.606565,2.535757,-0.970345,-0.058824,0.162807
7130152109,-7.252306,5.330247,2.228533,-1.014246,-0.045832,0.189769
7130192202,-4.345890,2.226700,1.120308,-1.053530,0.005375,0.216861
7130212248,-2.033488,-1.060580,-0.273797,-1.054505,-0.037137,0.201244
7130232294,-1.848085,-1.479402,-0.153737,-0.955404,-0.099255,0.075564
7130252340,1.630457,-1.109763,1.084222,-1.017532,0.077365,0.100296
7130272389,0.053988,-0.303605,0.554303,-0.998793,0.049678,0.118722
7130292432,-1.336366,1.082087,0.148747,-0.934068,0.024127,0.071455
7130312477,-1.402139,3.896352,1.065269,-0.976876,0.100985,-0.004740
7130332527,-4.483140,3.414492,0.675812,-1.064793,0.086335,-0.037258
7130352568,-4.475092,-0.405226,-0.014641,-1.052252,-0.042525,-0.072934
7130372614,-2.293606,-3.407734,-0.199804,-1.089198,0.063709,-0.054143
7130392659,-2.345251,-6.825383,-1.669865,-1.110824,0.012929,-0.046337
7130412705,-2.425115,-9.611237,-3.454782,-0.987146,0.029611,-0.025870
7130432751,-3.774490,-8.145997,-2.440087,-0.909399,-0.008933,-0.022593
7130452797,-3.477784,-5.681765,-1.338397,-0.986643,-0.034294,0.001824
7130472843,-2.462070,-5.460658,-1.412332,-1.055079,-0.072622,0.042089
7130492889,-0.427850,-6.368864,-2.205285,-0.949169,-0.070849,0.083490
7130512935,1.003090,-1.747431,-1.033446,-0.883327,0.072523,0.028298
7130532981,-1.681139,1.561985,0.092708,-0.943499,0.131778,-0.059191
7130553028,-3.101211,1.660936,0.203989,-1.020739,0.117163,-0.029073
7130573074,-4.702612,-0.191676,0.080761,-1.046146,0.042280,-0.014990
7130593120,-4.691411,-0.924748,-0.543615,-1.046707,0.042883,0.018424
7130613166,-5.782307,-0.170307,-0.433261,-0.982570,-0.004699,-0.037238
7130633211,-7.371581,1.940240,-0.447657,-1.020039,-0.020959,-0.044107
7130653257,-8.898078,0.272317,0.183550,-1.020052,0.002681,0.000426
7130673303,-10.306601,-0.748410,0.550503,-1.027693,-0.014722,-0.008674
7130693362,-10.888381,-1.479217,0.961581,-0.968016,0.007502,0.008881
7130713393,-11.590987,-0.000953,0.955010,-0.918159,0.007889,0.032358
7130733440,-11.778752,3.023716,0.612359,-0.865796,0.006810,0.048170
7130753485,-12.635319,7.941550,1.697694,-0.964875,0.002673,0.054224
7130773531,-12.543415,9.021022,3.786074,-1.021189,-0.028008,0.035264
7130793577,-11.113035,8.418484,3.416460,-1.059836,-0.105989,0.005642
7130813623,-8.677977,5.147511,2.463125,-1.093438,-0.030124,0.030417
7130833669,-7.714757,-0.007567,0.940948,-1.111548,-0.043137,0.042912
7130853715,-6.389131,-3.685791,-1.311474,-1.040275,-0.013843,0.036383
7130873761,-5.663666,-5.766065,-1.288059,-1.010872,0.044422,0.088073
7130893807,-6.154153,-4.599442,-0.969126,-0.948238,0.027076,0.105007
7130913854,-6.110927,-1.298185,-0.384923,-0.914279,-0.007680,0.126091
7130933900,-6.360480,2.941989,0.889567,-0.913508,-0.036286,0.102160
7130953946,-6.828459,5.741299,1.974414,-0.982502,-0.027994,0.115669
7130973992,-6.289675,6.655354,1.716390,-0.996703,-0.005315,0.090455
7130994037,-6.841078,5.001477,1.724954,-1.043935,-0.011472,0.094539
7131014083,-6.835917,1.540532,1.285531,-1.061599,0.028027,0.119375
7131034129,-6.506062,-1.007408,0.164320,-1.038374,0.025774,0.164281
7131054175,-6.352684,-2.136109,-0.194047,-0.998778,-0.009647,0.164482
7131074219,-6.254066,-1.683608,1.017524,-0.987529,-0.012529,0.223391
7131094265,-5.506570,0.327135,0.423216,-0.931185,-0.036610,0.191969
7131114311,-3.727943,3.331636,1.005299,-0.973781,-0.091192,0.123795
7131134357,-1.999810,3.690275,1.001138,-1.009890,-0.005503,0.098397
7131154403,-2.652647,2.408511,0.460247,-1.018690,-0.004676,0.057877
7131174449,-2.668715,1.632124,0.868141,-0.980738,0.036200,0.043364
7131194495,-2.689853,0.672190,1.001651,-1.065851,0.060765,0.011822
7131214540,-3.763029,-1.637417,0.930826,-0.935395,-0.041565,-0.037255
7131234586,-0.304956,-1.169390,1.878480,-1.037079,-0.083072,-0.070038
7131254632,2.947119,-1.156913,0.325251,-1.086580,0.013996,0.023782
7131274678,4.478085,-2.685298,-1.640296,-1.068835,0.018903,0.005951
7131294726,4.844613,-2.914864,-2.082207,-0.971742,0.039465,-0.022155
7131314771,4.614976,-3.193936,-0.815982,-0.980705,-0.019472,-0.006926
7131334818,7.084295,-4.397326,-0.791118,-1.054347,-0.083590,0.012320
7131354863,10.439831,-7.089514,-2.024050,-1.027729,-0.022524,0.003504
7131374909,11.736605,-8.769010,-3.403800,-1.034684,-0.047968,0.025542
7131394955,13.540279,-8.660949,-3.026520,-0.880027,0.117510,0.104602
7131415001,11.800233,-0.164007,0.241856,-0.788574,0.177441,0.016977
7131435046,10.233976,4.735599,0.133673,-1.016284,-0.027977,-0.107159
7131455091,11.831109,3.958641,0.112910,-1.172180,0.192895,-0.033879
7131475137,10.334567,-1.319725,-1.704992,-1.103329,0.077757,-0.124732
7131495183,9.396398,-4.849881,-2.301634,-1.074142,0.072893,-0.068939
7131515229,7.206143,-8.663754,-0.244377,-1.100250,0.083183,0.010284
7131535274,5.674475,-7.502228,1.271560,-0.885345,0.042893,0.045448
7131555321,5.802125,-0.861531,-0.785651,-0.792725,-0.018330,-0.031284
7131575366,6.026824,3.403327,-2.042125,-0.851548,0.066612,0.003166
7131595412,4.810882,4.444295,0.025913,-0.943993,0.078546,0.037584
7131615458,5.435419,5.740596,0.269288,-0.954880,0.005578,0.041884
7131635504,5.547038,7.703613,2.148025,-1.065126,-0.027677,0.001154
7131655551,6.981233,8.185643,2.798679,-1.031585,0.132089,0.036356
7131675598,6.243728,7.071431,2.220666,-1.019705,-0.061215,-0.019082
7131695643,8.454659,4.059179,1.125632,-1.121212,0.088700,0.061740
7131715689,8.002189,-0.433465,-0.485902,-1.077132,0.069828,0.053666
7131735735,8.379686,-2.760172,-1.517076,-1.021454,0.106986,0.082975
7131755781,7.842465,-3.697878,-1.595228,-0.979838,0.094084,0.109429
7131775827,7.531973,-2.043960,-1.487729,-0.923248,0.075744,0.135183
7131795875,7.310513,1.243356,-0.317592,-0.898943,0.016278,0.131963
7131815917,7.450654,5.393150,1.369916,-0.985292,-0.016678,0.138029
7131835963,7.846489,5.705463,1.261857,-1.040078,-0.010072,0.163734
7131856009,8.924421,3.265242,0.492561,-1.029206,0.002119,0.154904
7131876055,9.448442,1.869409,-0.078428,-1.016111,0.002852,0.146964
7131896101,11.309674,-0.151040,-0.673284,-1.034556,0.042945,0.251878
7131916146,13.999094,-2.827293,-1.534196,-0.996331,0.043952,0.171613
7131936192,12.378464,-3.041058,-1.509678,-1.004888,0.134410,0.144739
7131956238,11.781173,-3.472719,-0.274019,-0.939934,0.058519,0.130867
7131976284,12.704599,1.374830,-0.117040,-0.948394,0.048809,0.151543
7131996330,11.336116,3.044326,0.255463,-0.967682,0.144109,0.093434
7132016376,6.821066,5.384029,0.801413,-0.978308,0.133310,0.013386
7132036423,4.290827,6.023531,0.810174,-1.015190,0.230572,-0.052414
7132056469,2.946499,1.873916,-0.662933,-1.148110,-0.033642,-0.011310
7132076515,3.975860,-3.771853,-0.197982,-1.034536,0.047845,-0.067576
7132096560,3.143550,-6.518230,-1.311265,-1.110702,0.190654,-0.014317
7132116606,2.468232,-11.958977,-4.222006,-1.128741,-0.012847,-0.048712
7132136652,1.165687,-12.097839,-4.792302,-0.956861,0.048015,0.016884
7132156698,0.948467,-9.351015,-3.368281,-0.915337,-0.049145,0.033222
7132176743,3.953765,-5.404485,-0.940980,-0.817631,-0.110979,0.071510
7132196789,3.833716,1.477934,-0.632981,-0.966355,-0.051217,0.035366
7132216834,5.735250,1.780975,-1.618428,-0.961597,0.096069,-0.071805
7132236880,2.040193,0.491202,1.277261,-0.983664,0.179522,-0.035437
7132256926,0.751325,1.116150,1.437736,-1.059283,0.104213,-0.015141
7132276972,-0.517082,0.631867,-0.194234,-1.069117,0.082454,-0.068315
7132297018,-1.771678,-0.292600,-1.045579,-1.015924,0.106875,-0.089415
7132317064,-4.012855,0.310670,-0.270520,-1.063359,0.042456,-0.056001
7132337110,-5.473921,-1.169149,-0.680447,-0.982180,0.016992,-0.015131
7132357156,-7.420378,-1.145396,-0.077289,-0.992726,0.045501,0.013596
7132377202,-10.628240,-0.254233,0.081329,-0.976959,-0.020700,-0.036127
7132397249,-12.556524,0.743318,-0.037404,-0.935593,0.029046,0.024632
7132417295,-13.524164,3.038211,0.493350,-0.876875,0.004236,0.041737
7132437341,-15.042351,6.304703,2.682107,-0.971788,-0.037556,0.048417
7132457386,-14.487455,7.899063,3.292630,-0.979456,0.008956,0.017516
7132477432,-15.096754,8.266968,4.258410,-1.053751,-0.027514,0.032914
7132517524,-13.418603,2.379046,2.128767,-1.106146,-0.052525,0.028402
7132537569,-12.600677,-2.181688,0.584507,-1.096508,-0.033034,0.085576
7132557614,-12.298552,-4.684534,-0.803767,-1.015412,0.013683,0.097370
7132577660,-12.458594,-5.209321,-0.332786,-0.979018,0.024228,0.114705
7132597706,-13.389987,-3.699569,0.115823,-0.945906,-0.044610,0.103180
7132617752,-12.381476,-1.412303,0.417221,-0.926739,-0.003465,0.153530
7132637798,-12.916203,1.957789,1.172881,-0.947898,-0.057241,0.113039
7132657844,-13.000668,3.407568,1.949121,-0.970527,-0.059205,0.153098
7132677890,-12.442571,3.751617,2.357426,-1.017169,-0.041810,0.151141
7132697936,-12.824647,2.356029,1.995055,-0.997937,-0.018850,0.155223
7132717981,-12.671787,1.424398,1.177556,-0.988053,-0.023440,0.175396
7132738027,-12.985601,1.134698,1.169326,-1.008568,0.031052,0.243920
7132758075,-11.796340,-0.153274,1.020633,-1.018538,-0.100313,0.147540
7132778121,-7.908063,1.294187,0.351974,-0.953525,-0.016301,0.170983
7132798166,-6.961182,1.919151,0.262746,-1.047439,-0.095338,0.155650
7132818212,-7.436239,0.664513,1.521698,-0.980655,-0.045005,0.062197
7132838258,-5.862862,1.571536,1.396451,-0.987342,0.009385,0.113147
7132858304,-5.652904,0.175544,0.793350,-1.059494,-0.096361,0.048739
7132878350,-5.533477,-0.731621,0.664148,-0.986410,0.007942,-0.036649
7132898394,-2.783786,-1.227566,0.100466,-1.061855,0.002413,-0.065945
7132918440,-1.768284,-5.148297,-1.533815,-1.106328,0.082729,-0.036090
7132938486,-2.870355,-6.903390,-2.377712,-1.024487,0.040476,-0.024253
7132958532,-2.130660,-7.223501,-2.475056,-0.975951,-0.013477,-0.016094
7132978578,-0.938460,-2.646093,-0.549576,-0.831442,-0.021409,0.061520
7132998624,-0.598535,2.796365,-0.123445,-1.062930,-0.107590,-0.022988
7133018669,2.466791,-0.896105,-2.149768,-1.098726,-0.074945,-0.001009
7133038715,4.551760,-2.685640,-1.794553,-0.938333,0.043691,0.025562
7133078807,4.014527,2.150207,0.041361,-0.949636,0.087766,-0.043400
7133098853,3.276257,3.134464,0.617877,-1.087016,0.035234,-0.056402
7133138946,4.042405,-3.532247,-2.026378,-1.018879,0.018328,-0.052816
7133158992,4.117723,-1.427178,-1.316551,-0.974688,0.074734,-0.035780
7133199084,2.353195,-1.904538,0.064173,-1.020835,0.052590,-0.018707
7133219130,1.025925,-2.559839,0.260221,-0.921549,-0.009355,0.006482
7133239176,1.144249,0.129652,-0.056687,-0.897633,0.010018,0.035999
7133259231,0.659847,3.040139,-0.309145,-0.885481,0.014610,0.051035
7133279266,-0.790745,6.146463,1.817701,-1.031500,0.066178,0.061064
7133299312,-1.382757,6.772730,2.461344,-0.994838,0.042289,0.051673
7133319358,-1.320323,8.053128,2.486435,-0.993773,0.017242,0.033904
7133339404,-0.986908,7.107906,2.353208,-1.030760,0.094208,0.014709
7133359449,-1.471892,2.835992,0.626949,-1.125261,0.044614,0.033105
7133379495,-0.539258,-3.265999,-1.709117,-1.134456,0.029403,0.082398
7133399541,0.183327,-6.484061,-2.652323,-1.053583,0.049392,0.104951
7133419587,0.652244,-7.580937,-2.474376,-0.937461,0.006570,0.074538
7133439633,0.539000,-5.034596,-2.060376,-0.949336,0.008019,0.132926
7133459679,0.558903,-2.555400,-1.045061,-0.912249,0.012060,0.123573
7133479725,-0.473739,2.490912,-0.399942,-0.953676,-0.019022,0.123877
7133499772,-0.616624,3.507664,0.967265,-0.987653,0.004948,0.125506
7133519818,-1.679355,2.851045,0.569793,-0.992228,0.057130,0.108885
7133539864,-2.413294,1.119057,-0.212552,-1.020620,0.056454,0.109642
7133559910,-3.642725,-0.267971,-0.077098,-1.041299,0.072384,0.133026
7133579955,-3.540940,-2.630930,-0.285167,-1.009575,-0.050174,0.199864
7133600001,-1.060920,-2.699484,-0.554663,-1.017675,-0.061283,0.200747
7133620047,-0.733995,-1.776584,-0.266063,-0.946148,-0.055000,0.196612
7133640092,0.317269,1.240849,-0.586883,-0.875946,-0.029016,0.118301
7133660138,0.466296,5.154576,1.177654,-0.982633,-0.055705,0.136142
7133680183,-0.245149,6.436536,1.958978,-1.011519,0.058954,0.127457
7133700229,0.612544,4.437438,0.833338,-1.026768,0.020195,0.033010
7133720275,0.060501,1.670909,0.845619,-1.113410,0.099838,0.025549
7133740321,-2.048502,-2.880816,0.229249,-1.023828,0.057731,-0.041540
7133760367,1.657041,-5.823610,-0.665775,-1.029984,-0.067339,-0.026885
7133780413,5.551018,-6.792047,-1.357068,-1.053465,0.026878,0.027190
7133800459,4.462599,-5.292474,-1.982823,-0.973119,0.089058,0.038880
7133820504,3.308410,-3.987678,-1.162418,-0.944626,0.035892,0.045018
7133840550,3.574221,-3.247675,-0.864381,-1.018902,-0.018196,0.026313
7133860598,4.012626,-5.061853,-1.080809,-1.014857,-0.000947,0.106553
7133880644,3.604471,-1.891290,-0.930616,-0.879754,0.065813,0.038143
7133900689,1.401816,2.118318,-0.259342,-0.908256,-0.026208,-0.069788
7133920735,2.749577,2.784894,1.103031,-1.056212,0.066877,-0.038734
7133940781,2.865006,0.200735,0.811378,-1.053754,-0.021148,-0.020293
7133960827,5.416782,0.290625,-0.147769,-1.083145,0.008585,-0.056242
7133980873,5.103354,0.707683,-1.006560,-0.986082,0.079266,-0.087699
7134000919,4.641366,0.354620,-2.020375,-1.031408,0.100886,-0.067990
7134020963,2.785081,-0.771487,-1.040707,-0.991597,0.101781,-0.005489
7134041009,1.676736,0.746688,-0.229544,-0.962700,0.016428,0.010409
7134061055,1.461064,2.279104,0.052273,-0.947355,-0.018074,-0.016030
7134081101,1.140606,2.394402,0.508953,-1.004738,0.020328,0.038716
7134101147,0.402202,2.426098,1.111567,-0.957778,-0.000637,0.028237
7134121193,0.478835,3.973070,1.066723,-0.966998,0.016134,0.053875
7134141239,-0.333447,6.871320,2.134997,-1.031673,0.022334,0.063773
7134161285,-0.262846,5.225578,2.291935,-0.995971,0.053253,0.079543
7134181330,0.484172,4.485318,1.767927,-1.037711,0.031835,0.039531
7134201376,-0.058082,3.188802,1.423617,-1.031927,0.002848,0.053914
7134221422,1.181837,1.060251,0.298634,-1.068428,0.044601,0.082699
7134241469,1.235778,-1.365922,-0.863478,-1.031532,0.021727,0.080928
7134261515,1.255973,-2.524564,-0.974634,-0.972471,0.031107,0.089255
7134281562,1.283799,-0.037709,0.055784,-0.928396,0.021839,0.110669
7134301607,1.087065,1.337142,1.392278,-1.002784,0.036383,0.114546
7134321653,0.671195,1.913804,0.359191,-1.021516,0.047165,0.105134
7134341699,0.813142,0.190223,-0.188010,-1.044256,0.048241,0.115143
7134361745,0.616325,-1.287919,-0.026441,-1.015112,0.055597,0.135331
7134381791,0.399692,-2.592377,-0.545155,-0.972783,-0.039844,0.146024
7134401835,2.014803,-2.386950,-0.875195,-1.002637,0.000297,0.183322
7134421881,2.471871,-2.302231,-0.548122,-0.966492,-0.016195,0.190630
7134441927,4.099150,-0.837867,-0.248350,-0.969452,-0.041223,0.187091
7134461973,4.229882,0.205260,-0.666997,-0.959682,0.018283,0.132269
7134482018,5.639232,1.297654,0.280124,-1.009483,-0.025284,0.075093
7134502065,6.135816,1.381559,0.254926,-1.020692,0.122221,0.158463
7134522110,3.671025,-0.024584,-1.121516,-1.002320,0.065752,0.053578
7134542156,3.083877,-1.593332,-0.554716,-0.982599,0.125994,0.047059
7134562202,1.650223,-1.646569,-0.343325,-1.024250,0.062203,0.018917
7134582248,1.970464,-3.410863,-2.024785,-1.085765,-0.006639,0.031882
7134602294,1.080667,-4.759282,-1.712655,-0.998458,0.076735,0.036155
7134622341,1.322805,-3.530687,-1.048996,-0.951248,-0.016761,0.010178
7134642387,2.642772,-1.428473,-1.700565,-1.030543,-0.012294,0.029406
7134662433,3.218652,-2.837765,-1.516011,-1.057178,0.034973,0.029419
7134682479,2.644199,-3.844926,-1.959999,-1.007235,0.057459,0.049136
7134702524,2.157574,-4.490449,-0.939735,-0.962371,0.033100,0.024083
7134722571,1.031408,-2.376237,0.557520,-0.866000,0.072852,0.046249
7134762661,0.838379,4.650408,0.629570,-1.065383,-0.029225,-0.051490
7134782707,1.314423,2.862000,1.650241,-1.130032,0.037190,-0.046231
7134802753,1.729846,-0.383145,-1.059731,-1.099360,-0.002568,-0.074012
7134822798,0.613959,-4.034523,-1.331580,-1.020330,0.102212,-0.047120
7134842844,-1.485015,-3.852716,-1.558908,-0.947143,0.162312,-0.022778
7134862890,-4.147010,-3.775400,-0.781573,-0.996828,0.068679,0.005730
7134882936,-5.206340,-2.387343,-0.215455,-0.982254,0.033662,0.050021
7134902982,-5.650310,-0.077574,0.098770,-0.900250,-0.064259,0.013654
7134923028,-5.298562,4.001389,0.804303,-0.883603,-0.020303,0.061319
7134943074,-6.527925,6.024628,2.517823,-0.968058,-0.030069,0.009216
7134963120,-7.179377,6.534814,2.414144,-1.066532,0.024262,0.051110
7134983167,-7.778943,4.505247,1.462071,-1.041335,0.024750,-0.003060
7135003213,-8.781478,2.402638,1.908804,-1.046310,0.061896,0.069857
7135023259,-8.575202,-0.737898,1.586675,-1.051613,0.006056,0.032095
7135043304,-7.716979,-3.118937,0.080224,-1.010476,-0.015012,0.071461
7135063350,-7.497938,-3.211663,-0.489185,-1.023840,-0.035172,0.102769
7135083396,-6.890093,-2.921432,-0.287985,-0.955674,-0.010943,0.115274
7135103442,-7.166840,-0.306933,-0.039151,-0.937516,-0.041670,0.112382
7135123488,-7.110823,1.738632,1.297847,-0.964941,0.005689,0.114133
7135143532,-7.597616,2.888510,0.974882,-0.994651,-0.020451,0.120947
7135163579,-7.452121,3.124809,0.978914,-0.989033,-0.030498,0.093634
7135183625,-7.543149,2.272392,1.472571,-1.034079,-0.000655,0.133569
7135203670,-7.068609,0.091184,0.729404,-1.036455,-0.007252,0.108838
7135223716,-6.978423,-0.863521,-0.170859,-1.035325,-0.027203,0.143438
7135243762,-6.028040,-1.823132,-0.010352,-0.990128,-0.041241,0.141601
7135263809,-4.150862,-0.092303,0.146138,-0.944583,-0.075916,0.147328
7135283854,-2.278177,1.944740,0.890088,-0.964048,-0.003342,0.151352
7135303900,-2.376498,1.838168,0.953482,-0.985928,-0.019874,0.079675
7135323945,-0.263116,2.081005,0.269783,-1.068852,0.006880,0.101560
7135343991,-0.737643,-0.207269,-0.523385,-1.035269,0.009175,0.085461
7135364038,0.529005,-1.517961,-0.620014,-1.000540,0.031817,0.102442
7135384084,-0.203021,-2.112287,-0.489209,-0.970773,0.018798,0.071908
7135404130,-0.070560,-2.035726,-0.354488,-1.018247,0.049400,0.079929
7135424176,-1.654990,-1.678219,-0.462480,-1.012774,0.001483,0.037704
7135444222,-1.803784,-1.311947,-0.246851,-0.971705,0.034583,0.047570
7135464268,-3.292771,-0.402295,1.100984,-0.977967,0.024735,0.039432
7135484314,-3.161923,-0.357418,0.723864,-1.037885,0.029851,0.049614
7135504379,-3.604313,-1.229091,-0.456716,-1.012315,0.023942,0.082957
7135524404,-3.694139,-1.053598,-0.356218,-0.955756,0.052609,0.041912
7135544450,-5.297873,0.884761,0.952211,-0.992462,0.006628,0.049513
7135564496,-5.729154,1.691997,0.751573,-0.967327,-0.008835,0.029956
7135584542,-6.125099,2.013150,1.254882,-1.000708,-0.014389,0.003120
7135604588,-6.413855,2.174324,1.771925,-1.021910,-0.015191,-0.021753
7135624633,-6.832713,1.838142,1.452590,-1.019438,0.024117,-0.019046
7135644679,-7.931230,1.090386,1.193661,-1.055645,0.069188,-0.018141
7135664725,-9.292733,-0.518931,0.797517,-1.022902,0.039241,-0.003126
7135684771,-9.235012,-0.481261,0.605235,-0.975131,0.043331,0.006764
7135704817,-9.806869,-0.122061,1.104188,-0.985276,-0.015962,0.027097
7135724864,-8.887563,-0.145434,0.780770,-0.998520,-0.017775,0.041578
7135744910,-7.942880,0.150578,0.157779,-0.976845,-0.059693,0.035559
7135764956,-7.169327,1.433156,1.032548,-0.952353,-0.079191,0.049607
7135785002,-4.581590,1.474379,2.067284,-0.985530,-0.063849,0.059225
7135805047,-3.527968,1.190529,1.146093,-1.054668,-0.062502,0.054865
7135825093,-1.771094,-1.844097,0.312112,-1.066830,0.015394,0.078454
7135845139,-1.120007,-3.538459,-0.833457,-1.026898,0.014246,0.064612
7135865185,0.423496,-4.156411,-1.289272,-0.999966,0.019000,0.107900
7135885230,0.249291,-3.926641,-0.782320,-0.989505,0.092021,0.134380
7135905276,-1.670398,-3.568081,-0.402399,-0.943316,0.005463,0.122570
7135925321,-0.382503,0.212389,-0.348278,-0.946650,-0.074545,0.100610
7135945367,0.385714,2.494522,1.042886,-0.987072,0.047333,0.120160
7135965413,-1.034169,2.713440,0.313205,-0.993696,0.029600,0.077637
7135985459,-1.675615,1.850291,-0.458544,-1.019414,0.064165,0.096537
7136005505,-2.412210,-0.351527,-0.100697,-1.004502,0.041557,0.057468
7136025551,-2.669477,-1.578120,0.091774,-1.024016,0.045512,0.098371
7136045597,-2.991737,-2.029937,-0.802160,-1.010877,-0.030829,0.078303
7136065643,-2.248415,-1.693235,-0.298086,-1.008138,0.032151,0.091859
7136105736,-1.460142,0.691246,-0.764524,-0.967456,0.012769,0.107084
7136125782,-1.278717,1.714134,-0.068437,-0.964113,-0.024310,0.073682
7136145827,0.312639,2.714939,0.799044,-0.976483,0.000185,0.097454
7136165873,0.100447,3.377105,0.457091,-1.020948,-0.030690,0.062498
7136185919,1.398274,1.921712,0.398546,-1.014421,-0.000553,0.071414
7136205965,1.966784,0.984915,0.581670,-1.009902,-0.005364,0.073433
7136246055,3.744982,-0.525847,-0.395345,-1.011041,0.030346,0.102532
7136266101,4.526818,-0.494902,-0.288356,-0.998096,-0.005055,0.084397
7136286147,5.354156,1.791625,-0.281456,-0.938480,0.034004,0.104648
7136306193,6.115328,3.333669,0.745519,-0.993681,-0.003499,0.086134
7136326239,7.639297,2.144629,0.498304,-1.035771,0.031279,0.084434
7136346285,8.776752,0.137578,-0.800849,-1.057107,-0.005613,0.074420
7136366331,10.852839,-2.196139,-1.765621,-1.036699,0.014337,0.072858
7136386376,11.924129,-2.791119,-2.120652,-1.033369,0.011567,0.099222
7136406422,13.986982,-3.026996,-2.198102,-0.959220,-0.013801,0.096548
7136426468,15.514034,-1.287443,-1.530511,-0.948344,0.065344,0.087153
7136446514,15.702768,0.352651,-0.874827,-0.972122,0.055216,0.089845
7136466561,16.133858,1.610500,-0.757475,-0.969362,0.011972,0.068809
7136486607,16.977346,2.625539,-0.234679,-0.970490,0.073678,0.085520
7136506653,17.537439,2.740246,-0.131307,-1.005712,0.042415,0.080635
7136526699,17.262390,2.450626,-0.109723,-1.037626,0.058511,0.104028
7136546745,18.269238,0.337766,-1.016275,-1.010015,0.045012,0.060824
7136566791,19.595375,-0.736897,-1.214183,-1.033342,0.026383,0.091844
7136586836,22.067532,-2.390512,-1.440043,-1.033454,-0.000897,0.098791
7136606882,24.768894,-3.100157,-2.131980,-1.012300,-0.033159,0.099664
7136626927,28.879797,-3.085145,-2.700852,-0.967977,0.001191,0.093223
7136646973,31.618095,-2.107877,-2.252904,-0.986684,0.009461,0.104421
7136667019,35.146503,-1.077713,-2.087915,-1.009199,-0.050797,0.103180
7136687064,39.956429,-1.702200,-2.454260,-0.975020,0.049821,0.076287
7136707110,41.792850,-0.794706,-2.408860,-0.984014,0.046975,0.069001
7136727156,45.425220,-0.976547,-2.371758,-1.014279,0.061931,0.063410
7136747202,48.386200,-1.648066,-3.084142,-1.013431,0.063522,0.035706
7136767248,51.146698,-1.922608,-3.480659,-0.997968,0.124985,0.055493
7136787294,54.539925,-2.828722,-3.535843,-0.972187,0.019153,0.016104
7136807340,59.009743,-2.086761,-2.883826,-0.984315,0.031099,0.042253
7136827385,63.984146,-2.384013,-3.468413,-1.012953,0.015659,0.029060
7136847433,68.462059,-3.321442,-4.003028,-1.033468,0.047138,0.047513
7136867479,73.613075,-3.749087,-4.965039,-0.968465,0.082935,0.018839
7136887525,78.213226,-3.381434,-4.704019,-0.998909,0.091821,0.027695
7136907571,82.899727,-3.235449,-4.734311,-0.994104,0.126538,0.003591
7136927616,86.961395,-2.983662,-5.073772,-1.004903,0.132152,-0.002044
7136947662,91.533371,-2.968225,-5.514046,-1.009998,0.089169,-0.023037
7136967708,96.592537,-3.766325,-5.196919,-1.015485,0.197705,0.036789
7136987752,96.704865,-5.119370,-6.975052,-0.993340,0.201977,0.068358
7137007798,99.340393,-2.441250,-5.927098,-0.928764,0.180304,-0.049810
7137027844,103.642921,-0.878202,-6.099845,-0.998524,0.246127,-0.015233
