Timestamp (us),Gyroscope X (deg/s),Gyroscope Y (deg/s),Gyroscope Z (deg/s),Accelerometer X (g),Accelerometer Y (g),Accelerometer Z (g)
6083010291,4.140705,10.165073,1.543593,1.001405,-0.043097,0.254811
6083030291,-2.037435,11.942265,1.214189,1.002918,-0.041617,0.239753
6083050292,-5.305142,15.973429,3.612232,0.972794,-0.078386,0.261998
6083070293,-1.991867,17.701857,8.331247,0.965620,-0.133897,0.291786
6083090293,7.548844,15.165521,13.018352,0.970314,-0.156343,0.273934
6083110292,15.223464,13.455385,15.536823,0.990528,-0.136878,0.241092
6083130293,17.242319,14.277454,18.069653,1.037005,-0.108506,0.247053
6083150294,16.475765,15.960857,25.376083,1.004468,-0.126462,0.265427
6083170295,23.636053,16.244888,33.328995,0.972589,-0.150088,0.301500
6083190295,27.436146,14.227551,39.559837,0.973406,-0.176545,0.315141
6083210296,29.529478,14.631329,42.367794,0.978220,-0.171773,0.293680
6083230297,30.577797,18.470623,43.835075,0.971552,-0.144206,0.298024
6083250297,31.277046,20.994448,45.872261,0.962407,-0.135316,0.314944
6083270298,30.840836,22.008533,48.856194,0.952255,-0.136822,0.340770
6083290298,27.397346,20.818804,53.246937,0.943564,-0.162216,0.351107
6083310299,25.488037,20.145279,54.816578,0.948509,-0.171648,0.334609
6083330301,24.417351,21.360874,53.235291,0.939446,-0.171046,0.331498
6083350302,26.084074,20.540510,53.276993,0.936816,-0.170644,0.342959
6083370303,21.533461,19.292990,56.061996,0.911942,-0.174317,0.360735
6083390303,19.971193,16.001820,58.979397,0.899497,-0.216146,0.366908
6083410304,19.954161,14.061389,58.182743,0.888887,-0.239183,0.361226
6083430304,21.410856,12.744764,54.709160,0.884611,-0.239940,0.359187
6083450305,23.544310,12.469468,52.565250,0.872670,-0.232828,0.368353
6083470305,22.055248,10.541688,51.957645,0.860425,-0.236913,0.376046
6083490305,19.757217,7.045988,49.840977,0.861007,-0.256594,0.367415
6083510306,21.242348,5.337958,45.844677,0.839113,-0.271629,0.370618
6083530306,22.170662,3.573181,42.421143,0.819702,-0.267673,0.395994
6083550307,24.020023,1.291654,39.922855,0.826306,-0.289342,0.403417
6083570308,23.115946,0.834590,36.220581,0.828327,-0.295573,0.396601
6083590308,24.334747,0.999207,31.403885,0.831917,-0.280771,0.394494
6083610309,20.579342,0.819047,28.131344,0.823073,-0.267394,0.407791
6083630309,15.357999,-1.462193,26.334095,0.819216,-0.284689,0.425896
6083650310,7.818229,-3.535806,23.520582,0.812280,-0.290837,0.424279
6083670312,7.576484,-4.276649,19.862165,0.827519,-0.306872,0.412638
6083690313,7.681436,-4.234866,15.826252,0.804150,-0.323236,0.403350
6083710314,9.514804,-4.802973,11.222856,0.791156,-0.326399,0.404454
6083730314,8.410287,-5.673062,7.128202,0.785431,-0.313800,0.412503
6083750315,4.626809,-6.791171,2.195787,0.787819,-0.303669,0.412463
6083770315,0.152956,-8.804380,-2.159468,0.807281,-0.295173,0.412437
6083790316,-4.690164,-9.935878,-5.703904,0.818024,-0.296757,0.419319
6083810323,-7.545960,-10.393188,-7.375838,0.844548,-0.313077,0.429871
6083830316,-9.584636,-9.241341,-6.870191,0.853488,-0.333593,0.432465
6083850317,-10.096841,-6.394946,-5.064513,0.872264,-0.377921,0.430873
6083870318,-5.139431,-2.007728,-1.482162,0.887240,-0.414074,0.435957
6083890318,0.835308,1.427498,1.324724,0.881957,-0.410724,0.433572
6083910319,3.656942,2.950988,1.069350,0.859169,-0.370899,0.413028
6083930320,2.435916,3.044271,-0.908922,0.834230,-0.335463,0.400283
6083950320,-0.712288,2.119150,-3.329735,0.823751,-0.331320,0.401117
6083970321,-2.654278,2.890481,-4.236280,0.822775,-0.334004,0.402699
6083990321,-4.399214,3.167528,-3.112463,0.812750,-0.345128,0.410888
6084010322,-6.157915,1.957242,-0.469573,0.810833,-0.377857,0.420584
6084030324,-4.672005,1.281763,2.718422,0.797109,-0.387432,0.417218
6084050325,-0.838668,-1.174057,3.266796,0.812957,-0.315622,0.402136
6084070326,-0.943628,-7.203986,1.881133,0.797621,-0.293801,0.417791
6084090326,-10.884259,-17.334747,1.402514,0.771006,-0.357403,0.399710
6084110327,-10.249006,-19.975193,-0.313467,0.802345,-0.391192,0.378197
6084130327,-4.118762,-16.677185,-5.539167,0.843682,-0.346877,0.372641
6084150328,-7.338344,-19.660696,-9.553781,0.843086,-0.324229,0.378946
6084170327,-12.193839,-23.650858,-11.329755,0.875943,-0.326887,0.394369
6084190328,-11.924830,-22.975613,-13.515055,0.924540,-0.326737,0.394217
6084210329,-8.842609,-17.219805,-20.022261,0.899946,-0.270165,0.391550
6084230329,-11.133803,-13.820878,-26.661423,0.864998,-0.179441,0.415892
6084250330,-21.011318,-11.703453,-29.825224,0.886129,-0.104379,0.419968
6084270330,-32.731312,-5.788571,-30.794014,0.913546,-0.069136,0.414047
6084290331,-45.233242,-0.542172,-33.321659,0.901862,-0.072017,0.411420
6084310332,-57.306034,2.077441,-38.027969,0.927531,-0.079298,0.391722
6084330333,-66.488602,7.874008,-43.195049,0.955923,-0.062839,0.364208
6084350333,-76.211197,15.420502,-46.247375,0.974604,-0.067768,0.371404
6084370334,-85.035912,19.665688,-53.574871,0.937271,-0.086166,0.339112
6084390336,-94.789612,26.035095,-62.131241,0.932277,-0.048021,0.284749
6084410337,-99.318634,34.464832,-75.348816,0.848155,0.032290,0.321708
6084430337,-103.674484,21.303854,-91.030281,0.895329,0.024113,0.353870
6084450338,-117.545509,15.160961,-101.996109,1.058391,-0.030317,0.273067
6084470339,-113.640076,27.657476,-111.212601,1.069782,0.017528,0.196554
6084490339,-102.098511,40.124172,-118.959167,1.012413,0.132031,0.216839
6084510351,-110.703362,35.618126,-124.051773,0.974835,0.285556,0.261626
6084530339,-131.858215,23.815979,-126.698204,1.004067,0.306264,0.265525
6084550340,-166.062286,14.087367,-129.134811,1.041897,0.302791,0.225002
6084570341,-194.077530,8.309795,-132.461166,1.115006,0.230866,0.128786
6084590341,-192.441132,10.806596,-132.373550,1.162885,0.133802,0.087066
6084610342,-197.373672,11.933151,-137.371704,1.222738,0.094889,0.048314
6084630342,-191.545410,16.202753,-145.343781,1.192392,0.097174,-0.021169
6084650343,-192.889908,25.533848,-159.560303,1.078540,0.235891,-0.069599
6084670344,-178.681915,18.779045,-178.494110,0.991209,0.269441,-0.033412
6084690345,-159.121490,7.649398,-192.189026,1.044837,0.295411,0.005861
6084710345,-140.243515,8.234734,-184.503784,1.172076,0.386890,0.062838
6084730347,-148.501602,-0.282860,-145.648056,1.259051,0.188776,0.056267
6084750348,-204.229858,-29.303621,-88.008545,1.245919,-0.183590,0.010593
6084770349,-209.460297,-24.211960,-39.485977,1.341040,-0.510403,0.062362
6084790349,-144.070984,15.553083,-21.247766,1.347055,-0.571395,0.217790
6084810351,-71.627769,33.076279,1.261483,1.112733,-0.403561,0.393005
6084830351,-82.256058,30.140755,7.919562,0.964331,-0.134376,0.466095
6084850351,-128.021942,15.772119,22.085335,0.979622,0.057010,0.376288
6084870351,-140.212326,8.964540,52.508430,0.999640,0.072848,0.254928
6084890351,-119.216881,11.694348,79.750153,0.957945,-0.018295,0.221063
6084910352,-93.605583,13.224224,89.642159,0.926180,-0.131808,0.290444
6084930353,-74.823959,10.684914,86.224167,0.896149,-0.213166,0.360534
6084950353,-56.990826,7.868881,80.136795,0.901111,-0.192301,0.326696
6084970354,-38.096111,10.654962,85.592972,0.937745,-0.143236,0.341179
6084990355,-28.820482,12.777133,96.552429,0.962532,-0.152760,0.404788
6085010355,-25.992214,13.875112,98.244377,0.986549,-0.207862,0.426765
6085030356,-18.589037,19.049492,89.037506,0.947505,-0.237304,0.433301
6085050357,-14.317801,25.181145,77.211227,0.867533,-0.172113,0.436237
6085070357,-20.907963,24.139790,72.329277,0.850564,-0.083979,0.458793
6085090359,-35.418427,18.787369,71.827072,0.893679,-0.075709,0.458918
6085110360,-39.415207,14.400530,67.275223,0.870052,-0.152858,0.419730
6085130361,-26.533131,17.352051,52.369095,0.847367,-0.107870,0.410783
6085150361,-17.298292,18.663986,35.230061,0.859222,0.011494,0.434974
6085170362,-36.051102,13.397381,16.333654,0.771022,0.075753,0.474968
6085190363,-60.512299,2.633032,-2.762530,0.570529,0.137703,0.428669
6085210364,-106.002548,-15.912159,-23.802004,0.419021,0.295074,0.344729
6085230363,-161.717178,-35.092674,-44.989475,0.485371,0.377901,0.196080
6085250363,-187.369232,-35.461853,-70.807159,0.641122,0.323785,0.120033
6085270364,-190.667542,-23.606068,-110.415588,0.854421,0.230217,0.192852
6085290365,-184.091049,2.973899,-140.773453,1.291024,0.152564,0.260285
6085310366,-184.350815,45.598892,-140.631119,1.493174,-0.139978,0.235528
6085330366,-177.989105,72.528778,-115.993233,1.483777,-0.420558,0.250416
6085350367,-176.347031,82.738136,-115.112297,1.172512,-0.300768,0.124215
6085370367,-183.683319,73.647888,-149.059799,1.007691,-0.012194,0.066767
6085390368,-197.021698,40.197060,-168.461105,0.997449,0.156542,-0.004615
6085410369,-206.506088,20.843687,-177.654434,1.178877,0.210252,-0.003796
6085430371,-211.994675,33.703873,-183.242783,1.297501,0.123486,0.010316
6085450372,-184.844971,45.698181,-168.541672,1.258825,0.001361,0.045645
6085470372,-177.348969,42.235233,-156.173309,1.143181,-0.031787,-0.040754
6085490373,-187.118011,33.594482,-147.745438,1.123513,0.042176,-0.173988
6085510374,-201.402023,22.901945,-134.036499,1.043505,0.084083,-0.260816
6085530374,-211.457855,13.914087,-131.510437,1.022749,0.135113,-0.244934
6085550375,-252.783310,18.652161,-124.754539,1.305687,-0.134911,-0.024854
6085570392,-255.832504,19.359577,-66.768478,1.260985,-0.617641,0.028542
6085590375,-175.583557,11.034846,-13.400410,1.190476,-1.071433,-0.068544
6085610375,-77.621605,25.099745,2.373729,1.153043,-0.982675,0.081591
6085630376,-38.926846,31.118694,-25.864258,1.049978,-0.481697,0.258573
6085650377,-41.861897,23.148603,-24.796413,1.018295,-0.033040,0.296513
6085670377,-66.605026,10.594267,3.506264,0.953523,0.097435,0.303890
6085690378,-113.853073,-3.255606,23.345558,0.942959,0.039683,0.330850
6085710379,-134.826752,-10.541749,35.876511,0.980921,-0.128032,0.305076
6085750380,-76.548264,6.330536,34.659893,0.980625,-0.209621,0.307786
6085770381,-59.455292,11.156479,33.382042,0.981071,-0.117801,0.346880
6085790383,-62.146046,10.647034,41.831905,1.011608,-0.058332,0.399544
6085810384,-70.829689,12.335757,50.405571,1.039067,-0.087114,0.398256
6085830384,-70.087334,22.324467,54.103371,1.078952,-0.123626,0.370668
6085850385,-62.922802,33.412025,61.832500,1.124165,-0.141083,0.373945
6085870386,-61.901695,43.795082,70.117233,1.074295,-0.202336,0.402935
6085890386,-70.804863,50.013783,70.585678,0.969518,-0.265392,0.408869
6085910387,-72.674263,57.317451,62.733791,0.853918,-0.283637,0.366573
6085930386,-66.791039,66.137268,46.259972,0.809066,-0.226460,0.337970
6085950387,-71.115883,69.573418,30.077564,0.839421,-0.165359,0.313894
6085970387,-88.689369,66.744545,13.034161,0.786501,-0.151421,0.332850
6086010389,-76.679649,55.068977,-24.052530,0.784217,-0.124269,0.206713
6086030389,-75.359810,51.946697,-40.306980,0.717272,-0.061144,0.237086
6086050390,-91.736298,43.642712,-53.462971,0.726924,0.013461,0.230290
6086070391,-115.267090,38.832981,-67.225273,0.791445,0.061019,0.212513
6086090392,-135.899124,37.536812,-82.832977,0.823011,0.063584,0.197102
6086110392,-154.269714,37.239037,-100.438965,0.866676,0.081167,0.162792
6086130393,-173.801483,40.171452,-120.964836,0.974624,0.099586,0.148727
6086150395,-195.381592,44.773232,-134.695099,1.125987,0.016056,0.138856
6086170396,-208.657684,47.069771,-132.593048,1.218247,-0.197868,0.102571
6086190397,-203.652756,49.803799,-125.424141,1.213828,-0.383163,0.075090
6086210397,-192.237106,52.211052,-123.936943,1.157780,-0.442549,0.072975
6086230398,-180.559387,55.906685,-128.847809,1.104744,-0.409272,0.051953
6086250398,-164.565857,62.490196,-133.221527,1.088092,-0.338040,0.037282
6086270399,-148.803528,66.419708,-132.961777,1.118715,-0.278384,0.033299
6086290398,-138.330444,64.050018,-126.326660,1.131512,-0.281794,0.017244
6086310399,-131.424377,57.761616,-123.343163,1.064446,-0.263502,0.052683
6086330399,-135.224808,49.025047,-122.017113,1.049807,-0.219370,0.129209
6086350400,-140.804520,40.682087,-97.977905,1.119019,-0.205349,0.169735
6086370401,-147.154968,39.719868,-51.679771,1.115345,-0.370808,0.144601
6086390402,-143.649689,44.536289,-27.354155,0.998334,-0.556657,0.165708
6086410402,-134.132065,38.324360,-19.504156,0.974945,-0.578256,0.203477
6086430403,-125.844833,32.470390,-4.347200,0.996408,-0.442764,0.180996
6086450404,-118.560982,31.612803,17.144733,0.919782,-0.394581,0.201011
6086470404,-115.913902,22.218306,28.376646,0.864178,-0.469739,0.240921
6086490406,-105.818909,11.657285,26.205000,0.882197,-0.536769,0.208199
6086510407,-79.083199,14.218429,17.658798,0.910146,-0.513135,0.185952
6086530408,-43.633625,25.395439,11.009567,0.898306,-0.423133,0.232247
6086550408,-24.068817,30.934502,3.934095,0.858903,-0.294510,0.306588
6086570409,-29.400364,28.645027,-4.565227,0.826154,-0.153137,0.354255
6086590410,-53.949554,22.034481,-9.461481,0.807770,-0.089665,0.366504
6086610410,-78.136795,14.727699,-16.271267,0.813021,-0.161960,0.347144
6086630410,-83.760956,13.483900,-24.720798,0.892039,-0.242710,0.310048
6086650410,-76.755188,20.014343,-32.792099,0.919847,-0.252172,0.325250
6086670411,-70.990860,23.432285,-38.677811,0.900325,-0.219955,0.356028
6086690412,-71.284088,22.935293,-40.771637,0.918719,-0.189978,0.350006
6086710412,-73.811356,25.928955,-42.916676,0.921092,-0.154020,0.325214
6086730413,-79.600960,29.413433,-44.790657,0.929349,-0.107342,0.308708
6086750414,-89.741859,32.060673,-45.698654,0.948395,-0.077689,0.299961
6086770414,-102.798767,32.589172,-46.515331,0.916301,-0.117477,0.298973
6086790415,-109.164650,30.110607,-47.174152,0.881648,-0.174601,0.289650
6086810415,-108.248055,26.898609,-45.400738,0.933511,-0.181833,0.248597
6086830416,-107.960182,29.537828,-43.392590,0.965207,-0.189850,0.224502
6086850418,-110.266167,30.614399,-42.839787,0.967424,-0.216406,0.233324
6086870419,-111.610680,30.344286,-44.337090,0.955715,-0.249176,0.238362
6086890420,-111.839363,30.558216,-46.008869,0.975558,-0.285675,0.213765
6086910420,-111.301476,32.947746,-45.064640,0.985362,-0.328270,0.212055
6086930421,-109.255249,33.178886,-43.327187,0.955746,-0.371961,0.221458
6086950422,-108.760918,31.349422,-44.544647,0.917156,-0.410863,0.215556
6086970422,-102.305840,30.286648,-46.172771,0.880637,-0.430340,0.204268
6086990422,-88.468979,28.535543,-45.445312,0.887972,-0.407122,0.198695
6087010422,-77.261780,24.964674,-39.233662,0.928746,-0.356045,0.201057
6087030423,-74.423889,20.898737,-31.416080,0.932925,-0.340332,0.218918
6087050424,-73.441940,16.604647,-26.210754,0.935622,-0.373772,0.230223
6087070424,-64.940903,16.810911,-21.029778,0.948174,-0.398957,0.235844
6087090425,-58.608688,18.267485,-17.189644,0.914950,-0.374188,0.265869
6087110426,-60.998383,15.891429,-14.743768,0.878738,-0.326730,0.282380
6087130426,-67.274635,11.171205,-13.705788,0.864225,-0.340609,0.275697
6087150427,-67.758018,7.802411,-18.567083,0.872548,-0.373355,0.267619
6087170428,-59.816715,8.642201,-24.967808,0.894978,-0.370347,0.269623
6087190428,-50.780659,10.011344,-28.396996,0.870406,-0.317812,0.277051
6087210430,-49.181114,8.748868,-36.499466,0.853056,-0.213118,0.274630
6087230431,-54.673187,1.962067,-49.674061,0.844227,-0.089887,0.208066
6087250432,-58.139847,-3.617518,-65.986702,0.844772,-0.015360,0.144169
6087270432,-63.708691,-4.040379,-78.201874,0.898160,0.048020,0.205487
6087290433,-95.513206,-2.251998,-71.992844,1.083480,-0.129555,0.242554
6087310434,-97.098793,1.505487,-44.014271,1.157215,-0.588280,0.154202
6087330434,-45.504692,16.106447,-44.164146,1.006068,-0.688429,0.199189
6087350434,-29.113157,9.540737,-45.850716,0.913863,-0.448730,0.213551
6087370434,-43.338223,-0.452018,-27.593229,0.960748,-0.285368,0.130695
6087390435,-50.980717,0.741165,-6.992326,1.004341,-0.373012,0.137406
6087410436,-36.167484,4.317637,5.219522,0.937623,-0.509691,0.206882
6087430436,-12.721920,-0.582583,14.960578,0.942707,-0.568348,0.231915
6087450437,-0.237721,0.577933,29.276236,1.012327,-0.582220,0.172444
6087470438,15.175656,10.637892,37.451103,0.941474,-0.494144,0.161894
6087490439,22.173248,8.916881,43.749588,0.924487,-0.433501,0.162707
6087510439,21.642477,3.487199,54.666477,0.938142,-0.468054,0.131541
6087530440,26.703032,-0.558528,68.127708,0.922275,-0.512863,0.102242
6087550442,42.478180,-4.590455,76.319214,0.926683,-0.566867,0.121086
6087570443,54.721519,-14.891876,96.653412,0.945969,-0.722978,0.116199
6087590444,82.924133,-15.729506,108.922897,0.958992,-0.756804,0.109461
6087610444,111.496803,-12.781214,109.242569,0.977404,-0.621831,0.103376
6087630445,133.871231,-13.478119,104.120361,0.824723,-0.370519,0.096336
6087650446,129.662201,-27.918694,88.823997,0.716861,-0.156044,0.116219
6087670446,107.232536,-47.202282,62.355396,0.703855,0.016242,0.104592
6087690445,93.643799,-52.931057,32.547653,0.841296,0.060817,0.202346
6087710446,82.478729,-41.858002,40.831734,1.211940,-0.302651,0.324223
6087730447,81.862556,-44.643333,100.167587,1.105475,-0.870944,0.202173
6087750447,128.693985,-35.692432,85.785927,0.604213,-0.685600,0.405080
6087770448,120.756599,-56.032524,52.462120,0.473759,-0.247253,0.363920
6087790449,114.787003,-66.065063,29.774849,0.912526,0.231861,0.063519
6087810449,134.333984,-28.371885,24.233154,1.241046,0.382679,0.353574
6087850451,-4.536872,-57.569771,56.043152,1.199415,0.020690,0.533397
6087870451,16.060471,-21.851374,64.161613,1.244410,0.078272,0.570911
6087890452,-1.019910,-7.206946,77.646873,1.047135,-0.009692,0.808261
6087910454,-53.217621,-16.231457,69.855713,0.810545,-0.265314,0.687029
6087930455,-60.693924,-24.580782,53.991920,0.735440,-0.565731,0.374549
6087950455,-20.809851,-11.352460,33.778706,0.666228,-0.759916,0.093517
6087970456,0.490708,9.959989,10.908378,0.644535,-0.629852,0.129611
6087990457,14.349846,12.637310,-0.094910,0.883766,-0.508160,0.278560
6088010457,35.511414,5.182976,11.583192,0.864449,-0.485068,0.294521
6088030458,31.144464,-7.529323,15.156459,0.781658,-0.335222,0.282081
6088050457,24.939583,-15.477603,5.904048,0.734003,-0.174502,0.319267
6088070458,15.375870,-23.483530,-7.899961,0.760466,-0.125385,0.423860
6088090458,-0.800260,-21.998470,-16.359257,0.869627,-0.261325,0.462531
6088110459,-5.048433,-13.082583,-21.669405,0.907142,-0.361214,0.424035
6088130460,-6.312639,-5.004538,-31.503391,0.924645,-0.356075,0.421578
6088150461,-6.074587,1.674520,-44.461224,0.949833,-0.268111,0.405703
6088170461,-7.613465,6.853672,-58.012089,0.923810,-0.198546,0.375000
6088190462,-8.892958,13.496587,-69.830528,0.891454,-0.118960,0.399904
6088210463,-20.855005,16.258554,-83.140442,0.871982,-0.076016,0.405343
6088230463,-32.428951,18.908970,-97.241951,0.920081,-0.109889,0.358367
6088250464,-37.842262,24.154503,-110.342255,0.911578,-0.117862,0.296833
6088270466,-42.564980,27.536987,-128.452820,0.908812,-0.067382,0.326313
6088290467,-54.930050,27.843447,-146.940109,0.948978,0.012739,0.318189
6088310468,-62.343777,24.682270,-162.090591,1.028641,0.047377,0.239466
6088330468,-75.479645,24.475809,-176.597580,1.058493,0.100609,0.166613
6088350469,-72.204613,17.506332,-182.819992,1.132692,0.092542,0.106643
6088370469,-66.166451,13.525221,-182.639557,1.229317,-0.018827,0.147638
6088390470,-84.419655,17.543676,-188.684265,1.247729,-0.332950,0.127565
6088410470,-43.446148,49.834492,-190.340088,1.257183,-0.687360,0.194859
6088430470,-1.933196,56.073612,-122.756714,1.116121,-0.811596,0.585390
6088450471,-28.288385,4.038277,21.918533,1.503165,-1.232684,0.650031
6088470472,10.388609,8.542566,139.001984,1.678248,-1.204570,0.339309
6088490472,17.887484,53.304955,167.079956,1.445746,-0.532029,0.554859
6088510473,-47.371655,47.262917,187.475281,1.192904,-0.270889,0.419230
6088530474,-76.351509,29.767403,224.581757,1.068374,-0.324354,0.068708
6088550474,-52.253426,14.256071,264.598053,0.848094,-0.524030,-0.051121
6088570475,4.718698,-6.554575,288.552460,0.770240,-0.645501,0.003688
6088590475,63.189453,-28.433359,283.992096,0.895567,-0.603283,-0.030361
6088610476,126.883957,-32.907372,252.640167,1.161615,-0.298897,-0.116918
6088630478,194.137405,-14.890472,219.581772,1.243205,0.252465,0.023933
6088650479,225.438950,1.751786,180.773926,0.967484,0.749439,0.414966
6088670479,125.921501,8.884552,107.193832,0.421405,1.101911,0.738635
6088690480,-20.805511,-13.791121,19.426998,0.174713,1.039665,0.787825
6088710481,-137.126709,-29.418587,-70.668892,0.316689,0.781687,0.611696
6088730481,-211.838318,-22.143644,-160.853470,0.587570,0.518812,0.659145
6088750482,-253.559830,14.051973,-200.533493,1.525714,-0.048333,0.532270
6088770481,-236.672638,-9.978452,3.882416,1.870678,-1.399119,0.007555
6088790482,-115.757286,47.743633,58.718361,0.803755,-1.631764,-0.125673
6088810483,-54.475277,54.226013,-47.419300,0.595191,-1.022626,0.008085
6088830483,-91.605705,49.899811,-109.324257,0.414142,-0.332830,-0.038087
6088850484,-26.408083,32.041092,-122.497993,0.422127,-0.255707,0.242942
6088870485,27.898046,39.619095,-140.616028,0.812411,-0.620933,0.385385
6088890485,13.385078,57.588074,-179.251022,0.924547,-0.386369,0.229301
6088910486,7.946067,68.787018,-207.364090,0.834629,0.118113,0.340321
6088930487,-13.055762,50.613163,-210.955048,0.793441,0.245260,0.429535
6088950487,-75.244621,18.016451,-210.827179,0.858195,0.226942,0.306322
6088970489,-121.081795,4.888874,-213.354843,1.013281,0.164880,0.144100
6088990490,-131.142548,10.437770,-218.205200,1.130135,0.045480,0.022235
6089010491,-120.604378,15.522890,-226.681290,1.239482,-0.039506,-0.075423
6089030492,-89.106026,20.688450,-223.322479,1.293157,-0.053279,-0.062630
6089050492,-53.739883,40.072296,-198.615692,1.341304,-0.182260,0.092350
6089070493,-90.775528,21.105362,-119.129837,1.361577,-0.968987,0.178163
6089090493,-93.288162,-55.797028,-22.394991,1.279685,-1.910966,0.234410
6089110493,-15.768603,-24.747591,19.324469,1.666555,-1.823364,0.614778
6089130493,88.857903,-8.840248,74.279984,1.414629,-1.155938,0.729964
6089150494,137.398346,-25.023031,125.601913,1.471696,-0.585898,0.449863
6089170495,132.815857,-3.592381,174.229843,1.606433,-0.153871,0.169381
6089190496,106.740456,41.352070,208.000259,1.405362,0.155806,0.135325
6089210496,47.200439,53.123558,227.285614,1.037719,0.222061,0.237512
6089250497,-37.951378,-6.996479,263.040802,0.807859,-0.240228,0.155462
6089270498,-11.436012,-23.719318,267.281525,0.853254,-0.426059,0.075402
6089310500,83.218414,-7.148072,220.410507,1.010869,-0.306201,0.045046
6089330502,99.265144,-5.672355,186.992233,0.849607,-0.046979,0.108035
6089350502,73.627373,-24.406887,161.865677,0.591356,0.046762,0.336414
6089370503,37.918854,-48.622486,122.842392,0.601549,0.085745,0.401229
6089390504,8.054907,-44.319004,66.541824,0.590734,0.114950,0.393192
6089410504,-23.170420,-38.331451,2.693716,0.553419,0.059114,0.482701
6089430505,-38.291935,-22.011866,-62.840256,0.663160,0.001359,0.497099
6089450506,-50.288109,8.342164,-125.541580,0.622344,0.009785,0.409264
6089470505,-66.076187,18.324953,-168.800537,0.676845,-0.011723,0.378218
6089490506,-91.063393,25.999153,-160.270721,1.129166,-0.285107,0.411144
6089510506,-77.250946,47.233444,-56.296383,1.562968,-1.016958,0.319668
6089530507,-37.159981,61.555130,36.479034,1.110987,-1.230445,0.225448
6089550508,-27.061857,58.557777,-29.188965,0.456389,-0.670500,0.148592
6089570508,-77.088036,22.321001,-93.960480,0.337768,-0.179864,0.113498
6089590509,-87.304085,-34.736958,-118.041451,0.496300,0.028505,0.088632
6089610510,-51.125092,-37.531975,-137.921906,0.875900,-0.222774,0.180051
6089630510,-15.886213,-5.572308,-148.593231,1.036449,-0.608719,0.300341
6089650511,12.800646,10.745803,-150.766479,1.004191,-0.712860,0.305995
6089670512,33.957268,28.863823,-157.366684,1.109702,-0.499030,0.349198
6089690514,22.350630,40.323444,-166.104858,1.131282,-0.191557,0.427516
6089710515,-22.590178,23.252544,-169.979019,1.087615,-0.120478,0.457362
6089730515,-70.362297,6.001687,-174.903336,1.081306,-0.086259,0.317303
6089750516,-87.075264,10.451494,-170.963913,1.161827,-0.251793,0.138497
6089770517,-60.217064,37.445908,-146.298340,1.233046,-0.612322,0.250839
6089790517,-6.515183,25.837048,-51.446140,1.185405,-1.099924,0.480328
6089810518,70.068405,-3.956916,55.596111,1.216645,-1.194306,0.455275
6089830517,106.780602,5.011107,92.472519,1.160432,-0.766044,0.378440
6089850518,67.096977,20.857471,106.443146,1.055559,-0.285115,0.479454
6089870519,-9.991140,11.872329,142.545288,0.964976,-0.058761,0.484734
6089890519,-80.922859,4.677150,178.679581,0.873100,-0.245119,0.316918
6089910520,-108.029091,1.817187,196.454437,0.820502,-0.545929,0.150070
6089930520,-70.529404,-13.835232,206.278824,0.785161,-0.779476,0.078140
6089950521,18.747227,-26.762989,203.778992,0.804286,-0.822883,0.046162
6089970522,97.012650,-20.822525,185.779297,0.892348,-0.694693,0.075819
6089990523,140.960175,-3.342235,167.412888,0.996920,-0.463469,0.132427
6090010523,163.698914,2.033949,163.279816,0.890511,-0.243156,0.352820
6090050526,103.700829,-27.701298,109.870178,0.514715,-0.120261,0.652906
6090070526,37.999596,-8.596985,35.496208,0.515365,0.383190,0.514829
6090090527,-48.694672,-11.746610,-32.859894,0.297021,0.519686,0.429533
6090110528,-80.292534,-36.079800,-102.633125,0.314499,0.303950,0.340074
6090150529,-92.305534,31.083500,-219.889679,1.427647,-0.053289,0.701295
6090170528,-90.182259,28.816256,-132.975510,1.490299,-0.645457,0.362029
6090190529,-49.197056,78.303589,-103.248093,0.972857,-0.669855,0.431536
6090210530,-33.651978,77.117241,-184.337830,0.807321,-0.253407,0.421647
6090230530,-67.677925,54.600784,-245.384186,0.745124,0.109885,0.337905
6090250531,-100.652687,32.694077,-239.168762,0.901873,0.250471,0.331759
6090270532,-66.630165,45.671906,-233.379532,1.048610,0.201760,0.200808
6090290532,-38.302315,52.361214,-238.691589,0.987985,0.223600,0.201504
6090310533,-62.183041,12.436023,-245.058563,0.929837,0.377205,0.119839
6090330534,-88.944138,-38.578644,-234.225571,1.101524,0.602890,0.028616
6090350534,-155.015076,-55.836979,-207.802628,1.293080,0.658161,0.064631
6090370535,-287.795135,-51.259445,-207.178833,1.669822,-0.019895,-0.062179
6090390537,-296.287292,-46.775402,-101.552406,1.929266,-1.508202,-0.292745
6090410538,-106.056633,-23.071222,10.488502,1.277680,-2.606742,0.226745
6090430539,12.638996,20.712688,12.004838,1.158402,-1.635847,0.565460
6090450540,84.739944,43.875961,-0.360470,1.262837,-0.552390,0.411033
6090470540,71.539932,42.340366,36.631958,1.264274,0.038397,0.234222
6090490541,23.827408,54.229912,78.432770,1.090967,0.240346,0.120371
6090510541,-11.205746,43.435562,90.511894,0.860808,0.184735,0.085979
6090530540,-42.232555,12.603268,93.711533,0.768869,0.037936,0.224043
6090550541,-71.738792,-9.617260,98.499039,0.818047,-0.120844,0.426286
6090570542,-48.211559,-21.636753,108.811546,0.907089,-0.257035,0.373085
6090590543,18.779793,0.974917,118.852135,1.082160,-0.304653,0.182656
6090610544,67.801010,42.111797,127.135368,1.142080,-0.277618,0.223071
6090630544,79.216499,53.470814,136.766479,1.086201,-0.185939,0.365769
6090650545,55.289734,33.285877,144.840179,1.004202,-0.086982,0.400275
6090670545,5.786982,19.019829,144.492630,0.919525,-0.023250,0.395980
6090690546,-31.505310,12.632181,143.719223,0.894716,-0.031165,0.371497
6090710547,-40.039116,8.527413,139.688370,0.886300,-0.061373,0.299998
6090730547,-38.506916,3.220596,126.003830,0.814181,-0.170179,0.282700
6090750549,-31.520212,-6.181332,105.724304,0.753053,-0.258586,0.296943
6090770550,-12.024772,-8.877714,82.241516,0.737055,-0.213450,0.282862
6090790551,8.722586,1.471940,46.436150,0.686276,-0.076778,0.273866
6090810551,11.329432,14.535572,-1.981953,0.602613,0.140006,0.300433
6090830552,-23.129326,9.122883,-50.070988,0.568653,0.302268,0.370389
6090850552,-75.557465,-7.635149,-95.792313,0.641310,0.297256,0.375484
6090870553,-118.284439,-17.017328,-136.788605,0.728463,0.189387,0.380208
6090890553,-157.438995,13.566947,-147.144272,1.516034,-0.157971,0.638300
6090910553,-161.324661,59.018337,-102.534492,1.880010,-0.700015,0.411122
6090930554,-101.719231,113.657364,-119.165031,0.843093,-0.441296,0.113571
6090950554,-65.406914,60.351322,-151.036865,0.510333,-0.116280,-0.040993
6090970555,-107.723770,-11.950584,-145.918213,0.754897,-0.011922,0.079725
6090990556,-170.426025,-34.661423,-135.505310,0.845207,-0.254499,0.033006
6091010556,-158.146912,-43.670631,-146.911987,0.956464,-0.523605,-0.026047
6091030557,-79.046280,-6.325259,-189.307327,1.051464,-0.530745,-0.009474
6091050558,-26.943024,17.395542,-216.721725,0.929395,-0.391895,0.142506
6091070558,-17.619049,0.930868,-226.272415,0.871410,-0.182328,0.160138
6091090559,-28.778337,-14.515749,-219.615997,0.974962,-0.021240,0.097682
6091110561,-41.209637,-8.304384,-196.804550,1.224175,0.057986,0.095325
6091130562,-51.197140,-0.220258,-155.272797,1.297796,-0.049718,0.155005
6091150563,-62.166733,-11.983360,-123.966507,1.336589,-0.340653,0.229190
6091170564,-71.073601,-15.754623,-99.370483,1.457799,-0.643576,0.299190
6091190564,-44.614548,-13.343077,-65.176071,1.363953,-0.803999,0.320869
6091210565,1.451909,-8.200694,-33.629387,1.246009,-0.644344,0.325620
6091230566,18.541378,-2.310099,-6.239757,1.208591,-0.428355,0.301584
6091250565,39.644768,2.748892,16.948074,1.226746,-0.272761,0.230507
6091270566,74.774803,10.827876,40.521702,1.253671,-0.116849,0.213697
6091290566,108.584213,22.158522,62.407177,1.087571,-0.001328,0.258412
6091310567,129.918442,24.028692,88.648140,0.894054,0.116702,0.336107
6091330568,132.642044,20.919018,118.211205,0.825172,0.181659,0.281966
6091350568,122.955910,25.278114,141.170502,0.891576,0.320516,0.211815
6091370569,92.798431,26.430706,167.262344,0.899966,0.459243,0.205389
6091390569,36.164631,13.410909,187.756317,0.814234,0.391986,0.231830
6091430571,-86.904434,-34.640575,159.734818,0.907108,-0.070177,0.153940
6091450573,-81.115967,-43.767391,135.614258,0.945254,-0.332388,0.106268
6091470574,-30.638569,-40.274956,110.624405,1.027228,-0.503791,0.167467
6091490574,47.244564,-22.433363,87.207375,1.170729,-0.436303,0.166506
6091510575,117.483810,3.071717,67.423004,1.122238,-0.118034,0.272868
6091530576,121.737625,4.574692,63.650288,0.883880,0.133470,0.527210
6091550576,54.031582,-22.194715,51.101250,0.789183,0.082945,0.648716
6091570577,-18.294699,-33.519905,21.921549,0.919516,-0.048673,0.436232
6091590576,-28.728535,-13.962999,10.542348,0.893774,-0.183705,0.274952
6091610577,-21.663519,1.548192,7.073256,0.758032,-0.238448,0.282272
6091630577,-33.105679,1.473853,7.125859,0.678488,-0.341160,0.368610
6091650578,-53.828068,-13.268849,11.816551,0.689607,-0.649307,0.342443
6091670579,-22.660992,-31.099911,8.532895,0.788462,-0.923960,0.156924
6091690579,51.374268,-30.300241,-0.950916,0.803726,-0.898891,0.108165
6091710580,87.488846,-30.443325,-6.563959,0.762401,-0.694269,0.135254
6091730581,97.392128,-34.403492,-10.983659,0.688697,-0.519619,0.141680
6091750581,93.859055,-41.661026,-22.554008,0.633358,-0.462065,0.174718
6091770582,97.056198,-54.406105,-39.328163,0.653826,-0.386303,0.137730
6091790583,121.530212,-55.495972,-52.194302,0.776893,-0.141603,0.121709
6091810585,126.965431,-44.415516,-55.149506,0.980706,0.134399,0.170146
6091830586,100.751823,-31.280214,-63.273788,1.104665,0.106931,0.340110
6091850587,74.206680,-26.592693,-76.328239,0.837279,-0.260650,0.423610
6091870587,95.578308,-43.460915,-60.641567,0.806730,-0.340905,0.354026
6091890588,127.502876,-43.789150,-23.685953,0.956977,-0.032144,0.331821
6091910589,98.673454,-39.156673,2.194083,1.116438,0.181901,0.400101
6091930589,44.972626,-44.826473,8.080994,1.146655,0.017490,0.384049
6091950588,31.753792,-44.839302,8.802576,1.153262,-0.217142,0.228548
6091970589,55.775810,-27.922478,7.932220,1.003981,-0.282201,0.149233
6091990590,77.139206,-13.632314,7.937041,0.871000,-0.235464,0.168977
6092010590,87.396133,-11.419959,12.698140,0.907284,-0.226293,0.183888
6092030591,90.396332,-14.312595,13.905841,1.019583,-0.220446,0.174438
6092050592,98.256195,-16.554281,10.498396,1.050589,-0.147873,0.177923
6092070592,109.147308,-15.345100,11.469075,1.051635,-0.048277,0.253116
6092090593,101.736404,-11.708598,15.027733,1.111073,-0.016240,0.286608
6092110594,91.246368,-4.352729,19.647503,1.084281,0.003705,0.319326
6092130594,79.660408,-4.738283,24.793730,1.065664,0.027900,0.388000
6092150595,62.166798,-5.527927,26.404684,1.118637,0.016109,0.379410
6092170597,48.217010,-1.721617,24.855289,1.087567,-0.058682,0.366929
6092190598,47.373600,0.629284,24.863684,1.081151,-0.168530,0.323400
6092210599,58.042217,6.263906,27.958332,1.061625,-0.203153,0.276303
6092230599,69.692055,12.523938,34.928925,1.039012,-0.176801,0.280140
6092250600,77.603912,20.343000,42.038715,1.004805,-0.155254,0.299441
6092270601,82.241280,31.204517,47.204239,1.001168,-0.117268,0.280486
6092290604,89.802422,42.641411,51.616661,0.881677,-0.046287,0.324621
6092310601,85.747269,44.303051,57.190361,0.686035,-0.043987,0.411462
6092330601,70.363686,32.789406,60.990906,0.721413,-0.083316,0.440790
6092350602,46.140438,15.847213,56.329979,0.927990,-0.187521,0.357542
6092370603,44.915985,7.251714,51.883331,0.974536,-0.258815,0.285129
6092390603,56.806900,-1.001402,50.262962,0.881220,-0.343430,0.294338
6092410604,70.729012,-4.660334,40.944767,0.829961,-0.380641,0.260734
6092430604,80.596497,-2.511464,30.304075,0.770399,-0.404643,0.286683
6092450605,88.107033,-7.505785,25.056465,0.765663,-0.509456,0.343340
6092470606,110.828270,-15.214789,15.876019,0.972299,-0.574967,0.270626
6092490607,155.682831,-8.691215,6.263976,1.085611,-0.383052,0.191466
6092510608,190.550476,-5.625607,9.358522,0.925218,-0.146159,0.283540
6092530609,203.328232,-20.141247,24.017473,0.814445,0.119795,0.377126
6092570611,139.750870,-50.731541,65.824936,0.826832,0.437127,0.527261
6092590612,60.818417,-65.463287,67.224991,0.826129,0.254996,0.567542
6092610612,15.590197,-72.888588,55.047939,0.839663,-0.063893,0.461385
6092630613,25.403301,-64.277824,43.504280,0.811269,-0.256985,0.361721
6092650612,59.040825,-45.323360,32.511642,0.730305,-0.344735,0.354318
6092670612,80.471863,-30.333323,24.077719,0.762175,-0.328003,0.382842
6092690613,81.793495,-26.740261,25.233290,0.935804,-0.258142,0.363722
6092710614,89.347534,-25.201851,30.997704,1.046607,-0.207823,0.334237
6092730615,105.106125,-24.063465,34.423859,1.025465,-0.162267,0.373642
6092750615,109.049042,-26.129343,36.892593,1.017087,-0.118531,0.393683
6092770616,100.961555,-25.362236,41.158890,1.028633,-0.094243,0.399173
6092790617,84.802322,-26.401115,44.079559,1.017792,-0.083944,0.404013
6092810617,69.839500,-28.442728,38.761639,0.989022,-0.114634,0.408391
6092830618,65.277489,-29.248718,30.001299,0.996637,-0.133618,0.363607
6092850619,73.812668,-24.079224,26.937138,1.010663,-0.028054,0.354100
6092870621,74.872337,-20.053228,34.080223,0.944874,0.077342,0.449693
6092890622,45.352615,-28.805420,39.422287,0.893032,0.013857,0.504056
6092910622,12.855243,-38.205151,30.091372,0.986693,-0.159203,0.428664
6092930623,24.200472,-23.254637,18.565172,1.051494,-0.250631,0.297636
6092950624,52.576412,2.418571,9.541945,0.943822,-0.195413,0.337663
6092970624,50.046455,7.227511,15.641567,0.828372,-0.108319,0.452924
6092990625,22.781696,-2.850199,27.476772,0.674498,-0.157179,0.501473
6093010624,-5.578867,-20.590082,24.213842,0.622019,-0.324208,0.453160
6093030625,-5.535636,-39.593037,12.528416,0.810635,-0.541853,0.223337
6093050625,22.355194,-50.063473,9.446739,1.016945,-0.714502,0.114867
6093070626,62.421467,-37.433014,8.195754,0.938814,-0.711399,0.095242
6093090627,108.093819,-20.533749,-2.956529,0.822399,-0.528943,0.183670
6093110627,129.148697,-24.856329,-4.803756,0.750233,-0.353899,0.296190
6093130628,123.732323,-29.180889,-11.560816,0.743017,-0.331196,0.334627
6093150629,118.328995,-23.439201,-24.541830,0.990155,-0.380390,0.267816
6093170629,134.612335,-5.497115,-27.676481,1.254301,-0.359738,0.183867
6093190630,153.323242,8.876775,-24.415009,1.036073,-0.241857,0.290779
6093210632,166.656097,-5.816734,-11.581625,0.791788,-0.046847,0.425432
6093230633,151.451492,-25.224354,11.389011,0.695133,0.111806,0.474288
6093250634,113.175339,-34.804482,25.172096,0.862776,0.181163,0.474545
6093270634,74.307159,-34.287853,27.490311,1.094380,0.190089,0.367827
6093290635,54.825317,-27.620504,26.234392,1.000942,0.017273,0.375380
6093310636,50.765884,-30.433319,19.091913,0.916279,-0.200265,0.402498
6093330637,59.572823,-27.082962,11.999513,0.882371,-0.297668,0.311251
6093350636,75.305649,-17.977255,11.992761,0.856161,-0.272932,0.247667
6093370636,92.612625,-12.188382,17.814945,0.867130,-0.211527,0.247838
6093390637,101.989891,-12.022435,21.426638,0.933454,-0.161437,0.308030
6093410638,105.876045,-14.556612,21.557161,0.981947,-0.093705,0.354910
6093430638,105.433281,-17.771887,20.190680,0.949621,0.002260,0.406381
6093450639,86.256805,-22.543362,18.825634,0.908326,0.028095,0.435396
6093470640,66.991333,-23.260149,15.398395,0.913391,-0.042472,0.409440
6093490640,61.416977,-18.004902,15.658413,0.959047,-0.116136,0.386129
6093510641,63.059380,-13.193460,21.541382,0.997238,-0.187789,0.403304
6093530642,69.059525,-9.406816,26.132404,1.038779,-0.181209,0.391033
6093550642,74.903488,-6.134653,28.233889,1.008697,-0.071908,0.399450
6093570644,66.585144,-10.647037,31.719645,0.934651,-0.000755,0.427621
6093590645,50.031525,-20.910069,33.217262,0.911637,-0.047610,0.422637
6093610646,43.007000,-20.277582,28.922457,0.949190,-0.131638,0.361822
6093630646,51.907978,-10.230030,25.667328,0.979703,-0.170207,0.329063
6093650647,58.087540,-4.676146,21.859852,0.879230,-0.168040,0.382475
6093670648,45.138435,-13.245239,16.015167,0.799658,-0.203190,0.355669
6093690648,39.535500,-18.989058,15.436054,0.730756,-0.239030,0.347317
6093710648,40.759178,-24.013821,22.695408,0.782357,-0.317382,0.354513
6093730648,42.413986,-29.474489,26.687057,0.944331,-0.459884,0.279614
6093750649,65.165588,-29.389135,21.126419,0.929135,-0.546734,0.184835
6093770650,106.304001,-26.709557,13.950168,0.870695,-0.424554,0.187295
6093790650,121.422943,-22.882393,9.881706,0.887293,-0.273511,0.221537
6093810651,106.005898,-19.293617,4.965894,0.964494,-0.262368,0.256988
6093830652,98.547073,-16.482590,-3.311252,1.062423,-0.375580,0.266372
6093850652,123.750763,-9.302423,-6.635450,1.178756,-0.385907,0.269709
6093870653,141.711105,0.970409,-1.946080,1.209511,-0.321494,0.318833
6093890654,147.234558,7.031734,4.506245,0.945774,-0.238138,0.385134
6093910656,154.398758,0.236967,24.870539,0.778136,-0.126389,0.430712
6093930656,146.598541,-4.189677,56.714256,0.816753,0.000378,0.414741
6093950657,112.285934,-5.555683,79.811981,0.928203,0.020763,0.365381
6093970658,76.742477,-7.347321,86.198715,0.955455,-0.058645,0.307220
6093990659,65.299942,-12.504485,86.897507,0.929600,-0.213733,0.294200
6094010659,76.294678,-15.143810,86.752861,0.931962,-0.334428,0.287048
6094030660,94.245193,-11.382782,86.539818,0.891868,-0.394239,0.291577
6094050660,106.586456,-9.329321,81.428192,0.877081,-0.387583,0.302819
6094070660,118.066132,-8.617343,74.282333,0.940398,-0.314414,0.306893
6094090660,127.184074,-7.661170,70.641861,1.025948,-0.232736,0.328756
6094110661,129.425537,-8.211055,73.423073,1.037407,-0.158136,0.381452
6094150663,108.215378,-18.826645,86.380562,0.941897,-0.112674,0.412083
6094170663,94.738144,-23.800039,89.276421,0.919869,-0.111404,0.404635
6094190664,85.162048,-26.230850,90.372307,0.896971,-0.140537,0.418535
6094210664,74.488846,-28.018318,88.164551,0.859387,-0.204784,0.428083
6094230665,72.751266,-27.107822,82.909622,0.871179,-0.250021,0.409832
6094250666,83.152390,-22.553806,79.794128,0.898616,-0.223205,0.437700
6094270668,88.191040,-16.573090,78.520508,0.906681,-0.151961,0.543045
6094290669,74.398453,-8.364859,75.932137,0.906790,-0.102074,0.598925
6094310669,50.737938,1.069596,67.129021,0.837276,-0.151630,0.552284
6094330670,26.653086,2.690748,60.187111,0.775390,-0.220486,0.527726
6094350671,11.491098,2.449834,51.753799,0.728308,-0.305414,0.431046
6094370671,10.428003,0.963410,44.705620,0.668229,-0.418706,0.410381
6094390672,17.109968,-8.497808,40.872715,0.699626,-0.369929,0.384224
6094410671,29.711155,-12.308708,45.513622,0.588102,-0.304886,0.476238
6094450673,12.382085,-29.796213,27.882006,0.623068,-0.522993,0.424846
6094470673,14.482341,-32.511986,12.602459,0.596617,-0.620884,0.367705
6094490674,18.940022,-38.867767,1.371491,0.634696,-0.659613,0.309575
6094510675,23.260792,-45.965202,-2.240955,0.707464,-0.669729,0.275892
6094530675,36.592262,-49.963909,0.186058,0.688057,-0.727899,0.292280
6094550676,60.586143,-51.742962,-5.462994,0.674740,-0.799544,0.309939
6094570676,85.699036,-53.516125,-15.691983,0.919311,-0.817174,0.291510
6094590677,118.709610,-50.761650,-16.645590,1.172685,-0.763744,0.284118
6094610678,171.515091,-42.915718,-2.909192,1.086288,-0.535497,0.421584
6094630680,198.390976,-42.446793,28.655146,1.013988,-0.210588,0.575493
6094650681,181.981750,-41.270004,60.018829,0.969731,0.032831,0.634976
6094670682,126.307175,-39.735764,79.028946,0.885247,0.117691,0.671680
6094690682,53.898129,-43.367203,87.241486,0.820661,0.049045,0.632405
6094710683,5.561162,-48.534138,91.384163,0.757066,-0.176607,0.574756
6094730683,-5.077322,-46.317997,90.928749,0.649722,-0.392364,0.470449
6094750698,7.381062,-40.011398,82.293999,0.553310,-0.534188,0.403154
6094770683,29.751074,-37.592838,69.991531,0.585872,-0.573646,0.362128
6094790684,53.255627,-37.850815,63.213112,0.669908,-0.538134,0.389064
6094810685,73.510162,-39.598145,53.956116,0.680584,-0.491522,0.435067
6094830685,80.443954,-40.108509,43.584061,0.707556,-0.435246,0.481724
6094850686,77.793701,-41.675987,36.186317,0.778247,-0.344585,0.518441
6094870687,63.074474,-43.613068,28.913776,0.788968,-0.287346,0.551146
6094890687,44.338634,-49.529655,19.390224,0.750767,-0.295648,0.562383
6094910688,34.804401,-51.205929,5.800566,0.788445,-0.273845,0.490092
6094930688,25.213457,-47.113667,-6.956257,0.750155,-0.240024,0.516187
6094950689,11.323559,-43.502663,-24.106476,0.765798,-0.247274,0.521929
6094970691,5.045000,-38.949322,-37.366871,0.642706,-0.279475,0.528755
6094990692,4.406209,-42.569725,-45.570023,0.684865,-0.479894,0.637797
6095010693,14.358505,-30.030203,-28.976587,1.056201,-0.817759,0.586888
6095030693,71.474510,13.218428,8.479544,1.060729,-0.809872,0.401461
6095050694,98.795631,61.972580,-20.660147,0.904775,-0.235427,0.583714
6095070694,41.321766,52.525452,-50.197376,0.651153,0.238262,0.650869
6095090695,-32.432838,-1.897084,-49.545376,0.529013,0.244396,0.600015
6095110694,-89.492477,-26.991865,-51.443176,0.873310,0.119070,0.515285
6095130695,-81.945877,-7.511724,-44.019814,1.028221,-0.061788,0.430413
6095150696,-48.444229,9.231531,-46.954109,0.846471,-0.219253,0.471412
6095170696,-41.573200,-9.477676,-74.835846,0.824638,-0.338680,0.466186
6095190697,-55.150414,-11.880315,-112.417641,0.895778,-0.388691,0.329295
6095210698,-43.998859,-2.914756,-135.307220,0.795744,-0.195657,0.317295
6095230698,-51.780533,-2.965462,-152.415543,0.738043,-0.150042,0.319297
6095250699,-18.623354,3.165833,-181.153091,0.862446,-0.207372,0.194548
6095270700,-4.926064,18.238859,-218.809509,0.839398,-0.083952,0.247149
6095290701,-3.623540,20.119259,-239.805786,0.845111,0.118051,0.199042
6095310701,20.270130,13.207855,-245.674271,1.020755,0.257072,0.181434
6095330703,8.435801,-8.755843,-247.070938,1.297205,0.166516,0.285218
6095350704,-9.516007,-5.989788,-233.824188,1.529631,-0.158115,0.540381
6095370705,-12.979862,40.367157,-132.423004,1.583500,-0.687841,1.095724
6095390706,9.402754,26.827639,42.533630,1.525350,-1.247704,0.960986
6095410707,45.083946,52.547775,119.463303,1.588619,-0.770496,0.708006
6095430707,-13.179163,76.119553,142.093826,1.558722,0.069324,0.697173
6095450708,-89.641945,51.990406,196.287384,1.391031,0.221393,0.447502
6095470707,-96.514923,26.616449,247.881302,1.119760,-0.221610,0.184313
6095490708,-35.723557,4.700181,277.378357,0.940299,-0.505432,0.051045
6095510708,53.156868,9.220498,281.602661,0.921546,-0.414138,-0.038570
6095530709,135.901199,41.196045,268.647186,0.986565,-0.168225,-0.017795
6095570710,206.260513,79.237061,205.124542,0.703868,0.660870,0.130628
6095590711,158.195618,51.665989,168.346313,0.379489,1.072034,0.253035
6095610712,46.684978,3.198874,87.876472,0.162048,1.387734,0.348888
6095630712,-83.690033,-18.948469,-9.132250,0.110584,1.074016,0.641161
6095650713,-283.961212,26.741499,-128.972794,0.354487,0.849338,1.138908
6095670714,-298.618927,-105.701385,-220.097839,1.274174,0.384267,0.380154
6095690715,-331.354706,-49.361725,-96.866493,2.525417,-0.432054,0.081839
6095710716,-171.023041,29.873026,-82.896172,0.980379,-0.649932,0.208646
6095730717,-136.764526,27.091427,-99.439423,1.030364,-0.718752,0.168065
6095750721,-72.670273,66.958588,-154.529327,0.898035,-0.450464,0.011738
6095770718,-37.947243,97.249756,-189.615005,0.759728,-0.212177,0.214841
6095790719,19.091858,96.398659,-216.598572,0.588814,0.065235,0.105236
6095810718,12.742593,47.284203,-224.090652,0.809048,0.345013,0.111637
6095830719,-77.659462,-9.114110,-227.107727,0.893192,0.485976,0.024301
6095850719,-141.278549,-60.358521,-214.190308,1.073997,0.493066,-0.165269
6095870720,-178.210022,-48.316574,-198.474762,1.591354,0.262883,-0.307761
6095890721,-251.154938,10.185898,-191.004990,1.544063,-0.684999,-0.072746
6095910721,-247.906357,-10.750860,-151.347580,1.426312,-1.433765,0.142628
6095930722,-163.845673,-45.904266,-21.737568,1.554073,-2.161145,-0.039019
6095950723,-26.766365,-3.942202,42.959923,1.475370,-2.074053,0.194007
6095970724,49.667397,21.249767,57.687656,1.392416,-1.319259,0.394748
6095990725,129.433899,26.484146,88.403641,1.438334,-0.653707,0.191331
6096010725,153.820099,44.736439,131.898102,1.422618,-0.312486,0.145978
6096030727,110.767471,53.978378,166.363861,1.198154,-0.085708,0.236649
6096050728,58.779564,36.896858,195.031876,0.978036,0.075541,0.347527
6096070729,18.995607,12.280241,216.033417,0.898602,0.078189,0.376788
6096090729,-2.826916,3.410902,223.772644,0.914167,0.013128,0.325586
6096110730,-6.936765,9.019902,220.673035,0.977789,-0.060154,0.298346
6096130731,14.729736,10.723113,211.500336,1.012735,-0.156996,0.316514
6096150732,52.951187,10.622667,193.475357,1.029282,-0.171700,0.361693
6096170731,85.193291,17.080433,162.263123,0.952898,0.042435,0.277455
6096190731,84.436775,33.985275,109.822914,0.878112,0.559636,0.232451
6096210732,20.554125,27.291483,52.200138,0.470892,0.938442,0.334180
6096230732,-69.308075,-16.479210,-25.167744,0.174882,0.638371,0.353872
6096250733,-176.531097,-20.474037,-120.221497,0.542040,0.515014,0.491454
6096270734,-236.293350,23.781372,-235.735016,0.913009,0.489419,0.637333
6096290735,-208.549271,-42.226013,-169.881470,2.373387,-0.348809,0.337629
6096310735,-156.837463,51.926537,12.257526,1.288732,-1.258438,-0.196855
6096330736,-46.869869,77.925583,-83.270752,0.664784,-0.737020,0.243020
6096350736,-108.599266,40.744709,-143.379333,0.410464,-0.428347,0.104365
6096370737,-141.450912,-19.291162,-162.403809,0.452667,-0.311130,0.036218
6096390740,-61.584579,4.077259,-191.410080,0.883442,-0.485307,0.077255
6096410741,36.123081,64.634254,-230.522766,1.014183,-0.543824,0.196593
6096430741,43.621994,69.448891,-243.216522,1.100021,-0.226119,0.252870
6096450742,41.768127,50.665760,-222.163956,1.042702,0.224001,0.291532
6096470742,19.588743,7.990510,-202.566864,0.880897,0.438298,0.250854
6096490743,-14.129229,-27.043238,-187.990082,0.888692,0.502342,0.163931
6096510763,-80.717125,-27.608671,-190.761078,0.973951,0.358293,0.108715
6096530743,-175.389786,-23.866489,-200.718689,1.334391,-0.100523,0.127420
6096550743,-230.837677,-47.252853,-138.128433,1.943077,-1.149332,0.233856
6096570744,-93.941299,-37.973660,0.796363,1.710749,-2.260096,0.393253
6096590745,81.999603,18.103483,6.114323,1.467819,-1.638034,0.648697
6096610746,170.772629,26.389545,19.821217,1.392236,-0.452550,0.515518
6096630746,152.094589,39.411720,71.781372,1.306831,0.067216,0.392651
6096650747,77.797394,56.044628,112.413010,1.113590,0.128524,0.324909
6096670747,-6.835943,55.176521,131.847488,0.948188,0.041709,0.295936
6096690748,-68.392288,30.860437,145.347748,0.914283,-0.081394,0.289094
6096710749,-76.136070,8.854679,163.455322,0.887824,-0.262617,0.297541
6096730751,-30.083555,9.577642,177.756409,0.826463,-0.336255,0.263575
6096750752,28.903915,17.978313,193.171906,0.856775,-0.370634,0.243793
6096790753,103.921196,22.933138,202.070374,1.070885,-0.316690,0.347556
6096810754,118.100204,26.535576,196.669724,1.025149,-0.170233,0.381879
6096830755,121.682259,27.792370,179.017197,0.938135,-0.041716,0.435401
6096850756,105.611252,21.113390,151.596100,0.748829,0.043474,0.460645
6096890755,37.778542,-20.713177,102.023529,0.529381,0.318124,0.429223
6096910755,-3.835991,-30.240812,59.943710,0.536735,0.434455,0.323705
6096930756,-22.392612,-31.755547,2.211994,0.441627,0.400118,0.330664
6096950757,-32.179867,-36.524082,-61.206532,0.465505,0.337842,0.340344
6096970758,-54.486191,-35.210587,-108.310066,0.590843,0.293701,0.408051
6096990758,-120.250229,36.318802,-154.347885,1.170806,0.296179,1.033852
6097010759,-125.909195,-6.439316,-152.281570,1.242859,-0.117350,0.696314
6097030760,-173.423645,-0.251138,-88.767319,1.231891,-0.505928,0.334024
6097050760,-112.671181,32.730984,-142.541672,0.728061,-0.336788,0.220268
6097070761,-84.365112,-0.198545,-204.684280,0.573654,-0.110007,0.300607
6097090763,-95.579636,-23.678690,-218.524597,0.817175,-0.259494,0.252268
6097110764,-47.163651,-1.807025,-219.703613,1.030467,-0.594804,-0.025759
6097130765,-7.508475,20.554728,-248.460831,1.023934,-0.444744,0.019850
6097150765,20.073254,17.175577,-279.364014,0.941969,-0.055523,0.086109
6097170766,93.445152,0.650624,-264.995514,1.181536,0.387996,0.204940
6097190766,92.312065,3.178976,-220.804108,1.329223,0.759992,0.519423
6097210770,-78.557037,-9.498965,-173.116180,1.276892,0.343341,0.751423
6097230766,-208.934753,-59.522697,-94.362701,1.484691,-0.376274,0.582960
6097250767,-189.623596,-64.232811,-10.768474,1.616654,-1.089945,0.330087
6097270768,-88.477676,-1.359125,0.696620,1.349903,-1.045285,0.495648
6097290769,33.267372,-0.407672,14.787708,1.149193,-0.447356,0.493015
6097310769,89.664558,-7.619056,44.116600,1.086044,-0.120197,0.322250
6097330770,84.059341,13.173424,51.966457,0.910645,0.051528,0.246788
6097350771,63.076683,18.572859,50.973923,0.700506,0.214636,0.146572
6097370771,50.462616,1.163914,49.674183,0.576254,0.328303,0.129983
6097390772,16.738562,-13.021616,41.806839,0.550288,0.270678,0.206590
6097410773,-3.506127,-18.906315,34.927006,0.617378,0.122757,0.311245
6097430775,9.065649,-10.967337,39.507179,0.735417,0.022973,0.354923
6097450776,36.925121,1.642358,49.277893,0.824012,-0.015887,0.318010
6097470776,55.003166,5.113389,47.462128,0.963085,0.027072,0.273506
6097490777,57.434837,1.871697,43.810436,1.124816,0.121831,0.280429
6097510778,50.743355,-0.804011,49.697021,1.173280,0.147856,0.328588
6097530778,38.081001,-10.688025,49.799667,1.132082,0.115996,0.359859
6097550779,19.148771,-24.440998,40.601307,1.140046,0.120200,0.341449
6097570778,9.611267,-27.644838,34.595127,1.071851,0.102285,0.335291
6097590779,8.086187,-29.012697,33.042828,0.955631,0.048513,0.350454
6097610780,5.073096,-27.307213,32.326927,0.880522,0.001867,0.340107
6097630780,10.594810,-18.825214,28.152010,0.863712,-0.002666,0.290659
6097650781,14.626489,-7.251410,20.618580,0.857363,0.046171,0.250895
6097670781,9.685903,-2.630246,12.868878,0.861610,0.096613,0.256365
6097690782,-6.969217,-6.297066,9.557078,0.863183,0.118580,0.262794
6097710783,-27.941759,-15.178214,8.781218,0.865641,0.104603,0.261665
6097730783,-41.856468,-23.519321,7.073946,0.932197,0.006358,0.260378
6097750784,-38.403812,-23.743484,3.616692,0.998523,-0.100284,0.243712
6097770785,-24.689774,-16.455629,-4.769864,1.013028,-0.163468,0.239538
6097790787,-5.209689,-9.393683,-12.345807,0.987597,-0.141546,0.266310
6097810787,5.988425,-7.225534,-16.449635,1.009249,-0.048406,0.308334
6097830788,-5.324844,-9.136819,-16.176512,1.046819,0.003944,0.293222
6097850789,-17.184454,-12.609432,-10.969444,1.021175,0.015060,0.307843
6097870789,-20.308718,-15.617907,-7.240660,0.981078,0.006161,0.280941
6097890790,-15.772531,-12.752604,-8.133094,1.009935,0.029402,0.257979
6097910791,-21.050468,-11.123049,-6.885280,0.999945,-0.010162,0.235409
6097930790,-22.869888,-12.052718,-6.226811,1.012974,-0.067315,0.237604
6097950791,-14.352099,-0.775200,-9.212188,0.983662,-0.066272,0.241671
6097970792,-4.123477,11.153064,-13.864985,1.000518,-0.015484,0.264594
6097990792,-9.129576,10.459845,-11.847949,0.991939,-0.035302,0.251860
6098010793,-12.163599,7.227608,-8.627716,0.988294,-0.044715,0.274772
6098030794,-15.310795,9.590591,-9.049616,0.946227,0.001172,0.268170
6098050794,-16.185020,15.510315,-12.241381,0.957033,0.042851,0.261801
6098070795,-26.031010,10.603415,-9.248416,0.877021,-0.026310,0.227213
6098090795,-29.184000,-3.551593,-5.286589,0.929399,-0.113880,0.239393
6098110796,-27.837566,-4.326475,-5.494408,0.925445,-0.180457,0.224870
6098130799,-6.402538,6.270162,-10.975089,0.988532,-0.141074,0.218059
6098150799,13.664226,12.345132,-10.782718,0.980144,-0.081554,0.210310
6098170800,23.412586,7.121711,-8.257792,0.960819,-0.020858,0.300308
6098190801,10.936879,2.911347,-7.900543,0.972455,0.019015,0.334201
6098210801,1.103247,5.803526,-6.797229,0.949729,0.077506,0.284090
6098230802,-7.008966,1.467498,-4.605104,0.908851,0.070663,0.234527
6098250803,-19.322451,-15.878059,-0.336189,0.923007,0.004089,0.266067
6098270802,-26.043474,-18.194139,4.173420,0.975905,-0.096233,0.283648
6098290803,-4.296529,-0.635910,8.637684,0.994697,-0.110545,0.264263
6098310803,18.677296,6.734703,13.697275,0.940119,-0.076316,0.256620
6098330804,18.913799,-3.548737,17.656466,0.946183,-0.067079,0.307621
6098350805,14.961344,1.157808,17.326414,0.992615,-0.007333,0.295221
6098370805,13.022997,9.382309,15.557739,0.928491,0.086883,0.266310
6098390806,-5.229144,-5.151078,15.957773,0.892726,0.058420,0.263468
6098410807,-18.726124,-23.975346,16.378332,1.006256,-0.041798,0.289229
6098430808,-14.978067,-13.158695,13.067265,1.046433,-0.093549,0.289790
6098450808,6.969261,5.813412,8.587384,0.953152,-0.052418,0.268881
6098470809,14.088852,1.485015,8.528888,0.934695,-0.017215,0.287492
6098490811,-0.108426,-5.818178,11.727375,0.987719,-0.018949,0.321164
6098510812,-8.970087,6.145805,11.379250,0.975275,0.011191,0.268035
6098530812,-15.573279,12.238028,5.765885,0.891348,0.039208,0.227537
6098550813,-30.853172,-9.506302,6.808175,0.858765,-0.053625,0.222523
6098570813,-35.738422,-21.928564,8.505462,0.991195,-0.122917,0.226654
6098590814,-22.514465,-4.268588,6.791938,1.019098,-0.150257,0.218781
6098610815,-1.060007,8.574959,4.051941,0.923749,-0.150486,0.239443
6098630814,6.600384,-2.020387,-0.395831,0.947546,-0.143395,0.274692
6098650815,3.582144,-4.853255,0.193149,1.025693,-0.103752,0.251245
6098670816,4.455929,7.550476,0.269718,0.959337,-0.036912,0.262593
6098690816,-11.205013,-4.169748,0.500775,0.872891,-0.070480,0.234509
6098710817,-22.248201,-27.353558,6.059442,0.942400,-0.155668,0.203497
6098730818,-10.793568,-22.736256,4.063555,1.013849,-0.194584,0.194416
6098750818,2.920052,-11.023200,-0.490196,0.971961,-0.189927,0.210068
6098770819,14.952874,-8.711192,0.569061,0.953324,-0.152693,0.198910
6098790820,22.850664,-8.136297,1.069931,1.010435,-0.100547,0.255694
6098810820,9.940154,-5.655835,0.334929,0.954234,-0.116289,0.292039
