Timestamp (us),Gyroscope X (deg/s),Gyroscope Y (deg/s),Gyroscope Z (deg/s),Accelerometer X (g),Accelerometer Y (g),Accelerometer Z (g)
804463954,10.211270,7.563544,-2.296511,0.916005,0.265847,0.411315
804483998,-7.084473,4.197867,1.457971,0.890264,0.205608,0.411442
804504041,-11.669670,-2.867180,0.661793,0.925569,0.067333,0.412386
804524084,-11.496875,-4.598359,4.935970,0.976579,0.020416,0.384285
804544127,-7.055765,-0.854831,5.424042,0.972581,0.020613,0.353026
804564169,-3.541361,8.991636,3.208954,0.917936,0.033863,0.370089
804584226,1.865781,7.320261,-1.561885,0.875601,0.080822,0.421742
804604253,3.409261,-0.564877,-5.733472,0.897578,0.144173,0.415553
804624296,-10.079197,-2.217557,-5.239958,0.939050,0.120756,0.339936
804644339,-7.347579,0.030567,-3.739368,0.943722,0.057005,0.333486
804684424,-1.979169,0.225407,0.378877,0.898696,0.095757,0.391925
804704467,-6.896933,-2.841118,0.175696,0.917310,0.079645,0.370981
804724509,-6.765991,-0.074975,-0.704027,0.931136,0.060328,0.350756
804744552,-3.523023,1.047380,-0.143344,0.922335,0.050436,0.351320
804764596,0.695783,-0.802920,0.549797,0.919218,0.045556,0.363446
804784639,0.373730,-4.192144,1.454430,0.927104,0.045160,0.375343
804804682,2.929916,-5.698768,2.609473,0.929441,0.057115,0.381817
804824724,7.048783,-5.748137,2.151315,0.929278,0.063454,0.375663
804844767,7.016320,-5.041639,1.274792,0.952570,0.076208,0.359704
804864810,6.781672,-1.050910,1.630878,0.961657,0.088896,0.368042
804884851,3.829172,3.497363,2.753868,0.932827,0.077751,0.355632
804904894,3.361189,1.399929,2.652783,0.926181,0.071173,0.352542
804924936,1.476958,1.964035,2.712406,0.928726,0.080827,0.368960
804944979,0.198929,3.386971,3.825513,0.922542,0.070579,0.376192
804965021,0.194385,1.099122,3.728673,0.933303,0.060342,0.357145
804985064,-0.904945,1.875539,4.162992,0.952437,0.052268,0.351889
805005107,0.454196,4.405542,4.485384,0.936570,0.049541,0.370368
805025150,1.388487,5.468502,3.753478,0.910192,0.054251,0.374598
805045192,0.138713,2.063960,2.623534,0.908887,0.050760,0.368153
805065237,1.712513,0.655879,1.310071,0.928784,0.033881,0.369804
805085279,5.199505,1.822805,0.048068,0.938351,0.034871,0.375146
805105322,6.961774,0.476064,0.279615,0.941970,0.052043,0.374575
805125365,6.126859,-0.001791,0.873077,0.935907,0.058887,0.363003
805145408,4.409225,0.615286,0.733297,0.933221,0.066703,0.354178
805165450,4.427157,1.299508,1.121046,0.931505,0.075430,0.359648
805185491,3.121490,2.015185,1.305601,0.933760,0.081454,0.365350
805205534,1.889625,1.925034,1.292276,0.926160,0.077320,0.357863
805225577,0.124897,1.698482,1.168891,0.923553,0.065268,0.350023
805245619,0.567791,2.351847,1.362954,0.929990,0.058677,0.359593
805265662,1.026955,3.430871,1.632672,0.924799,0.061763,0.372003
805285705,0.027527,1.751933,1.527647,0.923093,0.064367,0.375610
805305747,-0.726309,-0.041831,0.087647,0.943333,0.057659,0.372354
805325790,-1.621340,1.668978,-0.181367,0.958328,0.046816,0.366453
805345833,-0.934729,2.641343,-0.027567,0.948103,0.045223,0.364570
805365877,-0.794508,3.553508,0.419975,0.924342,0.047881,0.367744
805385919,0.048361,3.187902,0.322439,0.907818,0.053072,0.370493
805405962,-0.465160,2.503941,-0.434807,0.918643,0.063079,0.364754
805426005,-1.883224,3.371890,0.108526,0.930914,0.054985,0.367733
805446048,-1.141406,4.192462,0.856274,0.920662,0.046227,0.370917
805466090,-1.069391,2.102185,0.804370,0.922145,0.067268,0.371391
805486132,-1.923287,0.651221,0.873235,0.938628,0.059629,0.370300
805506174,-0.881290,2.443748,0.124576,0.935453,0.041913,0.372244
805526217,0.900749,1.917328,-0.833258,0.923928,0.053065,0.377622
805546260,1.920524,-0.226367,0.456061,0.924480,0.052856,0.375169
805566303,3.084998,0.669464,0.354866,0.927985,0.050281,0.379222
805586345,4.053319,2.348346,0.277290,0.918406,0.062929,0.381324
805606388,2.741501,0.054075,0.289517,0.912293,0.068571,0.379867
805626431,2.330975,-0.880252,0.743027,0.926579,0.052346,0.372002
805646474,3.871521,2.075017,0.583674,0.936716,0.053745,0.372156
805666518,3.465448,3.648901,1.004306,0.922777,0.063529,0.385084
805686560,2.200536,1.058378,1.496406,0.917932,0.063448,0.389055
805706603,1.551542,-0.035651,1.296722,0.928815,0.055118,0.369173
805726647,1.864509,2.236344,0.537963,0.940386,0.059540,0.361756
805746688,0.797167,4.213570,0.810918,0.946547,0.070128,0.363625
805766731,-1.463651,6.115854,1.161658,0.918173,0.052523,0.379041
805786772,-3.684602,6.587903,-1.305324,0.900949,0.053751,0.412045
805806815,-3.317109,3.410584,-1.107062,0.919783,0.063286,0.408189
805826858,-5.612036,2.979551,-0.609107,0.947378,0.070303,0.389395
805846900,-7.886631,4.517262,0.290602,0.948263,0.059258,0.376838
805866943,-9.311879,6.874681,0.230736,0.912970,0.033102,0.380529
805886985,-6.743679,6.521826,-1.997927,0.899249,0.023469,0.381510
805907028,-1.816568,4.670163,-2.971004,0.914524,0.048469,0.390701
805927071,-4.773134,5.873474,-3.307533,0.937070,0.096289,0.393749
805947114,-11.097437,8.949995,-2.469650,0.912434,0.076082,0.397560
805967158,-14.029183,9.316728,-3.872139,0.869644,0.036110,0.404041
805987201,-10.614375,2.215500,-2.162254,0.878541,0.047593,0.409201
806007243,-12.497497,-4.234191,1.545537,0.935269,0.092591,0.370459
806027286,-18.125870,1.048637,8.379216,0.959059,0.115084,0.328293
806047329,-19.664124,13.960062,17.497902,0.863109,0.116957,0.300446
806067371,-21.162903,16.412628,26.024330,0.775571,0.113979,0.412453
806087413,-25.907528,-6.529376,26.905176,0.853556,0.106925,0.618477
806107455,-28.091864,-29.015667,15.119587,0.991713,0.154629,0.580490
806127498,-29.468279,-20.788340,3.123545,1.005755,0.196402,0.424015
806147540,-49.572639,1.067491,-10.021666,1.009031,0.284500,0.447530
806167583,-71.294525,4.884784,-14.041174,0.996611,0.331653,0.437217
806187626,-93.856300,5.491579,-9.488243,0.938471,0.311477,0.401360
806207669,-133.074860,7.368906,-17.272335,0.973388,0.285466,0.481858
806227711,-183.519745,0.896820,-38.225914,1.045283,0.240997,0.432221
806247754,-209.504105,12.110189,-49.076195,1.085610,0.301238,0.374751
806267798,-207.163727,38.884884,-50.262207,1.014367,0.340127,0.310361
806287841,-220.971466,63.972656,-64.548157,0.929079,0.312031,0.320349
806307884,-255.601547,60.601749,-88.718948,0.868000,0.300525,0.329830
806327926,-293.717468,39.072960,-119.146187,0.884620,0.332406,0.347715
806347969,-323.628296,22.736847,-147.614777,0.916571,0.304287,0.207699
806368012,-342.893860,9.447922,-157.244019,1.021281,0.298957,0.104171
806388053,-359.663513,7.079647,-165.531403,1.065115,0.245450,-0.017431
806408096,-399.219025,15.626245,-183.131577,1.144916,0.204683,-0.043188
806428138,-419.650146,38.942295,-194.942474,1.020357,0.233368,-0.153679
806448181,-374.610504,63.715313,-204.597916,0.931740,0.294675,-0.129886
806468224,-337.273193,23.728056,-217.340408,0.949282,0.314021,0.084219
806488267,-356.170441,-40.001610,-231.846207,0.959771,0.466354,0.104889
806508309,-331.394836,-56.448376,-232.432007,0.904351,0.812361,-0.230502
806528352,-213.039795,-67.061943,-214.687424,0.887206,1.042101,-0.654151
806568438,-408.756653,-133.249115,-202.580521,1.262814,0.344870,-0.230125
806588481,-656.366333,-222.782761,-182.321121,1.877732,0.399175,-0.233547
806608524,-664.930664,-263.491211,-62.061207,1.839092,0.495802,-0.514862
806628567,-394.318909,-108.199615,38.701283,1.437342,0.077300,-1.097938
806648609,-214.236923,5.141584,-4.877681,1.097835,0.224602,-0.873021
806668652,-211.587921,63.045074,-131.462158,1.085790,0.583209,-0.640628
806688693,-304.068726,74.286263,-224.758270,1.198097,0.742703,-0.704036
806708736,-417.972565,48.541145,-244.094818,1.190717,0.696752,-0.794846
806728779,-508.908661,-7.988710,-206.882996,1.203015,0.546749,-0.749088
806748821,-558.475464,-89.927208,-156.815109,1.182947,0.402590,-0.731111
806768864,-538.923340,-147.118744,-128.037613,1.173729,0.301155,-0.808184
806788907,-481.319000,-140.165482,-121.880783,1.292382,0.265333,-0.876215
806808949,-449.420319,-50.560585,-127.565735,1.431766,0.251582,-0.887830
806828992,-442.243134,39.454826,-146.683044,1.369592,0.188106,-0.768583
806849035,-446.826172,71.367386,-161.579468,1.182632,0.131273,-0.532035
806869079,-440.956635,63.946964,-171.932617,1.131396,0.108530,-0.317721
806889122,-421.774414,43.400005,-173.957230,1.165530,0.082020,-0.194615
806909165,-382.616638,38.551502,-164.745239,1.147330,0.047716,-0.185543
806929207,-352.008209,60.138145,-155.218430,1.077118,0.071340,-0.128073
806949250,-337.127014,84.337990,-162.143311,0.999966,0.160020,0.022949
806969304,-329.044189,83.594429,-177.456406,0.978704,0.201054,0.155744
806989334,-329.914703,59.757805,-181.000183,0.987752,0.174513,0.285495
807009376,-331.987427,31.689413,-182.778534,1.022408,0.069238,0.322397
807029419,-313.280457,16.721012,-186.496033,0.989901,-0.036998,0.351989
807049462,-300.613403,22.976698,-195.245819,0.976994,-0.049972,0.396613
807069505,-279.607330,6.314282,-209.317368,1.008942,0.071562,0.438544
807089547,-282.905243,-16.267952,-200.044998,1.088599,0.091156,0.526457
807109590,-299.562866,-20.758011,-193.909805,1.036448,-0.038521,0.438925
807129633,-297.859863,-10.402869,-200.857651,0.951254,-0.066864,0.390192
807149677,-278.662842,-8.736053,-209.630356,0.955345,0.027446,0.329445
807169719,-271.457977,-11.693707,-214.863251,1.006054,0.148440,0.260624
807189762,-314.031494,5.956596,-208.832184,1.124241,0.172764,0.263472
807209805,-350.403442,-0.055477,-194.057617,1.117541,-0.112470,-0.134910
807249890,-322.830933,-8.374177,-182.818481,1.301017,-0.439292,-0.081617
807269932,-305.312439,40.619995,-165.941742,1.351474,-0.795773,0.107243
807289974,-225.624619,125.956131,-158.100906,0.962942,-1.090562,0.240492
807310017,-91.928780,131.751862,-196.499207,0.578994,-0.703583,0.636910
807330060,11.731604,69.713875,-219.556946,0.583909,0.095985,0.752346
807350103,42.091217,47.382839,-212.401718,0.756000,0.536566,0.689421
807370145,-9.622896,51.796547,-198.570709,0.834053,0.699852,0.750827
807390188,-89.999809,29.904236,-172.237228,0.800080,0.685014,0.734131
807410231,-149.085526,7.401223,-144.710373,0.786510,0.589812,0.677824
807430273,-163.564621,-3.145265,-114.634239,0.794370,0.256447,0.497816
807450317,-125.009842,-20.545763,-80.090149,0.776150,-0.032846,0.545046
807470360,-60.952175,-4.179813,-54.892639,0.824154,-0.173269,0.640241
807490403,-6.499975,25.707378,-48.961880,0.753765,0.109525,0.682551
807510445,-7.081495,24.641773,-53.413116,0.756053,0.264665,0.658708
807530488,-57.557907,4.736352,-30.342854,0.676470,0.242967,0.595121
807550531,-116.609161,-5.994777,10.557965,0.637978,0.082267,0.657257
807570572,-104.725250,-30.577093,46.456066,0.769249,-0.257621,0.674405
807590615,-65.266953,-46.982239,48.302166,0.791727,-0.388222,0.588517
807610658,-62.264435,-40.780571,19.255192,0.972761,-0.281601,0.629384
807630700,-79.690521,-38.919910,16.233067,1.061963,-0.168521,0.742452
807650743,-86.347923,-19.406181,9.576798,1.025649,-0.118094,0.694336
807670786,-64.150398,10.392535,-23.311676,0.739520,-0.135224,0.570206
807690828,-89.157280,17.480089,-62.955097,0.577475,-0.010883,0.636006
807710871,-168.604111,-14.500866,-90.952896,0.644281,0.002851,0.556171
807730913,-234.701584,-30.428576,-108.973999,0.730673,-0.230160,0.434904
807750958,-249.484970,-19.787861,-120.991425,0.887342,-0.630014,0.281751
807771001,-211.059525,26.554409,-112.995438,0.973757,-0.713765,0.275972
807791043,-176.730560,75.547958,-115.864716,0.805406,-0.436112,0.487589
807811086,-180.790649,77.953545,-148.975449,0.644148,-0.255617,0.529351
807831129,-180.631470,57.620369,-185.235764,0.538573,-0.154617,0.560795
807851172,-190.647598,19.080734,-213.515930,0.586280,-0.092338,0.598140
807871213,-225.176590,-31.665195,-220.387268,0.809366,-0.122861,0.445974
807891255,-242.469788,-26.735109,-225.919739,0.920250,-0.115847,0.347761
807911298,-207.931946,-9.283292,-242.664185,0.983026,-0.079800,0.231476
807931341,-195.016296,-2.541756,-252.254364,1.123531,0.075928,0.197075
807951383,-198.300095,-19.758709,-227.902939,1.313006,0.339930,0.096313
807971426,-237.599854,-66.650749,-175.813812,1.728213,0.250918,0.057107
807991469,-365.006592,-67.049614,-107.673668,2.147140,-0.568468,-0.180164
808011511,-199.490372,88.184776,-65.322357,1.595195,-1.346431,-0.319622
808031554,-143.555603,109.965012,-117.317215,0.378387,-0.912810,0.474475
808051598,-105.772072,29.438229,-157.138290,0.192590,-0.507485,0.555263
808071641,-84.896095,-33.604298,-139.251953,0.467415,-0.161942,0.322254
808091684,-116.618263,-16.849092,-142.178528,0.804091,0.014915,0.288020
808111726,-133.198349,-33.137665,-124.003510,1.103348,0.040430,0.363741
808131769,-141.216003,-43.742134,-92.140862,1.289057,-0.111513,0.299434
808151812,-109.489319,3.069879,-66.609970,1.216702,-0.321292,0.187469
808171853,-45.358463,49.316711,-52.472557,1.059117,-0.227496,0.374734
808191896,-37.493362,54.827782,-36.158733,1.012299,0.043880,0.462468
808211939,-58.481117,46.053818,-15.084916,1.012813,0.176633,0.465564
808231981,-72.434357,50.297882,-1.726111,0.949085,0.150442,0.468592
808252024,-67.914642,55.624054,2.668048,0.905880,0.103761,0.404203
808272067,-64.428268,55.731537,11.722223,0.994788,0.097484,0.363570
808292110,-70.851860,64.929428,35.432823,0.946701,0.008377,0.297036
808312153,-60.750294,80.772133,61.090240,0.867963,-0.132815,0.376380
808332195,-38.310974,79.435440,72.628784,0.844104,-0.253662,0.457960
808352239,-10.266152,65.404152,74.880112,0.966515,-0.125473,0.372942
808372282,-1.463613,67.871475,85.277832,1.089420,0.131892,0.225407
808392324,-21.529766,126.259232,112.528084,0.543867,-0.018364,0.340565
808412367,-8.011516,100.322754,115.107750,0.319369,-0.185714,0.734621
808432410,-0.938977,25.692671,97.502960,0.571177,-0.141823,0.795003
808452453,-25.839581,17.108664,77.284958,0.811871,-0.108039,0.809138
808472494,-43.154095,16.729010,78.675079,0.745881,-0.324871,0.755728
808492537,-32.956841,4.932501,80.840210,0.647847,-0.581730,0.598168
808512579,14.455018,1.025957,70.995613,0.618108,-0.612903,0.637995
808532622,31.422628,9.300764,64.572601,0.693818,-0.433817,0.873785
808552665,5.041485,11.228264,57.794693,0.697029,-0.388424,0.841751
808592750,12.009305,4.668599,20.021667,0.435180,-0.352089,0.773167
808612792,-10.836483,-12.001431,6.210161,0.378328,-0.430400,0.844230
808632835,0.102150,-37.049168,-14.168022,0.311314,-0.518012,0.831354
808652879,-0.708194,-61.485855,-33.550125,0.386648,-0.533320,0.974970
808672922,-5.139346,-80.893059,-47.858292,0.436431,-0.633901,0.948942
808692965,29.812901,-91.687325,-68.015053,0.388033,-0.618340,0.933073
808713008,33.302116,-102.902199,-86.696030,0.327353,-0.627673,0.941265
808733050,8.270234,-139.602844,-93.988678,0.263567,-0.879854,0.783007
808753093,28.219246,-163.083923,-128.790283,0.265798,-0.372467,0.580722
808773134,54.255207,-74.172394,-166.296982,0.317233,0.066695,0.024468
808793177,154.861038,-80.608658,-155.680511,0.513180,0.302127,-0.117892
808813220,144.625443,-126.754059,-128.208725,1.428857,0.455850,-0.184761
808833262,-22.114246,-181.840805,-86.729790,2.416535,0.696723,-0.091677
808853305,-210.817749,-147.353836,-4.218820,2.204046,0.563801,0.234900
808873348,-258.629730,14.123272,56.568169,1.147331,-0.429805,0.191590
808893391,-0.677103,37.084526,27.127592,0.407002,-0.991368,0.637483
808913433,204.632843,-17.262655,-73.273033,0.280714,-0.312472,0.261771
808933476,234.344711,3.003793,-110.826790,0.670108,0.324813,0.102940
808953520,129.123856,13.560624,-77.591324,0.800422,0.402136,0.310471
808973563,-21.142567,-25.631248,-34.265366,0.758480,0.304988,0.479581
808993606,-125.067757,-87.757507,6.685278,0.832542,0.148076,0.504816
809013648,-131.224869,-108.316399,30.787647,1.109402,-0.157832,0.267003
809033691,56.879318,-17.982418,36.436455,1.348705,-0.459024,0.136400
809053734,101.663849,41.493401,5.076096,1.039258,0.176217,0.487885
809073775,46.174831,77.146019,-5.053035,0.867892,0.475010,0.654147
809093817,0.469912,46.079403,36.518890,0.835932,0.330313,0.711555
809113860,-38.234035,-14.564116,52.056240,0.943821,0.150217,0.602118
809133903,-32.467915,6.204000,52.929440,0.988068,0.003723,0.506779
809153946,-27.342190,19.306314,43.050156,0.940255,0.031172,0.559829
809173988,-39.906326,-0.281813,33.337402,0.974171,-0.009244,0.462719
809194031,-39.767670,-2.974483,29.118351,1.010858,-0.132886,0.297578
809234117,1.763030,44.392666,23.536612,0.894018,0.019979,0.179290
809254161,-20.236322,66.012642,39.919430,0.692043,0.067965,0.419324
809274204,-30.877499,44.272758,49.041641,0.596485,-0.147757,0.495245
809294246,-2.365320,-14.065992,45.526134,0.898286,-0.262938,0.347267
809314289,-3.184994,-10.480564,56.148941,1.260581,-0.188520,0.395094
809334332,5.471841,42.243370,68.084862,1.189620,-0.151517,0.235125
809354374,52.425682,86.264748,52.758999,0.928526,-0.130513,0.203546
809374416,30.959095,78.133926,49.632549,0.811946,-0.077472,0.524827
809414501,-37.204197,10.523480,48.931587,0.556668,-0.282589,0.488875
809434544,-27.444529,-3.067926,30.905676,0.655161,-0.348950,0.517365
809454586,-18.170668,-9.006077,27.366241,0.689768,-0.428768,0.682338
809474629,-10.457980,-11.461519,7.517093,0.600246,-0.556046,0.747286
809494672,35.295547,-18.400164,-21.060551,0.525697,-0.569907,0.881419
809514714,56.392136,-34.046265,-39.788532,0.521362,-0.401970,0.961395
809534757,8.897284,-69.961411,-50.596943,0.581444,-0.375961,0.788089
809554801,-32.280006,-83.575241,-64.194595,0.668596,-0.392964,0.735605
809574844,-8.518382,-60.088837,-68.680466,0.615038,-0.353538,0.418235
809594887,66.446762,-79.951187,-80.641052,0.814575,-0.149148,-0.098673
809614929,67.443672,-76.998108,-69.841125,1.549137,0.200770,-0.086909
809634972,10.284298,-78.396172,-9.796005,2.062418,0.423222,0.005867
809655022,-72.850510,20.029648,9.298898,1.207791,-0.019975,-0.042240
809675056,-55.968441,51.278042,-4.633963,0.553413,-0.304897,0.523541
809695099,17.238272,-22.707214,-33.137779,0.415300,-0.358918,0.633142
809715142,43.203018,-48.095226,-54.552662,0.777925,-0.044047,0.312351
809735184,18.787308,-22.487106,-47.708427,0.914797,0.088161,0.283307
809755227,-28.802372,-10.495767,-26.556940,0.849235,0.019619,0.413497
809775269,-46.125599,-17.178261,-12.468699,0.870266,-0.139333,0.424977
809795312,-14.936918,-17.453012,-5.805391,1.000376,-0.341112,0.338370
809815355,27.998119,-7.317395,-16.070803,1.038677,-0.282788,0.363934
809835399,30.192743,1.985647,-29.177042,1.019401,-0.052051,0.436272
809855442,16.111168,5.156666,-19.054012,0.990156,0.024312,0.459008
809875485,9.847201,4.742013,-6.702045,0.988136,-0.044238,0.443353
809895527,11.232754,10.770683,-1.126539,0.986222,-0.095162,0.444579
809915570,9.389828,14.330972,2.350550,0.937576,-0.071274,0.457501
809935613,-5.027284,16.049839,10.908154,0.923183,-0.041282,0.502853
809955654,-19.691765,13.626955,20.378145,0.929098,-0.025222,0.491929
809975697,-13.336860,17.143311,26.405495,0.898125,0.038748,0.486896
809995739,-13.225777,22.525694,29.035488,0.884317,0.060659,0.512744
810015782,-27.461510,15.636750,29.463499,0.898563,-0.004329,0.556540
810035825,-34.095913,8.388815,23.700840,0.860183,-0.084580,0.486726
810055867,-23.409454,2.241392,13.880917,0.809860,-0.135416,0.350394
810075910,-3.850694,-4.019196,6.072870,0.850760,-0.118237,0.377318
810095953,1.677626,-3.524100,2.137066,0.851135,-0.083656,0.357005
810115996,2.049942,2.983042,4.946829,0.876227,-0.128071,0.293642
810136040,1.199405,5.597066,1.956888,0.924726,-0.133648,0.266091
810156083,-13.947612,20.175961,8.336715,0.961963,-0.017147,0.341333
810176125,-26.990088,32.534843,17.399382,0.968206,-0.006091,0.432787
810196168,-48.288353,37.796234,14.121854,0.968656,-0.147434,0.516625
810216211,-44.145832,31.810293,12.739696,0.888031,-0.333431,0.247989
810236253,42.975197,10.452413,11.215813,0.828324,-0.307059,0.253799
810256295,34.170639,37.357498,8.164854,0.822253,-0.206497,0.517682
810276338,15.191286,22.803469,8.407932,0.852844,-0.131282,0.606053
810296380,-0.189911,7.083917,9.744414,0.832093,-0.134702,0.581894
810316422,6.743974,-6.691138,0.425190,0.728454,-0.257530,0.465159
810336465,50.689262,-14.732140,-15.338811,0.595029,-0.333003,0.580525
810356508,79.442757,-22.267155,-33.721779,0.540850,-0.388038,0.773689
810376550,47.030083,-68.377869,-56.056015,0.746841,-0.311882,0.826369
810396593,26.631710,-119.311523,-47.661793,0.907739,0.116044,0.730236
810416636,-0.347670,-20.073542,-24.617689,0.516768,0.116286,0.096531
810436680,69.808319,-0.302673,-38.704372,0.442379,-0.019459,-0.131505
810456723,41.287590,-98.028801,-68.417007,1.654132,0.272679,0.401901
810476766,-109.839279,-160.588074,-16.247986,2.348092,0.457100,0.062938
810496808,-76.911209,46.162399,72.354347,1.457821,-0.188662,-0.596305
810516851,1.487007,176.253922,49.544815,0.594791,-0.272927,0.354237
810536894,85.211487,63.453583,-39.324612,0.222766,-0.104941,0.635922
810556935,98.481735,-52.089188,-40.955051,0.519796,0.103910,0.431517
810576978,2.702675,-68.758224,-6.867273,0.876764,0.195929,0.456763
810597020,-38.827774,-49.256672,10.642442,1.072043,-0.033862,0.500966
810617063,27.851820,-6.083241,6.784040,1.083998,-0.263290,0.443221
810637106,46.968922,8.894927,-13.367104,0.915010,0.008926,0.432548
810657149,27.487038,4.477977,-2.220356,0.842694,0.105267,0.531100
810697234,23.073788,-30.618275,-2.328558,0.902643,-0.003618,0.424640
810717277,24.553963,-29.914021,-5.281235,0.965807,0.005385,0.351190
810737321,20.256987,-15.660450,-8.484305,0.996172,-0.001687,0.343913
810757363,26.606640,-4.424074,-7.530378,0.954481,0.017863,0.413916
810777406,28.083261,-6.362909,-6.160955,0.851792,0.082273,0.434394
810797449,19.759615,-18.005806,-2.216034,0.856291,0.068612,0.420428
810817492,15.657463,-27.425592,1.176374,0.959291,0.041735,0.384347
810837534,12.720201,-20.977568,1.398492,1.014881,0.091450,0.352477
810857576,-1.442969,-2.737313,4.841888,0.935120,0.157648,0.365186
810877618,-13.210534,1.514201,5.202352,0.869637,0.087082,0.405350
810897661,-10.088665,-13.639149,-0.261958,0.905298,0.059749,0.418400
810917703,-6.993491,-22.977858,-5.541103,0.968663,0.079797,0.359792
810937746,-7.765140,-14.258823,-4.720654,0.997237,0.060243,0.287235
810957789,-3.833198,-0.229711,-1.122519,0.960989,0.013341,0.269422
810977832,1.457268,0.980544,-3.975377,0.951942,-0.004405,0.367922
810997875,3.581925,-7.032081,-3.214644,0.932166,0.028649,0.371874
811017917,1.604382,-10.173780,4.056107,0.926759,0.045190,0.341198
811037961,0.531248,-11.699500,6.480777,0.965767,0.026672,0.344732
811058004,4.808506,-15.420396,5.453504,0.981908,0.020749,0.315764
811078047,3.872716,-15.061611,7.105892,0.966714,0.044775,0.328839
811098090,5.487374,-9.396871,15.117839,0.905889,0.062108,0.330436
811118132,0.061896,-10.520501,24.393875,0.904030,0.060739,0.363938
811138194,-3.765556,-26.243626,23.089647,0.956958,0.048231,0.345127
811158216,-4.662795,-30.446039,23.077644,1.027101,0.077257,0.344034
811178259,-1.152813,-13.147621,28.100544,1.018790,0.089033,0.316563
811198301,-8.736695,7.549389,31.125496,0.955904,0.056679,0.313730
811218344,-17.987629,8.781019,30.966713,0.876462,-0.016867,0.316488
811238387,-10.533544,0.710585,31.724728,0.806803,-0.043963,0.345792
811258430,11.899588,-19.967827,30.955200,0.827561,-0.065422,0.371249
811278472,20.229593,-52.444794,31.851467,0.972568,-0.079641,0.394550
811318558,37.701477,-44.663563,44.265102,1.003696,0.058923,0.256976
811338602,39.506699,-20.195272,51.381710,0.931303,0.051389,0.287828
811358645,38.230499,-32.423622,51.532566,0.962834,0.039209,0.320207
811378687,44.526096,-46.574440,50.461590,0.995140,0.021519,0.285992
811398731,51.165092,-38.285793,54.935741,0.988871,-0.026727,0.207864
811418773,54.686764,-21.420944,59.242840,0.984267,-0.014960,0.274378
811438815,61.415310,-16.083710,58.706249,0.969506,-0.037604,0.314334
811458857,70.674973,-22.841526,57.818871,0.945950,-0.073691,0.280501
811478900,80.971428,-26.179428,58.024956,0.950891,-0.080616,0.328756
811498942,83.655334,-28.486046,55.172554,1.001444,-0.029165,0.424753
811518985,83.260246,-42.258762,53.855400,1.034878,-0.031929,0.389422
811539028,89.041565,-47.651100,57.282501,1.003008,-0.076249,0.297053
811559070,94.990303,-38.798443,63.894531,0.999115,-0.083455,0.313564
811579113,99.182182,-44.167572,65.193047,0.979437,-0.086375,0.297693
811599156,103.625404,-49.573952,68.622795,0.985446,-0.101217,0.262443
811619198,111.516556,-49.850796,76.592239,1.005443,-0.104600,0.264620
811639242,115.261017,-46.582375,84.026375,1.044923,-0.154976,0.263595
811659285,115.972382,-39.826019,83.915497,1.031600,-0.217628,0.245897
811679328,128.624786,-30.209679,77.684288,1.061856,-0.175700,0.319518
811699370,138.918228,-28.524963,74.693581,1.053764,-0.097938,0.402669
811719413,140.613571,-31.412777,62.097893,0.944409,-0.066267,0.395508
811739456,129.505844,-32.266788,68.468948,0.995087,-0.111108,0.451422
811759497,114.407692,-44.976654,86.766373,1.076753,-0.326437,0.432582
811779540,135.092163,-47.818584,77.453278,1.072653,-0.420921,0.381710
811799583,167.495087,-31.232838,57.526333,0.999039,-0.330373,0.433231
811819626,174.871368,-31.965429,48.320892,0.897046,-0.210819,0.453532
811839668,173.717346,-50.755405,43.776527,0.879438,-0.183689,0.437155
811859711,171.625076,-67.212929,35.306103,0.981063,-0.216223,0.435162
811879753,177.996185,-52.165600,26.108698,1.030226,-0.238472,0.410485
811899796,187.859573,-28.152298,17.287422,0.959409,-0.137896,0.430169
811919839,189.878433,-24.219048,12.491553,0.850919,-0.031603,0.456450
811939883,175.403488,-43.070015,15.728621,0.890137,-0.013148,0.530057
811959926,157.714890,-67.152779,24.069061,1.005076,-0.064387,0.528133
812000011,170.820709,-34.601410,10.125832,0.975565,0.031478,0.436537
812020054,160.273148,-23.928425,10.341358,0.879846,0.101547,0.497351
812040097,142.264099,-39.566696,18.333447,0.917222,0.077455,0.558368
812080180,146.555847,-32.000397,17.699160,0.943916,0.072309,0.482583
812100223,142.386353,-23.848289,18.942348,0.945878,0.142622,0.552395
812120266,130.571777,-32.721367,23.231386,0.881976,0.137579,0.504535
812140308,127.757179,-36.639336,26.684902,0.907816,0.121557,0.560940
812160351,128.820312,-47.263882,31.440613,0.959015,0.154140,0.571151
812180394,126.114677,-47.866657,37.960335,1.007500,0.121846,0.542819
812200437,119.526520,-42.326649,40.199677,1.039447,0.102641,0.500147
812220479,124.373520,-29.795017,45.232071,1.028613,0.081965,0.517992
812240523,132.247391,-23.186441,51.359127,0.961928,0.131921,0.530567
812260566,131.463455,-29.171227,59.979469,0.947260,0.156057,0.522340
812280609,122.985077,-34.895943,74.349434,0.975363,0.114131,0.468811
812300652,126.461967,-25.706001,82.549461,0.957323,0.054704,0.458609
812320694,139.429367,-14.809304,84.542389,0.954979,0.017359,0.483482
812340759,153.447998,-12.470707,89.171280,0.974417,0.083827,0.486990
812360778,148.860062,-11.500274,91.788139,0.944651,0.156842,0.486989
812380821,122.407784,2.810325,88.343491,0.908324,0.191005,0.484075
812400864,100.697807,29.490168,100.430214,0.864585,0.155211,0.548965
812420907,105.006691,33.178963,114.121857,0.858239,-0.008181,0.720976
812440949,120.464485,15.970420,108.755371,0.891969,-0.062426,0.790227
812460992,119.825836,20.328327,96.696388,0.948869,0.043438,0.684612
812481035,100.002487,44.460499,92.353622,0.869194,0.118218,0.623961
812501078,85.829422,53.588326,97.565536,0.770121,0.072184,0.646196
812521122,58.171154,40.731876,103.884384,0.790557,-0.023447,0.726253
812541164,37.110390,34.676498,102.512695,0.836622,-0.069176,0.625725
812561207,31.535370,59.721737,93.938316,0.795045,-0.134877,0.594371
812581249,37.129120,76.457397,85.430908,0.684584,-0.190964,0.627259
812601292,55.211933,50.248646,82.917290,0.715407,-0.172996,0.616683
812621335,50.991043,35.005325,99.830971,0.879261,-0.138388,0.635986
812641376,31.184273,47.655075,117.302490,0.645291,-0.363595,0.489098
812661419,53.821846,46.352173,103.051552,0.438313,-0.381817,0.715986
812681462,50.881958,48.865288,74.556435,0.524338,-0.259160,0.810561
812701504,25.644386,34.632984,68.364014,0.373132,-0.348144,0.699026
812721547,3.991249,15.812175,57.318455,0.291596,-0.560443,0.823093
812741590,27.231983,-8.233614,40.661770,0.403234,-0.680742,0.833095
812761633,71.559647,-13.825085,30.293894,0.330625,-0.605334,0.873276
812781675,62.529823,-35.723793,27.412697,0.208261,-0.537157,1.132845
812801717,11.636024,-79.660271,4.357238,0.334938,-0.556406,1.391767
812821762,-5.718769,-110.040024,-28.346310,0.444431,-0.737433,1.233003
812841804,52.679859,-131.774948,-61.364586,0.349753,-0.763005,1.169702
812861847,76.240547,-138.314514,-90.221924,0.193451,-0.577111,1.111671
812881890,46.203857,-141.901108,-111.944168,-0.069201,-0.529578,0.889032
812901932,64.160583,-162.217514,-144.364227,-0.145409,-0.394009,0.219089
812921975,60.959949,-117.023155,-165.965027,0.320369,0.034063,-0.131108
812942017,83.083328,-115.153275,-157.070663,0.626922,0.178656,-0.577000
812962059,121.203255,-161.891327,-120.842346,1.924788,0.841751,-0.292303
812982102,-17.286228,-186.521744,-24.597094,3.221594,1.429025,0.608109
813002145,-252.592758,-63.162575,63.748535,1.543505,0.170200,-0.115012
813022187,-280.899353,74.170601,85.380264,0.197148,-0.633082,0.706647
813042230,1.623370,-39.377914,-0.914033,-0.237272,-1.182380,0.774198
813062273,116.055443,-78.007095,-107.344460,0.551440,-0.231764,0.271458
813082315,76.417351,-54.432877,-105.935333,1.127217,0.334329,0.422398
813102358,-11.292524,-50.153877,-55.260395,1.087697,0.217401,0.346415
813122402,-83.212128,-47.719559,-19.834721,0.920867,-0.042580,0.282155
813142445,-82.230934,-38.325623,-2.283332,0.827847,-0.363327,0.237872
813162488,-9.970746,-25.886267,-5.347923,0.875608,-0.538268,0.199332
813182530,47.014099,-12.885452,-22.999241,1.048366,-0.307470,0.274529
813202573,44.513935,7.577095,-24.515459,1.194858,0.027006,0.473956
813222616,9.667109,23.980156,-5.317087,1.081604,0.036297,0.502732
813242657,-3.007567,22.258013,11.237240,0.995880,-0.140703,0.470336
813262700,8.455626,29.831358,23.095295,0.933104,-0.232959,0.479561
813282743,5.240179,31.603874,20.390923,0.816071,-0.140297,0.494239
813302785,-10.733646,22.846516,20.491201,0.828477,-0.057909,0.516046
813342871,-28.135014,30.919899,40.919750,0.991720,-0.079213,0.392592
813362913,-31.806643,57.641903,46.209732,1.020096,-0.060082,0.411579
813382956,-45.112312,82.647987,53.967350,0.971105,-0.128818,0.461408
813402999,-44.069942,83.351196,47.856438,0.902183,-0.232357,0.461030
813423043,-23.867477,62.381077,36.453907,0.877847,-0.213616,0.317849
813443086,5.205238,50.099964,28.296732,0.903343,-0.086685,0.236231
813463128,-12.139986,75.895943,27.049276,0.840790,-0.015059,0.278611
813483171,-53.850018,102.360535,45.970787,0.693683,-0.024530,0.377946
813503214,-71.437943,75.929390,71.872841,0.652046,-0.265111,0.468669
813523256,-48.499752,30.120852,83.990509,0.757734,-0.456254,0.427864
813543298,-17.953577,48.288200,78.817703,0.934724,-0.559248,0.457229
813563341,37.942657,83.751297,64.002747,0.867757,-0.620269,0.377853
813583383,101.138535,74.305786,54.987034,0.659499,-0.316715,0.671451
813603426,81.784187,46.005096,61.165401,0.445521,-0.258208,0.666400
813623468,39.665020,7.792250,55.582191,0.398505,-0.317441,0.710884
813643511,9.080463,-1.751583,36.589512,0.403080,-0.420237,0.788335
813663554,10.764690,-12.375640,26.774279,0.359781,-0.519437,0.973385
813683596,20.429850,-40.145889,0.717566,0.330550,-0.614269,0.998354
813703639,57.904495,-61.395340,-40.810360,0.356869,-0.549846,1.035525
813723683,66.071968,-78.886765,-63.795132,0.324038,-0.458332,1.078413
813743726,42.629070,-87.070808,-70.776474,0.389920,-0.397086,0.873356
813763769,24.109329,-102.613121,-53.204357,0.574598,-0.423001,0.611436
813783811,4.680473,-102.919952,-46.069130,0.760173,-0.092269,0.715036
813803854,-29.858692,-47.088448,-68.742455,0.670207,-0.066982,0.008302
813823915,35.617317,-106.457794,-62.019527,1.338073,0.056547,-0.082617
813843938,-43.091816,-73.742897,-7.258040,2.216843,0.391540,0.480233
813863981,-30.486174,-14.110388,28.074955,1.246193,-0.200245,0.282737
813884024,20.236513,-2.195033,1.635456,0.400758,-0.468304,0.730446
813904066,18.572487,-51.149887,-32.504032,0.401382,-0.295734,0.592824
813924109,-9.306046,-35.371075,-35.847710,0.575387,-0.094063,0.576679
813944151,-8.967338,-43.580551,-36.802452,0.605134,-0.064110,0.557166
813984237,-29.458324,-54.783237,-23.858871,0.926438,-0.230356,0.410115
814004280,-11.830393,-39.353027,-22.035475,0.904364,-0.323857,0.369574
814024324,5.954098,-31.863028,-31.183739,0.902518,-0.232461,0.384830
814044366,3.138121,-23.525681,-37.942696,0.977742,-0.095827,0.385890
814064409,-9.544941,-19.733694,-30.215506,1.072437,-0.062362,0.393862
814084452,-22.079472,-8.050835,-19.213428,1.046884,-0.120287,0.374124
814104494,-11.332250,3.021640,-19.344389,0.888090,-0.208037,0.416570
814124546,-1.534815,-3.320733,-24.952011,0.848385,-0.201424,0.491793
814144579,-0.329310,-6.511971,-20.311077,0.906509,-0.159221,0.460185
814164622,6.231659,3.010250,-10.969407,0.946826,-0.149463,0.380826
814184664,9.785818,20.886890,-4.606570,0.921407,-0.169110,0.347116
814204707,28.625101,24.262453,-0.343212,0.919251,-0.197170,0.382931
814224750,34.165283,22.001385,2.145722,1.002925,-0.092414,0.505860
814244792,19.457445,16.659870,11.611189,1.143561,-0.028612,0.505268
814264835,5.692480,30.625450,25.827845,1.100958,-0.004552,0.454047
814284878,-1.391436,60.391983,34.005592,0.900622,0.029204,0.433277
814304922,-8.957654,63.469261,34.144497,0.841906,-0.004124,0.518158
814324964,-16.068174,36.295555,34.681801,0.797852,-0.107872,0.465068
814345007,-9.695807,18.313940,33.644329,0.809399,-0.145945,0.418396
814365050,-1.518844,16.882727,27.396933,0.824416,-0.077701,0.331086
814385093,0.324234,22.157059,29.701393,0.858383,-0.059106,0.337918
814405136,-1.330278,41.839077,34.997803,0.848574,-0.210514,0.307959
814425177,14.444047,53.305656,25.145073,0.847628,-0.304559,0.298896
814445219,26.454721,61.932114,30.537624,0.891376,-0.265131,0.332303
814465262,40.800934,73.599541,58.794754,0.841253,-0.099539,0.496817
814485305,48.586655,79.631035,66.004829,0.733022,-0.106620,0.478514
814505348,75.854935,61.730064,47.894447,0.660543,-0.085466,0.379937
814525390,48.399048,60.268089,40.023323,0.623644,-0.008487,0.659449
814545433,-12.915241,31.103817,56.527046,0.665823,-0.057713,0.759311
814565475,-70.686600,4.172811,60.004681,0.733637,-0.112662,0.939891
814585518,-96.294044,-4.999285,32.151501,0.603010,-0.417366,1.068368
814605562,-34.957367,-39.098705,-8.023572,0.417882,-0.721028,1.002240
814625605,31.993036,-37.871433,-40.420620,0.322811,-0.585677,0.952539
814645648,19.171919,-55.483906,-68.630493,0.271983,-0.374292,0.831337
814665690,-38.484005,-81.809616,-71.058495,0.520858,-0.519971,0.567597
814685733,-7.922851,-94.537758,-39.565819,0.725071,-0.259388,0.290526
814705776,20.250929,-26.000374,-15.094783,0.845114,-0.288335,-0.433346
814725817,53.661755,-33.061348,15.319370,1.938361,0.212327,0.122601
814745860,-61.430763,-18.527870,49.792366,2.122139,0.044413,0.728500
814765903,-78.576271,37.199547,48.713158,0.444730,-0.937590,0.650971
814785945,67.714348,-29.364027,-17.657200,0.360461,-0.620568,0.682882
814805988,58.380856,-8.055997,-45.092590,0.680393,0.093682,0.584455
814846073,-61.073444,-42.173138,-32.617985,0.585535,-0.202257,0.512732
814866116,-47.982899,-33.318314,-41.221123,0.794110,-0.420714,0.525618
814886159,-11.583839,-36.285534,-28.630093,0.829654,-0.495408,0.507193
814906202,14.817062,-28.968061,-33.059967,0.749711,-0.396195,0.496321
814926245,14.487545,-30.569286,-44.940468,0.768821,-0.189490,0.514693
814946288,-0.825250,-32.860474,-48.043434,0.844460,-0.114532,0.510257
814966331,-27.483477,-26.657967,-47.783962,0.877235,-0.155477,0.538512
814986373,-36.667507,-24.322912,-44.881748,0.915255,-0.229467,0.546775
815006416,-25.009769,-20.138880,-48.174767,0.933903,-0.246484,0.539404
815026457,-25.595930,-4.247941,-53.982822,0.998844,-0.166357,0.596757
815046500,-39.775669,12.328874,-48.107491,1.113183,-0.114259,0.587330
815086586,4.988071,21.029968,-16.743958,0.743151,-0.287886,0.182550
815106628,20.268656,18.181709,-33.588203,0.720064,-0.227675,0.428797
815126671,6.504313,13.403599,-20.207081,0.831706,-0.190829,0.510247
815146714,8.725132,-11.332246,-6.160201,0.929196,-0.115309,0.402539
815166757,12.749496,-1.647931,3.817847,1.014563,-0.031356,0.388813
815186800,4.050439,32.240086,13.131590,1.006639,-0.004637,0.448624
815206843,-4.907675,47.040733,17.475380,0.907418,-0.051148,0.429983
815226886,-5.817029,32.582176,11.218548,0.844914,-0.111736,0.381682
815246929,8.428379,14.348385,5.412842,0.862961,-0.104154,0.358353
815266972,21.261734,5.034245,5.848914,0.879913,-0.008438,0.329372
815287014,11.543849,-1.650512,12.633842,0.979778,0.048177,0.334551
815307056,-11.199160,9.718245,32.300308,1.069268,0.020522,0.301473
815327098,-24.732601,45.622101,52.870960,1.070021,-0.077643,0.255856
815347141,-18.744873,82.438065,60.317123,0.989685,-0.191460,0.160066
815367184,2.713790,107.242973,59.367317,0.911054,-0.197415,0.182028
815387226,14.073954,114.062698,68.491905,0.809462,-0.147837,0.333923
815407269,37.516533,103.695641,80.282700,0.647197,-0.151358,0.355346
815427312,70.889595,89.757484,80.154266,0.607525,-0.077926,0.517602
815447354,46.834034,85.753807,72.000458,0.537845,0.003633,0.807762
815467397,-25.420223,49.860374,61.922768,0.369034,-0.127802,0.965121
815487441,-62.139511,-37.984638,50.684681,0.294564,-0.332789,0.993583
815507484,-18.218750,-41.022141,6.149451,0.583932,-0.622900,0.960307
815527526,48.950989,-4.340204,-31.554663,0.488336,-0.579298,1.205252
815547569,-6.365294,-46.328934,-25.019064,0.492605,-0.465523,1.401911
815587655,-13.133254,12.880268,12.055097,0.505945,-0.129787,-0.065488
815607696,-68.330109,-13.174908,24.341764,1.212279,-0.219298,0.087811
815627738,-124.066116,-63.457218,10.501863,2.110374,-0.162288,0.976213
815647781,-47.256336,-12.245554,35.568665,0.493818,-1.134289,0.556992
815667824,55.984417,-8.236391,-11.515457,0.242945,-0.654869,0.738572
815687866,38.270809,-8.890710,-46.872665,0.459559,-0.073096,0.550987
815707909,-33.831264,-27.006878,-41.495579,0.418045,-0.108896,0.632282
815727952,-70.362663,-40.798920,-36.905727,0.616928,-0.346727,0.568780
815747995,-38.706001,-35.216511,-35.927170,0.746265,-0.514198,0.534689
815768038,3.769393,-22.553520,-38.344608,0.708173,-0.431538,0.615305
815788081,-0.073192,-15.940300,-44.339851,0.696365,-0.356830,0.621886
815808124,-13.253321,-14.973772,-49.976292,0.788297,-0.380710,0.611465
815828167,-9.163580,-10.622212,-50.209831,0.837206,-0.395229,0.671303
815848209,-1.211168,-16.264887,-41.550140,0.870487,-0.356947,0.638545
815868252,-0.922334,-13.798553,-32.778412,0.860197,-0.305759,0.635862
815888295,-0.854056,-9.364782,-26.962749,0.794611,-0.331395,0.623577
815908336,1.889436,-7.039272,-22.384531,0.730399,-0.384074,0.631372
815948422,1.127631,-27.441856,-28.972082,0.857646,-0.245445,0.562692
815968464,2.501563,-19.656467,-21.303116,0.870298,-0.226202,0.426787
815988507,16.711952,-3.007916,-21.084986,0.781710,-0.250484,0.402942
816008550,29.295395,4.792247,-26.590214,0.795705,-0.200446,0.580441
816028593,21.375914,3.772622,-27.412249,0.825108,-0.054445,0.671861
816048635,9.249249,-3.476732,-29.986444,0.841130,0.021970,0.619634
816068678,-2.644218,-9.255465,-23.947517,0.863176,-0.014868,0.488722
816088722,-2.639209,-18.173466,-12.382168,0.805581,-0.128131,0.352851
816108765,1.376414,-19.671085,-5.326526,0.786929,-0.153585,0.399722
816128808,7.718011,-19.998320,-10.920958,0.790994,-0.071549,0.406176
816148850,11.029390,-27.131296,-12.394698,0.790480,-0.017815,0.322423
816168893,10.526507,-36.134972,-6.379112,0.860059,-0.024651,0.252975
816188935,2.926737,-37.090439,0.848877,1.006940,-0.093835,0.243693
816208978,14.054606,-13.346107,4.755951,1.062604,-0.186662,0.180315
816229020,37.363045,11.998313,-9.807208,1.012825,-0.082158,0.194294
816249063,33.409203,28.227461,-13.692805,0.969096,0.064583,0.299467
816269105,10.238344,46.078331,2.321647,0.970518,0.054875,0.409175
816289148,-12.806900,49.050117,8.552075,0.941442,0.000159,0.422161
816309191,-30.487906,49.440796,15.147583,0.937258,-0.065825,0.353845
816329233,-15.419694,68.175995,25.992306,0.909542,-0.143764,0.322967
816369321,47.619747,63.753578,31.371622,0.830194,-0.142218,0.685187
816389363,58.153698,82.343956,49.473389,0.832786,-0.072790,0.810183
816409406,38.661743,80.121544,72.883598,0.749802,-0.045738,0.886469
816429448,-7.541154,40.683754,73.595100,0.616611,-0.067035,1.055743
816449491,-53.077652,-14.662541,41.344540,0.506244,-0.178957,1.208451
816469534,-21.138399,-67.614532,22.820101,0.585935,-0.478674,0.212930
816489575,106.384430,-22.025957,13.350571,0.453240,-0.533145,-0.116533
816509618,99.150253,68.080208,32.998905,1.140660,0.198030,0.286599
816529661,68.583282,54.286774,96.432457,1.827391,0.994026,1.076769
816549703,-76.693687,49.243481,62.126011,0.563852,-0.053188,0.857949
816569746,-164.202209,18.926657,34.607445,0.222663,-0.710573,0.959667
816589789,-15.924803,20.201309,10.195477,0.598545,-0.694011,0.551756
816609831,52.687801,35.256290,2.349236,0.433432,0.007178,0.641451
816629874,-4.766513,17.994343,8.580735,0.351115,0.145931,0.834995
816649917,-96.196533,-17.546066,19.859066,0.472371,-0.238260,0.794440
816669961,-87.857292,-21.246525,21.367992,0.723709,-0.789852,0.743380
816690004,32.933693,-7.240505,12.170397,0.679764,-0.962682,0.718629
816710046,105.430161,-24.647770,-4.367409,0.488666,-0.467462,0.663799
816730089,66.601280,-36.002304,-9.300354,0.565970,-0.234631,0.784260
816750131,23.924919,-37.403709,-13.139031,0.659978,-0.393795,0.804105
816770174,32.769272,-45.829525,-22.455107,0.685704,-0.443767,0.830380
816790215,23.271759,-58.349262,-26.865246,0.640297,-0.324183,0.770702
816810258,-1.791847,-62.009739,-34.364098,0.676094,-0.280677,0.771970
816830301,-15.015005,-68.462234,-41.753017,0.705326,-0.279868,0.755424
816850344,-16.939093,-67.663643,-44.283531,0.715859,-0.217400,0.704547
816890429,-11.382854,-51.764683,-54.252567,0.772803,-0.057337,0.655388
816910471,-17.047705,-43.953865,-54.208897,0.755994,-0.025438,0.581984
816930514,-19.947014,-33.777840,-45.816162,0.761801,-0.087750,0.512528
816950557,-23.838739,-27.583342,-36.581657,0.738877,-0.093806,0.585246
816970601,-14.677137,-33.170727,-37.827457,0.714302,-0.097205,0.531105
816990644,14.190208,-55.928967,-37.006420,0.770105,-0.095180,0.448190
817010687,18.353199,-68.262619,-23.999393,0.897404,-0.028579,0.554273
817030729,4.860048,-59.693733,-9.688298,0.936265,-0.053110,0.520436
817050772,18.360302,-50.859455,-12.519891,0.871185,-0.077790,0.440227
817070813,28.127056,-48.724392,-12.284442,0.793347,0.004136,0.463382
817090856,28.737457,-55.979958,-4.252579,0.778561,0.051058,0.479093
817110899,19.430473,-64.792755,3.643483,0.755160,0.035565,0.431615
817130942,6.533627,-62.993454,8.098330,0.807115,-0.000071,0.414717
817150985,11.498914,-66.267044,5.854049,0.878047,-0.011839,0.384286
817171027,16.682352,-63.643349,2.170281,0.911633,0.004984,0.359902
817191070,20.025906,-54.182907,3.187026,0.940571,0.031418,0.406328
817231155,12.164970,-63.279755,7.628799,1.018407,-0.027192,0.317428
817251199,15.016155,-60.631031,4.404750,1.063859,-0.031972,0.305417
817271242,17.074299,-48.211712,7.851171,1.053938,0.008721,0.339515
817291285,20.345753,-42.352699,11.622080,1.044338,0.038842,0.312247
817331370,45.742798,-15.455131,23.667385,0.987029,0.008738,0.229226
817351413,57.793022,-2.363886,19.349697,0.935840,0.025911,0.266312
817371454,56.451946,-10.388183,4.458561,0.922561,0.077006,0.257235
817391497,51.758804,-15.565648,-7.606033,0.908049,0.166072,0.289443
817411539,28.096409,-8.743466,-9.548947,0.953916,0.143652,0.297065
817431582,12.004630,-26.488173,-0.190654,1.074394,0.081942,0.283432
817451625,19.511082,-29.389595,1.857186,1.045847,-0.029566,0.135377
817471667,23.880274,-8.074707,-0.999998,1.017167,-0.090036,0.197941
817491710,33.406494,-15.047272,-5.652659,0.952955,-0.056463,0.219410
817511753,43.303806,-27.499249,-8.063206,0.983926,0.016165,0.178522
817531796,34.255131,-25.950787,-13.152879,1.085069,-0.027606,0.134737
817551840,33.161533,-6.213158,-18.297888,1.113071,-0.059427,0.129195
817571883,31.937883,17.495695,-15.583570,1.051754,-0.013087,0.157044
817591925,25.486917,25.598305,-10.490841,0.987452,0.002497,0.211800
817611968,21.580519,18.314354,-6.629617,0.963156,-0.060844,0.202131
817652053,24.088406,11.203354,-11.472122,0.955968,-0.071947,0.177497
817672095,26.396229,11.070870,-14.300844,0.926784,-0.062153,0.197870
817692137,16.219830,5.318216,-14.560204,0.966681,-0.040248,0.245870
817712180,15.189492,-5.824277,-16.248266,0.994342,-0.024958,0.186585
817732223,10.979133,-2.976609,-13.209453,1.013067,-0.049973,0.120010
817752265,11.991757,9.204873,-16.664585,1.040039,-0.066574,0.161861
817772308,8.936305,19.764500,-17.504391,1.046561,-0.058855,0.208733
817792351,2.432249,21.847822,-11.491367,0.998400,-0.032947,0.249592
817812393,-7.870419,21.754723,-1.714195,0.902900,-0.018965,0.220464
817832436,-10.363815,7.750055,1.083604,0.847466,-0.071516,0.163590
817852480,-2.276361,-5.613190,-2.988230,0.885317,-0.125663,0.142099
817872523,5.984004,-12.741991,-2.580107,0.948212,-0.097733,0.150886
817892565,3.018208,-15.322294,0.461917,1.021766,-0.073391,0.202207
817912608,-4.239210,-10.382959,0.939515,1.079033,-0.072390,0.169477
817932651,-3.393339,0.639670,6.148760,1.094396,-0.096127,0.133823
817952694,-2.147733,20.538170,8.261138,1.044312,-0.145990,0.181758
817972735,-2.816566,29.748825,3.907511,0.953145,-0.165882,0.242165
817992778,-3.364633,14.347239,-2.854009,0.897400,-0.147536,0.255718
818012821,0.600463,-13.597928,-6.362406,0.937330,-0.091993,0.215765
818032863,-0.720656,-19.858198,-2.902888,0.958538,-0.043137,0.157885
818052906,-8.341929,-7.659527,-1.629442,0.956362,-0.068395,0.127669
818072949,-3.651257,-0.711370,-7.012401,1.021578,-0.115738,0.157944
818092991,9.161532,-2.881214,-7.413319,1.108482,-0.111225,0.192865
818113035,14.667038,7.226302,0.000843,1.039792,-0.033099,0.188623
818133077,3.673827,25.769535,7.183088,0.918359,-0.054134,0.217681
818153121,-2.195381,19.525496,4.224764,0.841010,-0.103097,0.245471
818173164,7.340255,-7.611652,-0.271776,0.856226,-0.119852,0.229332
818213249,19.516048,-17.689169,-8.423378,1.010401,-0.042953,0.214710
818253334,7.274487,-1.175782,-4.650259,1.008501,-0.049314,0.238785
818293418,6.824242,-8.169421,-7.725605,1.021901,-0.062334,0.180904
818313461,6.794796,-4.020198,-9.458653,1.029651,-0.031781,0.173516
818333504,-1.504048,0.472610,-6.732869,0.982194,-0.005967,0.165490
818353546,-7.263381,-2.563416,-8.331394,0.980354,-0.004015,0.179299
818373589,-8.333379,-8.347835,-11.022216,1.015033,0.042583,0.202202
818393632,-14.849833,-0.346308,-11.094092,1.026869,0.028042,0.170179
818413675,-15.345930,12.484697,-9.761600,0.979516,-0.021055,0.166141
818433719,-18.731388,17.328854,-10.669656,0.933518,-0.039979,0.214671
818453761,-14.782091,4.972891,-13.819373,0.948600,-0.035887,0.219208
818473804,-5.679863,-6.761007,-9.748951,0.985093,-0.053228,0.216522
818493847,-1.260996,-1.702757,-9.741904,0.983185,-0.046384,0.188319
818513890,2.428945,1.295991,-10.496768,0.950834,-0.036313,0.202840
818533933,6.030357,-5.882699,-11.652720,0.982418,-0.039595,0.230229
818553973,9.137645,-10.651155,-11.953914,0.997428,0.014348,0.194750
818574016,4.231051,-4.693591,-7.564260,0.984547,0.038728,0.198552
818594059,2.885717,-5.125533,-7.264042,0.969335,0.032938,0.198397
818614102,5.986583,-8.814778,-7.771899,0.971874,0.033847,0.178288
818634144,7.286181,-9.521768,-5.564271,0.972289,0.026493,0.158231
818654187,11.966978,-11.531358,-3.267061,1.001156,0.042544,0.180797
818674230,12.180491,-11.362488,0.806931,1.010625,0.089443,0.193225
818694272,4.218354,-7.386448,4.353398,0.987267,0.116613,0.208126
818714315,-3.169720,-7.257369,6.763976,0.945806,0.085609,0.209354
818734359,-0.786211,-13.323017,10.674857,0.899302,0.030617,0.198816
818754402,4.418255,-21.611786,11.747444,0.908652,0.019116,0.216095
818774445,3.815920,-28.830570,14.752876,0.946311,0.078563,0.219339
818794488,-2.187267,-29.309574,19.758867,0.966016,0.127924,0.177741
