Timestamp (us),Gyroscope X (deg/s),Gyroscope Y (deg/s),Gyroscope Z (deg/s),Accelerometer X (g),Accelerometer Y (g),Accelerometer Z (g)
7316214788,1.086888,0.970550,-0.952102,0.988973,-0.109046,0.160240
7316234839,1.375143,1.147328,-0.907338,0.977657,-0.103629,0.159552
7316254892,1.641282,1.179723,-0.862069,0.979010,-0.104043,0.162202
7316274943,1.822841,1.288633,-0.635139,0.980734,-0.102846,0.163018
7316294994,1.746689,1.213230,-0.475695,0.978974,-0.100979,0.166801
7316315045,1.190008,1.182109,-0.020655,0.971401,-0.098454,0.166627
7316335096,0.740200,1.128432,0.358635,0.968566,-0.094739,0.166382
7316355147,0.123485,0.967333,0.730775,0.967385,-0.093309,0.164903
7316375198,-0.285922,0.615733,0.777604,0.971311,-0.098636,0.166629
7316395249,-0.595919,0.196171,0.779158,0.972643,-0.097736,0.172172
7316415301,-0.561766,-0.465082,0.622267,0.979146,-0.099870,0.168062
7316435352,-0.473630,-1.067702,0.078627,0.977034,-0.101823,0.171614
7316455403,-0.068926,-1.135688,-0.285070,0.980982,-0.106664,0.169244
7316475454,-0.160678,-1.127783,-0.141065,0.978417,-0.103931,0.170103
7316495505,-0.480160,-1.175372,-0.133210,0.978155,-0.098458,0.165312
7316515558,-0.373382,-1.182699,-0.201433,0.981892,-0.098357,0.165428
7316535606,-0.206094,-0.948718,-0.588825,0.978518,-0.103777,0.168193
7316555657,0.029447,-0.788669,-0.733459,0.977973,-0.102519,0.167266
7316575708,0.120961,-0.900983,-0.581525,0.978696,-0.100246,0.167245
7316595760,0.036852,-0.930601,-0.376761,0.982627,-0.097829,0.164155
7316615811,-0.123862,-0.847038,-0.202677,0.981253,-0.096463,0.164584
7316635862,0.026930,-0.670053,0.016450,0.978608,-0.099984,0.166514
7316655913,-0.049183,-0.745553,0.160737,0.982911,-0.098754,0.162895
7316675964,-0.230857,-0.839185,-0.051087,0.981532,-0.097827,0.164420
7316696015,-0.299086,-0.840304,-0.157165,0.980081,-0.099111,0.163788
7316716066,-0.185005,-0.816831,-0.164865,0.980192,-0.099700,0.160706
7316736118,-0.055548,-0.816130,-0.187650,0.978556,-0.099536,0.159692
7316756169,0.013145,-0.861134,-0.172361,0.981843,-0.099992,0.159085
7316776220,-0.145761,-0.991950,-0.285539,0.982207,-0.098457,0.158342
7316796271,-0.045965,-1.098349,-0.406470,0.978270,-0.097341,0.160756
7316816322,0.054540,-1.498940,-0.230809,0.978735,-0.098898,0.159868
7316836373,-0.220594,-1.363032,-0.064444,0.976916,-0.098641,0.159034
7316856424,-0.083294,-1.482831,0.057184,0.980121,-0.099479,0.157067
7316876476,0.183997,-1.693215,0.126026,0.979209,-0.099301,0.156968
7316896527,0.297862,-1.571727,0.011883,0.980024,-0.097210,0.156949
7316916578,0.290705,-1.752866,0.186826,0.980405,-0.100586,0.155900
7316936630,0.220909,-1.517695,0.231514,0.980767,-0.098594,0.155335
7316956682,0.129699,-1.556105,0.254415,0.982220,-0.096412,0.155229
7316976733,0.160907,-1.782735,0.399185,0.984487,-0.096380,0.157153
7316996784,0.106411,-1.555151,0.428736,0.983320,-0.094620,0.153307
7317016835,-0.235958,-1.662758,0.573227,0.979858,-0.098242,0.154688
7317036886,0.160003,-1.578056,0.353006,0.980889,-0.099932,0.150716
7317056937,0.136752,-1.494701,0.352727,0.983161,-0.104781,0.154333
7317076988,-0.267846,-1.291989,0.412802,0.980158,-0.101463,0.151728
7317097040,-0.343779,-1.262936,0.283886,0.984608,-0.098976,0.153458
7317117091,0.288151,-1.334192,0.367279,0.990204,-0.106535,0.151313
7317137142,0.713918,-1.397715,0.685665,0.987553,-0.104992,0.151640
7317157193,0.637491,-1.277470,0.571593,0.983705,-0.095210,0.150045
7317177244,0.279314,-1.256267,0.692909,0.980409,-0.096717,0.153220
7317197298,0.004307,-1.075675,0.722699,0.983154,-0.097366,0.151884
7317217345,-0.283870,-1.260141,0.662804,0.979794,-0.105344,0.153588
7317237396,-0.246706,-1.197723,0.889944,0.975869,-0.101552,0.152517
7317257447,-0.284623,-1.183317,0.806539,0.979262,-0.101501,0.149178
7317277499,-0.323085,-1.040097,0.684796,0.982544,-0.102850,0.149671
7317297550,-0.254444,-1.047480,0.646903,0.984203,-0.105505,0.147987
7317317601,-0.499114,-0.918917,0.820861,0.984558,-0.101420,0.147669
7317337652,-0.749240,-1.043123,0.647061,0.985118,-0.103886,0.146702
7317357703,-0.467404,-1.004284,0.495249,0.982455,-0.107997,0.151911
7317377754,-0.414631,-0.890210,0.472101,0.987310,-0.103982,0.145991
7317397805,-0.386708,-0.418917,0.538678,0.990495,-0.097826,0.143943
7317417856,-0.845231,-0.184989,0.788138,0.985491,-0.101650,0.144134
7317437908,-0.907863,0.178805,0.756590,0.982663,-0.104629,0.145966
7317478010,-0.740787,0.435799,0.407014,0.985494,-0.107161,0.146379
7317498061,-0.550777,0.505221,0.383972,0.986142,-0.105651,0.143821
7317518112,-0.589209,0.603371,0.338173,0.983033,-0.104460,0.144967
7317538164,-0.590333,0.696097,0.595538,0.982844,-0.105076,0.146427
7317558214,-0.652990,0.932469,0.822115,0.982393,-0.106263,0.146074
7317578266,-0.767519,1.030074,0.768766,0.981098,-0.104596,0.148499
7317598317,-0.751118,0.817329,0.724019,0.982384,-0.106061,0.147526
7317618370,-0.865231,0.831430,0.670958,0.984486,-0.104625,0.145979
7317638421,-0.735242,0.830837,0.443546,0.984115,-0.107408,0.148371
7317658472,-0.643946,0.809044,0.504221,0.980191,-0.107858,0.149258
7317678523,-0.720520,0.982140,0.344493,0.982838,-0.108130,0.148916
7317698574,-0.598863,0.923260,0.511390,0.980089,-0.105756,0.150141
7317718625,-0.652551,0.961396,0.594646,0.982111,-0.109492,0.149108
7317738676,-0.667365,0.937803,0.481048,0.983115,-0.111836,0.150233
7317758727,-0.530806,1.142274,0.260506,0.982655,-0.112370,0.151054
7317778779,-0.386572,1.174160,0.351293,0.979832,-0.111390,0.150114
7317798830,-0.059323,1.206425,0.313173,0.981167,-0.108242,0.154086
7317818881,-0.356864,1.318642,0.358364,0.984366,-0.106541,0.151817
7317838932,-0.645806,1.346014,0.184055,0.983544,-0.108613,0.153198
7317858983,-1.202838,1.720702,-0.014094,0.987643,-0.104537,0.151635
7317879033,-1.812877,1.996882,-0.128517,0.987091,-0.109218,0.154775
7317899084,-2.567946,2.483091,-0.493718,0.990919,-0.109478,0.155078
7317919135,-3.612530,3.185545,-1.177879,0.989227,-0.112735,0.149923
7317939186,-4.190780,3.758626,-2.392284,0.985775,-0.124140,0.153485
7317959238,-3.588365,4.007364,-3.295248,0.979687,-0.142605,0.159290
7317979289,-1.191049,4.098901,-3.303982,0.976259,-0.155151,0.159320
7317999340,1.232034,4.427006,-1.949327,0.979053,-0.140542,0.157535
7318019391,2.508259,5.397514,0.131095,0.985178,-0.101736,0.150949
7318039442,3.356351,5.586316,1.494359,0.986641,-0.082037,0.155912
7318059493,3.606642,5.170179,2.655286,0.983904,-0.086911,0.158584
7318079545,3.790095,4.614552,3.437769,0.976777,-0.091038,0.163399
7318099596,4.050535,4.177290,3.651396,0.968034,-0.084634,0.174259
7318119647,4.107783,3.245583,3.919849,0.966452,-0.087446,0.181188
7318139698,3.869118,2.197155,4.044810,0.973442,-0.081226,0.183074
7318159750,3.440475,1.334199,3.684143,0.969702,-0.080867,0.183316
7318179801,2.194701,1.027389,3.276373,0.967154,-0.080252,0.182200
7318199852,-0.239360,0.902410,2.838076,0.971917,-0.082280,0.179440
7318219903,-1.664149,1.233997,2.723748,0.982238,-0.101109,0.169916
7318239954,-1.724435,1.314610,2.329386,0.985745,-0.119517,0.171880
7318260005,-1.624552,1.245497,2.102220,0.994200,-0.124946,0.178547
7318280056,-1.366168,1.638150,1.502039,0.995766,-0.120470,0.173598
7318300109,-1.086115,2.588731,0.270874,1.002779,-0.129371,0.179113
7318320160,0.625355,3.502638,-1.036455,1.008566,-0.148768,0.181469
7318340211,3.220440,4.383208,-2.525874,1.009092,-0.169595,0.179896
7318360262,7.344804,4.712963,-2.664875,1.000922,-0.190216,0.168626
7318380314,12.944912,4.897122,-2.144523,1.001971,-0.204580,0.167890
7318400365,19.679674,5.207424,-2.057003,0.994364,-0.216536,0.165248
7318420416,26.170439,6.027117,-2.797258,0.973880,-0.186659,0.161031
7318440467,31.508186,6.698211,-1.838912,0.938410,-0.153390,0.161213
7318460518,33.946907,6.163002,1.034503,0.940021,-0.107046,0.174229
7318480569,34.344898,4.607944,3.214883,0.979167,-0.070341,0.180898
7318500620,32.057838,4.346707,5.081007,0.989726,-0.046786,0.187335
7318520672,28.862267,4.528637,7.135397,0.975025,-0.048115,0.191972
7318540723,26.594412,3.972845,8.024843,0.949402,-0.065296,0.201623
7318560772,23.754213,4.519275,7.334270,0.948198,-0.070937,0.207678
7318580824,20.837788,5.290454,6.248843,0.951617,-0.052599,0.206127
7318600875,17.833071,5.371184,5.317406,0.963477,-0.053676,0.205224
7318620926,15.290169,4.737527,3.789530,0.978777,-0.059828,0.211039
7318640977,11.629401,5.237463,2.599192,0.975602,-0.063302,0.210056
7318661028,7.684510,5.891603,2.075372,0.967230,-0.052040,0.217410
7318681079,4.038158,5.628685,2.683871,0.966356,-0.058448,0.214206
7318701130,1.343488,5.603914,2.753110,0.965649,-0.081509,0.221830
7318721181,-0.503393,5.375145,2.102755,0.949684,-0.096041,0.231064
7318741232,-2.859798,4.976944,1.597162,0.949982,-0.084694,0.236661
7318761283,-4.395091,4.473938,1.675223,0.950648,-0.088277,0.233799
7318781335,-5.145069,3.560402,2.050002,0.941515,-0.112566,0.233106
7318801386,-5.842021,2.842816,2.143666,0.922698,-0.132042,0.233653
7318821437,-6.106706,1.824492,3.450849,0.897243,-0.128893,0.235435
7318841488,-8.718157,1.044091,5.190034,0.868225,-0.082762,0.263779
7318861539,-13.968280,-1.960685,7.256124,0.886235,-0.047311,0.268585
7318881590,-17.129292,-4.712917,7.486504,0.925823,-0.087775,0.253793
7318901641,-17.233593,-5.855079,5.861001,0.945050,-0.148776,0.254636
7318921693,-18.052189,-7.582277,4.897132,0.987665,-0.126458,0.252135
7318941744,-20.498886,-8.448573,4.893394,1.050797,-0.099584,0.215463
7318961796,-22.319206,-6.901795,5.267650,1.043312,-0.077785,0.190619
7318981848,-27.091013,-3.001892,6.241147,1.012236,-0.052852,0.191746
7319001899,-33.439747,1.025890,7.457282,1.003286,-0.034248,0.185196
7319021950,-37.632824,3.650538,7.858969,0.994574,-0.077978,0.184550
7319042001,-40.488922,5.964402,6.957680,1.000250,-0.152760,0.202360
7319062052,-40.558563,6.300610,3.780962,1.010049,-0.193261,0.215077
7319082103,-38.735233,5.998857,-0.190010,0.974150,-0.238446,0.218526
7319102154,-36.853210,5.905346,-3.706983,0.937542,-0.247103,0.216004
7319122206,-36.289013,6.986646,-6.166489,0.914311,-0.237218,0.192731
7319142256,-37.246525,8.599983,-6.959925,0.917081,-0.216958,0.192243
7319162308,-34.492596,7.785647,-7.723557,0.951132,-0.217498,0.200125
7319182359,-27.516438,5.197394,-10.043821,0.992112,-0.285221,0.210470
7319202410,-16.518112,3.591103,-12.505299,0.990279,-0.340170,0.192916
7319222461,-6.637743,5.128062,-12.574686,0.980172,-0.284610,0.178659
7319242511,-0.066347,6.225810,-12.648979,0.975871,-0.221119,0.165261
7319262562,5.420704,6.189027,-12.135406,0.960015,-0.191953,0.180625
7319282613,10.523942,6.255107,-10.568576,0.951891,-0.183878,0.193834
7319302665,16.393917,4.704191,-10.982130,0.963263,-0.183215,0.213175
7319322716,21.577843,3.458700,-11.608706,0.983226,-0.178655,0.211264
7319342767,25.570013,2.958427,-12.010065,0.984905,-0.176089,0.218971
7319362818,29.855791,2.692964,-11.601388,0.977100,-0.164334,0.222597
7319382869,33.660069,2.616642,-10.799087,0.971021,-0.136913,0.235051
7319402920,35.179089,3.009611,-10.255288,0.962573,-0.097812,0.225905
7319422972,34.947819,3.637671,-10.340740,0.958381,-0.069007,0.226814
7319443023,33.389847,4.750031,-10.503185,0.961206,-0.050193,0.233251
7319463074,30.789410,6.945739,-9.948997,0.957738,-0.059303,0.238421
7319483125,28.552315,10.427185,-8.141261,0.972777,-0.041632,0.245685
7319503176,25.969879,13.515800,-4.475206,0.975545,-0.031471,0.250586
7319523227,23.470312,16.644548,-0.551633,0.985162,-0.050554,0.268052
7319543278,22.988335,17.573341,1.552286,0.962637,-0.048511,0.268232
7319563330,24.267519,14.431343,1.585401,0.939466,-0.011718,0.252373
7319583381,22.520010,10.842897,1.378589,0.937380,0.023075,0.233234
7319603432,17.069126,9.624674,4.044909,0.931286,0.016429,0.265168
7319623483,12.623732,8.321203,6.597487,0.957891,0.006279,0.288377
7319643535,8.928006,5.469038,4.789660,0.996337,-0.026892,0.262677
7319663586,5.613175,3.207455,-1.249395,0.980952,-0.079923,0.254366
7319683638,9.205992,0.790186,-5.441066,0.918317,-0.093271,0.277343
7319703689,16.028801,-1.350294,-5.231448,0.875035,-0.093688,0.273860
7319723740,19.484642,-3.476406,-4.073329,0.911708,-0.031893,0.301033
7319743791,15.883070,-5.360262,-2.928734,0.962840,0.040948,0.297735
7319763842,6.470726,-5.827260,-3.416461,0.989758,0.074417,0.276817
7319783893,-3.787121,-7.272863,-7.705157,1.012776,0.121944,0.261162
7319823995,-22.354193,-9.105787,-9.435499,0.935487,0.121419,0.242534
7319844047,-30.567451,-7.613969,-12.332927,0.945142,0.079703,0.233724
7319864098,-42.774609,-4.740261,-15.870349,0.959233,0.133817,0.229017
7319884149,-58.526726,-2.498673,-16.069611,0.992572,0.227536,0.233531
7319904200,-73.592468,-2.389143,-15.587239,1.033722,0.237027,0.191815
7319944301,-102.037415,6.682544,-24.635078,1.042005,0.152029,0.174408
7319964352,-118.939758,10.205003,-29.969303,1.064575,0.203864,0.155064
7319984403,-140.121704,12.493057,-35.199249,1.070632,0.336105,0.144488
7320004454,-165.672211,15.553385,-36.254326,1.094518,0.372254,0.095252
7320024506,-190.053024,18.342443,-35.800659,1.051769,0.349946,-0.003766
7320044557,-211.506378,24.689798,-35.125336,1.014212,0.285749,-0.065545
7320064608,-231.439484,31.389677,-34.300179,0.981419,0.277326,-0.096944
7320084659,-251.466125,35.578758,-36.641922,1.016564,0.243716,-0.165742
7320104710,-265.137115,40.676010,-43.589443,1.135439,0.093116,-0.245225
7320124761,-269.973816,45.279781,-57.253319,1.113903,-0.018505,-0.232634
7320144813,-277.193359,43.655888,-61.663727,1.157162,-0.048385,-0.225711
7320164864,-278.620026,47.531521,-61.979744,1.121828,-0.103985,-0.219956
7320184915,-273.212952,49.029503,-59.993526,1.068770,-0.323430,-0.188164
7320204966,-258.111298,49.884972,-55.590813,1.066418,-0.468625,-0.149964
7320225017,-240.710266,50.337929,-53.582462,1.096820,-0.521158,-0.162319
7320245068,-226.023956,52.974979,-53.930164,1.113258,-0.412837,-0.112288
7320285170,-199.707855,48.185131,-69.004997,1.042200,-0.365322,0.026257
7320305222,-182.672943,39.868698,-76.341476,0.933345,-0.349968,0.081383
7320325274,-172.767166,28.843685,-79.656845,0.895756,-0.237544,0.076816
7320345325,-171.323273,21.709164,-79.678246,0.897772,-0.151792,0.094560
7320365377,-174.326859,17.632944,-78.890099,0.944728,-0.118828,0.092512
7320385428,-176.971756,14.550204,-77.438545,1.007259,-0.113156,0.060081
7320405479,-177.130829,12.972433,-74.674316,1.047604,-0.129957,0.028751
7320425530,-178.572235,11.882471,-71.479309,1.065979,-0.122641,0.016528
7320445581,-180.926208,13.000348,-69.951393,1.072395,-0.135340,0.016993
7320465632,-185.735565,13.681995,-68.837952,1.073012,-0.131227,0.018585
7320485690,-189.037109,12.853262,-68.022987,1.088114,-0.101298,-0.006647
7320505735,-190.940521,14.840430,-68.749168,1.077584,-0.080370,-0.009236
7320545837,-195.278671,16.149298,-68.577843,1.042020,-0.079703,-0.007951
7320565888,-197.631638,16.657265,-66.259605,1.028716,-0.092596,-0.018075
7320585942,-198.926788,18.683636,-63.825714,1.033564,-0.121080,-0.022074
7320605989,-198.935059,20.987101,-62.120804,1.042091,-0.164482,-0.008696
7320626040,-196.288162,21.234118,-61.811844,1.051254,-0.188881,-0.019982
7320646091,-193.682144,20.869267,-62.175293,1.060753,-0.153553,-0.009690
7320666142,-192.633163,21.232109,-62.305748,1.075293,-0.127607,-0.014704
7320686194,-192.352142,22.873871,-62.288773,1.078898,-0.137784,-0.002564
7320706245,-190.731003,24.508198,-62.431393,1.060488,-0.137025,-0.003794
7320726296,-190.150879,25.951408,-62.906464,1.031211,-0.124658,0.007852
7320746347,-190.063980,27.275213,-63.744740,1.036385,-0.122390,0.025949
7320766398,-190.051636,27.822271,-63.685997,1.038959,-0.115268,0.034428
7320786450,-188.447708,26.821968,-63.857430,1.035904,-0.118180,0.028169
7320806501,-186.572357,26.774645,-64.873505,1.015135,-0.132428,0.032549
7320826552,-185.147064,26.201910,-64.477921,1.011580,-0.122888,0.058679
7320846603,-183.345642,24.693977,-63.495670,1.041502,-0.101809,0.060465
7320866654,-182.375809,24.092657,-63.546989,1.053133,-0.087749,0.044298
7320886705,-182.331772,24.501928,-63.699993,1.048731,-0.076468,0.058768
7320906756,-182.613007,24.274073,-63.426270,1.040414,-0.086091,0.067000
7320926808,-182.326630,23.484547,-63.719227,1.032821,-0.106380,0.066182
7320946859,-180.789917,22.555586,-64.542671,1.022754,-0.110227,0.059157
7320966910,-180.521393,22.552197,-65.353699,1.011040,-0.106768,0.080573
7320986961,-180.624344,22.535233,-66.725395,1.014047,-0.118628,0.102272
7321007014,-179.312653,21.371769,-68.381638,1.006715,-0.134015,0.101125
7321027065,-178.105240,19.692163,-69.914803,1.003369,-0.122952,0.106517
7321047116,-177.154358,18.316326,-69.971024,0.999444,-0.100267,0.111498
7321067167,-176.121048,18.380165,-69.350136,0.998963,-0.091235,0.126932
7321087218,-175.549622,15.964210,-67.826225,1.045562,-0.095098,0.142030
7321107269,-172.187927,14.129327,-66.138542,1.065462,-0.129465,0.092582
7321127320,-170.471359,16.410379,-66.154587,1.008656,-0.085343,0.150017
7321147371,-168.517151,15.411983,-66.386772,0.991796,-0.082779,0.147686
7321167423,-166.628784,12.828292,-67.530533,1.000803,-0.083966,0.120317
7321187474,-166.945511,13.602533,-67.222359,0.993645,-0.054740,0.144921
7321207525,-168.005753,13.428497,-66.039062,0.989279,-0.031870,0.162893
7321227576,-168.173660,11.407660,-64.895203,0.998316,-0.040036,0.149510
7321247627,-167.787613,10.406941,-65.073784,1.018757,-0.048161,0.150022
7321267677,-167.176712,9.866216,-64.776558,1.012484,-0.050330,0.132643
7321287728,-166.744202,9.939820,-64.390434,1.008729,-0.067437,0.144175
7321307779,-165.329987,9.825341,-63.549271,1.007400,-0.076875,0.157908
7321327830,-163.837738,8.904315,-61.879250,1.010197,-0.073500,0.145619
7321347881,-162.563995,8.857392,-59.818062,1.001368,-0.064454,0.169809
7321367932,-160.864197,7.400355,-57.888577,0.992877,-0.070978,0.159554
7321387984,-158.342499,6.743928,-57.455204,0.995359,-0.084462,0.162909
7321408035,-155.794128,6.861823,-57.054810,0.991749,-0.070357,0.165083
7321428086,-153.770950,6.488841,-55.705181,0.996403,-0.058862,0.174071
7321448137,-152.489380,5.342966,-54.557259,1.015999,-0.062095,0.160888
7321468188,-151.077042,5.675562,-53.846474,1.003332,-0.059788,0.158954
7321488239,-148.902145,5.814752,-53.294453,0.979708,-0.056163,0.174740
7321508291,-146.931351,5.724187,-52.847672,0.991017,-0.067968,0.179864
7321528342,-144.826309,4.745229,-52.564617,0.986655,-0.066477,0.176726
7321548393,-143.175079,4.517273,-51.905037,0.992140,-0.061499,0.187341
7321568444,-142.202850,4.348641,-50.767956,0.997156,-0.063930,0.188132
7321588495,-140.674728,4.093120,-49.539818,0.992700,-0.067214,0.187865
7321608547,-139.367401,3.798823,-48.212944,0.979938,-0.071574,0.189916
7321628597,-138.958084,3.175727,-46.331360,0.979332,-0.067283,0.197860
7321648648,-137.415039,1.380080,-44.961498,0.978987,-0.079149,0.200448
7321668701,-135.182663,-1.111361,-43.885063,0.991964,-0.090385,0.200580
7321688752,-132.455963,-2.080152,-42.639729,0.986056,-0.097928,0.201352
7321708803,-128.905914,-3.879110,-40.270142,0.960756,-0.106660,0.198184
7321728855,-126.265930,-6.157098,-38.277527,0.959300,-0.112483,0.185062
7321748906,-123.508408,-7.636531,-36.181599,0.967756,-0.117140,0.175724
7321768957,-119.919731,-8.128188,-33.611897,0.971981,-0.116123,0.169926
7321789008,-117.876595,-6.199631,-29.693359,0.958470,-0.130904,0.180362
7321809059,-116.180916,-4.208812,-23.978701,0.958041,-0.155946,0.157291
7321829110,-112.192802,-2.491200,-18.218426,0.967704,-0.159764,0.174854
7321849161,-105.680573,-1.308395,-13.199933,1.013340,-0.240126,0.190195
7321869213,-95.402443,1.410941,-10.393531,1.037219,-0.303466,0.191915
7321889264,-82.878265,3.468543,-6.509422,1.042361,-0.336513,0.186517
7321909315,-67.281723,4.934382,-3.336772,1.026923,-0.354333,0.200792
7321929369,-48.749626,3.002812,-1.411550,0.993052,-0.423617,0.227983
7321969467,-8.019982,1.515143,2.133846,0.948450,-0.477776,0.227839
7321989518,12.054438,1.388966,4.635887,0.944872,-0.437326,0.242523
7322009569,34.021568,-0.761874,9.145086,0.944182,-0.370933,0.202670
7322029621,57.244316,-0.556832,15.138783,0.930803,-0.310080,0.184148
7322049672,75.805634,-4.517183,15.555194,0.853484,-0.103537,0.191570
7322069723,87.706055,-16.924309,2.936921,0.920870,0.054097,0.328005
7322089774,88.268646,-30.723318,0.399849,0.913337,-0.072212,0.385307
7322109825,81.447311,-38.881119,-9.998298,0.988314,-0.179420,0.463332
7322129876,78.813011,-44.006245,-20.559940,1.040690,-0.247341,0.458036
7322149927,62.780022,-33.434155,-16.505697,0.806152,0.184845,0.454734
7322169979,43.255558,-32.856514,0.134960,0.577076,0.453563,0.379110
7322190030,33.948910,-34.370594,2.023017,0.674129,0.448718,0.170365
7322210081,-2.766804,-16.306818,0.851943,1.167795,0.540989,0.231963
7322230132,-65.065247,-1.150547,-9.834484,1.196940,0.690186,0.317692
7322250183,-121.367905,0.584098,-34.990463,1.223587,0.941466,0.094396
7322270234,-171.890549,4.628553,-47.848206,1.261481,0.885871,0.127481
7322290286,-212.955750,0.945008,-44.061966,1.285507,0.804497,-0.135790
7322310348,-249.467209,21.345114,-43.354004,1.127151,0.750488,-0.248348
7322330389,-290.751587,31.243196,-36.946701,1.150486,0.704158,-0.411238
7322350440,-335.636536,53.633266,-31.051075,1.341170,0.882243,-0.727680
7322370491,-383.291687,74.939148,-23.271164,1.326006,1.032248,-0.859398
7322390543,-433.923950,95.489792,-22.573933,1.237990,0.941738,-1.102545
7322410594,-471.389832,112.690742,-50.086231,0.875711,0.701890,-1.326822
7322430645,-462.619720,99.053207,-65.548859,1.441674,0.366295,-1.425079
7322450696,-456.124329,132.664642,-93.345299,1.660124,-0.487931,-1.234964
7322470747,-413.560669,134.610886,-120.029686,1.667061,-1.536087,-1.117449
7322490798,-311.052185,129.780685,-145.802216,1.457030,-1.870238,-0.719632
7322510850,-204.464737,114.956924,-154.678589,1.048795,-1.473258,-0.405390
7322530901,-150.715759,88.922791,-175.699936,0.719329,-1.130522,-0.033158
7322550952,-156.744965,52.323284,-175.427704,0.604629,-0.671145,0.112943
7322571003,-169.041077,27.714912,-150.146149,0.764523,-0.160827,0.093175
7322591053,-170.820892,20.872557,-146.264267,1.045683,0.415081,0.022157
7322611104,-169.558731,9.821324,-162.756332,1.162883,0.549372,-0.084992
7322631155,-187.221649,1.670035,-169.330902,1.211700,0.341026,-0.003983
7322651206,-219.692368,-13.511206,-158.247406,1.146072,0.473207,0.037010
7322671257,-259.984070,-25.941616,-136.294876,1.077302,0.567808,0.010707
7322691308,-307.450500,-26.796562,-114.432755,1.214278,0.468391,-0.165214
7322731411,-373.437866,-2.413161,-78.925613,1.126950,0.317680,-0.386756
7322771513,-395.404175,34.258045,-85.713776,1.204556,0.021423,-0.569454
7322791564,-382.576782,40.529079,-113.259071,1.321974,-0.123825,-0.745165
7322811616,-375.773621,47.101971,-125.304329,1.401697,-0.488180,-0.586515
7322831667,-349.339172,53.455490,-125.145996,1.390540,-0.814943,-0.370688
7322851718,-307.358459,58.068466,-107.820793,1.290770,-1.093946,-0.194395
7322871769,-260.988861,55.867088,-78.983917,1.030364,-1.087548,-0.113246
7322891820,-210.932343,50.927368,-54.784821,0.828765,-1.025593,0.032294
7322911871,-163.268692,47.546516,-38.487518,0.783255,-1.135384,0.183656
7322931922,-112.394989,44.353130,-24.670311,0.740397,-1.275982,0.302221
7322951974,-55.368801,30.426603,-8.567319,0.709065,-1.196858,0.350979
7322972025,2.811389,10.703676,8.123662,0.773442,-1.160559,0.408272
7322992078,60.069393,-9.258466,22.761892,0.835721,-1.108503,0.411110
7323012129,116.645065,-27.694366,33.363098,0.846638,-1.123827,0.360470
7323032180,175.815201,-43.441216,45.128868,0.964387,-1.212932,0.177931
7323052231,232.928680,-53.866283,53.026905,0.976567,-1.199689,0.053080
7323072282,284.611420,-64.651871,65.937775,1.049356,-1.115738,-0.073160
7323092333,334.150146,-74.404488,84.727119,1.002795,-1.052060,-0.373510
7323112385,377.179626,-76.810364,101.522896,1.035398,-0.892887,-0.602605
7323132435,422.805054,-65.531204,127.160721,1.111749,-0.774552,-0.918166
7323152487,468.398529,-48.350540,144.880920,1.376218,-0.333833,-1.075714
7323172538,481.031952,-24.744255,138.406113,1.680556,0.189844,-0.906755
7323192589,441.049713,-9.574526,134.366150,1.733281,0.798154,-0.376294
7323212640,396.086212,-7.897354,145.911285,1.401380,1.048213,-0.195591
7323232691,359.412720,-3.873724,158.582291,1.352263,0.655172,-0.251738
7323252741,335.186157,6.431371,173.273590,1.158142,0.037031,-0.186703
7323272792,311.631744,7.546522,178.272537,0.960217,-0.024121,-0.341812
7323292844,287.608124,10.518564,190.450089,1.026463,0.117286,-0.407143
7323312895,278.395691,7.974020,202.133667,1.016479,0.034369,-0.217850
7323332946,265.305084,-0.149670,202.378448,0.978030,-0.161341,-0.046267
7323352997,248.809387,-8.764682,195.698959,1.083788,-0.169541,-0.089774
7323373048,246.888535,-23.695520,187.239929,1.111163,-0.360883,-0.138625
7323393099,260.933960,-35.241531,176.512665,1.138329,-0.887080,-0.139885
7323413150,287.368042,-53.548645,165.478470,1.183523,-1.087943,-0.222126
7323433202,300.090881,-66.506531,159.735916,1.192694,-0.692738,-0.288800
7323453253,295.053711,-79.080696,153.801239,1.230947,-0.229935,-0.295976
7323473304,293.638702,-83.995293,145.254440,1.095194,-0.176672,-0.196855
7323493355,296.071472,-86.284760,136.075775,1.042407,-0.499372,-0.206400
7323513406,307.621796,-83.615097,123.754303,1.088854,-0.354815,-0.379333
7323533457,307.538208,-83.892715,112.386864,1.078825,-0.206082,-0.422387
7323553509,311.861786,-94.901695,98.205154,0.988877,-0.430066,-0.378172
7323573560,301.604401,-104.029167,70.129837,1.170843,-0.218790,-0.250452
7323593611,264.349518,-96.036736,37.654671,1.504736,0.423335,-0.190262
7323613662,225.521805,-77.718399,22.538176,1.495725,0.933644,-0.012100
7323633713,175.318802,-66.646088,13.809381,1.026407,0.896997,0.083697
7323653766,108.867493,-57.651711,19.781452,0.928866,0.749720,0.156327
7323673817,58.099621,-48.060669,23.464710,0.942231,0.478841,0.266619
7323693868,29.774349,-49.750557,12.453069,0.959511,0.356321,0.241531
7323713919,4.622596,-46.791687,-1.417813,0.996027,0.332735,0.244880
7323733970,-11.811164,-43.857597,-10.228917,1.004785,0.338937,0.194066
7323754021,-20.815680,-41.925457,-17.098959,1.034771,0.298614,0.184293
7323774072,-31.984070,-36.526821,-21.001656,1.013381,0.185420,0.188451
7323794123,-44.977760,-31.065201,-22.668139,0.961623,0.128425,0.181745
7323814175,-57.263351,-26.398306,-19.898441,0.956990,0.113362,0.170981
7323834226,-66.580650,-23.405851,-19.662962,0.994317,0.067450,0.124789
7323854277,-70.443161,-21.259476,-19.600796,1.025893,-0.028449,0.135848
7323874328,-68.034019,-21.500595,-20.601231,1.039779,-0.126115,0.102086
7323894379,-64.107216,-20.708042,-21.780077,1.034170,-0.135254,0.099244
7323914429,-58.452278,-20.478373,-24.912960,1.018739,-0.124622,0.082561
7323934480,-51.813759,-20.958807,-27.308578,1.006537,-0.153141,0.078715
7323954531,-45.968742,-21.252331,-29.340773,1.028614,-0.142984,0.086752
7323974582,-41.012642,-21.394640,-29.357174,1.016478,-0.110777,0.072570
7323994633,-36.304100,-20.141800,-24.603556,0.983907,-0.093108,0.067863
7324014685,-30.806358,-19.065418,-18.561184,0.979460,-0.104392,0.054511
7324034736,-22.388172,-17.184076,-13.098604,0.993076,-0.150128,0.056318
7324054787,-12.858685,-15.130479,-7.955326,1.024288,-0.146853,0.064590
7324074838,-4.318738,-12.798328,-3.358346,1.034019,-0.122236,0.056286
7324094889,4.026694,-10.670694,0.314774,1.046979,-0.114664,0.050110
7324114941,10.734446,-9.139424,2.618730,1.046501,-0.102073,0.047507
7324134992,16.541147,-8.720491,5.229995,1.023045,-0.085099,0.043599
7324155043,20.839148,-8.285040,8.410151,1.024557,-0.071834,0.043366
7324175094,24.426485,-7.195015,11.391249,1.017252,-0.076331,0.047728
7324195145,26.983555,-5.212750,13.672367,1.022631,-0.085252,0.052051
7324215197,29.238798,-3.321398,15.097484,1.035052,-0.058446,0.050374
7324235248,30.242870,-0.868807,16.528681,1.021797,-0.045938,0.050317
7324255299,31.353834,1.928647,17.162863,1.010819,-0.066660,0.051570
7324275350,33.059471,5.012604,16.871220,1.021015,-0.060556,0.051117
7324295401,33.510181,7.688457,16.967945,1.019879,-0.052970,0.054475
7324315454,32.693588,9.281771,17.660006,1.011761,-0.053518,0.055514
7324335505,32.248680,10.978129,18.654737,1.003823,-0.061370,0.060457
7324355556,31.532845,11.885259,19.978180,1.004938,-0.067964,0.075718
7324375607,30.551737,13.140347,20.178831,1.006600,-0.081094,0.078609
7324395658,29.803051,13.982056,19.600191,1.015976,-0.093940,0.087458
7324415710,28.176338,13.936105,18.820286,1.004476,-0.104848,0.095228
7324435761,25.209782,14.324302,17.251143,1.001046,-0.096111,0.116006
7324455812,21.783459,13.910983,15.465137,0.985402,-0.120320,0.121901
7324475863,20.402832,13.365550,14.679287,0.966660,-0.129886,0.135693
7324495914,19.142122,12.915460,14.438752,0.952381,-0.125898,0.143634
7324515965,18.021847,10.662039,13.408594,0.950184,-0.137248,0.150839
7324536017,16.788076,9.036145,10.890835,0.973476,-0.146019,0.163012
7324556067,15.228726,7.433924,7.653108,0.967698,-0.132866,0.162364
7324576127,14.329138,5.886995,5.271381,0.963586,-0.118560,0.172348
7324596168,13.568839,4.863934,3.948855,0.956855,-0.123250,0.156632
7324616220,13.632715,4.999554,2.523521,0.960250,-0.123838,0.153118
7324636271,15.665100,4.041690,1.419583,0.973566,-0.132974,0.141140
7324656322,14.370824,5.106327,-0.554162,0.987276,-0.098398,0.148926
7324676373,8.758938,6.960622,-0.452481,0.993868,-0.059709,0.140436
7324696424,1.835276,8.126606,-0.992180,0.992343,-0.081656,0.162673
7324716475,-1.380016,7.577302,-1.694005,0.996440,-0.132735,0.173563
7324736526,-2.160054,7.300056,-2.708357,0.995919,-0.161255,0.167891
7324776629,1.970205,7.367983,-4.635092,0.968731,-0.142228,0.161935
7324796680,6.289924,6.831749,-5.059178,0.967571,-0.175261,0.158491
7324816731,12.562767,7.073203,-5.774629,0.951563,-0.207720,0.152937
7324836782,17.673517,7.724505,-5.308767,0.949780,-0.184378,0.165378
7324856834,17.972572,9.258089,-3.214785,0.977639,-0.095066,0.173903
7324876885,14.941276,9.771328,-0.562857,0.999309,-0.056301,0.174789
7324896936,12.539343,8.232611,1.095499,0.996698,-0.086750,0.199935
7324916987,12.165833,6.698066,1.320707,0.985743,-0.123365,0.220730
7324937038,12.204946,6.268294,1.746596,0.961815,-0.103055,0.202330
7324957089,11.419758,5.763613,3.181033,0.946506,-0.105539,0.202523
7324977141,11.353156,4.956119,4.009945,0.935257,-0.106832,0.209184
7324997193,10.998703,4.105853,4.376789,0.939072,-0.116303,0.200686
7325017244,11.348521,4.191406,4.338477,0.949661,-0.120822,0.200723
7325037295,11.533168,3.985334,3.975332,0.954366,-0.094706,0.209179
7325057347,10.349798,3.360278,3.598952,0.971052,-0.082728,0.218338
7325097449,4.249893,2.364159,3.649995,0.966266,-0.074239,0.221841
7325117500,1.318500,2.272208,4.143970,0.970249,-0.086111,0.217008
7325137551,-1.371752,2.525233,4.917094,0.957960,-0.107512,0.208989
7325157602,-3.761777,3.525491,5.892170,0.950216,-0.100773,0.204857
7325177653,-5.335929,4.467610,6.435160,0.955793,-0.111354,0.207473
7325197704,-6.152989,4.986089,6.433659,0.949478,-0.116993,0.214401
7325217756,-7.046817,4.474684,5.723312,0.948828,-0.125628,0.220676
7325237807,-7.372975,3.356299,4.484331,0.956145,-0.138439,0.238690
7325257856,-7.195581,1.563396,4.103920,0.947248,-0.132105,0.244643
7325277907,-8.208591,-0.177513,4.769643,0.949221,-0.112354,0.240429
7325297959,-9.804051,-2.111109,4.382759,0.943010,-0.130061,0.235682
7325318010,-11.062267,-3.905711,2.820539,0.956447,-0.150146,0.239554
7325338061,-12.923212,-5.168376,0.764065,0.966516,-0.157568,0.220808
7325358112,-15.756702,-5.343202,-1.136659,0.953578,-0.139843,0.210604
7325378163,-19.732479,-4.140751,-2.556675,0.952890,-0.114593,0.191040
7325398214,-22.657557,-3.247106,-3.475784,0.959789,-0.122756,0.184549
7325418266,-25.710976,-2.116898,-5.267243,0.976271,-0.151763,0.186728
7325438317,-27.762119,-1.330172,-8.384188,0.992099,-0.166568,0.184558
7325458368,-27.352911,-0.846691,-11.576737,0.997856,-0.168521,0.167717
7325498470,-19.349508,-1.174066,-15.185996,0.979867,-0.185633,0.181147
7325518522,-13.399002,-2.825217,-17.122604,0.972597,-0.190447,0.195148
7325538573,-8.070230,-4.025318,-17.923704,0.969996,-0.172433,0.210007
7325558624,-5.082454,-5.147934,-17.261511,0.972235,-0.128486,0.194973
7325578675,-5.210333,-5.171393,-14.843699,0.976605,-0.085521,0.174421
7325598726,-8.578165,-4.206446,-12.443316,0.974385,-0.071015,0.172602
7325618777,-11.746844,-3.198253,-10.611572,0.966170,-0.094593,0.170635
7325638828,-12.133615,-2.540743,-9.484437,0.964520,-0.113521,0.181567
7325658880,-9.850117,-3.200743,-8.171803,0.972469,-0.137492,0.174994
7325678932,-6.403816,-3.421337,-7.005090,0.976190,-0.147457,0.182860
7325719035,1.460091,-3.987447,-6.217681,0.989047,-0.140038,0.178685
7325739086,3.841866,-4.097715,-5.710346,0.983591,-0.109008,0.176470
7325759137,4.996699,-4.152434,-4.755612,0.981883,-0.087832,0.177212
7325779188,4.249585,-2.883516,-3.812354,0.988002,-0.077018,0.170041
7325799239,2.933294,-1.892432,-2.996781,0.988879,-0.060063,0.167397
7325819290,2.694832,-1.692908,-2.413805,0.991238,-0.065173,0.171927
7325839342,2.891687,-1.614071,-2.156461,0.995044,-0.085176,0.170277
7325859393,3.672418,-1.226025,-1.627544,0.988065,-0.096385,0.168994
7325879444,4.385207,-0.779805,-1.432279,0.981124,-0.096823,0.171221
7325899495,4.597901,-0.964839,-0.901188,0.978696,-0.077202,0.171341
7325919547,4.599006,-1.537465,-0.217110,0.971602,-0.075724,0.167729
7325939596,4.987617,-1.813410,0.162653,0.969128,-0.077504,0.170731
7325959647,4.806294,-2.305355,0.588833,0.977132,-0.083938,0.177042
7325979698,4.842117,-2.157179,1.171890,0.984483,-0.087309,0.168863
7325999750,4.648619,-1.745663,1.617698,0.986469,-0.073816,0.165449
7326019801,3.855067,-1.506141,1.897572,0.988856,-0.071595,0.161532
7326039852,3.129253,-1.061828,2.078190,0.985315,-0.076328,0.161471
7326059903,2.860091,-0.464430,1.985278,0.985033,-0.074594,0.162085
7326079954,2.447542,-0.088461,1.840127,0.990150,-0.069199,0.157333
7326100006,1.996426,0.490978,1.497235,0.992821,-0.075303,0.155696
7326120057,1.135035,0.908409,1.170203,0.990816,-0.080090,0.158009
7326140108,0.814538,1.200751,0.911624,0.983957,-0.084111,0.163824
7326160159,0.113845,1.264687,0.941965,0.977466,-0.077948,0.163797
7326180210,-0.555626,1.071965,1.170232,0.978648,-0.072885,0.161838
7326200261,-1.165762,1.348384,1.093703,0.978273,-0.075659,0.164867
7326240364,-1.741671,0.655902,1.429765,0.973298,-0.094257,0.167592
7326260415,-1.207863,0.401999,1.544138,0.975471,-0.094488,0.170155
7326280466,-1.153922,0.160767,1.757161,0.978368,-0.085953,0.169349
