Timestamp (us),Gyroscope X (deg/s),Gyroscope Y (deg/s),Gyroscope Z (deg/s),Accelerometer X (g),Accelerometer Y (g),Accelerometer Z (g)
2386317054,5.867909,7.278440,4.658925,0.966976,-0.223805,0.191122
2386327076,8.466467,6.956848,4.395520,0.949401,-0.196137,0.223723
2386337098,7.911007,3.734374,3.823835,0.928090,-0.163728,0.248610
2386347120,5.939700,0.208956,2.943323,0.912689,-0.147176,0.236343
2386357142,3.405513,-2.328131,1.517676,0.924089,-0.146829,0.207290
2386367165,0.386323,-4.104707,0.140738,0.945188,-0.143139,0.181557
2386377195,-0.374697,-3.982553,-0.112565,0.970516,-0.148028,0.163209
2386387207,0.815061,-2.524122,0.166429,0.983787,-0.150977,0.161145
2386397229,1.075704,-1.627404,0.300712,0.972739,-0.158082,0.164219
2386407251,0.589842,-0.699815,0.044538,0.947693,-0.160164,0.177345
2386417272,-0.343246,-1.018826,-1.258353,0.939929,-0.165820,0.185893
2386427294,-1.642555,-2.401541,-2.389828,0.941484,-0.169413,0.196496
2386437325,-1.327628,-4.742842,-2.420502,0.933454,-0.169456,0.199169
2386447337,0.264102,-7.541243,-2.353878,0.934769,-0.166930,0.198247
2386457359,1.424698,-11.449369,-3.166621,0.964369,-0.154410,0.175599
2386467380,0.943936,-14.124933,-4.348859,1.005282,-0.141336,0.152118
2386477402,-1.079386,-12.177945,-5.538877,1.033559,-0.132832,0.126216
2386487424,-3.928339,-6.520641,-5.705222,1.041523,-0.128351,0.106935
2386497446,-6.756666,-0.087610,-4.821133,1.023676,-0.128868,0.099344
2386507468,-8.837747,4.521259,-2.493572,0.982971,-0.141628,0.116268
2386517490,-9.147226,5.738539,-0.496357,0.935758,-0.161900,0.139762
2386527511,-8.084596,3.260122,0.229196,0.915733,-0.179827,0.165620
2386537533,-5.390163,-1.743821,-0.563798,0.934795,-0.182955,0.175983
2386547555,-1.862134,-5.988899,-2.430462,0.982738,-0.173952,0.158778
2386557577,-0.290819,-6.416993,-4.864723,1.028724,-0.151892,0.127976
2386567599,-2.054402,-2.889479,-6.484852,1.051105,-0.121390,0.106037
2386577621,-6.148374,2.161193,-5.879248,1.051335,-0.110062,0.084641
2386587643,-9.412395,7.045015,-2.872467,1.021286,-0.121861,0.080149
2386597665,-9.927876,10.664588,-0.220770,0.984280,-0.156936,0.094917
2386607686,-8.938059,11.575792,-0.274930,0.972700,-0.194819,0.127011
2386617708,-6.360596,9.551332,-1.267920,0.982401,-0.213427,0.145627
2386627730,-2.306314,7.115473,-1.570960,0.997376,-0.208449,0.158987
2386637752,0.702357,6.337531,-1.730422,1.007787,-0.182568,0.153933
2386647774,1.007032,7.066844,-1.931523,1.001573,-0.161807,0.137693
2386657796,-0.634852,8.329742,-2.453410,0.997475,-0.146188,0.120782
2386667819,-2.000249,10.489419,-2.673532,0.991158,-0.129896,0.116595
2386677841,-4.626776,11.449644,-2.075311,0.980915,-0.142417,0.128824
2386687863,-5.600158,10.097827,-1.487579,0.977603,-0.169892,0.129937
2386697885,-1.803024,7.951112,-1.575609,0.986918,-0.182653,0.124283
2386707906,3.791394,7.049448,-1.465284,1.006500,-0.178425,0.119293
2386717928,6.982573,6.392939,-1.671970,1.023248,-0.156687,0.109221
2386727950,6.449080,7.776275,-2.674803,1.023774,-0.137716,0.086307
2386737972,4.111792,12.368638,-3.727786,1.021815,-0.115094,0.058975
2386747994,0.439160,17.266441,-4.207065,1.027853,-0.105682,0.036908
2386758015,-2.850562,21.586714,-3.683119,1.030197,-0.112816,0.013495
2386768037,-4.794272,28.110489,-2.135488,1.013104,-0.125600,0.000547
2386778059,-5.322332,34.542034,-0.141527,1.006576,-0.144511,0.019229
2386788081,-4.022731,35.575226,1.234062,1.012365,-0.155186,0.042484
2386798103,-0.117245,34.735683,1.022073,1.012666,-0.157115,0.053610
2386808143,4.306686,36.585926,-0.095393,1.022652,-0.145921,0.059053
2386818145,6.025958,39.897751,-1.406817,1.023124,-0.138456,0.058449
2386828167,5.379666,45.051365,-1.894305,1.008991,-0.134104,0.051208
2386838189,4.589493,52.075432,-1.133058,1.006081,-0.132189,0.057726
2386848211,4.502518,58.582600,0.857450,1.006181,-0.130868,0.089217
2386858233,3.702664,64.589066,3.554781,0.995010,-0.139948,0.121259
2386868255,2.423226,69.683075,4.534917,0.960487,-0.140567,0.140495
2386878277,0.796723,70.915588,4.073888,0.945205,-0.144874,0.168643
2386888298,1.157402,67.373611,4.653462,0.967974,-0.153805,0.190916
2386898320,5.218679,64.345848,6.468814,0.990042,-0.163166,0.202808
2386908342,9.878719,64.418655,8.307116,1.009313,-0.176672,0.215624
2386918364,13.036058,67.547897,9.376985,0.997389,-0.181210,0.218852
2386928386,13.900298,72.700821,10.249208,0.959941,-0.172770,0.224154
2386938408,13.971597,77.018265,10.930227,0.927958,-0.149761,0.238297
2386948430,13.476669,78.478516,12.029676,0.896076,-0.127130,0.275934
2386958451,12.325640,76.580292,14.142946,0.868296,-0.120314,0.328481
2386968473,10.700090,72.052826,16.688961,0.859556,-0.133669,0.379512
2386978495,10.795056,66.488884,16.343052,0.843098,-0.147751,0.389887
2386988517,10.954133,61.622581,12.537287,0.832377,-0.152751,0.357256
2386998539,11.152461,57.089851,6.902513,0.844628,-0.154586,0.280701
2387008561,14.006075,55.306812,2.448471,0.866747,-0.165623,0.212671
2387018583,19.296759,58.053001,0.912124,0.918760,-0.190587,0.196687
2387028604,23.324518,62.017826,2.553519,0.979649,-0.232227,0.237535
2387038627,22.873459,65.987328,5.981459,0.999364,-0.257131,0.288505
2387048650,22.122299,70.717468,10.096625,0.995901,-0.268096,0.353030
2387058671,22.270166,73.165543,11.814913,0.960729,-0.244450,0.398100
2387068693,21.150614,69.348846,7.149470,0.916580,-0.182510,0.399997
2387078715,20.472633,60.651459,0.992071,0.898645,-0.106486,0.361911
2387088737,23.134607,52.712265,-2.921400,0.924938,-0.049964,0.315568
2387098759,24.996805,49.898052,-3.694847,0.974466,-0.030731,0.304481
2387108781,19.183577,54.068600,-2.938099,1.020415,-0.041971,0.307641
2387118802,8.177535,64.019791,-2.985015,1.071607,-0.075514,0.338701
2387128824,-4.541544,75.006554,-2.166527,1.103558,-0.126938,0.378690
2387138846,-13.581951,83.710297,-0.536072,1.068034,-0.161525,0.388366
2387148868,-16.381058,88.501762,0.821679,0.996929,-0.195905,0.353352
2387158890,-11.123965,91.629356,2.256365,0.946005,-0.249265,0.307352
2387168912,-3.070371,93.599319,3.899252,0.912251,-0.283052,0.280435
2387178953,0.443841,90.587265,5.794967,0.880154,-0.264722,0.252736
2387188954,2.567545,84.551186,7.353760,0.872514,-0.229179,0.235270
2387198976,10.187268,81.611580,9.217928,0.901480,-0.197845,0.266178
2387208998,17.955605,81.880035,12.632056,0.951355,-0.173628,0.339178
2387219020,21.104767,84.052635,16.003616,0.976469,-0.150983,0.395805
2387229042,20.019188,88.173355,16.449903,0.954698,-0.113494,0.416276
2387239063,13.654560,93.073410,15.808424,0.918156,-0.082169,0.411199
2387249085,5.646761,96.743713,15.500674,0.902875,-0.083136,0.397256
2387259107,1.466705,100.258270,14.203817,0.886233,-0.102864,0.383095
2387269129,-2.762627,103.772423,11.947433,0.878484,-0.134456,0.385484
2387279151,-7.583556,108.503105,9.481121,0.882319,-0.172256,0.385642
2387289172,-6.213201,114.550995,7.072752,0.889803,-0.184025,0.387250
2387299195,-1.681857,114.896645,6.931026,0.894194,-0.170804,0.384078
2387309216,5.871107,112.292549,11.065641,0.894808,-0.164188,0.392404
2387319238,11.234852,110.269714,19.010403,0.869964,-0.158406,0.434237
2387329260,13.570415,110.072998,25.483471,0.822460,-0.159677,0.462489
2387339282,18.559685,110.084114,25.963249,0.747772,-0.154306,0.470457
2387349304,23.846409,108.661957,17.406803,0.645990,-0.149239,0.456197
2387359326,22.819794,112.653625,1.473428,0.563159,-0.136205,0.423072
2387369347,11.980079,123.114105,-15.015529,0.537528,-0.098205,0.455712
2387379369,-5.557176,130.758041,-20.053501,0.583443,-0.063167,0.504194
2387389391,-15.900248,137.337555,-12.103100,0.605049,-0.074555,0.537222
2387399413,-13.941387,148.255020,-2.072289,0.540915,-0.110744,0.593682
2387409436,-11.072484,156.477722,0.671001,0.424350,-0.125230,0.668153
2387419458,-12.899818,155.884445,-3.733039,0.334578,-0.141819,0.734460
2387429480,-13.578091,149.985291,-7.318098,0.318431,-0.162136,0.790594
2387439502,-9.615300,144.631439,-6.292095,0.328182,-0.165036,0.863160
2387449524,-3.989585,140.295074,-4.304661,0.331670,-0.162084,0.925254
2387459545,1.332296,139.804123,-4.085979,0.314886,-0.151432,0.976392
2387469567,0.707831,140.564453,-4.721847,0.278740,-0.122210,1.008845
2387479589,-7.518662,138.550171,-3.834093,0.231396,-0.116322,1.019012
2387489611,-14.517950,137.265625,-0.472873,0.201574,-0.155777,1.048072
2387499633,-16.938719,135.111008,3.737788,0.184628,-0.229231,1.117020
2387509655,-16.030123,127.237175,6.526562,0.163966,-0.283156,1.180863
2387519677,-10.934269,111.940125,6.395298,0.134502,-0.274566,1.198240
2387529698,-2.095026,94.115479,4.226491,0.088622,-0.216721,1.210173
2387539721,4.804074,79.773598,2.008321,0.048732,-0.160418,1.223074
2387549742,8.085248,71.333633,1.214077,0.006098,-0.134423,1.274808
2387559762,8.000483,65.451012,1.738333,-0.023858,-0.149170,1.341537
2387569784,3.379862,58.021545,1.796021,-0.033771,-0.216198,1.405931
2387579806,-3.558596,48.465561,1.142134,-0.025197,-0.320845,1.450377
2387589828,-7.186324,38.891045,-0.573208,-0.008958,-0.420028,1.459508
2387599850,-6.556779,27.413055,-1.450905,0.006193,-0.443952,1.460363
2387609872,-1.393951,13.134939,-0.456139,-0.004481,-0.394950,1.482277
2387619893,7.352721,-1.222815,-0.646756,-0.049321,-0.294754,1.528284
2387629915,11.359626,-12.902893,-4.963154,-0.104691,-0.188466,1.588002
2387639937,5.990039,-17.020782,-11.500299,-0.173392,-0.099149,1.693467
2387649959,-12.201519,-17.129137,-16.937313,-0.269202,-0.054745,1.810212
2387659981,-38.429691,-21.167818,-22.613724,-0.374976,-0.032890,1.864614
2387670003,-57.541023,-32.663242,-32.527714,-0.445793,-0.019252,1.839038
2387680024,-64.475121,-46.054031,-42.167599,-0.497051,-0.064954,1.817373
2387690046,-72.542580,-62.832176,-48.336884,-0.513781,-0.108302,1.839641
2387700068,-92.011192,-88.567017,-49.427925,-0.492752,-0.053636,1.777979
2387710090,-111.232574,-89.384697,-45.455395,-0.542475,-0.115939,1.432707
2387720112,-146.493805,-74.824806,-52.314289,-0.709011,-0.083226,0.874756
2387730134,-197.652008,-68.969559,-76.824173,-0.745665,-0.068228,0.379811
2387740156,-207.421570,-66.664505,-107.834106,-0.624372,-0.087986,0.044177
2387750177,-176.188339,-103.230408,-129.949234,-0.248160,-0.176335,0.003225
2387760199,-135.040588,-202.109070,-138.048553,0.317514,-0.391195,0.005488
2387770221,-30.238811,-270.865784,-107.780602,1.137937,-1.076630,-0.290956
2387780245,161.355606,-251.687714,-24.049461,1.329965,-1.163468,-0.303039
2387790267,228.235825,-273.866760,36.054657,1.266366,-1.140768,-0.095746
2387800289,238.455246,-245.066040,42.546516,1.158756,-1.220672,-0.147767
2387810310,274.511902,-143.584885,3.077026,0.884287,-0.753481,0.146454
2387820332,249.285461,-89.976418,-26.689674,0.883165,-0.129245,0.935748
2387830354,171.673676,-92.469193,-6.254211,0.772540,0.470995,1.885407
2387840376,106.625969,-127.633057,30.952240,0.385339,0.836790,2.320762
2387850398,62.625660,-170.809952,36.861301,0.108335,0.826947,1.800958
2387860419,19.436852,-194.410919,2.962893,0.160760,0.554743,0.959605
2387870441,-16.507584,-188.546432,-39.338100,0.399227,0.326043,0.390746
2387880463,-36.573975,-172.423920,-57.727188,0.681684,0.190249,0.101495
2387890485,-32.896511,-157.147858,-53.671185,0.853781,0.073533,-0.023383
2387900507,-9.703854,-135.176529,-31.182489,0.902275,-0.025847,-0.125088
2387910529,18.296061,-103.265915,-4.869957,0.861949,-0.113195,-0.159441
2387920551,30.080658,-72.669662,8.479909,0.782483,-0.192664,-0.118760
2387930571,23.246790,-52.780022,9.199148,0.770629,-0.256370,-0.002694
2387940593,14.568474,-41.675629,8.935219,0.813369,-0.307002,0.143161
2387950615,18.107662,-35.854645,13.153589,0.847226,-0.311362,0.365411
2387960637,29.413517,-42.841179,14.642879,0.792015,-0.229272,0.607966
2387970658,32.019344,-69.114075,8.766416,0.774465,-0.092027,0.664973
2387980680,28.189968,-95.641983,-1.829522,0.920806,0.015235,0.471960
2387990702,29.159803,-99.507133,-8.826900,1.173878,0.065674,0.282199
2388000724,38.604328,-77.487610,-6.908901,1.454226,0.073515,0.208069
2388010746,41.806198,-34.479504,6.693112,1.524411,0.116784,0.285066
2388020768,9.448215,18.533577,25.037867,1.267690,0.184613,0.433218
2388030790,-49.776546,70.485550,32.299301,0.954099,0.232070,0.546163
2388040812,-95.932182,102.066078,27.366703,0.770675,0.151601,0.485944
2388050833,-103.173866,108.895836,23.088573,0.671464,-0.062593,0.288328
2388060855,-75.622833,98.765129,27.564548,0.602285,-0.277286,0.159037
2388070877,-30.942822,82.936432,36.744576,0.555860,-0.433996,0.126851
2388080899,18.097424,67.253716,40.878201,0.557399,-0.475037,0.202950
2388090921,55.736580,49.083313,35.045437,0.626715,-0.426856,0.401900
2388100943,69.701866,36.630981,22.791338,0.708536,-0.284515,0.587054
2388110965,63.395378,38.075302,11.136622,0.725980,-0.086575,0.687881
2388120986,48.981293,43.891720,4.568011,0.692022,0.064394,0.692760
2388131008,35.729290,44.981285,1.956473,0.690250,0.119638,0.638575
2388141030,22.116148,44.095860,1.284618,0.723270,0.077905,0.559224
2388151052,4.994678,48.459095,3.179210,0.761062,-0.005420,0.511934
2388161075,-13.269630,55.484509,7.152225,0.836705,-0.086679,0.550850
2388171097,-32.505440,54.575737,11.368738,0.941377,-0.157942,0.619940
2388181119,-43.130676,48.519470,11.181671,1.059536,-0.190606,0.634183
2388191141,-41.244553,45.351311,0.900742,1.163778,-0.174025,0.546494
2388201162,-33.452564,56.252228,-14.512557,1.174838,-0.124284,0.389021
2388211184,-30.989082,80.751274,-22.203377,1.000324,-0.057017,0.253356
2388221206,-22.558073,120.101738,-19.227430,0.855542,-0.025897,0.348002
2388231228,-16.217663,163.183838,-4.034471,0.846862,-0.115862,0.720690
2388241253,-34.878441,186.026291,16.001234,0.755381,-0.310507,1.095457
2388251272,-49.688427,192.323151,28.998987,0.485801,-0.529895,1.361695
2388261294,-39.601685,169.862076,29.217146,0.075388,-0.609678,1.429460
2388271316,-16.824083,114.320877,15.839181,-0.188951,-0.542677,1.222672
2388281337,10.316389,68.367592,1.565453,-0.229188,-0.442664,1.027628
2388291359,29.483286,41.166962,-7.271117,-0.141249,-0.398191,1.030999
2388301385,39.671806,29.634499,-9.517163,-0.046032,-0.405127,1.150838
2388311401,39.967899,28.708008,-7.187358,-0.013313,-0.394203,1.341270
2388321423,26.950212,29.769510,-4.163128,-0.060944,-0.333716,1.512315
2388331445,5.849804,31.703270,-3.805100,-0.163969,-0.242238,1.643550
2388341467,-21.598629,33.124912,-5.119652,-0.313004,-0.139235,1.735569
2388351489,-51.223480,31.050829,-9.278691,-0.474662,-0.059620,1.794731
2388361511,-78.990433,22.178320,-17.422300,-0.640713,-0.033396,1.849385
2388371532,-106.561134,-2.867113,-22.184835,-0.776942,0.000782,1.905830
2388381554,-113.769974,-34.742287,-31.226147,-0.786945,-0.122887,1.578107
2388391576,-91.816971,-37.215790,-46.994396,-0.676656,-0.243903,1.211181
2388401598,-92.441574,-72.457199,-58.353264,-0.501564,-0.221551,0.884879
2388411620,-110.511215,-138.254654,-72.154938,-0.306466,-0.223000,0.411064
2388421642,-123.256180,-196.381348,-88.914879,-0.050175,-0.244149,0.036914
2388431663,-125.568146,-266.920227,-103.198578,0.373830,-0.208426,-0.144376
2388441685,-105.634979,-372.878418,-108.660217,0.995561,-0.206426,-0.343426
2388451707,-2.264429,-463.550842,-104.293259,1.895979,-0.605672,-0.836120
2388461729,264.002472,-442.416321,-89.823051,2.493127,-0.789941,-1.075329
2388471751,435.648224,-402.502441,-75.574547,2.517276,-0.437923,-0.959700
2388481773,371.686340,-303.660156,-57.015583,2.833589,-0.349610,-0.525293
2388491795,207.874893,-26.552645,-30.667910,2.769282,-0.057138,0.020094
2388501817,8.935873,265.933167,-16.391851,2.086013,0.218413,0.348418
2388511839,-155.299042,412.774567,-2.868879,1.226150,0.321493,0.465836
2388521860,-199.186020,453.456360,20.543056,0.299013,0.588170,1.026983
2388531884,-201.725662,362.450439,60.035160,-0.766966,0.434214,2.706613
2388541905,-181.366516,102.931816,64.329727,-1.506372,-0.808009,3.165414
2388551927,-114.849182,-107.008316,3.467988,-0.910051,-0.925734,1.044487
2388561949,-55.526772,-147.339478,-55.533417,-0.200428,-0.663626,0.063133
2388581993,14.592408,-202.813568,-99.092422,0.582042,-0.419841,-0.129092
2388592015,81.120125,-209.103607,-99.169930,0.792046,-0.305844,-0.192594
2388602037,154.503235,-193.005875,-94.613060,0.857181,-0.042741,-0.008923
2388612058,175.535004,-163.695786,-84.060226,0.942288,0.219775,0.310554
2388622080,125.556503,-118.740952,-69.122879,0.976714,0.464857,0.610505
2388632102,45.556694,-60.398136,-54.074673,0.939304,0.673831,0.811900
2388642124,-21.254105,-14.229904,-43.641342,0.896659,0.733479,0.902869
2388652146,-63.807091,-1.391886,-39.883751,0.955113,0.551166,0.850720
2388662167,-83.798431,-0.658044,-35.205894,1.109693,0.179228,0.620753
2388672217,-74.824150,22.478680,-17.576420,1.258687,-0.177705,0.436689
2388682210,-50.386909,55.394909,7.055979,1.201692,-0.449120,0.405373
2388692232,-39.447220,75.137619,19.356022,0.934375,-0.654973,0.481597
2388702254,-39.148567,80.317474,11.456282,0.615959,-0.829852,0.599801
2388712276,-22.857731,67.494675,-8.829748,0.317815,-0.869170,0.796789
2388722297,13.894528,18.307711,-29.040203,0.144054,-0.641468,0.910724
2388732319,50.871613,-49.725487,-41.082989,0.161352,-0.300169,0.842117
2388742341,65.298126,-95.117317,-48.205231,0.321791,-0.043367,0.782172
2388752363,58.397758,-109.341827,-52.587959,0.589753,0.115202,0.749134
2388762385,47.776615,-107.477600,-51.502670,0.831298,0.230017,0.687676
2388772407,44.385330,-94.626923,-45.805573,0.972248,0.290373,0.602626
2388782428,42.806999,-69.571526,-41.048100,1.033211,0.268006,0.535883
2388792450,25.648172,-40.339569,-40.913704,1.006081,0.185562,0.501040
2388802472,-8.158262,-12.415183,-39.507690,0.931773,0.060443,0.493154
2388812494,-35.598301,7.586731,-31.560789,0.880129,-0.061541,0.536756
2388822516,-39.729332,8.933708,-18.960199,0.814199,-0.120276,0.598124
2388832538,-26.232714,-9.118801,-11.870177,0.761052,-0.151525,0.604366
2388842560,-8.895521,-30.326794,-16.919708,0.768043,-0.085571,0.536682
2388852581,1.570432,-35.842411,-25.054897,0.776151,0.096729,0.523765
2388862603,-0.431246,-25.034178,-28.797974,0.774548,0.266017,0.581899
2388872625,-16.270437,-7.981031,-31.663784,0.727572,0.296713,0.644305
2388882647,-43.072330,3.686312,-31.819767,0.664902,0.173412,0.709689
2388892669,-65.547462,5.455142,-29.028423,0.691194,-0.062799,0.726580
2388902692,-66.036293,1.944535,-27.939558,0.762130,-0.298010,0.696992
2388912714,-47.539246,-6.765714,-25.894310,0.801692,-0.419902,0.665329
2388922735,-29.599510,-23.442263,-26.625555,0.799282,-0.413086,0.594787
2388932757,-17.949940,-33.199455,-33.364040,0.805175,-0.266197,0.547003
2388942779,-9.697838,-32.889755,-38.684227,0.858918,-0.042596,0.640964
2388952801,-9.624953,-34.455597,-38.759483,0.892052,0.143624,0.742185
2388962823,-17.037971,-32.548569,-37.759785,0.860063,0.262907,0.731498
2388972845,-31.302647,-25.710724,-37.534988,0.811321,0.280021,0.602628
2388982867,-49.437248,-18.427904,-35.559204,0.794409,0.210627,0.452854
2388992889,-68.236237,-11.311140,-32.283062,0.799320,0.071977,0.352246
2389002911,-79.015930,-0.934798,-32.987286,0.806033,-0.068677,0.305567
2389012933,-79.905975,11.134106,-36.907677,0.796324,-0.163167,0.355076
2389022954,-74.764206,18.789783,-39.971184,0.784717,-0.193214,0.486708
2389032976,-64.667709,18.232136,-43.689613,0.795542,-0.166743,0.638795
2389042998,-52.327934,11.622859,-46.383430,0.812451,-0.099274,0.724489
2389053018,-45.738289,3.257078,-44.887154,0.799991,-0.059186,0.695297
2389063040,-49.552818,0.053814,-42.813171,0.760772,-0.078675,0.617420
2389073062,-59.420277,-2.232468,-41.470718,0.795580,-0.149033,0.592034
2389083084,-61.919350,-11.213028,-38.578590,0.898372,-0.201440,0.592489
2389093106,-50.203667,-19.809196,-32.519939,0.973898,-0.200296,0.579557
2389103128,-40.976009,-21.943350,-28.063404,0.972219,-0.127938,0.572210
2389113150,-45.552334,-16.207848,-26.677685,0.932947,-0.058672,0.563703
2389123171,-58.382030,-4.613563,-27.245453,0.897666,-0.050031,0.575939
2389133193,-69.983376,5.640037,-32.026669,0.886017,-0.064301,0.620583
2389143215,-72.802895,8.757314,-35.222919,0.903796,-0.076008,0.651947
2389153237,-69.181305,5.912457,-33.160580,0.908572,-0.096090,0.608264
2389163259,-67.517563,4.346365,-30.749241,0.878784,-0.106052,0.530923
2389173281,-73.558990,6.951688,-29.273146,0.831321,-0.102241,0.455888
2389183303,-81.898239,12.522412,-29.686808,0.780483,-0.111299,0.409341
2389193324,-87.455696,18.045046,-30.289356,0.778305,-0.144676,0.428538
2389203346,-92.861145,18.977711,-28.709896,0.804646,-0.219751,0.464129
2389213368,-97.933228,18.040586,-26.537001,0.825420,-0.307321,0.474836
2389223390,-96.991661,18.814739,-27.215361,0.837725,-0.364567,0.476127
2389233412,-89.246193,19.156498,-29.834818,0.825546,-0.346043,0.490999
2389243434,-81.589088,18.328419,-31.142143,0.805930,-0.290287,0.545568
2389253455,-83.249428,15.609045,-30.608799,0.774589,-0.236660,0.609174
2389263477,-92.018234,14.112571,-28.635578,0.759154,-0.216074,0.625097
2389273499,-97.979286,14.484217,-24.948677,0.749275,-0.261850,0.603370
2389283522,-98.240059,12.039077,-20.388626,0.741512,-0.346017,0.547014
2389293544,-94.435043,6.564901,-16.816788,0.759673,-0.461991,0.507863
2389303566,-87.436455,1.589555,-13.376563,0.800613,-0.562335,0.483497
2389313588,-79.297104,-2.535641,-10.250620,0.834461,-0.634449,0.465403
2389323610,-71.834175,-7.223458,-8.794985,0.861517,-0.658689,0.447409
2389333632,-65.657242,-11.516046,-9.813428,0.899281,-0.619173,0.442989
2389343653,-60.272827,-13.802016,-12.275168,0.922148,-0.521713,0.452913
2389353676,-56.766052,-14.170474,-13.596817,0.923672,-0.394594,0.485561
2389363697,-55.354591,-16.178156,-13.331482,0.933176,-0.285165,0.509127
2389373719,-55.260220,-19.006516,-15.142687,0.940275,-0.198552,0.499359
2389383741,-58.583961,-18.062420,-17.936867,0.935978,-0.136362,0.467495
2389393763,-65.665565,-11.961370,-19.762440,0.909852,-0.116561,0.403592
2389403785,-73.227097,-3.199446,-21.114515,0.866757,-0.155801,0.309643
2389413806,-78.990761,6.199671,-21.825804,0.823153,-0.241459,0.225178
2389423828,-81.097923,16.949112,-21.301765,0.788711,-0.351717,0.186688
2389433849,-75.964653,28.026964,-20.254562,0.769691,-0.455825,0.198151
2389443871,-64.515167,35.572304,-19.953329,0.777013,-0.510353,0.286968
2389453892,-50.182838,35.194401,-21.479864,0.808738,-0.481092,0.414421
2389463914,-37.095596,28.539169,-23.524199,0.836369,-0.379946,0.489719
2389473936,-30.191153,22.193930,-24.180601,0.852486,-0.258353,0.494660
2389483958,-30.558094,20.734991,-24.008804,0.865241,-0.167741,0.444659
2389493980,-33.828903,23.686058,-25.845381,0.885264,-0.131066,0.389329
2389504002,-36.551926,29.311560,-28.861904,0.918638,-0.131993,0.380658
2389514023,-40.608059,36.688389,-27.420776,0.948709,-0.187023,0.422302
2389524046,-50.680443,43.343315,-20.295298,0.995838,-0.279483,0.491875
2389534067,-66.009499,47.907764,-7.017666,1.074855,-0.375233,0.550965
2389544089,-79.027176,54.462982,9.333389,1.123686,-0.416106,0.547107
2389554111,-82.127098,58.939541,19.683331,1.091234,-0.407212,0.474689
2389574155,-38.638897,32.358932,16.541027,0.775461,-0.405331,0.158263
2389584177,-6.172271,46.906216,10.305603,0.691966,-0.291375,0.211522
2389594199,5.797378,62.992821,7.349378,0.740117,-0.153060,0.475671
2389604221,-2.699324,58.610081,14.275133,0.736005,-0.156569,0.661401
2389614242,-16.215059,53.032681,25.445797,0.774857,-0.381061,0.736009
2389624264,-31.174711,54.082973,33.604424,0.882330,-0.719639,0.733762
2389634286,-39.676723,58.896267,38.723606,0.874662,-0.929063,0.603238
2389644308,-27.484192,61.773109,36.738068,0.694536,-0.878756,0.380451
2389654331,6.766949,61.026600,31.280487,0.512168,-0.691618,0.214240
2389664353,43.190166,50.184597,26.059584,0.480225,-0.526056,0.224112
2389674375,68.972221,29.380342,22.331451,0.583108,-0.388603,0.357200
2389684397,81.262497,15.082207,26.288435,0.708541,-0.261875,0.516034
2389694419,82.207458,19.160145,36.882004,0.778628,-0.139869,0.688888
2389704440,68.178528,34.621422,46.954918,0.762191,-0.046907,0.826570
2389714462,43.565178,51.244930,52.125519,0.663180,-0.008667,0.891448
2389724484,21.678699,62.177200,49.388039,0.557313,-0.024553,0.920850
2389734506,11.870587,64.509109,44.143456,0.500330,-0.058501,0.974248
2389744528,11.974533,60.526825,45.395828,0.417241,-0.075049,1.059906
2389754550,9.725475,50.969318,50.328289,0.271766,-0.073672,1.124931
2389764571,0.327394,37.874741,52.332539,0.138619,-0.024056,1.254653
2389774593,-24.146996,11.125581,50.899925,0.063579,0.036773,1.391080
2389784615,-47.890781,-5.380598,44.759155,0.083945,-0.036992,1.193542
2389794656,-60.587715,7.149971,30.705099,0.138047,-0.192074,0.915529
2389804657,-69.635002,6.117115,15.249356,0.192145,-0.372297,0.640454
2389814679,-63.810562,-20.586506,4.290073,0.258681,-0.585960,0.430934
2389824701,-50.442829,-47.701435,5.843532,0.452453,-0.847879,0.291571
2389834723,-22.965759,-80.811363,21.860661,0.889935,-0.977822,0.173294
2389844745,41.744602,-130.026443,60.203411,1.369333,-0.979962,0.114538
2389854767,137.601349,-177.822174,103.273148,1.672569,-0.825211,0.205792
2389864789,215.769012,-192.491943,117.208168,1.789469,-0.412238,0.545019
2389874810,212.553589,-154.259552,113.006607,1.760610,0.078124,0.920962
2389884832,135.053162,-85.011360,112.362137,1.467044,0.514473,1.121887
2389894854,53.014412,-13.516187,96.818459,0.936518,0.923938,1.425094
2389904876,-20.909563,13.181568,65.515526,0.517199,1.134709,1.638252
2389914898,-77.570190,-1.724207,39.498081,0.429830,0.901835,1.303400
2389924920,-117.366562,-6.842412,41.042210,0.510341,0.410237,0.788910
2389934941,-135.608932,23.521870,55.551949,0.511942,-0.013923,0.509274
2389944963,-139.602402,46.803280,65.814781,0.436918,-0.342933,0.443887
2389954985,-133.690140,36.370155,66.114525,0.251312,-0.666007,0.440463
2389965007,-101.604706,4.035875,58.113186,0.043587,-0.948800,0.464588
2389975029,-44.299065,-44.573044,44.418228,-0.051429,-1.050882,0.422674
2389985051,19.134121,-95.922943,31.958754,0.051536,-0.908213,0.270386
2389995073,70.520538,-135.933136,28.981899,0.337350,-0.738874,0.175661
2390005095,111.998154,-162.007278,32.665283,0.648292,-0.638473,0.180563
2390015116,146.060440,-166.595901,35.349125,0.935137,-0.548964,0.317940
2390025140,166.430023,-151.762039,34.691353,1.199223,-0.423983,0.547177
2390035162,163.109024,-123.668388,31.581991,1.315919,-0.219395,0.763755
2390055205,90.903458,-52.173271,34.719173,1.063257,0.098042,0.869271
2390065227,50.756599,-29.454527,42.684750,0.850184,0.100294,0.815255
2390075249,29.850086,-25.906780,49.256294,0.710854,0.019565,0.760095
2390085270,28.868298,-34.370506,55.031258,0.675361,-0.091670,0.760571
2390095292,40.147892,-49.595695,57.564629,0.689508,-0.177102,0.800893
2390105314,52.717865,-67.242340,52.731113,0.696137,-0.198411,0.742667
2390115336,60.535686,-77.028419,42.030048,0.695318,-0.144458,0.613297
2390125358,65.695724,-74.528152,34.263168,0.647510,-0.036895,0.538131
2390135380,66.701057,-67.718254,35.452713,0.597769,0.040769,0.534578
2390145402,58.752182,-65.898788,43.511154,0.592734,0.041676,0.573683
2390155423,44.247200,-69.393295,53.453270,0.645946,-0.047503,0.580452
2390175466,23.388699,-73.613342,60.382233,0.831518,-0.271155,0.496251
2390185488,25.865583,-74.742134,56.509453,0.949357,-0.329302,0.440598
2390195510,41.585052,-72.979691,50.871616,1.033927,-0.343018,0.383606
2390205531,61.889935,-66.706360,45.316250,1.029995,-0.313847,0.375143
2390215553,74.252670,-56.927589,44.785591,0.966755,-0.276262,0.423717
2390225575,74.884125,-48.503826,50.836948,0.909890,-0.284726,0.496571
2390235597,70.985001,-43.997192,58.937981,0.858996,-0.326615,0.548623
2390245619,68.209282,-43.961784,64.718658,0.843867,-0.369708,0.584011
2390255641,68.895134,-48.810387,67.460571,0.854955,-0.397026,0.586138
2390265663,75.629242,-56.721245,66.746010,0.873239,-0.377754,0.541137
2390275684,87.734734,-62.495163,62.026726,0.871307,-0.306031,0.496101
2390285706,98.172913,-65.289963,53.279716,0.836979,-0.201430,0.467491
2390295728,103.892822,-65.679947,42.189705,0.815241,-0.105482,0.453430
2390305750,105.794151,-62.263744,36.732430,0.866616,-0.096458,0.446265
2390315772,102.246246,-54.628227,39.738789,0.917867,-0.202052,0.423294
2390325794,98.420715,-41.914963,43.275749,0.928099,-0.330644,0.412776
2390335815,97.288078,-31.743731,44.432800,0.899601,-0.434231,0.426351
2390345837,100.817917,-29.041262,43.702301,0.842585,-0.490474,0.447703
2390355859,111.105995,-32.745804,39.893955,0.786363,-0.491308,0.467876
2390365881,123.162521,-40.617413,35.298927,0.759784,-0.424905,0.467862
2390375903,131.162735,-47.360435,31.099609,0.768554,-0.314371,0.441339
2390385925,133.470673,-50.176262,27.595398,0.805750,-0.179480,0.412820
2390395947,132.762299,-56.956867,24.514210,0.843918,-0.071025,0.361582
2390405970,132.974167,-65.912445,20.559540,0.870755,-0.005889,0.297510
2390415992,133.708099,-62.996365,16.239199,0.927016,0.009125,0.271576
2390426014,128.303040,-47.716640,11.055282,1.008587,-0.006376,0.288870
2390436035,118.481735,-31.763369,7.793922,1.100429,-0.068708,0.306079
2390446057,113.432190,-24.126116,11.771696,1.159003,-0.226104,0.270478
2390456079,119.996155,-21.148127,21.043346,1.148936,-0.396333,0.209353
2390466101,123.187607,-21.996780,32.965164,1.154600,-0.532741,0.167729
2390476123,120.208679,-28.341457,48.322018,1.178370,-0.560548,0.078726
2390486148,150.300186,-30.457613,65.219238,1.106391,-0.340132,0.027399
2390496166,213.462418,-33.290001,74.123375,0.975944,0.011489,0.145908
2390506188,256.949707,-37.997032,68.248283,0.859954,0.325364,0.419245
2390516210,250.285095,-37.269512,50.746140,0.779917,0.631335,0.757734
2390536254,127.559486,-21.974627,23.058313,0.676300,0.855451,0.924106
2390546278,56.682076,-11.850991,21.062897,0.635841,0.643044,0.717072
2390556296,-4.026291,2.980265,27.867992,0.690031,0.290766,0.501505
2390566318,-33.575680,29.677067,45.682816,0.811668,-0.150338,0.345613
2390576340,-21.940426,56.736206,69.413292,0.857684,-0.610870,0.320799
2390586362,0.482256,56.085072,84.234795,0.715910,-1.033047,0.419391
2390596383,6.068737,25.126818,76.709595,0.359648,-1.391878,0.437595
2390606405,-0.552773,-3.261171,48.553795,0.005798,-1.502715,0.238359
2390616427,-6.088987,-24.673489,18.554689,0.148046,-1.323430,-0.063075
2390626449,24.510593,-80.944794,19.150345,0.856386,-1.039649,-0.323909
2390636471,143.985886,-178.031876,55.046284,1.547424,-0.831927,-0.473531
2390646493,349.100250,-291.477081,83.185600,1.958261,-0.525154,-0.517492
2390656515,558.976685,-407.917480,85.571854,2.166488,-0.027607,-0.370036
2390666536,637.486206,-462.131348,88.449402,2.578837,0.475033,0.095886
2390676558,528.580444,-359.864288,98.375381,2.779347,1.034539,0.423224
2390686580,309.063171,-129.882919,81.389511,2.493081,1.495569,0.447736
2390696602,124.690239,76.577530,20.960672,1.696457,1.693534,0.254188
2390706624,66.584892,161.342163,-52.815224,0.948996,1.651875,0.432254
2390716646,59.073036,139.382767,-86.257362,0.549639,1.501104,0.715004
2390726667,9.229368,76.460052,-56.104362,0.448741,1.187590,0.771482
2390736689,-72.944756,22.961876,12.500983,0.420880,0.761135,0.516778
2390746711,-155.380524,-5.028623,80.032906,0.423690,0.330096,0.171292
2390756733,-209.152405,-11.509780,133.657471,0.588762,-0.144955,-0.150249
2390766755,-123.212280,51.480167,186.830841,0.922315,-0.852765,-0.214260
2390776779,29.435905,110.209000,222.447021,0.743222,-0.886855,-0.055958
2390786800,60.431290,45.647232,211.178162,0.412502,-0.968081,0.278433
2390796822,70.401703,-49.868011,152.043579,0.086644,-1.101855,0.342163
2390806844,150.276123,-98.051826,79.300987,0.097470,-0.806114,0.213613
2390816866,227.558365,-131.930054,37.693104,0.358466,-0.351078,0.315736
2390826888,243.392532,-184.470551,24.319828,0.601779,-0.049152,0.363275
2390836909,239.028824,-220.860046,21.873652,0.843795,0.167366,0.322468
2390846931,237.000031,-221.921127,24.678507,1.126659,0.339140,0.305635
2390856953,224.414139,-198.360687,30.481688,1.380894,0.473418,0.238829
2390866975,185.704086,-155.518188,34.760437,1.518828,0.556187,0.170688
2390876997,128.787994,-98.737297,35.051720,1.576034,0.579535,0.114283
2390887019,72.581406,-39.556343,32.836494,1.559588,0.508159,0.093994
2390897041,30.584618,9.291954,33.630348,1.494822,0.394096,0.171850
2390907063,5.998977,42.469460,38.145149,1.420629,0.241065,0.287288
2390917093,3.399529,57.308743,39.202377,1.220003,0.057082,0.298995
2390927105,21.909775,57.394348,28.531891,0.964310,-0.107270,0.289197
2390937127,37.165138,50.031990,13.215767,0.832652,-0.258224,0.371239
2390947148,37.309219,32.699680,7.456381,0.812713,-0.337484,0.438028
2390957170,49.759930,8.081078,14.560628,0.871555,-0.390723,0.384089
2390967192,86.130669,-20.995823,24.243517,0.949120,-0.412674,0.258467
2390977214,133.216522,-43.108406,25.350883,0.988741,-0.353818,0.159396
2390987236,166.547897,-49.221737,16.522905,1.014302,-0.187644,0.146375
2390997258,168.462952,-48.864136,4.166246,1.044216,0.004416,0.141367
2391007280,151.529541,-43.320343,-5.003486,1.081515,0.157667,0.105413
2391017302,132.496216,-25.776415,-4.371333,1.132029,0.240713,0.070682
2391027323,116.941292,1.575855,10.547274,1.193306,0.179467,0.074002
2391037345,100.154327,25.011629,35.215210,1.218552,0.013379,0.103417
2391047367,91.154068,45.108868,53.884331,1.169184,-0.170396,0.129337
2391057389,90.538620,61.060360,64.295807,1.186616,-0.310845,0.208194
2391077433,114.038368,48.663456,92.056023,1.216217,-0.254103,0.324115
2391087455,176.917557,30.655300,89.823502,0.918750,0.025462,0.419965
2391097476,203.379425,4.589591,83.459198,0.782165,0.248002,0.627626
2391107498,183.400116,-17.743282,74.415359,0.760524,0.371464,0.761559
2391117520,146.947784,-22.123404,67.324471,0.776713,0.414670,0.793914
2391127542,107.375664,-12.298918,68.685150,0.781009,0.324411,0.702007
2391137564,74.488480,-3.694900,73.180176,0.736648,0.158815,0.555376
2391147587,58.500622,-0.275728,73.741386,0.660596,0.005139,0.453208
2391157609,55.094208,-1.004139,70.004753,0.591497,-0.116163,0.429305
2391167631,56.165661,-1.813327,64.268341,0.549007,-0.254156,0.446522
2391177653,65.419220,2.203599,56.621014,0.464568,-0.365171,0.476684
2391187675,74.057510,5.215346,43.616062,0.315444,-0.445440,0.464604
2391197696,76.606300,-2.792538,22.013842,0.292618,-0.519027,0.377824
2391207718,79.021500,-31.714317,7.288885,0.552054,-0.599002,0.295161
2391217740,93.125214,-82.188644,21.627048,1.065852,-0.686087,0.159970
2391227762,146.389160,-136.376633,67.223457,1.586467,-0.749617,-0.006684
2391237784,233.150650,-182.962326,113.089142,1.886760,-0.698370,-0.138567
2391247805,311.969727,-211.890564,129.226700,1.937028,-0.461460,-0.152173
2391257827,343.300415,-195.063873,119.082039,1.881227,-0.068537,0.007874
2391277871,247.056580,-74.326492,87.129959,1.529398,0.631802,0.109869
2391287893,211.476822,-10.193607,48.778313,1.241844,0.969874,0.273229
2391297913,182.986023,26.995291,8.203711,0.904280,1.313581,0.706943
2391307935,136.069748,21.902393,-15.170370,0.578297,1.480661,1.121805
2391317957,67.631752,-15.187832,-8.805438,0.478896,1.335109,1.060552
2391327979,-6.549911,-46.803898,23.911953,0.592136,0.947605,0.635941
2391338001,-63.324409,-41.962521,66.258537,0.814165,0.425468,0.250198
2391348023,-66.070564,6.249168,112.568497,1.074521,-0.086625,0.120853
2391358045,-28.604797,54.604111,149.062363,1.097551,-0.421347,0.148912
2391368066,-9.374379,63.988388,163.304626,0.904126,-0.693247,0.195994
2391378088,-10.687476,45.529381,150.777191,0.607562,-0.913531,0.233339
2391388110,7.313229,21.571903,117.674606,0.260221,-1.028244,0.316602
2391398132,63.252983,-18.246620,76.525475,0.099326,-0.844360,0.373816
2391418176,178.747375,-147.775467,33.008537,0.538594,-0.234404,0.258002
2391428198,210.727310,-185.675674,19.939491,0.848522,-0.057174,0.295039
2391438219,224.298492,-194.977875,14.480956,1.194848,0.096796,0.417751
2391448241,214.639008,-177.074631,20.830799,1.465858,0.223980,0.488057
2391458263,184.418579,-135.574539,31.033710,1.577484,0.289066,0.416228
2391468285,138.781982,-83.391769,36.712795,1.526008,0.306224,0.287884
2391478307,93.557472,-38.811848,38.464870,1.364217,0.260971,0.175455
2391488329,66.664642,-6.879915,40.652100,1.181842,0.184354,0.145803
2391498351,57.682304,10.246799,45.504303,1.045619,0.094660,0.218020
2391508373,55.892982,10.721870,50.560886,0.993444,-0.017694,0.356043
2391518396,56.797642,1.234761,49.100204,0.980627,-0.141169,0.450016
2391528417,64.007164,-8.898556,42.533249,0.981867,-0.237365,0.488148
2391538439,76.288597,-19.584181,34.465210,0.935244,-0.245973,0.436893
2391548461,86.679977,-29.248646,28.696192,0.869947,-0.186061,0.317200
2391558483,91.546661,-36.505836,24.429968,0.835128,-0.126700,0.184441
2391568505,95.115349,-38.745384,20.306080,0.831985,-0.111246,0.096705
2391578527,97.672539,-34.567799,19.002649,0.876635,-0.116810,0.075591
2391588549,96.600853,-24.229424,20.113363,0.958845,-0.113131,0.148997
2391598570,91.893585,-10.573096,23.244808,1.054017,-0.105314,0.291657
2391608592,91.922546,-3.153016,27.290504,1.070139,-0.103017,0.389902
2391618614,104.809357,-5.748708,26.569454,0.956514,-0.120338,0.331493
2391628636,122.185287,-11.649455,20.362406,0.820643,-0.153877,0.203497
2391638658,124.542892,-10.135191,11.856120,0.755315,-0.193490,0.162741
2391648680,103.927505,0.626269,3.593408,0.771406,-0.261952,0.183999
2391658704,83.800827,10.325490,0.386502,0.893138,-0.302226,0.187042
2391668722,76.842796,-2.540577,8.146493,1.221094,-0.360179,0.264754
2391678744,87.895844,-21.875080,32.991852,1.450383,-0.291601,0.238550
2391688766,140.328339,-13.563548,57.920441,1.327165,-0.048976,0.177014
2391698788,184.903030,3.758656,59.497353,0.993998,0.221655,0.224424
2391708810,179.027802,22.133945,41.180168,0.741369,0.493665,0.401512
2391718832,139.687347,32.510189,19.287508,0.632320,0.742506,0.722234
2391728853,84.528137,26.625929,11.853906,0.609287,0.868383,0.959564
2391738875,25.220564,20.101057,25.387787,0.657651,0.724336,0.983503
2391758919,-56.215832,40.722549,56.587757,0.853502,-0.057422,0.672002
2391768941,-78.415337,63.302986,61.886585,0.765884,-0.442859,0.418708
2391778962,-103.410439,82.977852,57.199150,0.548161,-0.767385,0.249726
2391788984,-132.358276,84.987015,41.207466,0.244653,-1.151456,0.190589
2391799006,-153.585236,61.872826,16.373583,0.138543,-1.463843,0.115551
2391809028,-130.445862,5.101696,6.742210,0.581127,-1.478250,-0.226338
2391839094,416.245697,-293.978638,91.769394,1.953999,-0.584362,-0.644678
2391849115,578.324280,-375.700104,67.794800,1.817639,-0.171341,-0.569693
2391859137,630.740906,-383.421051,36.378506,1.940864,0.258144,-0.253500
2391869159,533.599792,-272.314941,16.982138,2.194397,0.676405,0.191747
2391879181,327.696869,-64.642128,8.095024,2.223925,1.134373,0.520859
2391889204,121.566582,113.328476,1.660352,1.839714,1.462789,0.711634
2391899226,18.739874,153.231094,4.711740,1.176643,1.507014,0.763419
2391909248,5.994425,95.863487,19.368935,0.693271,1.290001,0.690301
2391919270,-8.854681,39.066566,48.318401,0.528380,0.899412,0.521885
2391929292,-52.738113,17.275551,82.622604,0.522749,0.471743,0.321616
2391939314,-115.368179,9.376805,110.749435,0.661005,0.077076,0.191866
2391949335,-126.278816,24.795330,133.109634,0.967647,-0.428400,0.039861
2391959357,-35.281898,76.452942,146.091278,1.046697,-0.730734,0.023632
2391969379,34.807850,81.057312,141.831818,0.778838,-0.740771,0.172528
2391979401,48.355675,36.508717,115.212685,0.427103,-0.705287,0.190242
2391989423,80.677208,3.856823,77.559433,0.174943,-0.517925,0.186854
2391999444,139.347656,-25.925055,49.894730,0.153443,-0.217439,0.267977
2392009466,184.406677,-76.501678,31.541708,0.243013,0.067355,0.375717
2392019488,207.846649,-133.607849,21.146517,0.431124,0.282798,0.427026
2392029510,215.714355,-171.939102,17.252338,0.747945,0.367790,0.406241
2392039531,204.586349,-174.528076,19.138023,1.160914,0.319386,0.392723
2392059574,108.793968,-71.035133,42.065769,1.636586,0.165236,0.308975
2392069596,57.638657,-6.261674,45.946869,1.566243,0.117390,0.203972
2392079618,30.652111,34.422356,39.304558,1.412432,0.052283,0.186088
2392089640,31.132999,48.783482,30.937643,1.294833,0.014458,0.308451
2392099662,50.425243,41.391712,25.555326,1.220945,-0.022257,0.447877
2392109684,72.109390,23.006601,18.671879,1.114443,-0.037740,0.506406
2392119706,81.156097,8.568514,9.474214,1.019152,-0.023092,0.443861
2392129727,77.831596,5.922168,0.223119,1.018394,0.001283,0.334218
2392139749,69.909706,10.410675,-5.860732,1.064445,0.035954,0.282555
2392149771,62.343487,13.472754,-5.714197,1.105806,0.062388,0.291926
2392159793,59.521145,15.377452,-1.092907,1.118222,0.076042,0.289536
2392169815,59.165798,18.648285,3.843381,1.062104,0.104585,0.237724
2392179837,55.091496,23.790657,5.576256,0.959473,0.143286,0.183121
2392189859,45.529785,33.786179,5.457278,0.876317,0.153831,0.183155
2392199880,35.585815,49.515060,10.013444,0.850474,0.118907,0.241705
2392209902,35.264225,65.573273,21.671955,0.823318,0.060264,0.320471
2392219924,40.833351,70.760475,40.152050,0.774265,0.026216,0.401423
2392229946,48.532310,59.513214,58.798950,0.749125,-0.020904,0.414193
2392239968,66.322777,41.062542,67.623871,0.755246,-0.061037,0.373963
2392249990,87.196030,20.779572,64.329041,0.781325,-0.058316,0.325513
2392260013,101.355019,4.937426,52.655643,0.890529,-0.018593,0.271174
2392270035,112.412331,5.452955,37.211891,1.006512,0.046516,0.261651
2392280057,118.573753,24.901588,28.735668,1.042005,0.163639,0.343612
2392290079,112.925423,44.366405,33.514385,1.005454,0.293224,0.436415
2392300100,98.688614,49.689514,45.762074,0.949669,0.364504,0.470198
2392310122,87.964699,45.264053,54.807598,0.973912,0.389658,0.468893
2392320144,86.130074,40.978592,54.246727,1.096156,0.354874,0.450590
2392330166,87.371445,48.391750,45.271080,1.232713,0.286494,0.480558
2392340188,79.477966,71.742645,33.623058,1.246511,0.201458,0.574590
2392350210,54.268742,106.467285,29.380138,1.039522,0.105787,0.631954
2392360232,19.639708,132.782990,35.151649,0.848112,0.014530,0.626393
2392370253,2.608407,132.799362,38.847580,0.737624,-0.094099,0.604996
2392380275,13.991060,116.842400,36.855579,0.676898,-0.167041,0.629190
2392390297,39.188644,92.314323,33.165924,0.628693,-0.126265,0.721185
2392400319,60.793716,64.186920,30.147150,0.620579,-0.015345,0.788129
2392410344,63.123539,42.978550,29.219906,0.683627,0.097467,0.785474
2392420361,51.250938,33.655708,30.462492,0.798824,0.200583,0.735389
2392430383,40.168209,32.067928,27.791143,0.919081,0.264494,0.695316
2392440405,26.601864,39.040020,23.668030,0.972333,0.281982,0.652406
2392450427,0.795802,58.642601,25.660511,0.908828,0.255102,0.611194
2392460449,-30.794569,81.534035,28.440826,0.785844,0.168845,0.606820
2392470470,-54.137089,93.927017,25.972147,0.659794,0.051430,0.623984
2392480492,-66.126831,96.427139,18.748148,0.554094,-0.068218,0.651695
2392490514,-68.057022,92.775970,8.771196,0.504719,-0.167726,0.656526
2392500536,-59.177490,80.359390,-1.371770,0.514208,-0.212024,0.627281
2392510558,-41.738770,61.688801,-8.923281,0.561878,-0.206246,0.567310
2392520580,-27.502724,45.318378,-12.094746,0.696284,-0.185010,0.530059
2392530601,-26.859720,39.252495,-12.032994,0.887192,-0.205884,0.535086
2392540623,-32.917488,52.133423,-11.785414,0.942528,-0.242441,0.511392
2392550645,-43.471294,85.720413,-16.200573,0.748473,-0.243964,0.478850
2392560667,-61.985172,122.366417,-28.053997,0.525083,-0.231264,0.561420
2392570689,-72.739532,143.164413,-43.060196,0.439590,-0.277077,0.754735
2392580711,-71.376274,148.873520,-55.143425,0.383881,-0.379935,1.012833
2392590733,-80.160248,142.797028,-62.932411,0.275135,-0.486135,1.253637
2392600754,-104.437057,120.574936,-70.541641,0.198454,-0.591429,1.334247
2392620798,-112.339287,64.969635,-82.587280,0.267740,-0.712592,0.963017
2392630820,-93.708054,52.153660,-83.266525,0.188148,-0.689950,0.928927
2392640843,-74.731117,45.112198,-87.763031,0.058759,-0.647010,1.050902
2392650865,-62.865673,39.428261,-95.665009,0.003518,-0.597672,1.327777
2392660887,-64.471695,24.679169,-107.035721,-0.028982,-0.568738,1.528691
2392670909,-76.010849,0.754933,-123.014473,-0.034512,-0.419323,1.303448
2392680930,-102.138367,-35.137154,-142.877289,0.126696,-0.293883,0.933038
2392690952,-104.714020,-62.930370,-159.042999,0.427034,-0.248444,0.704696
2392700974,-87.495468,-83.514786,-163.604645,0.713176,-0.179428,0.630286
2392710996,-85.629326,-98.363632,-153.594467,0.908263,-0.133608,0.538285
2392721018,-94.192780,-79.450912,-131.453629,1.108667,-0.284413,0.472710
2392731040,-115.522545,-26.201899,-108.135101,1.201648,-0.523896,0.427659
2392741062,-141.585220,39.471188,-83.832130,1.128939,-0.759897,0.394843
2392751084,-156.653687,95.377678,-54.698036,0.983882,-1.056567,0.369829
2392761106,-148.273376,136.702515,-22.088394,0.695469,-1.364872,0.430357
2392771127,-128.400299,136.025574,-1.975455,0.182780,-1.773542,0.744453
2392781170,-78.148193,68.465538,-18.081982,-0.412050,-2.041475,1.036394
2392791170,8.186018,-31.179562,-54.897568,-0.543374,-1.545453,0.651138
2392801192,73.018188,-95.836197,-76.923759,-0.279875,-1.005727,0.294444
2392811213,109.474205,-126.854843,-91.801086,0.018983,-0.685892,0.211319
2392821235,135.943298,-139.057236,-98.909897,0.327053,-0.529176,0.281834
2392831257,141.755966,-138.636230,-98.025429,0.575587,-0.351075,0.537650
2392841279,121.385139,-133.614319,-91.246078,0.726353,-0.117068,0.833079
2392851301,85.537483,-132.317490,-82.043808,0.804064,0.051189,0.937869
2392861323,56.467072,-128.215378,-75.349251,0.806217,0.175935,0.821229
2392871345,40.976013,-116.662628,-72.011238,0.819152,0.224772,0.643565
2392881366,23.954165,-99.697449,-69.961723,0.861990,0.193965,0.507201
2392891388,-1.786724,-70.288025,-63.545166,0.935714,0.097651,0.452816
2392901410,-33.475853,-31.855940,-50.235073,1.020634,-0.055052,0.464893
2392911432,-56.491909,3.588733,-37.933311,1.024940,-0.206364,0.552302
2392921454,-66.126144,24.821529,-30.550718,0.916566,-0.308918,0.693658
2392931476,-67.984680,26.009975,-28.038792,0.792723,-0.429894,0.802277
2392941497,-56.509655,11.616648,-34.466824,0.672854,-0.525232,0.809108
2392971563,0.280927,-42.171555,-73.095238,0.698063,-0.375385,0.380692
2392981585,9.334663,-43.820004,-70.618584,0.816750,-0.295602,0.388730
2393001629,15.777670,-37.069099,-54.995914,0.894005,-0.128633,0.516107
2393011652,11.545081,-29.689610,-47.992081,0.822798,-0.012780,0.554690
2393021674,4.003951,-23.888922,-42.576466,0.767320,0.075488,0.568306
2393031696,-4.741504,-21.172775,-36.493526,0.744716,0.106262,0.591376
2393041717,-12.797131,-19.522232,-32.426098,0.799575,0.065264,0.582829
2393051739,-17.438988,-14.364758,-31.999231,0.865215,-0.007514,0.538751
2393061761,-20.960745,-5.909067,-30.502277,0.860968,-0.089030,0.478210
2393071783,-24.540506,1.285565,-27.662863,0.814510,-0.163300,0.424404
2393081805,-24.065247,4.281442,-24.088739,0.746717,-0.183156,0.387473
2393091827,-18.742889,2.895667,-19.328711,0.690006,-0.147338,0.382028
2393101855,-9.236226,-0.683720,-16.777521,0.695995,-0.108893,0.390677
2393111870,-1.469491,-1.861071,-17.079742,0.723900,-0.069516,0.447186
2393121892,-5.661182,1.564519,-13.409296,0.750024,-0.036943,0.517030
2393131914,-17.395588,9.132216,-7.932727,0.766850,-0.042748,0.530675
2393141936,-24.320534,18.685448,-6.212639,0.798347,-0.077713,0.501331
2393151958,-24.216721,25.784363,-6.311566,0.852106,-0.148912,0.474452
2393161996,-21.931984,29.430397,-7.033414,0.893552,-0.212391,0.455795
2393172000,-19.787502,33.655479,-4.935965,0.881578,-0.224348,0.441786
2393182022,-15.767288,40.510658,1.319443,0.813655,-0.211263,0.421334
2393192044,-9.912980,43.776814,7.777494,0.742241,-0.217183,0.437977
2393202066,-4.000407,39.181599,9.351585,0.690266,-0.215335,0.509690
2393212088,-0.894879,30.026485,6.700500,0.697502,-0.202693,0.583020
2393222110,0.325800,22.818428,3.284959,0.789125,-0.196603,0.631346
2393232131,1.155873,20.246693,-1.107113,0.912425,-0.200707,0.647030
2393252175,-32.537804,16.161716,-22.602772,1.121754,-0.166882,0.664850
2393262197,-64.299316,18.568386,-38.954178,1.197964,-0.155518,0.654570
2393272219,-92.578430,37.471031,-43.173840,1.177853,-0.084907,0.419309
2393282241,-103.338936,73.195671,-27.050507,1.034881,-0.011505,0.139245
2393292263,-82.073479,110.144669,1.259181,0.886533,-0.084596,0.087779
2393302284,-44.243637,127.590637,28.393740,0.758649,-0.292891,0.215663
2393312306,-17.556763,122.981506,38.874336,0.612808,-0.527110,0.427390
2393322328,-9.700747,110.263092,31.619221,0.501122,-0.663682,0.597773
2393332350,-12.283130,95.240891,19.540133,0.450244,-0.624136,0.665540
2393342372,-10.218387,76.446663,11.740936,0.464904,-0.449451,0.621961
2393352394,5.676246,62.506645,7.716445,0.522414,-0.234340,0.584188
2393362416,21.807777,56.624256,6.135611,0.589708,-0.025364,0.650691
2393372438,23.549500,58.173946,7.568268,0.646482,0.131571,0.810231
2393382459,6.927654,73.558731,11.596969,0.683087,0.208419,1.047673
2393392482,-29.875336,104.131844,15.446074,0.655170,0.166774,1.381035
2393402504,-85.603447,136.209595,16.102043,0.518887,0.038751,1.698296
2393412526,-140.724213,149.099503,9.762668,0.300598,-0.163131,1.794693
2393422548,-165.013092,139.021057,-2.840316,-0.008158,-0.372116,1.706032
2393432570,-148.655502,112.930992,-15.221760,-0.342237,-0.576034,1.634988
2393442592,-126.792732,66.298172,-29.530563,-0.663346,-0.794113,1.549043
2393452614,-116.642563,21.635529,-45.915024,-0.683668,-0.822848,1.166562
2393462635,-116.819336,8.452394,-54.068020,-0.514106,-0.677829,0.722853
2393472657,-140.648636,-26.161180,-65.996155,-0.327826,-0.488441,0.321872
2393482679,-121.473358,-89.301750,-83.346542,0.037459,-0.242380,0.059572
2393492701,-60.598423,-190.010757,-101.072540,0.515539,-0.038556,-0.036946
2393502723,16.371721,-299.792572,-116.414566,1.056251,-0.063840,-0.218336
2393512745,119.176636,-346.141785,-122.095627,1.587678,-0.372793,-0.413113
2393522766,212.204559,-298.547180,-80.968491,1.885947,-0.546388,-0.402218
2393532788,204.386719,-207.501053,-17.442801,2.412682,-0.603504,0.049494
2393542813,112.500984,-75.421158,31.375877,2.974018,-0.609366,0.625039
2393552831,16.011826,63.928650,45.818756,2.689866,-0.434286,0.822180
2393562853,-46.727043,146.372665,42.047012,1.694024,-0.254676,0.652821
2393572874,-74.538124,182.628143,56.563599,0.949854,-0.265521,0.511818
2393582896,-59.200840,198.564301,63.546429,0.328472,-0.336764,0.692506
2393592918,-29.072571,158.052063,52.627171,-0.386749,-0.499872,1.586145
2393602940,-4.315072,17.690498,16.870718,-0.877006,-0.780538,1.897163
2393612962,15.757196,-86.444763,-24.765385,-0.429471,-0.684859,0.958242
2393622984,31.729309,-106.748276,-49.292908,0.088375,-0.522695,0.555720
2393633006,50.089989,-112.800491,-52.383862,0.308060,-0.371220,0.425698
2393643027,58.239655,-105.795860,-43.905243,0.385237,-0.277964,0.420758
2393653049,52.923691,-93.596275,-36.212006,0.398308,-0.177399,0.486304
2393663071,36.622368,-84.974785,-28.629246,0.354266,-0.060610,0.584257
2393693136,-3.341796,-88.565903,-12.001045,0.185507,-0.016554,0.653311
2393703158,-4.443037,-98.387283,-16.965685,0.274088,-0.116893,0.552452
2393713180,-2.076558,-106.600571,-22.476475,0.423361,-0.225632,0.474503
2393723202,3.433166,-111.272324,-22.834269,0.633296,-0.339501,0.442925
2393733224,12.909218,-112.737366,-17.359419,0.876752,-0.473526,0.441622
2393743246,27.305166,-112.898621,-10.277968,1.086667,-0.565919,0.454661
2393753268,43.461975,-111.222771,-4.857310,1.213971,-0.575721,0.447296
2393763290,53.882362,-106.122864,-2.108021,1.209310,-0.477500,0.404753
2393773313,56.038406,-94.753304,-0.398329,1.125224,-0.307393,0.380702
2393783335,51.453316,-79.653206,2.182297,1.061204,-0.166306,0.393819
2393793357,39.929268,-67.344177,4.727345,1.028236,-0.075154,0.449273
2393803379,25.859432,-58.301308,7.142633,0.984128,-0.018677,0.527511
2393813401,13.209013,-53.941856,9.201023,0.942091,-0.009103,0.603967
2393823422,1.025164,-56.317940,9.235740,0.915714,-0.051395,0.626156
2393833444,-8.004393,-62.803032,5.029619,0.895770,-0.123251,0.557774
2393843466,-10.188055,-67.593239,-3.085449,0.902481,-0.175553,0.450094
2393853488,-5.394500,-71.781807,-12.046886,0.923261,-0.182702,0.362355
2393863510,2.185053,-76.428329,-19.901743,0.945467,-0.161639,0.295881
2393873531,8.027893,-77.713142,-26.238041,0.955443,-0.137519,0.248412
2393883553,9.012468,-72.121536,-29.907658,0.979689,-0.115764,0.230929
2393893575,7.868113,-59.487797,-29.011868,0.994349,-0.096813,0.234521
2393903597,5.671417,-42.974392,-22.824581,0.957672,-0.081513,0.257070
2393913619,0.455048,-30.105196,-13.258646,0.870199,-0.056343,0.303567
2393923644,-5.950912,-27.740883,-7.574226,0.807988,-0.037601,0.345566
2393933661,-9.081451,-34.854279,-11.672615,0.840535,-0.051239,0.367585
2393943683,-6.251296,-40.363609,-20.495857,0.943624,-0.098267,0.356162
2393953705,1.022201,-32.998184,-22.646004,1.029686,-0.152582,0.335753
2393963727,7.046407,-16.902861,-17.648857,1.032639,-0.177107,0.329058
2393973748,4.396290,-6.408992,-11.848554,0.959713,-0.176896,0.333257
2393983770,-6.551402,-4.862694,-8.520683,0.862770,-0.188240,0.328637
2393993792,-16.423729,-7.056561,-4.511876,0.795844,-0.203296,0.326816
2394003814,-15.861906,-14.532808,2.850158,0.787666,-0.222159,0.348762
2394013836,-2.209007,-31.082138,6.341725,0.844692,-0.255982,0.378410
2394023857,15.857307,-50.071926,0.035105,0.962289,-0.249185,0.401974
2394033880,27.264320,-59.464069,-6.686629,1.066799,-0.182792,0.394906
2394043901,28.068020,-54.404053,-9.683947,1.111710,-0.094123,0.369738
2394053923,19.067310,-41.263199,-11.730011,1.089824,-0.013463,0.334133
2394063945,4.690124,-25.107737,-13.570100,1.037397,0.033332,0.292394
2394073967,-10.304399,-8.647055,-13.958268,0.972474,0.023663,0.258313
2394083989,-22.234697,3.754022,-10.328395,0.924736,-0.049211,0.268399
2394094011,-23.965557,7.482957,-3.462183,0.902573,-0.159713,0.321773
2394104033,-16.625029,1.961061,2.185242,0.871153,-0.255517,0.371498
2394114054,-8.676228,-9.249046,2.591994,0.838686,-0.306773,0.377147
2394124076,-1.994090,-20.733971,-2.065069,0.850796,-0.298717,0.331464
2394134098,7.311407,-28.101526,-6.593771,0.904675,-0.241066,0.271657
2394144120,16.414310,-28.748322,-7.653332,0.944854,-0.180502,0.233030
2394164165,17.272217,-16.268860,-7.961203,0.972123,-0.081429,0.298327
2394174187,11.472557,-9.074099,-9.081519,0.946133,-0.036089,0.361676
2394184209,5.243451,-6.271655,-9.066882,0.921987,-0.017106,0.415060
2394194231,1.070945,-10.691435,-8.573615,0.908772,-0.021401,0.423921
2394204252,-0.668997,-16.876331,-7.320263,0.897082,-0.049565,0.363250
2394214274,-1.219511,-18.563217,-7.329684,0.915769,-0.082945,0.299749
2394224296,-0.614608,-18.047394,-8.447081,0.943852,-0.099745,0.278788
2394234318,1.373651,-17.350433,-9.742857,0.981315,-0.104828,0.283838
2394244340,2.619215,-14.403229,-11.492166,1.006466,-0.110998,0.314664
2394254361,0.982106,-9.689799,-12.413503,1.017821,-0.123069,0.358002
2394264383,-2.248403,-6.570418,-11.736509,1.000684,-0.131227,0.379248
2394274405,-5.605884,-7.813415,-10.368771,0.953939,-0.130180,0.351767
2394284427,-6.506082,-11.490944,-9.413724,0.927839,-0.144961,0.296343
2394294449,-3.562943,-15.111433,-9.448103,0.928364,-0.167476,0.260297
2394304470,-0.053596,-17.318558,-9.213902,0.929396,-0.162876,0.243150
2394314491,0.661903,-17.835814,-8.746563,0.921447,-0.133250,0.238842
2394324513,-0.165454,-17.879633,-6.378507,0.922145,-0.105592,0.257556
2394334535,0.279381,-19.444965,-4.612992,0.937636,-0.090234,0.270106
2394344557,2.765769,-19.630356,-6.445035,0.952530,-0.082288,0.265233
2394354579,3.731789,-17.185139,-9.486835,0.960736,-0.069658,0.263732
2394364601,1.204125,-14.067764,-11.908257,0.949438,-0.060122,0.248093
2394374622,-2.935222,-11.237748,-14.164685,0.938760,-0.068566,0.243351
2394384644,-8.017481,-9.789967,-15.803112,0.951081,-0.096367,0.256781
2394394666,-11.917051,-11.276836,-16.914555,0.977181,-0.116532,0.270612
2394404688,-12.182549,-14.423445,-17.244749,0.997928,-0.115455,0.285868
2394414710,-9.278546,-15.763416,-16.671520,1.011187,-0.094922,0.278512
2394424732,-6.769661,-14.686521,-17.194584,1.003303,-0.065449,0.253265
2394434754,-7.867272,-11.783067,-19.322035,0.981264,-0.032514,0.223698
2394444775,-11.165158,-8.755591,-20.320463,0.956237,-0.013072,0.212976
2394454797,-13.740110,-5.575781,-19.221928,0.937223,-0.015851,0.217958
2394464819,-16.268158,-3.474925,-17.269485,0.926765,-0.055702,0.232414
2394474841,-18.106285,-3.184367,-16.950933,0.922029,-0.104236,0.243159
2394484863,-15.554051,-4.691455,-16.831947,0.939164,-0.126825,0.256217
2394494885,-8.567688,-10.032993,-16.423365,0.962085,-0.117319,0.256670
2394504907,-2.298994,-14.963919,-17.000050,0.981189,-0.081315,0.257423
2394514928,-1.116243,-15.056518,-17.816568,1.001462,-0.039854,0.258867
2394524951,-5.813046,-12.438184,-18.621044,1.017122,-0.014156,0.264596
2394534974,-13.799262,-7.338513,-17.939934,1.016383,-0.013557,0.270231
2394544995,-20.887190,-3.181763,-16.502991,0.996231,-0.033120,0.271520
2394555017,-21.814014,-4.016774,-15.916103,0.971477,-0.057783,0.264077
2394565039,-17.594780,-8.641578,-15.776478,0.958211,-0.067988,0.262607
2394575061,-13.392271,-14.102445,-15.635933,0.963127,-0.056794,0.257452
2394585083,-12.714967,-17.234661,-15.958134,0.974042,-0.034966,0.247701
2394595105,-14.418793,-16.746946,-16.402630,0.980086,-0.009413,0.238794
2394605126,-17.304138,-14.023554,-16.733524,0.992786,0.009084,0.225988
2394615148,-21.486282,-10.889206,-18.395683,1.003351,0.018121,0.211788
2394625170,-25.818104,-6.356221,-20.103729,0.997372,0.016622,0.193912
2394635192,-30.169827,-0.454144,-19.710264,0.970589,0.003301,0.187453
2394645214,-33.201298,3.288348,-18.974440,0.950039,-0.029129,0.198678
2394655236,-33.094666,2.087628,-18.349422,0.958638,-0.058768,0.227573
2394665257,-29.782028,-2.748487,-16.602804,0.969591,-0.079035,0.246212
2394675281,-24.918293,-7.236371,-14.990299,0.979987,-0.078834,0.245193
2394685300,-21.624128,-9.276405,-15.440252,0.987638,-0.039521,0.251116
2394695322,-22.645443,-9.063050,-16.209690,0.981483,0.012090,0.239901
2394705344,-26.564209,-5.730776,-16.685604,0.970933,0.035461,0.222697
2394715366,-32.336292,-0.603317,-17.560390,0.955067,0.034028,0.218587
2394725387,-38.295666,3.247093,-19.087709,0.944560,0.013976,0.222682
2394735409,-40.431381,4.220795,-21.372980,0.941344,-0.018384,0.229117
2394745431,-38.770401,2.515795,-23.608646,0.964320,-0.040891,0.240396
2394755453,-37.225330,-1.270566,-23.342655,0.995977,-0.057204,0.243675
2394765475,-35.704205,-3.961876,-21.904297,1.025008,-0.057384,0.228593
2394775497,-35.577209,-3.095061,-20.915710,1.031719,-0.048604,0.221286
2394805562,-44.160721,6.902010,-15.724618,1.005879,-0.056552,0.228446
2394815584,-43.058544,9.120854,-14.851443,0.981454,-0.080383,0.235748
2394825606,-42.087292,8.633451,-15.117452,0.959478,-0.098785,0.242477
2394835628,-40.423576,5.211388,-15.812619,0.951959,-0.116978,0.232557
2394845650,-37.478729,0.360053,-14.809759,0.956836,-0.134986,0.223455
2394855671,-34.487667,-5.083976,-13.364832,0.980233,-0.131919,0.217045
