Timestamp (us),Gyroscope X (deg/s),Gyroscope Y (deg/s),Gyroscope Z (deg/s),Accelerometer X (g),Accelerometer Y (g),Accelerometer Z (g)
756538086,0.004130,0.140545,-0.035421,0.994435,0.003707,-0.105185
756558129,0.126494,-0.080455,-0.013981,0.993078,0.003888,-0.104436
756578174,-0.002088,0.041668,0.064377,0.994255,0.002979,-0.105090
756598218,0.011255,0.033710,-0.042852,0.992267,0.003706,-0.103877
756618262,0.049675,-0.004358,-0.028112,0.993177,0.004526,-0.103985
756638307,0.002091,0.048724,-0.118846,0.993822,0.004164,-0.103723
756658351,-0.025097,0.094611,0.064967,0.992614,0.003523,-0.104881
756678396,-0.102539,0.079057,0.005256,0.992897,0.003160,-0.104432
756698440,0.111261,-0.035327,-0.006061,0.993429,0.003433,-0.105258
756718484,0.150559,-0.134019,0.069800,0.992264,0.003342,-0.104058
756738529,-0.011850,-0.004513,-0.026914,0.991774,0.003156,-0.105865
756758573,-0.012688,-0.057927,-0.072399,0.992317,0.004248,-0.106057
756778619,0.003858,0.048974,-0.011841,0.994350,0.003435,-0.104820
756798663,0.142816,0.018680,0.077134,0.993430,0.005252,-0.105080
756818708,0.088125,0.010938,0.032256,0.991350,0.003887,-0.104043
756838752,-0.167118,0.033218,-0.130900,0.993238,0.001885,-0.105797
756858796,0.057741,-0.004578,0.025531,0.992758,0.002436,-0.102159
756878841,0.156151,-0.004572,-0.014632,0.992906,0.003980,-0.103888
756898886,0.187807,0.041316,0.068600,0.992708,0.003705,-0.104702
756918928,-0.104103,0.079023,-0.002330,0.990259,0.002612,-0.103841
756938972,0.071935,-0.004787,0.009778,0.989331,0.004247,-0.104554
756959017,0.071205,-0.065784,-0.012943,0.989618,0.004430,-0.103833
756979061,0.056338,-0.134002,0.018156,0.991620,0.001976,-0.104408
756999106,-0.051875,-0.194784,-0.048309,0.992185,0.003161,-0.103421
757019150,-0.065529,-0.018996,0.035439,0.995532,0.002526,-0.105202
757039194,0.034422,-0.140705,0.064388,0.994177,0.002617,-0.104362
757059239,-0.058130,-0.033891,0.012228,0.995485,0.003986,-0.102752
757079283,0.110262,-0.003304,0.024143,0.992730,0.002798,-0.103611
757099327,0.214801,0.057386,-0.092674,0.993998,0.004254,-0.104089
757119372,0.033841,0.034703,0.071398,0.991076,0.005706,-0.103951
757139418,0.102074,-0.079607,0.047361,0.992364,0.004708,-0.103517
757159462,0.094014,-0.026170,0.031979,0.990982,0.004614,-0.104129
757179506,-0.053029,0.004144,-0.056966,0.994446,0.005346,-0.104462
757199551,0.063718,0.012029,0.055394,0.992930,0.004702,-0.107430
757219595,-0.006096,0.034723,0.003096,0.993057,0.004887,-0.105526
757239640,0.108205,-0.064318,-0.006453,0.993332,0.003796,-0.105529
757259684,-0.089829,0.072862,0.035139,0.993791,0.001886,-0.105534
757279727,-0.113435,0.034549,-0.017790,0.993140,0.003158,-0.106070
757299772,0.087164,-0.033754,0.085484,0.993092,0.003799,-0.103710
757319816,-0.106674,0.049594,-0.071577,0.992807,0.003160,-0.104339
757339861,-0.103682,0.019413,0.081289,0.990256,0.004340,-0.103935
757359905,-0.057636,-0.026339,0.080373,0.991363,0.001977,-0.103496
757379949,0.079824,-0.064363,0.062396,0.990523,0.003066,-0.104391
757399993,0.222443,-0.140573,-0.054779,0.989836,0.004616,-0.101931
757420037,0.099191,-0.048849,-0.083152,0.994186,0.002708,-0.103908
757440082,0.223260,0.004789,0.028992,0.992622,0.003433,-0.104427
757460126,0.060757,-0.033539,-0.051783,0.993077,0.003615,-0.104526
757480171,0.154109,-0.048466,0.053445,0.992535,0.004434,-0.104155
757500217,0.100775,-0.025370,0.077162,0.992365,0.005163,-0.103427
757520261,0.007552,0.050587,0.009814,0.993531,0.002888,-0.104714
757540305,0.037210,-0.086703,-0.043719,0.991786,0.004249,-0.105141
757560350,0.037064,-0.078800,-0.043706,0.992637,0.004435,-0.103612
757580394,0.037398,-0.032885,-0.020792,0.991347,0.004159,-0.104225
757600438,-0.092460,-0.025248,-0.010689,0.991060,0.004431,-0.104856
757620483,-0.099561,0.012991,-0.002948,0.991240,0.004249,-0.105041
757640526,-0.006806,-0.063124,0.048933,0.994802,0.004800,-0.105011
757660570,-0.076743,-0.024977,-0.018626,0.992971,0.003250,-0.105341
757680615,-0.099656,0.089138,-0.033873,0.992342,0.002704,-0.104784
757700659,0.007027,-0.010043,-0.066003,0.991995,0.002341,-0.103870
757720703,-0.084632,0.035596,-0.064249,0.994083,0.002525,-0.104541
757740748,0.068436,-0.078600,-0.051372,0.992621,0.003069,-0.104517
757760792,0.091980,-0.131534,-0.005711,0.991662,0.004428,-0.106864
757780836,0.130868,-0.100632,0.046851,0.993614,0.004616,-0.105082
757800881,0.030857,0.082279,0.025181,0.995180,0.002800,-0.104470
757820925,0.000207,0.051576,0.018183,0.993615,0.003706,-0.105080
757840970,0.107879,0.089582,0.061628,0.993422,0.004888,-0.105533
757861015,-0.008216,0.096766,-0.012586,0.989864,0.005065,-0.105291
757881060,-0.039395,0.066008,-0.049959,0.990167,0.004795,-0.103752
757901105,0.053160,0.005100,0.001988,0.990058,0.005339,-0.104659
757921148,0.030726,-0.154717,0.041140,0.991976,0.003522,-0.104780
757941193,-0.023153,-0.108740,0.019029,0.994088,0.003799,-0.104181
757961237,0.190626,-0.184463,0.015104,0.995348,0.003436,-0.105200
757981282,-0.054017,-0.016656,0.019213,0.993353,0.003070,-0.104439
758001324,0.045266,0.029096,0.009431,0.994379,0.002619,-0.103367
758021369,-0.048180,0.036363,-0.080427,0.993544,0.003435,-0.103989
758041413,-0.052903,0.074774,0.072469,0.990441,0.003886,-0.103846
758061458,-0.162740,0.013184,-0.093410,0.993991,0.004163,-0.104452
758081502,0.130849,0.028866,0.069106,0.992902,0.004798,-0.104071
758101547,0.008145,-0.054957,0.063919,0.993973,0.003979,-0.105450
758121591,0.115455,-0.031922,0.084464,0.991697,0.002521,-0.105136
758141635,0.074753,-0.032122,-0.037027,0.992603,0.002157,-0.105514
758161679,-0.054039,0.013726,0.026523,0.994416,0.002432,-0.106272
758181724,0.007210,0.013725,0.025211,0.992520,0.005524,-0.104883
758201770,-0.198947,-0.001604,0.036869,0.992244,0.005797,-0.104969
758221814,-0.054087,0.044032,-0.012026,0.991788,0.002885,-0.105138
758241859,-0.046538,0.051472,-0.027419,0.995072,0.002070,-0.105375
758261903,-0.091677,0.020936,0.011770,0.993816,0.003253,-0.104084
758281947,0.030390,0.043782,-0.013593,0.992899,0.003979,-0.104251
758301992,0.039112,0.051361,0.047352,0.993443,0.004344,-0.104443
758322036,0.045243,-0.025041,-0.021385,0.990871,0.004157,-0.105216
758342080,-0.040307,0.104271,-0.103999,0.993216,0.003893,-0.101987
758362123,-0.121505,0.050975,0.042928,0.992470,0.005437,-0.102703
758382168,-0.078034,-0.025539,-0.102716,0.993893,0.002979,-0.104902
758402212,-0.028619,-0.009806,0.087369,0.992352,0.004616,-0.104152
758422257,0.015227,-0.055763,-0.028000,0.992531,0.003797,-0.104426
758442301,0.024156,0.005494,0.048002,0.992635,0.002979,-0.103791
758462345,0.031292,0.066318,0.016985,0.993553,0.003254,-0.103535
758482390,0.039640,-0.055548,0.078208,0.992158,0.002613,-0.104872
758502434,-0.139194,-0.048279,-0.109343,0.994643,0.003346,-0.103826
758522478,0.215151,-0.078105,0.044491,0.994196,0.003983,-0.103275
758542523,0.006005,-0.055428,-0.081437,0.993844,0.006986,-0.102366
758562569,0.061691,0.013555,0.039613,0.992896,0.003615,-0.104432
758582613,0.047069,0.028803,0.077859,0.992612,0.004888,-0.104883
758602657,0.160100,-0.108447,0.007296,0.992916,0.005619,-0.103256
758622702,-0.115016,0.028780,0.012133,0.990719,0.003249,-0.103668
758642746,0.053367,-0.016939,0.016598,0.992237,0.004522,-0.105421
758662791,0.030591,-0.092980,0.040118,0.992807,0.003160,-0.104339
758682835,-0.023673,-0.062387,-0.004830,0.992620,0.002432,-0.104607
758702878,-0.039052,-0.016581,-0.012262,0.993870,0.000884,-0.106260
758722923,0.036887,0.029086,-0.044391,0.995435,0.003253,-0.105474
758742967,0.024014,0.128263,0.085382,0.990793,0.001974,-0.104666
758763011,-0.122666,-0.001627,0.012068,0.993979,0.003070,-0.105176
758783055,0.022785,0.104899,0.008914,0.991358,0.004160,-0.103590
758803100,0.145556,-0.016944,0.052726,0.990701,0.003612,-0.104576
758823144,0.044715,-0.040010,-0.014138,0.992258,0.004342,-0.104332
758843189,0.160445,-0.123399,0.060272,0.992250,0.003341,-0.104784
758863233,-0.145615,-0.054637,0.042974,0.992368,0.002706,-0.103423
758883277,-0.023655,-0.077466,0.010065,0.993727,0.002889,-0.103991
758903323,0.143165,-0.176353,-0.061577,0.993342,0.004070,-0.104985
758923368,-0.023930,-0.053894,0.017738,0.994296,0.004439,-0.102824
758943412,-0.017417,0.052472,-0.059184,0.992656,0.003527,-0.102613
758963456,0.158182,-0.099726,-0.054277,0.992819,0.004799,-0.103616
758983501,0.053444,-0.038253,0.085128,0.991639,0.002797,-0.103320
759003545,0.020649,-0.160271,-0.028622,0.994762,0.002894,-0.102375
759023590,0.052212,-0.015038,0.023857,0.993747,0.004802,-0.102815
759043632,0.135447,-0.053153,-0.008250,0.993639,0.001525,-0.103897
759063677,0.066607,0.053599,0.000336,0.993920,0.001799,-0.103539
759083721,0.127680,0.038188,0.006921,0.993442,0.002524,-0.104621
759103766,0.150220,-0.022875,0.006622,0.993819,0.002435,-0.103992
759123810,0.341431,-0.045389,0.048759,0.990605,0.005249,-0.104759
759143855,-0.179366,-0.022691,0.012780,0.992615,0.005707,-0.104703
759163899,0.120229,-0.083303,0.083550,0.995889,0.003890,-0.105573
759183943,0.024683,-0.015088,-0.121108,0.993269,-0.001206,-0.104340
759203988,0.187512,0.191000,0.012783,0.995463,-0.000292,-0.104197
759224032,0.215906,0.129380,-0.071647,1.008131,0.024215,-0.094468
759244077,-0.654287,0.380035,-0.024855,0.992010,0.021276,-0.097003
759264123,-1.604148,0.249728,0.161983,0.969658,0.030435,-0.095003
759284167,-2.073699,-0.169555,0.164592,0.994441,0.015626,-0.104115
759304211,-2.472591,-0.009193,0.194345,1.006851,-0.007822,-0.101383
759324256,-2.191553,0.211448,0.180081,0.986191,0.009797,-0.101151
759344300,-2.500098,-0.154626,0.148884,0.982873,0.012701,-0.102552
759364344,-2.958060,-0.161520,0.371495,0.998507,0.001898,-0.102437
759384389,-2.888221,0.029131,0.415341,0.992603,0.012902,-0.099995
759404431,-3.058711,-0.199820,0.297149,0.989376,0.010438,-0.101751
759424476,-3.073308,-0.199734,0.335639,0.995031,0.004804,-0.102564
759444520,-3.172889,-0.100720,0.321959,0.993443,0.003343,-0.104532
759464564,-3.088261,-0.100630,0.350882,0.991977,-0.001027,-0.105044
759504653,-2.522746,-0.009071,0.331962,0.994707,-0.012396,-0.106252
759524698,-1.937305,-0.108406,0.152821,0.990427,-0.007852,-0.105279
759544742,-1.555184,0.059322,0.137207,0.993596,-0.008032,-0.106785
759564786,-1.189221,0.150729,0.076311,0.996528,-0.009301,-0.106379
759584831,-0.378987,0.234739,0.060309,0.994416,-0.009214,-0.106979
759604875,0.071133,0.227111,0.005752,0.990666,-0.009402,-0.107278
759624921,0.734665,0.135630,-0.083234,0.993223,-0.010217,-0.107320
759644966,1.185617,0.135730,-0.091984,0.991057,-0.009763,-0.105922
759665010,1.765832,0.166254,-0.141552,0.993556,-0.012577,-0.104326
759685054,2.300477,0.219665,-0.175028,0.993039,-0.008671,-0.107319
759705099,2.673782,0.265313,-0.251197,0.993855,-0.010763,-0.107784
759725143,3.290675,0.257543,-0.385405,0.995607,-0.012305,-0.106994
759745204,3.832433,0.348990,-0.449712,0.996265,-0.012394,-0.106006
759765231,4.465849,0.333764,-0.515442,0.986593,-0.014036,-0.100664
759785275,5.320485,0.280429,-0.608262,0.979753,-0.015964,-0.105083
759805319,5.427393,-0.367288,-0.592897,0.966025,0.015195,-0.119153
759825364,4.572033,-0.855092,-0.521186,0.976277,0.040206,-0.131080
759845408,3.070994,-1.106290,-0.223772,1.007550,0.047062,-0.138523
759865453,1.713894,-0.229812,-0.039886,1.033131,0.061674,-0.127637
759885497,-0.717127,0.638304,-0.049095,1.007487,0.083491,-0.115344
759905541,-3.510526,0.935397,0.218080,0.994469,0.086314,-0.103144
759925586,-6.598539,0.798517,0.698736,0.988597,0.093971,-0.089440
759945630,-10.316325,0.676344,1.023452,0.985667,0.099706,-0.084588
759965676,-13.858318,0.310359,1.353209,0.978003,0.089051,-0.084803
759985720,-17.247198,-0.108902,1.695455,0.974364,0.074763,-0.084899
760005765,-20.337927,-0.650013,2.039963,0.987132,0.084043,-0.095117
760025809,-23.765675,-0.764553,2.336101,0.985684,0.086945,-0.099092
760065898,-31.559311,-1.138373,3.061683,0.978832,0.122301,-0.111561
760085942,-36.000885,-1.306128,3.530499,0.986070,0.126854,-0.114960
760105995,-40.630547,-1.290648,4.162826,0.988831,0.123667,-0.118905
760126029,-44.774994,-1.443220,4.572336,0.991805,0.118027,-0.121397
760146074,-49.168182,-1.534434,5.177504,0.983583,0.112556,-0.121793
760166119,-53.397308,-1.770927,5.558371,0.982099,0.115364,-0.127673
760186163,-57.454407,-1.991638,6.149808,0.985442,0.123363,-0.134007
760206207,-62.170166,-1.907857,6.668955,0.989902,0.132094,-0.139181
760226252,-67.092682,-1.786072,7.169064,0.986787,0.135810,-0.144308
760246296,-71.706787,-1.778173,7.816396,0.994965,0.127704,-0.156780
760266340,-76.309868,-1.763206,8.226607,0.988908,0.119587,-0.163653
760286385,-80.810707,-1.770702,8.795379,0.987320,0.122839,-0.175069
760306429,-84.973274,-1.488297,9.455959,0.984961,0.119025,-0.169576
760326475,-89.494064,-2.159372,9.790442,0.980218,0.118356,-0.183837
760346519,-93.580292,-1.793137,10.441622,0.997325,0.118648,-0.187306
760366563,-97.785721,-1.412278,10.842897,0.991391,0.137083,-0.200580
760386608,-102.329453,-0.825013,11.555709,1.008060,0.149443,-0.221763
760406652,-106.861237,-0.032430,12.076569,1.007483,0.129059,-0.224534
760426697,-110.734749,0.629887,12.218300,0.998075,0.079816,-0.232462
760446741,-113.318161,0.621690,12.268456,0.976234,0.055019,-0.244212
760466786,-115.097160,0.537714,12.410235,0.970916,0.013357,-0.238152
760486828,-115.731705,0.042231,12.431840,0.975705,-0.014490,-0.247537
760506873,-115.235970,0.575626,12.344029,0.987313,-0.015357,-0.232574
760526918,-114.704048,0.766840,12.577598,0.992983,-0.014910,-0.241931
760546962,-114.746101,1.063527,12.355824,0.974170,0.033821,-0.243597
760567006,-115.844872,0.553952,12.921384,0.959506,0.098514,-0.276225
760587051,-118.911034,0.326485,13.768707,0.996137,0.150047,-0.282654
760607095,-124.037498,0.821936,14.393793,1.018085,0.190213,-0.273927
760627140,-129.242050,2.392614,15.314831,1.041999,0.153191,-0.291702
760647184,-133.960587,4.114406,15.622259,1.001082,0.114217,-0.279320
760667228,-137.111649,4.890714,15.543273,0.955906,0.027665,-0.263156
760687272,-137.508499,3.449469,15.211906,0.913318,-0.040289,-0.278294
760707318,-137.588638,1.451450,14.654647,0.878988,-0.043713,-0.282605
760727362,-136.465942,-0.637376,14.234818,0.909180,-0.052706,-0.299989
760747407,-135.617310,-1.773579,13.847702,0.957764,-0.053628,-0.295732
760767451,-133.780212,-1.964318,13.545238,0.986772,-0.063043,-0.293488
760787496,-131.069183,-1.461074,13.345772,0.995416,-0.100270,-0.312183
760807540,-126.943581,-0.896476,13.149217,1.004603,-0.100443,-0.314246
760827585,-122.062027,0.673087,12.437952,1.043051,-0.150831,-0.288583
760847627,-116.774422,2.220003,11.772374,1.020266,-0.177575,-0.268088
760867672,-110.973862,2.387864,11.193132,0.972043,-0.187329,-0.239200
760887716,-104.942223,2.204482,10.297275,0.959299,-0.210964,-0.218881
760907761,-97.475327,1.336361,9.727354,0.952678,-0.243880,-0.203826
760927805,-89.292633,0.894795,8.981655,0.973644,-0.233902,-0.186045
760947849,-81.005936,0.742434,8.057220,0.997876,-0.241018,-0.165658
760967894,-73.130951,1.176881,7.177028,1.019811,-0.151987,-0.149749
760987938,-69.528610,1.596118,6.800075,0.965863,0.049232,-0.111128
761007983,-73.170906,0.164133,7.540324,0.903089,0.242268,-0.114917
761028027,-81.321571,-1.793518,8.874141,0.911406,0.226780,-0.135095
761048071,-85.527084,-2.653793,9.738037,0.977208,0.062500,-0.128772
761068117,-86.417862,-2.692633,9.526207,0.994122,0.048936,-0.148192
761088162,-88.560318,-2.449563,9.429424,1.012871,0.058229,-0.156062
761108206,-90.587196,-1.810092,9.367288,1.017690,0.055569,-0.172026
761128251,-93.521423,-1.070480,9.864964,1.003072,0.064166,-0.186224
761148295,-97.293480,-0.490701,10.547544,0.991628,0.098993,-0.185452
761168339,-102.280228,-0.704625,10.889547,0.960712,0.135692,-0.190341
761188389,-107.522995,-0.887622,11.450375,0.966933,0.149688,-0.203543
761208427,-112.069145,-1.398001,12.067548,0.961302,0.152295,-0.216250
761228471,-116.060562,-2.121052,12.926834,0.973144,0.121524,-0.239277
761248515,-119.009262,-2.212945,13.076054,0.976511,0.080222,-0.242534
761268559,-121.285950,-2.411453,13.182024,0.976451,0.033343,-0.258341
761288604,-122.810974,-2.327497,13.410013,0.971768,0.014492,-0.265674
761308648,-123.626343,-2.129231,13.555081,0.990568,-0.000502,-0.272324
761328693,-123.893173,-1.900592,13.590063,0.984929,-0.002774,-0.266323
761348737,-123.995178,-1.374164,13.850100,0.984078,-0.006856,-0.258404
761368782,-123.837067,-1.450642,13.717381,0.987666,0.012241,-0.265578
761388826,-124.932800,-1.436002,13.585765,0.954682,0.037460,-0.279128
761408872,-126.434036,-1.670992,14.295766,0.963036,0.062016,-0.289932
761428916,-128.996552,-2.204257,14.675847,0.986907,0.084765,-0.306354
761448961,-132.198563,-1.700971,15.171867,1.009481,0.113285,-0.299070
761469005,-135.695053,-0.504821,15.426766,1.030616,0.084469,-0.303831
761489049,-137.668015,-0.016700,15.814933,0.961979,0.040654,-0.279439
761509094,-138.831024,-0.222867,15.777054,0.954070,0.033333,-0.297357
761529138,-139.470184,-0.856117,15.547038,0.972706,0.010135,-0.313250
761549181,-140.140625,-1.168420,15.690993,0.934309,-0.025538,-0.288026
761569226,-140.212784,-1.283179,15.509381,0.966481,-0.029891,-0.306723
761589270,-139.827820,-1.183663,15.654408,0.981145,-0.037797,-0.314313
761609314,-138.909637,-0.436538,15.664671,0.984858,-0.056446,-0.317159
761629359,-137.216415,0.051076,15.416230,0.988982,-0.064164,-0.312042
761649403,-135.061401,0.348700,15.342857,0.987183,-0.084345,-0.302083
761669447,-131.935730,0.218803,14.839434,0.975269,-0.100288,-0.305213
761689492,-128.369904,0.272480,14.571386,0.969229,-0.109023,-0.301464
761709536,-125.189323,0.424730,14.134732,0.962858,-0.103074,-0.275585
761729581,-122.229195,-0.184945,13.796589,0.970169,-0.139439,-0.267933
761749625,-118.240150,-0.368031,13.261307,0.967550,-0.130052,-0.256012
761769671,-114.075676,-0.703532,12.707846,0.961613,-0.138132,-0.241917
761789715,-109.329765,-0.817844,12.165291,0.969192,-0.162414,-0.243550
761809759,-103.899269,-0.673339,11.417554,0.989920,-0.189289,-0.230968
761829804,-97.127396,-0.383255,10.849622,1.001667,-0.215436,-0.210246
761849848,-89.292725,0.226177,9.847366,1.014715,-0.266499,-0.184966
761869893,-81.353653,0.873398,8.697772,1.004744,-0.170387,-0.150642
761889937,-78.749153,1.010904,8.539796,0.972900,0.062029,-0.134417
761909980,-82.508530,0.157724,9.127561,0.955377,0.155890,-0.132731
761930025,-87.103577,-0.861639,10.442750,0.924161,0.109602,-0.148916
761950069,-89.509727,-2.758456,11.061222,0.961013,0.035177,-0.185368
761970113,-89.490974,-2.324633,10.814887,1.029455,-0.020468,-0.172826
761990158,-88.819427,-0.923471,10.269932,1.025824,-0.021935,-0.176575
762010202,-88.773911,0.058526,9.792008,1.016405,-0.005789,-0.195595
762030247,-89.537796,0.820446,9.804295,0.987696,0.018220,-0.176082
762050291,-91.535217,0.599674,10.134164,0.978381,0.039496,-0.174688
762070335,-93.866013,0.912632,10.613912,1.004029,0.047248,-0.184942
762090380,-96.517609,1.026426,10.695551,0.985666,0.065790,-0.179122
762110424,-98.515564,0.836067,10.994762,0.968864,0.054021,-0.184444
762130470,-99.692192,0.386260,11.057298,0.967602,0.034352,-0.194466
762150514,-100.120857,-0.246406,11.052439,0.974011,-0.004231,-0.205768
762170558,-99.919777,-0.474666,11.186845,0.983808,-0.027779,-0.205987
762190603,-98.837463,-0.230968,10.989278,1.002371,-0.048684,-0.211080
762210647,-98.020966,0.805407,10.863004,1.014994,-0.042651,-0.204860
762230692,-97.031677,1.681405,10.573441,0.995969,-0.023384,-0.200210
762250736,-97.171738,1.665810,10.438663,0.966368,0.008754,-0.213103
762270779,-97.862534,1.270013,10.728478,0.973910,0.033500,-0.218538
762290823,-98.556740,1.301505,11.238538,0.998522,0.037062,-0.230764
762310868,-99.575661,1.835386,11.531624,1.006677,0.032172,-0.224813
762330912,-100.659470,2.338284,11.619753,0.991431,0.026825,-0.200398
762350957,-101.777695,2.170089,11.519749,0.968542,0.017060,-0.198992
762371001,-102.288437,1.659590,11.623056,0.947363,-0.004805,-0.199684
762391045,-102.257439,0.950960,11.670663,0.950890,-0.029815,-0.198251
762411090,-102.403748,0.264956,11.637578,0.955306,-0.041542,-0.197308
762431134,-102.011566,-0.025213,11.348200,0.968999,-0.038711,-0.202448
762451179,-101.281158,-0.337919,11.159314,0.982084,-0.054339,-0.202191
762471223,-99.913605,-0.391032,11.102390,0.987209,-0.068614,-0.202527
762491269,-98.161812,-0.315238,10.724279,1.002242,-0.063965,-0.209146
762511313,-95.590485,0.355349,10.404703,1.016966,-0.086033,-0.199829
762531357,-93.192101,1.528214,9.804073,1.018209,-0.090823,-0.182594
762551402,-90.205902,2.434408,9.162363,1.008843,-0.107548,-0.166793
762571446,-86.504868,2.182991,8.770443,0.971085,-0.111584,-0.154251
762591491,-82.421394,1.680224,8.394863,0.971306,-0.125764,-0.148239
762611535,-77.407417,1.329814,7.886100,0.989649,-0.179575,-0.137842
762631578,-70.813972,1.604276,7.176496,0.985933,-0.229411,-0.124805
762651622,-62.108063,0.986024,5.771708,0.959211,-0.273714,-0.154505
762671667,-54.862591,-0.171686,5.229972,0.942797,-0.100630,-0.161775
762691711,-54.446487,-0.652230,5.001896,1.017244,0.116306,-0.138531
762711755,-59.350731,0.697814,6.047745,1.050492,0.193550,-0.109452
762731800,-65.795517,1.727902,7.323231,0.998976,0.161565,-0.096810
762751844,-69.323761,1.452172,7.140444,0.977355,0.062630,-0.106353
762771889,-70.016632,0.696958,6.904235,0.967020,0.025923,-0.123908
762791933,-71.234711,-0.080951,6.800556,0.987026,0.037606,-0.118187
762811978,-73.535637,-0.142466,6.830125,1.002531,0.052357,-0.123378
762832023,-76.900574,0.238544,7.199809,0.988403,0.065441,-0.120980
762852068,-80.935883,0.200578,7.721441,0.984600,0.086430,-0.132479
762872112,-85.575020,-0.104236,8.263321,0.963660,0.106132,-0.137328
762892156,-89.566681,-0.386330,8.670297,0.972434,0.106029,-0.151639
762912201,-92.479027,-0.500326,9.139827,0.967765,0.084359,-0.158423
762932245,-95.090675,-0.980686,9.337291,0.972892,0.066600,-0.173459
762952290,-96.951347,-1.201534,9.618657,0.969327,0.045205,-0.179808
762972355,-98.527252,-1.620194,10.009777,0.966269,0.029903,-0.187900
762992377,-99.890633,-1.741806,10.304089,0.979874,0.029451,-0.197935
763012422,-100.939217,-1.748855,10.668324,0.980736,0.011896,-0.196922
763032466,-101.487724,-1.962112,10.786657,0.962515,0.017780,-0.198891
763052510,-102.260834,-2.526339,10.757690,0.958209,0.015017,-0.214336
763072555,-103.418762,-3.036661,11.011100,0.973356,0.037559,-0.238052
763092599,-104.965149,-2.868684,11.323280,1.000756,0.056514,-0.241909
763112643,-106.691559,-2.022092,11.804809,1.019655,0.077567,-0.236185
763132688,-109.505852,-1.557093,12.178810,0.991719,0.105103,-0.228855
763152732,-112.730415,-1.366197,12.706874,0.976775,0.104257,-0.231867
763172776,-115.957443,-1.823348,13.122519,0.964040,0.083301,-0.240057
763192822,-118.264107,-1.822663,13.679254,0.968091,0.050093,-0.245245
763212867,-119.792465,-1.541012,13.715613,0.966150,0.011363,-0.229443
763232911,-119.977173,-2.074642,13.667484,0.980281,-0.038056,-0.253386
763252955,-119.105652,-2.234451,13.666388,0.959576,-0.052922,-0.257547
763273000,-117.616913,-2.387736,13.126034,0.978285,-0.088379,-0.260621
763293044,-115.324341,-2.266346,12.630299,0.997886,-0.105623,-0.253937
763313089,-112.090874,-2.197986,12.162332,1.000274,-0.147124,-0.265528
763333148,-107.811470,-1.558021,11.588109,0.996158,-0.110240,-0.239285
763353176,-104.426476,-1.436460,11.040609,0.988902,-0.109882,-0.236529
763373220,-99.751099,-1.580501,10.828105,0.973550,-0.165057,-0.249974
763393265,-93.211670,-1.489006,10.097233,0.967571,-0.235729,-0.237137
763413309,-84.853310,-1.915309,9.340432,0.966639,-0.249354,-0.224389
763433353,-76.332153,-2.211735,8.702302,0.980604,-0.236290,-0.204678
763453398,-68.476273,-1.716825,7.608319,1.016011,-0.223933,-0.191141
763473442,-62.400467,-0.428702,6.989440,1.040527,-0.129751,-0.144511
763493487,-58.789963,1.126034,6.600906,0.984283,-0.085721,-0.150252
763513531,-55.826305,0.181524,6.470129,0.942926,-0.070446,-0.172539
763533575,-53.328651,-0.831643,6.363905,0.969622,-0.054327,-0.184822
763553621,-51.105736,-0.756102,5.823826,1.001079,-0.063441,-0.168912
763573666,-48.265564,-0.184348,5.575775,1.010450,-0.096722,-0.168109
763593710,-44.654709,0.547437,5.235822,1.009128,-0.106190,-0.170976
763613754,-41.603680,0.669229,4.824707,0.973800,-0.099788,-0.174287
763633799,-38.607712,0.470751,4.339313,0.980075,-0.086126,-0.170060
763653843,-36.320259,0.455303,3.989320,0.988292,-0.077354,-0.155145
763673887,-34.013687,0.394636,3.853067,0.977822,-0.075175,-0.148344
763693947,-31.951904,0.219582,3.714303,0.983411,-0.069814,-0.156800
763713975,-29.617922,-0.070101,3.410170,0.976523,-0.074186,-0.154224
763734019,-26.978239,-0.169210,3.091828,0.988825,-0.083169,-0.151423
763754063,-24.143061,0.112321,2.577389,1.001872,-0.099321,-0.138638
763774108,-20.945879,0.653385,2.200250,1.000072,-0.104317,-0.132698
763794152,-18.110565,0.927313,1.693475,0.991215,-0.062213,-0.134796
763814197,-16.078564,0.927623,1.592914,0.979078,-0.007939,-0.145390
763834241,-15.670668,0.768051,1.746000,0.999672,0.020191,-0.151144
763854286,-15.870690,1.492762,2.076051,1.027911,0.027157,-0.145101
763874330,-16.335997,2.391978,2.105011,1.011072,0.027428,-0.132196
763894374,-16.828575,1.972307,1.940213,0.998125,0.012044,-0.127048
763914420,-16.787998,2.003104,2.069227,0.959168,-0.015989,-0.102009
763934465,-15.940048,0.982110,2.063814,0.971675,-0.035888,-0.098740
763954509,-14.314129,0.700248,1.926223,1.009807,-0.142118,-0.064174
763974554,-9.219805,1.545765,1.167392,1.058894,-0.263485,-0.006530
763994598,0.171143,3.855489,0.335597,1.033256,-0.260640,0.029215
764014642,3.048806,2.374311,-1.151904,0.864173,0.116939,-0.064571
764034686,0.224100,-1.137873,-0.367103,0.913128,0.053604,-0.063849
764054747,0.179186,-1.684441,0.552562,1.047659,0.013321,-0.062354
764074774,-0.213009,-0.084568,0.371451,1.088053,0.014101,-0.066039
764094818,1.162769,1.956996,-0.151094,1.060767,-0.013777,-0.066436
764114863,2.795082,2.856125,-0.399722,1.002220,-0.024953,-0.062060
764174996,3.793848,1.249125,-0.077528,0.973328,0.005788,-0.042192
764195040,3.578654,0.631676,-0.117146,0.974661,0.018697,-0.048228
764215084,3.194028,-0.054560,-0.222020,0.973385,0.023046,-0.057563
764235129,3.038324,-0.435979,-0.362916,0.994191,0.011065,-0.059350
764255173,2.986378,-0.367206,-0.278081,1.008126,0.009807,-0.061583
764275219,2.406524,-0.009045,-0.222173,1.005555,0.012250,-0.066990
764295264,1.948110,0.067079,-0.205890,0.997485,0.017777,-0.073216
764315308,1.085957,0.097568,-0.105206,0.996696,0.025149,-0.071036
764335353,0.444554,0.234672,-0.062651,0.999228,0.016780,-0.072881
764355404,-0.097351,0.127966,-0.005932,0.999466,0.014601,-0.070067
764375441,-0.485067,0.166253,0.116086,0.991402,0.013314,-0.071561
764395486,-0.509179,0.028928,0.055879,0.984073,0.008843,-0.072972
764415528,-0.333577,-0.306353,0.053588,0.990506,-0.000077,-0.081146
764435573,-0.203893,-0.504485,0.044090,0.992606,-0.004905,-0.086348
764455617,0.010545,-0.481521,0.062777,0.991143,-0.003551,-0.091228
764475662,0.330001,-0.557856,-0.027224,0.993119,0.000816,-0.092721
764495706,0.475260,-0.733086,-0.021818,0.993224,0.006177,-0.096544
764515750,0.276971,-0.694972,0.004827,0.990544,0.010727,-0.093057
764535795,0.214518,-0.809461,-0.062353,0.988037,0.011729,-0.090292
764555839,0.328289,-1.137224,-0.101676,0.979524,-0.013413,-0.102542
764575883,0.725889,-1.114254,-0.101826,1.010837,0.004447,-0.112093
764595928,0.916942,-0.443626,-0.130691,1.023844,-0.010477,-0.125634
764615972,1.736791,-0.046923,-0.048581,0.997138,-0.012720,-0.137339
764636018,1.430757,-0.200430,-0.477694,0.990820,-0.001341,-0.127718
764656063,1.487812,-0.017068,-0.288376,0.993916,0.008341,-0.108179
764676107,1.052626,0.097202,-0.257387,0.984950,0.023910,-0.093437
764696152,0.311860,-0.245796,-0.196023,0.985273,0.037934,-0.085114
764716196,-0.880873,-0.436621,-0.187526,0.988436,0.042229,-0.076915
764736240,-1.855927,-0.482134,0.014940,0.996697,0.036166,-0.065426
764756285,-3.689215,-0.261411,0.103269,1.020696,0.058714,-0.041000
764776327,-4.121759,-0.108696,0.279266,0.964137,-0.032088,-0.052412
764796372,-0.973309,-1.442618,-0.190025,0.896258,-0.162866,-0.129197
764816416,5.675479,-4.452271,-0.683451,0.921521,-0.180048,-0.195503
764836461,8.820662,-5.474185,-1.344753,1.021212,0.012010,-0.113644
764856505,9.194945,-4.445386,-1.401289,1.046791,-0.023990,-0.120556
764876550,11.435090,-3.415062,-1.020266,1.037428,-0.058615,-0.144576
764896594,13.245625,-2.370792,-1.142931,1.009259,-0.047577,-0.155552
764916639,15.720467,-1.853253,-1.719936,0.981755,-0.066806,-0.152419
764936683,18.767143,-1.525287,-1.955899,0.992702,-0.071986,-0.158316
764956728,21.496326,-0.931214,-2.423473,1.005493,-0.076698,-0.158436
764976773,24.281622,-0.108180,-2.755352,1.012852,-0.078502,-0.155835
765016862,29.815790,1.766723,-3.327467,0.998268,-0.076246,-0.154047
765036906,32.681408,2.055864,-3.850163,0.991293,-0.075532,-0.155744
765056951,35.245224,2.223523,-4.144996,0.984706,-0.063715,-0.155561
765076995,37.855770,2.231278,-4.386714,0.985602,-0.050522,-0.155689
765097040,40.326820,1.630118,-4.287473,0.956761,-0.045359,-0.144403
765117082,41.979336,0.189455,-4.605118,0.966336,-0.030278,-0.163745
765137126,43.977829,-0.123058,-4.856817,0.986339,-0.042449,-0.169422
765157171,46.229897,-0.244830,-5.045299,0.990620,-0.044536,-0.170218
765177216,48.081253,0.189169,-5.426533,0.994029,-0.032701,-0.167935
765197260,49.927818,0.295862,-5.638473,0.991148,-0.034885,-0.165795
765217304,51.522385,0.570176,-5.838439,0.985964,-0.023700,-0.163909
765237349,52.912498,0.349372,-5.910527,0.979670,-0.024171,-0.168340
765257393,53.944214,0.380068,-5.938290,0.983589,-0.016805,-0.173230
765277438,54.964489,0.273102,-6.171692,0.981871,-0.008362,-0.181476
765297482,55.484108,0.059832,-6.181065,0.981768,-0.005634,-0.181933
765317526,56.718002,0.234815,-6.450117,1.003110,-0.024604,-0.175094
765337572,58.245571,0.989429,-6.566326,0.999983,-0.018142,-0.170966
765357617,59.245258,1.111371,-6.677827,0.971032,-0.000525,-0.164783
765377661,59.930744,0.539688,-6.803847,0.983809,0.012370,-0.188896
765397705,60.396137,0.745431,-6.867053,0.982588,0.005624,-0.195945
765417759,60.911194,0.601142,-6.708455,0.972301,0.012584,-0.213120
765437794,61.140129,-0.016100,-6.710842,0.967752,0.017384,-0.221583
765457838,60.791630,0.219462,-6.964674,0.996674,0.027960,-0.232442
765477882,60.349632,0.341459,-6.887730,0.988876,0.047771,-0.237880
765497926,59.146706,0.844743,-6.621537,0.969995,0.082731,-0.258585
765517970,56.948326,0.585536,-6.409904,0.971251,0.092714,-0.273783
765538015,54.458977,0.585285,-6.231696,0.967160,0.092965,-0.282429
765558059,52.119358,0.532312,-5.804048,0.969028,0.077752,-0.295779
765578103,49.924580,0.525043,-5.402288,0.986072,0.085928,-0.316690
765598148,47.510071,1.134231,-5.334540,0.974759,0.091198,-0.310787
765618192,45.391193,1.652714,-4.981852,1.031911,0.103792,-0.335838
765638237,42.796783,3.611119,-4.762276,1.057153,0.099175,-0.344159
765658281,40.555008,5.555489,-4.068085,1.026737,0.121546,-0.323252
765678325,37.618378,6.547252,-3.288466,0.990550,0.135463,-0.294064
765698371,33.739357,5.640055,-2.973292,0.953648,0.176988,-0.291506
765718416,28.810871,5.083847,-2.356188,0.956242,0.217053,-0.272463
765738460,22.415396,4.702646,-1.688277,0.954885,0.228675,-0.232154
765758505,16.099009,3.802634,-1.279983,0.963800,0.201904,-0.201760
765778549,10.461929,3.292280,-0.527019,0.926035,0.146778,-0.168436
765798593,6.006531,1.729198,-0.351306,0.928561,0.109368,-0.182124
765838681,4.189879,1.044272,0.266976,0.964405,-0.101375,-0.241754
765858725,7.100756,1.005671,-0.278432,0.979578,-0.104429,-0.231659
765878769,8.893491,-0.024112,-0.890540,0.957070,-0.026104,-0.214248
765898814,9.177742,-0.618246,-0.794739,0.956956,0.047168,-0.191492
765918858,7.151110,-0.633099,-0.396216,0.988775,0.109657,-0.171350
765938902,3.261726,-0.275676,-0.276087,1.019888,0.137045,-0.142333
765958947,-0.352973,0.562820,0.219183,1.018544,0.092998,-0.046467
765978991,-2.054998,1.416232,0.356348,1.017714,0.006358,-0.013356
765999035,-2.151368,2.200502,0.072873,0.989340,-0.019693,-0.008290
766019080,-3.139359,1.338923,0.010857,0.951148,0.099369,-0.040426
766059170,-16.934437,-1.755896,1.289873,0.996172,0.265878,-0.113184
766079214,-26.333986,-1.793894,2.412288,1.037525,0.220638,-0.058985
766099259,-35.205067,-0.658102,3.543466,1.053768,0.140152,-0.006477
766119303,-41.810787,0.369909,3.950955,1.018276,0.086327,0.040968
766139348,-46.401680,0.514023,4.184746,0.993996,0.007892,0.051588
766159392,-47.577118,-0.019452,4.316311,0.956308,-0.140412,0.020069
766179436,-39.722172,-1.032498,3.647646,0.945176,-0.441487,0.002059
766199479,-27.139683,-2.587991,1.857457,0.989056,-0.407276,0.020680
766219524,-17.846071,-1.070540,1.167734,1.101907,-0.240570,0.004137
766239568,-15.466706,-0.162889,1.217882,0.874469,0.107183,-0.085973
766259612,-24.179897,-4.652202,1.975009,0.885393,0.247676,-0.181345
766279657,-29.155027,-6.328712,2.589106,1.022326,0.156260,-0.132965
766299701,-31.263683,-7.434015,2.717758,0.969802,0.020389,-0.117138
766319746,-31.188366,-8.581839,3.965675,0.973894,0.007924,-0.225848
766339790,-32.652622,-10.336404,3.388613,0.921017,0.046968,-0.276391
766359834,-34.543728,-11.997486,3.728855,0.918627,0.027772,-0.326972
766379879,-38.277397,-13.192223,4.905650,0.930302,0.077239,-0.349131
766399923,-44.896626,-13.863319,5.471888,0.935356,0.125163,-0.364002
766419969,-51.950600,-14.030457,6.503370,0.972069,0.109516,-0.394468
766440013,-59.137203,-12.070909,7.736665,1.008779,0.114769,-0.438404
766460058,-65.549316,-7.634251,9.007817,1.167860,0.061455,-0.521456
766480102,-70.606506,-0.668065,9.854543,1.120272,0.070068,-0.394479
766500147,-73.813934,6.358517,10.244894,1.147668,-0.103152,-0.318042
766520191,-72.754280,13.780602,9.809908,1.314355,-0.263766,-0.328606
766540235,-68.210609,27.345287,9.019418,1.263945,-0.377413,-0.247583
766560278,-64.955528,41.892117,7.967928,1.396841,-0.160062,-0.399811
766580323,-65.589737,57.100883,3.642747,0.711775,0.066713,0.630288
766600367,-71.049393,2.285291,5.123246,0.302623,-0.354671,-0.330721
766620412,-68.967529,12.567948,5.728705,0.782847,0.200477,-0.503412
766640456,-77.484428,-4.160888,6.354659,0.746243,-0.017305,-0.364899
766660500,-83.081543,-5.987341,8.096976,0.840961,0.044516,-0.259227
766680545,-87.323143,-8.173285,9.126457,1.057136,-0.051340,-0.266839
766700589,-89.684227,-5.932353,9.554525,0.892492,-0.130081,-0.001917
766720633,-89.241714,-6.975351,9.962049,1.064868,-0.265991,-0.092231
766740678,-83.750809,-2.473089,8.594957,1.079777,-0.446002,-0.039081
766760724,-74.568794,-1.476427,6.824048,1.023278,-0.512637,-0.016675
766780768,-65.430092,-0.121287,5.182690,1.066144,-0.432732,-0.034604
766800813,-58.661301,-0.754657,4.052426,1.013967,-0.327021,0.009683
766820857,-53.304535,-1.661424,3.493014,1.016281,-0.326270,0.021080
766840901,-48.299889,-0.517477,3.262190,1.099451,-0.221159,0.025297
766860946,-45.601570,1.593990,3.149312,1.036821,-0.120372,0.072040
766880990,-45.992851,2.142375,3.055740,0.972009,0.164671,-0.015109
766901033,-55.616653,-0.866950,4.566831,0.712157,0.294475,-0.118011
766921077,-60.442318,-6.809271,5.986939,0.978761,-0.067753,-0.170794
766941122,-58.352432,-5.700770,3.971202,1.071175,-0.042458,-0.141366
766961166,-56.903332,-4.033667,6.252893,1.061106,-0.136630,-0.090021
766981210,-60.480808,-4.301232,6.307920,1.008930,0.087367,-0.188995
767001255,-66.438942,-4.263990,6.622086,0.941687,0.061270,-0.230289
767021299,-71.186897,-5.359596,7.940495,0.904319,-0.003946,-0.244522
767041344,-75.125633,-6.555202,8.769766,0.909357,-0.019992,-0.269091
767061388,-78.218491,-7.324207,9.428373,0.966632,-0.113984,-0.274723
767081433,-78.951958,-6.248875,9.844023,1.056685,-0.187103,-0.284670
767101477,-78.348625,-2.537700,9.674773,1.118385,-0.148216,-0.260460
767121523,-77.783852,3.107996,8.995495,1.197892,-0.179650,-0.250598
767141567,-76.144890,10.438562,8.465517,1.165222,-0.193431,-0.196368
767161612,-75.482315,18.500713,8.036106,1.210847,-0.168499,-0.231320
767181656,-77.781494,16.651308,6.107741,0.529168,-0.023447,0.205899
767201700,-82.567261,2.996442,7.468697,0.988898,-0.030422,-0.421393
767221745,-85.785553,0.429592,8.441381,0.852528,-0.074768,-0.331575
767241805,-86.852013,-0.879885,9.131242,0.953698,-0.165245,-0.237017
767261832,-86.652908,-0.940754,9.150505,1.042879,-0.173341,-0.206752
767281877,-85.966202,-0.353988,9.051171,0.936173,-0.168358,-0.129596
767301921,-85.343842,-1.276480,8.828204,0.933983,-0.203349,-0.160819
767321965,-83.486153,-1.696128,8.403841,0.983153,-0.264969,-0.168000
767342010,-79.809296,-1.619046,8.355162,0.966673,-0.313752,-0.114715
767362054,-75.244934,-1.665561,7.494963,1.015240,-0.314935,-0.155120
767382098,-70.634392,-0.788970,7.043432,1.004142,-0.316260,-0.123610
767402143,-66.885834,-1.147838,6.322366,1.017718,-0.251820,-0.116596
767422187,-63.730461,-0.622491,5.747413,1.038329,-0.239129,-0.107800
767442231,-61.004990,-0.134593,5.501866,0.995139,-0.168885,-0.063788
767462277,-59.637157,-0.202912,5.460269,1.014137,-0.133863,-0.081146
767482322,-58.293255,0.255429,5.768890,0.980823,-0.104818,-0.039050
767502366,-57.331192,-0.255047,5.713714,0.979774,-0.094079,-0.035873
767522411,-56.927895,-0.499040,5.615003,0.989761,-0.130173,-0.031626
767542455,-56.362110,0.057394,5.594531,0.997192,-0.156396,-0.050954
767562500,-52.287102,-0.917943,5.190123,0.958294,-0.297417,-0.078379
767582544,-44.036858,-2.083588,4.399674,0.931135,-0.416879,-0.116570
767602587,-33.074417,-2.967818,3.058966,1.004808,-0.354748,-0.075990
767622631,-25.536568,-2.548795,2.139519,1.073883,-0.232192,-0.072197
767642675,-20.311419,-2.448934,1.877326,0.955016,-0.161164,-0.088898
767662720,-18.879280,-2.732181,1.170390,0.984438,-0.080199,-0.165968
767682764,-16.485701,-2.495256,1.184288,1.007529,-0.126420,-0.189252
767702809,-11.599335,-1.664240,0.765764,1.031752,-0.200681,-0.173474
767722854,-4.194239,0.324176,-0.362651,1.065993,-0.254901,-0.201837
767742898,4.790975,3.913943,-1.267249,1.085185,-0.271490,-0.236359
767762943,13.346466,6.603202,-2.649564,1.053017,-0.208448,-0.262423
767782987,20.161543,8.264611,-3.413935,0.962035,-0.133856,-0.190007
767823077,31.283113,5.667647,-3.926752,0.889777,-0.020806,-0.197950
767843121,33.483982,2.977116,-4.319649,0.916352,0.030918,-0.190228
767863166,34.979225,2.123604,-4.475726,0.978315,0.031384,-0.183569
767883210,35.492764,2.359143,-4.837981,1.000117,0.102217,-0.117519
767903254,35.153362,2.352037,-4.579204,0.963189,0.084140,-0.071380
767923299,38.010399,1.598062,-4.693264,0.900516,-0.131375,-0.124238
767943343,48.640812,-0.245849,-5.756884,0.965342,-0.355667,-0.256235
767963386,62.675522,-1.205639,-7.172238,0.994272,-0.341499,-0.242137
767983431,75.334030,-0.740787,-8.634404,1.067264,-0.203699,-0.160186
768003475,85.321533,1.279547,-9.446246,1.046607,-0.035651,-0.077596
768043564,95.366982,1.189638,-9.938887,0.977374,0.245671,-0.103752
768063608,95.867966,0.886470,-9.282793,0.932712,0.250644,-0.083754
768083652,95.382233,0.240070,-8.636974,0.937492,0.352273,-0.080737
768103697,93.149155,-1.452304,-8.603292,0.935937,0.374578,-0.069763
768123741,90.396919,-2.762711,-8.117603,0.995588,0.323647,-0.111545
768143786,88.402954,-1.604742,-8.067486,1.055842,0.257565,-0.078422
768163830,86.973610,-0.880144,-7.644806,1.049020,0.197578,-0.041713
768183876,84.930046,0.696444,-7.816721,1.008449,0.213174,-0.036690
768203920,82.241127,0.809353,-8.108786,0.984508,0.244510,-0.044958
768223965,78.345802,1.250819,-7.897123,1.012017,0.260781,-0.023758
768244009,73.301407,1.860333,-7.388631,1.031006,0.325191,0.013756
768264053,66.911774,1.851306,-7.256975,0.877452,0.213025,-0.013033
768284098,70.124992,-3.369496,-7.813920,0.791671,-0.230879,-0.230605
768304142,77.464417,-6.545295,-7.739444,1.049495,0.102118,-0.163295
768324185,76.193565,-5.077105,-8.728344,1.058471,0.111572,-0.122523
768344230,80.241196,-2.781917,-8.646414,1.122770,-0.022436,-0.179770
768364274,85.467537,0.207198,-8.520893,1.074837,-0.035921,-0.203713
768384318,91.363869,2.387375,-8.948223,1.046568,0.044585,-0.235136
768404363,95.625900,4.529262,-9.267298,1.028966,0.116966,-0.238951
768424408,98.140457,5.604281,-9.357878,0.981059,0.175377,-0.247399
768444452,99.101471,5.521400,-9.062950,0.951344,0.208539,-0.246857
768464496,99.076981,4.728676,-9.120968,0.953571,0.226222,-0.229313
768484540,98.780975,3.799200,-8.966942,0.910690,0.230385,-0.153516
768504585,99.858459,0.766517,-8.893697,0.825171,0.091798,-0.207021
768524629,104.769005,-2.679292,-9.940332,0.857352,-0.042125,-0.345056
768544675,110.926498,-4.920667,-10.992249,1.031427,-0.016657,-0.388463
768564720,117.049934,-2.093986,-11.991606,1.121984,0.011347,-0.316705
768584764,122.083160,0.611877,-12.388655,1.043127,0.083099,-0.265189
768604808,124.769272,1.159588,-13.122689,0.932590,0.209550,-0.277494
768624853,124.612595,0.770422,-13.317032,0.909132,0.304173,-0.251289
768644897,122.700958,-1.286610,-12.829885,0.901321,0.376886,-0.229853
768664942,119.310349,-1.964195,-12.150520,0.976125,0.433685,-0.221782
768684985,115.108330,-1.895327,-11.549595,0.976682,0.438502,-0.172416
768705029,110.618721,-1.178424,-10.807700,1.027966,0.415761,-0.161906
768725074,106.220154,-0.782634,-10.517349,1.001147,0.386952,-0.122911
768745118,101.967293,-0.660091,-9.770427,1.032309,0.333848,-0.135155
768765163,97.489990,0.284047,-9.625560,1.031952,0.299972,-0.102776
768785207,94.039803,1.038284,-9.331880,1.033115,0.200835,-0.090740
768805251,91.045441,1.861837,-8.779824,1.043645,0.262729,-0.080673
768825295,86.313004,3.262760,-8.807281,1.031669,0.302373,-0.030153
768845340,80.912148,3.666806,-8.130718,1.019825,0.348585,-0.020860
768865384,74.124100,4.466311,-7.650156,0.941955,0.264119,-0.033371
768885428,74.875458,1.669124,-7.861743,0.806118,-0.107730,-0.154167
768905475,82.849930,-2.712443,-8.567361,0.924432,-0.062579,-0.184038
768925519,86.307289,-2.941928,-9.329056,1.017758,0.130224,-0.139471
768945563,86.802444,-2.333398,-9.875591,0.992495,0.135308,-0.175995
768965608,86.502373,-2.926124,-9.111292,0.939019,0.182038,-0.253048
768985652,83.457512,-4.519822,-9.153884,0.925737,0.265007,-0.240160
769005696,79.697891,-6.359034,-9.816029,0.950102,0.316827,-0.228497
769025741,76.547966,-7.385623,-8.498291,0.973452,0.279978,-0.198514
769045784,72.352112,-6.760661,-7.998675,1.018004,0.341428,-0.210541
769065828,66.118156,-5.116668,-8.196484,1.032405,0.340016,-0.197713
769085873,61.828953,-1.960995,-7.451313,1.072168,0.208952,-0.267436
769105917,60.516052,1.408118,-7.024415,1.019740,0.067644,-0.344104
769125962,60.949787,3.656954,-6.795791,1.008252,0.067339,-0.352713
769146006,60.100220,5.462633,-6.907581,1.018750,0.180305,-0.321761
769166050,56.469509,6.827826,-6.046965,1.036675,0.296048,-0.269699
769186095,49.838692,8.239544,-4.501689,1.014655,0.401722,-0.219753
769206139,40.471161,8.911423,-2.900847,0.951512,0.465730,-0.188009
769226184,29.618582,8.315720,-2.199226,0.981141,0.451856,-0.187039
769246228,18.198639,5.688007,-0.241915,0.849900,0.422878,-0.105232
769266274,7.337182,1.038122,0.534508,0.866284,0.363921,-0.175130
769286318,-3.364452,-1.691492,1.202097,0.912476,0.291712,-0.200490
769306362,-13.119919,-3.634223,2.582286,0.948560,0.233761,-0.179585
769326407,-22.800478,-5.012239,4.280084,0.982332,0.232443,-0.180976
769346451,-32.459633,-3.861488,5.380654,1.044191,0.214487,-0.200429
769366496,-40.662163,-0.088446,6.604702,1.171782,0.108968,-0.197981
769386540,-45.524822,7.258257,7.201859,1.210449,-0.029437,-0.146667
769406583,-45.807323,17.498972,6.439667,1.290303,-0.150260,-0.012025
769426628,-44.442738,11.798803,6.416883,0.489137,-0.114029,0.150450
769446672,-52.327515,5.058090,5.705914,0.860636,0.261387,-0.331364
769466716,-64.849419,-1.734713,6.063203,0.896959,0.190386,-0.386060
769486761,-73.121239,-3.287374,7.871792,0.986850,0.104230,-0.308201
769506805,-82.011299,-2.915090,8.402205,1.035411,0.102557,-0.212802
769526850,-90.064461,-1.382847,9.508550,1.050684,-0.014064,-0.170385
769546894,-94.115509,-0.308307,9.965652,0.965357,-0.174904,-0.151869
769566938,-93.154915,0.605037,9.355580,1.034449,-0.338932,-0.160037
769586983,-88.339539,0.396409,7.581717,0.906821,-0.462092,-0.095928
769607028,-80.316101,-1.090008,6.521645,0.914339,-0.567103,-0.066924
769627073,-70.965584,-3.080434,4.872032,0.941213,-0.596947,-0.092024
769647118,-62.524536,-5.062439,3.667961,0.998145,-0.470851,-0.082855
769667162,-55.078300,-4.016572,3.581122,1.070238,-0.392957,0.025264
769687207,-49.976181,-2.288066,2.375996,1.116971,-0.118402,-0.013026
769707251,-46.273857,0.473692,3.219577,1.033176,-0.194839,0.097099
769727295,-38.536015,1.626460,3.187856,1.087336,-0.151862,0.021667
769747339,-38.499817,1.710029,3.072254,0.855564,0.279021,-0.075224
769767382,-48.395538,-3.004899,5.251463,0.872968,0.265393,-0.131780
769787427,-53.085876,-3.994265,6.369723,1.120340,-0.016281,-0.143428
769807471,-56.822208,-1.360287,5.569971,1.098811,0.047600,-0.167132
769827516,-60.838737,1.330286,6.189136,1.061561,-0.036404,-0.156826
769847560,-64.010612,2.740341,6.628061,0.977684,-0.076544,-0.150881
769867604,-66.738480,3.379942,6.701788,1.022969,-0.129357,-0.165000
769887649,-68.061462,3.852018,6.672398,0.945070,-0.196148,-0.109912
769907694,-67.141609,3.928772,6.799480,0.941288,-0.257138,-0.076794
769927738,-67.807587,1.901481,6.826795,0.873320,-0.050853,-0.147147
769947782,-73.854057,-1.728223,6.612340,0.869644,0.079165,-0.237533
769967828,-81.078323,-3.457846,7.583556,1.033435,0.098739,-0.313343
769987872,-88.688255,-2.442705,9.118585,1.098809,0.146194,-0.282674
770007917,-97.143478,0.322354,9.510331,1.077644,0.063400,-0.218359
770027961,-102.259926,1.387656,9.399746,0.979416,-0.125217,-0.154098
770048005,-102.962463,0.838920,9.468696,0.913670,-0.287251,-0.158154
770068050,-100.968056,-1.318246,9.055104,0.893393,-0.311928,-0.154772
770088094,-99.458160,-3.017694,8.893918,0.877370,-0.315105,-0.137518
770108137,-98.538406,-4.320233,9.063802,0.943737,-0.324085,-0.125563
770128181,-98.228958,-5.195030,9.717875,0.988290,-0.251674,-0.112554
770148226,-99.246582,-4.898201,9.667859,1.046118,-0.207892,-0.094822
770168270,-98.804939,-3.968640,9.533932,1.069233,-0.221082,-0.061334
770188315,-96.371399,-1.995035,9.159199,1.116554,-0.256819,-0.092401
770208359,-92.311104,-0.059332,8.684255,1.116945,-0.285416,-0.058773
770228404,-87.402687,2.371846,8.160637,1.067591,-0.314611,-0.013492
770248448,-81.683708,3.386862,8.115058,0.942279,-0.230929,-0.124513
770268492,-84.370529,-0.030157,7.215747,0.884155,0.003979,-0.169936
770288537,-86.405952,-1.446309,8.024102,0.934706,-0.069318,-0.196729
770308581,-88.653648,-1.849770,8.474057,1.042661,-0.133361,-0.181851
770328627,-90.210197,-0.913461,8.195485,1.013320,-0.056244,-0.173309
770348672,-92.743492,-0.097104,8.876164,0.999986,-0.057969,-0.212204
770368716,-95.410004,0.641601,8.956013,0.988618,-0.120105,-0.203646
770388760,-96.841240,0.962076,9.288377,0.966565,-0.215041,-0.162989
770408805,-95.536133,1.603221,9.558933,0.950881,-0.325412,-0.110069
770428849,-93.318741,0.324602,10.032142,0.847871,-0.179064,-0.143505
770448893,-96.994934,-2.198522,10.203572,0.945639,0.023114,-0.255711
770468936,-104.032104,-2.701746,10.907266,1.108146,0.096118,-0.313886
770509025,-121.884567,3.941474,11.988065,1.057591,0.039617,-0.275894
770529070,-128.003799,3.887157,12.275095,0.916925,-0.074913,-0.312067
770549114,-130.919327,2.676412,13.031072,0.893193,-0.155348,-0.301543
770569159,-132.725525,1.059197,12.567168,0.875720,-0.231253,-0.254187
770589203,-131.120346,-0.456880,12.594559,0.863775,-0.378367,-0.199001
770609248,-127.481506,-3.741341,12.252151,0.832555,-0.474280,-0.189322
770629292,-122.255760,-6.430445,12.121494,0.900757,-0.526476,-0.233064
770649337,-117.871246,-7.909158,11.514079,0.937924,-0.397887,-0.186707
770669384,-115.677734,-9.151789,11.085939,1.093170,-0.322985,-0.193745
770689426,-113.007431,-5.698817,11.068477,1.099062,-0.365367,-0.140398
770709471,-108.567062,-2.864103,10.437977,1.162544,-0.325169,-0.147720
770729515,-103.413399,0.617831,9.485823,1.065193,-0.328738,-0.078788
770749560,-97.262589,1.282901,9.654633,0.985371,-0.342799,-0.093653
770769604,-89.411835,0.873301,9.580072,0.959603,-0.327345,-0.078624
770789648,-87.325012,-1.871513,8.799856,0.803871,-0.007906,-0.136321
770809693,-92.767494,-6.549688,9.891500,0.870984,0.039333,-0.178394
770829736,-95.383293,-7.584890,10.725135,1.074482,-0.181193,-0.197565
770849780,-95.542465,-6.929402,10.779530,0.975406,-0.055140,-0.134719
770869825,-98.519836,-9.474804,11.120871,0.939012,-0.032869,-0.218105
770909913,-102.421928,-12.209913,11.916347,0.965333,-0.228037,-0.258535
770929958,-100.808556,-11.697916,12.326542,1.009274,-0.310351,-0.234183
770950002,-97.740173,-8.839160,12.356823,1.043359,-0.293494,-0.246957
770970047,-96.364410,-3.488387,12.564481,1.118990,-0.159577,-0.306748
770990091,-100.154137,5.289567,12.402475,1.254665,0.012752,-0.352739
771010136,-106.979004,15.226027,12.639372,1.422324,0.078801,-0.438587
771030181,-114.946457,29.811146,12.951735,1.459018,0.064750,-0.440823
771050226,-120.791862,38.533363,12.004526,0.458469,0.005182,0.353481
771070270,-123.364136,9.598826,13.266420,1.012452,-0.172684,-0.586410
771090315,-125.903534,10.769570,12.326051,0.445729,0.071050,-0.310720
771110359,-129.708557,-2.384797,12.512451,0.782271,-0.173291,-0.377327
771130403,-131.560059,-7.670986,13.903231,0.646658,-0.287761,-0.227221
771150448,-131.406601,-10.482780,14.031877,0.927262,-0.339123,-0.283845
771170505,-128.073486,-9.962777,14.408674,1.003795,-0.479532,-0.161914
771190535,-122.091354,-8.461556,13.676283,1.070064,-0.579463,-0.189929
771210579,-113.581764,-3.922558,11.379367,1.147178,-0.550431,-0.143271
771230624,-106.516968,-2.011930,9.615932,1.118059,-0.478479,-0.123195
771250668,-100.309189,0.060390,8.655657,1.054644,-0.425529,-0.067736
771270713,-94.389084,-0.717001,7.954979,1.046124,-0.357341,-0.084316
771290757,-87.064758,0.010819,8.750332,1.053589,-0.470850,-0.024614
771310802,-81.055565,1.022894,7.415368,0.903480,0.112994,-0.116706
771330846,-91.342308,-3.438148,7.408223,0.767747,0.370762,-0.134700
771350890,-99.670937,-8.486007,10.429258,0.993578,-0.049302,-0.192955
771370935,-101.734589,-9.464843,9.234646,0.926838,0.035953,-0.181156
771390981,-105.243904,-12.242226,11.459235,0.936935,-0.022879,-0.225893
771411025,-111.424240,-15.851276,13.570312,0.811340,0.072012,-0.273473
771431069,-118.045456,-19.515438,14.979471,0.833884,-0.000372,-0.327478
771451114,-122.324013,-21.960323,16.086945,1.184821,-0.108648,-0.475167
771471158,-126.359848,-12.538544,17.516991,1.210773,-0.120085,-0.378095
771491203,-126.717316,-1.635361,19.780064,1.140662,-0.313461,-0.353884
771511247,-125.888962,8.894516,18.704979,1.193230,-0.259593,-0.338349
771531290,-126.207497,19.448931,18.477345,1.112314,-0.064624,-0.417994
771551335,-133.511093,27.587254,18.943478,1.233690,0.023245,-0.525330
771571379,-142.088425,40.993946,17.277180,1.574510,-0.164822,-0.409369
771591423,-146.252731,24.539572,14.195717,0.339838,0.127402,-0.094683
771611468,-150.384857,17.294067,15.537933,0.806091,-0.067792,-0.517706
771631512,-157.775162,3.380440,14.092386,0.616416,-0.000018,-0.516128
771651556,-159.821808,-2.341669,14.854164,0.685666,-0.268698,-0.439701
771671601,-157.286743,-6.698275,15.667679,0.893072,-0.553477,-0.424973
771691645,-151.814865,-5.795963,16.337925,0.869991,-0.568832,-0.186172
771711690,-146.131165,-4.267351,14.319827,1.076751,-0.590400,-0.311122
771731734,-138.144348,0.311230,12.713013,0.998378,-0.677164,-0.180466
771751780,-130.247147,-1.214824,11.013640,0.944242,-0.614710,-0.160401
771771824,-122.942863,-3.189193,9.946224,0.911300,-0.579150,-0.190491
771791869,-115.340805,-6.708481,9.756938,0.975468,-0.488857,-0.216517
771811913,-108.855209,-7.209443,9.877284,1.025621,-0.344674,-0.158697
771831957,-103.303864,-7.466994,9.907969,0.987851,-0.345959,-0.029964
771852002,-94.879845,-9.766307,9.889709,1.061128,-0.334347,-0.057286
771872046,-84.841026,-7.343359,8.517705,0.944741,-0.163301,-0.105967
771892089,-88.183556,-10.313376,9.822726,0.801932,0.333168,-0.228176
771912134,-97.621269,-14.866266,12.802503,0.971502,-0.001632,-0.173867
771932178,-97.668045,-14.302492,12.732760,1.036851,-0.145847,-0.190446
771952222,-96.068535,-13.842661,13.647732,1.100039,-0.205998,-0.253606
771972267,-98.177711,-12.501905,13.661270,0.967772,-0.006099,-0.280277
771992311,-101.708191,-9.606875,13.666650,1.110475,-0.055419,-0.354888
772012356,-104.490204,-3.187185,15.196982,1.145398,-0.139456,-0.319577
772032400,-106.165611,6.195851,16.084661,1.156389,-0.219135,-0.269432
772052445,-106.386871,14.555361,15.816599,1.084966,-0.312054,-0.231023
772072489,-105.125214,18.872475,13.974363,1.047482,-0.278881,-0.269655
772092533,-105.513397,22.495911,12.250505,1.201380,-0.199343,-0.382161
772112579,-104.926369,32.033531,10.549168,1.260743,-0.225991,-0.063502
772132624,-105.997940,14.486120,8.985466,0.452580,-0.049478,-0.206334
772152668,-105.293419,10.548720,10.031784,0.794478,-0.169572,-0.393428
772172712,-110.485863,-2.627352,10.871777,0.662737,-0.046307,-0.285086
772192757,-115.945648,-6.056061,11.806770,0.874051,-0.002768,-0.221949
772212802,-120.556770,-8.339513,13.546758,0.963421,-0.055608,-0.184351
772232846,-122.927078,-7.386622,13.933446,0.965102,-0.332935,-0.262714
772252889,-112.437729,-6.054331,12.143692,0.913944,-0.790547,-0.388533
772272933,-93.405602,-6.550314,9.697566,1.117272,-0.702215,-0.246994
772292978,-79.593689,-2.161818,7.611565,1.152919,-0.636120,-0.144407
772313022,-65.238678,2.026742,4.698056,1.130356,-0.526289,-0.161997
772333067,-53.656326,3.633612,2.878538,1.003059,-0.479070,-0.157272
772353111,-41.874714,4.092902,2.396228,1.049544,-0.535518,-0.117484
772373155,-29.785732,4.357998,0.311538,0.980075,-0.358888,-0.133478
772393200,-18.444738,3.055257,-0.798238,0.931115,-0.280012,-0.143213
772413244,-8.517568,1.684634,-1.444790,0.953236,-0.209112,-0.142800
772433289,-0.505810,1.669407,-2.356705,0.970263,-0.151227,-0.142097
772453333,6.163187,1.944763,-2.693347,1.002682,-0.155556,-0.147636
772473379,11.976358,2.500917,-3.434597,0.969643,-0.162392,-0.127181
772493424,17.046217,0.542938,-3.755699,0.942614,-0.116576,-0.123891
772513468,20.100210,0.299339,-3.989902,1.002767,0.014275,-0.103438
772533512,19.847612,1.063252,-3.185191,1.062523,0.169596,-0.083201
772553557,16.438385,4.043983,-2.395382,1.039891,0.157374,-0.082795
772573601,19.063757,4.304145,-2.248513,0.946071,-0.217848,-0.242700
772593645,31.245647,2.249181,-2.493335,0.890389,-0.369604,-0.308493
772613688,43.394833,-0.708243,-4.094695,0.928124,-0.224008,-0.264897
772653777,53.328880,-1.312286,-6.081187,1.028005,0.091635,-0.053434
772673822,53.326641,-1.173428,-5.363309,0.999947,0.201078,-0.028083
772693866,49.226227,0.504637,-4.273017,1.043111,0.338130,-0.036399
772713910,42.931416,3.182359,-2.371687,1.070186,0.432920,-0.009059
772733955,33.472218,4.310453,-1.206148,1.005563,0.443989,0.028154
772753999,24.381413,3.890905,-0.332979,0.977594,0.343314,0.069557
772774044,18.368896,1.816196,-0.415723,0.984863,0.144781,0.045525
772794088,16.535702,1.824553,0.108873,1.027667,0.066258,0.053368
772814134,14.149296,2.312493,0.466855,0.950162,0.009617,0.086283
772834178,18.511543,-1.668584,-1.285657,0.682896,-0.627372,-0.264131
772854223,34.691120,-9.054197,-3.523590,1.027192,-0.180060,-0.186412
772874267,35.561245,-5.776423,-3.299218,1.075841,-0.038820,-0.145627
772894311,36.161259,-4.925290,-4.398780,1.133660,0.103345,-0.156290
772914356,38.257278,0.038230,-3.668907,1.133560,-0.011728,-0.256225
772934400,42.653652,4.429710,-3.402046,1.079934,0.016147,-0.293846
772954443,47.047977,7.583453,-4.475919,0.971618,-0.019911,-0.222313
772974488,53.116264,5.495783,-4.968792,0.902843,-0.002883,-0.259840
772994532,57.706314,4.017009,-5.626043,0.911900,0.039595,-0.271049
773014577,62.231483,2.630172,-6.068381,0.927822,0.056495,-0.244206
773034621,66.076118,2.295745,-6.126588,0.984089,0.066934,-0.199794
773054665,66.753891,1.930790,-5.840508,0.958451,0.168646,-0.123908
773074710,65.505791,1.373936,-5.921415,0.853283,0.172103,-0.140004
773094754,69.850883,-2.085237,-6.101192,0.889123,-0.200977,-0.380011
773114798,80.592621,-4.340062,-6.913436,1.017512,-0.246162,-0.418890
773134843,91.151833,-2.329404,-8.668596,1.148064,-0.140252,-0.309000
773154887,99.392662,0.475906,-9.273405,1.095450,0.053806,-0.204667
773174933,102.791367,2.305216,-9.544121,0.991685,0.278779,-0.171318
773194977,101.228119,2.001516,-8.878537,0.880381,0.423003,-0.111562
773215022,97.024345,0.195552,-8.309542,0.916209,0.496380,-0.110751
773235066,91.111160,-0.879884,-8.007827,0.942694,0.446082,-0.075171
773255111,86.872604,-1.245165,-7.297766,1.003996,0.384265,-0.049244
773275155,81.352997,-0.788336,-6.848318,1.031441,0.376552,-0.008577
773295202,76.122803,-0.825906,-6.020768,1.036255,0.326798,-0.008213
773315243,70.386520,0.034407,-5.728929,1.013542,0.307829,0.036051
773335287,62.183861,0.870627,-5.679527,1.060742,0.417375,0.109593
773355331,51.062969,2.376979,-5.514599,0.905228,0.174762,-0.014986
773375376,61.114395,-4.198050,-5.871144,0.761189,-0.619253,-0.316405
773395420,71.211479,-6.109451,-6.404572,1.104146,0.078076,-0.119525
773415465,70.433403,-3.713979,-8.506490,1.168619,0.107703,-0.137921
773435509,74.579178,0.531878,-8.562862,1.108235,-0.012601,-0.213762
773455554,80.463287,3.597403,-8.427435,1.021356,-0.029338,-0.244660
773475598,85.990776,5.616224,-9.374331,0.999072,0.044126,-0.249667
773495643,90.533905,7.386539,-8.933479,0.969335,0.099429,-0.229462
773515701,93.965286,8.050216,-9.048120,1.028963,0.297946,-0.218191
773535733,94.100212,8.363328,-8.784330,0.890459,0.305704,-0.088027
773555777,92.821320,6.085235,-8.392781,0.926176,0.267249,-0.206946
773575821,94.970886,2.619688,-7.788714,0.811277,0.031403,-0.293920
773595866,101.382309,-0.176704,-8.308809,1.009422,-0.069352,-0.435023
773615910,108.694618,0.468390,-10.294436,1.081711,-0.053285,-0.359121
773635955,116.434174,2.000414,-11.091598,1.023777,0.007887,-0.288518
773655997,122.111000,2.921483,-12.198207,0.930445,0.145932,-0.240042
773676042,123.826607,1.252476,-12.401693,0.863706,0.274404,-0.225501
773696086,122.481232,-0.470042,-12.324004,0.882266,0.346143,-0.210413
773716131,119.892113,-2.160097,-11.259466,0.935050,0.419039,-0.187106
773736175,115.551765,-2.419030,-10.685330,0.966954,0.513322,-0.141056
773756220,109.746590,-2.601741,-9.937839,0.999591,0.486865,-0.107164
773776264,104.642059,-2.639838,-9.349609,1.035445,0.468080,-0.110649
773796308,98.605812,-2.053175,-8.722457,1.007968,0.452113,-0.062133
773816353,91.139267,-3.242502,-8.061638,1.008992,0.451539,-0.027109
773836397,82.581635,-1.977084,-6.936975,1.040779,0.421678,-0.014348
773856442,71.248611,-0.310507,-6.669124,1.089416,0.524275,0.038029
773876487,65.916161,0.103108,-5.168644,0.839839,-0.158408,-0.185613
773896532,74.445488,-3.935824,-6.069565,0.878884,-0.101881,-0.199354
773916576,76.202789,-6.043688,-8.182762,1.051632,0.176605,-0.176255
773936621,74.991608,-4.055510,-8.425688,1.109723,0.192901,-0.165653
773956665,74.439514,-0.022725,-7.809443,1.103911,0.128065,-0.197037
773976710,74.085152,3.529898,-7.233645,1.069301,0.151174,-0.219452
773996755,74.064919,5.215330,-6.719245,0.992674,0.211634,-0.176306
774016797,73.381767,6.252158,-6.480197,1.003191,0.239542,-0.144760
774036842,73.093559,4.644495,-6.293499,0.898434,0.262642,-0.113509
774056886,72.687927,2.631572,-6.668641,0.887484,0.139798,-0.173940
774076930,76.047974,-0.888662,-6.775610,0.871354,-0.068059,-0.204275
774096975,82.564095,-2.877572,-7.453255,1.014850,-0.145841,-0.272406
774117019,90.126068,-1.789783,-9.177749,1.008624,-0.104096,-0.221988
774137063,93.867157,-2.819221,-9.865871,0.908267,0.216145,-0.283354
774157108,91.439438,-3.239503,-10.069532,0.979953,0.348240,-0.237228
774177152,89.504318,-2.924703,-8.848607,1.009636,0.239943,-0.180909
774197197,87.134956,-2.140332,-8.828167,1.019592,0.328972,-0.155991
774217242,82.575890,-1.256876,-8.551606,1.004974,0.435052,-0.139850
774237287,76.066330,-1.743720,-7.422644,0.952778,0.483077,-0.153564
774257331,68.677261,-2.207970,-6.307255,0.977231,0.424790,-0.158605
774277375,60.620487,-2.313577,-4.920294,0.986969,0.387203,-0.123941
774297420,52.771893,-2.817144,-4.269628,0.992857,0.368598,-0.103404
774317464,44.484596,-3.228766,-3.358587,0.977201,0.346869,-0.082403
774337509,36.102200,-4.235233,-2.611833,0.989624,0.294960,-0.124468
774357552,27.381435,-4.425678,-1.578495,0.976671,0.284619,-0.148468
774377597,17.794535,-5.128187,-1.069190,0.969683,0.333644,-0.147885
774397641,7.514918,-5.623744,0.025977,0.988738,0.333023,-0.154654
774417685,-2.635106,-5.037228,1.061537,1.022332,0.289621,-0.187563
774437730,-12.320671,-3.603991,2.383282,1.025491,0.261739,-0.215620
774457774,-21.695107,-1.867154,3.140153,1.010798,0.225127,-0.226929
774477818,-30.184719,0.693635,4.175129,1.063279,0.138502,-0.229586
774497863,-36.012569,5.137488,5.198034,1.129323,0.085127,-0.218096
774517907,-40.077332,12.179945,5.956476,1.196993,0.002101,-0.204588
774537952,-40.889904,21.668756,6.353291,1.250601,-0.123938,-0.169163
774557996,-38.699390,32.945946,5.318061,0.808910,-0.099705,0.427564
774578042,-41.108517,2.524834,6.352494,0.511254,-0.007597,-0.236089
774598086,-46.623611,4.038501,5.743816,0.809436,0.141673,-0.389933
774618131,-52.616840,-5.113985,6.555387,0.980903,0.002798,-0.353864
774638175,-58.859970,-3.857839,6.710555,1.075295,0.074987,-0.196824
774658219,-66.550491,-1.848958,6.287627,1.081604,0.060815,-0.138992
774678264,-72.101601,0.329938,6.624973,1.027490,-0.063854,-0.114805
774698308,-74.522881,1.351727,7.149966,0.969660,-0.190072,-0.089099
774718352,-74.960663,1.783730,6.178916,1.011850,-0.262277,-0.108671
774738396,-73.276138,1.782513,5.466145,0.894363,-0.287226,-0.023838
774758440,-70.432983,-0.961185,5.076245,0.934977,-0.328387,-0.081652
774778484,-66.715637,-3.041346,4.804718,0.910643,-0.327599,-0.078696
774798529,-63.632999,-4.833111,4.093703,0.979390,-0.259638,-0.081161
774818573,-61.021835,-5.327225,4.327415,1.052555,-0.207424,-0.092481
774838618,-58.476463,-2.629036,4.192626,1.072453,-0.158073,-0.031900
774858662,-56.112438,-0.860298,4.209639,1.100457,-0.157282,-0.019307
774878707,-52.604824,1.588512,4.867003,1.047784,-0.149290,0.016890
774898751,-49.101196,1.222917,4.555709,0.989096,-0.153193,0.019078
774918797,-43.165295,1.064828,4.708505,0.982172,-0.369205,0.103887
774938841,-37.509357,-0.231362,3.793077,0.891762,0.073374,-0.081673
774958886,-46.920982,-5.437518,4.428597,0.763568,0.270314,-0.139727
774998974,-58.274048,-3.434284,5.268824,1.149227,0.016312,-0.101309
775019019,-62.970535,-0.392299,6.327934,1.116134,0.024043,-0.126539
775039063,-67.199730,3.082302,6.574183,1.048552,0.002571,-0.175914
775059115,-70.588844,3.691756,6.867161,0.918264,-0.056536,-0.157072
775079151,-73.454750,1.818540,7.853623,0.933316,-0.129120,-0.162564
775099195,-74.454048,0.675522,8.022007,0.938726,-0.187313,-0.150487
775119240,-73.982185,0.286728,7.914806,0.981265,-0.195408,-0.132952
775139284,-74.315948,0.378427,8.058523,0.972195,-0.129413,-0.154603
775159328,-78.428406,-0.277888,8.140507,0.882560,0.127203,-0.193715
775179373,-86.228874,-2.222385,8.542870,1.049173,0.047914,-0.310168
775199417,-91.323082,0.239338,9.191348,1.127035,-0.052362,-0.285186
775219462,-95.397606,2.440620,9.156102,1.106318,-0.059155,-0.250598
775239506,-98.609375,4.315291,9.487275,0.998613,-0.125033,-0.221328
775259550,-100.613998,3.804011,9.428536,0.909700,-0.168722,-0.211388
775279596,-101.661148,1.242348,9.113519,0.908154,-0.227913,-0.243853
775299641,-100.754692,0.678246,8.944979,0.878421,-0.336903,-0.170452
775319686,-97.438553,-1.211984,8.466644,0.956069,-0.428135,-0.175709
775339730,-93.109772,-1.432651,8.115932,0.933465,-0.405928,-0.098836
775359776,-89.136299,-3.186560,7.196468,1.002078,-0.357890,-0.153372
775379819,-85.223297,-2.912391,6.668781,1.003041,-0.324169,-0.119493
775399863,-81.271927,-2.738252,5.728044,1.024952,-0.288059,-0.088699
775419906,-77.388382,-2.743915,6.118835,1.033844,-0.251311,-0.099351
775439950,-73.515594,-1.431666,6.291485,1.034223,-0.217422,-0.072181
775459995,-69.272156,-0.386548,6.251514,1.044422,-0.248310,-0.056327
775480039,-63.275532,0.887945,6.329589,1.006376,-0.264033,-0.016073
775500084,-56.914543,0.417135,6.322349,1.000799,-0.314378,0.019418
775520128,-51.630051,0.165249,5.548199,0.887898,-0.045761,-0.056445
775540172,-56.308022,-4.058491,5.347374,0.848314,0.134269,-0.129689
775560217,-60.749615,-6.557079,6.320645,1.006799,-0.062865,-0.156121
775580261,-61.993965,-5.383630,6.386733,1.094976,-0.128587,-0.148800
775600306,-61.763298,-2.181869,6.768953,1.069219,-0.096946,-0.137066
775620350,-63.684361,0.004402,6.584991,1.044889,-0.033058,-0.154278
775640396,-66.053574,2.359574,6.982270,1.059245,-0.078998,-0.166066
775660440,-66.875847,5.057405,7.080941,1.029837,-0.139829,-0.072326
775680485,-66.052681,3.778065,7.405452,0.930432,-0.206857,-0.082684
775700529,-65.757355,2.101299,7.305965,0.858837,-0.038116,-0.134485
775720574,-70.898300,-1.718242,7.280890,0.933343,0.076085,-0.231079
775740618,-77.553658,-2.838675,7.979230,1.060567,0.085663,-0.270211
775760663,-84.236748,0.041933,8.695353,1.133041,0.057537,-0.235815
775780706,-91.047195,2.007413,9.164825,1.035431,0.024001,-0.187436
775820794,-97.956779,2.325915,9.282557,0.903467,-0.196181,-0.146240
775840839,-97.556633,0.823165,8.630273,0.933656,-0.303401,-0.150389
775860883,-94.713806,-0.335545,8.166328,0.940783,-0.364488,-0.129712
775880928,-90.523460,-1.562238,7.806369,0.945700,-0.330355,-0.123589
775900972,-88.011963,-2.102137,8.026884,0.987715,-0.251231,-0.118808
775921016,-86.305016,-2.070950,8.131204,0.990300,-0.164956,-0.102293
775941061,-85.834343,-1.788317,8.358014,1.025821,-0.153740,-0.116806
775961105,-84.916153,-0.523006,8.351269,1.034486,-0.173810,-0.104121
775981150,-82.409729,-0.681556,8.700517,1.020061,-0.188289,-0.099766
776001196,-79.979172,-0.064759,8.208096,0.988264,-0.213455,-0.106716
776021240,-77.671982,-0.247272,8.110444,0.997434,-0.182522,-0.112643
776041285,-75.753914,-0.545079,7.638655,0.993636,-0.187519,-0.106034
776061329,-73.795937,0.127106,8.072194,1.028945,-0.191068,-0.084117
776081373,-72.800629,0.948561,7.270718,1.005604,-0.137362,-0.097970
776101418,-72.332588,0.948898,7.360974,0.990549,-0.119004,-0.095928
776121462,-71.955734,1.193137,7.475111,0.984863,-0.140907,-0.079092
776141505,-71.336601,0.278838,7.496707,0.975771,-0.128824,-0.080954
776161550,-70.941681,-0.277686,7.368633,0.978673,-0.124091,-0.081737
776181594,-70.950745,-0.834158,7.309531,0.976788,-0.084911,-0.097021
776201638,-71.497543,-1.191979,7.527652,0.972934,-0.084256,-0.083340
776221683,-72.011337,-1.756219,7.463085,0.991853,-0.088165,-0.097545
776241728,-72.455444,-1.359172,7.837170,1.023861,-0.105584,-0.096609
776261772,-72.536011,-0.291888,7.995651,1.012900,-0.131950,-0.078768
776281816,-72.393539,-0.269351,7.839982,1.008330,-0.125904,-0.102846
776301861,-71.990311,0.568734,7.699463,0.991680,-0.134879,-0.070776
776321905,-71.431190,-0.163536,7.354828,0.977708,-0.141341,-0.061267
776341951,-70.491135,-0.370075,6.916995,0.996855,-0.150622,-0.078281
776361995,-68.794746,-0.621222,6.869630,0.999756,-0.164168,-0.075403
776382040,-67.051025,-0.553105,6.468779,1.002966,-0.147131,-0.063958
776402084,-65.769287,-0.522639,6.313901,1.009506,-0.138010,-0.055642
776422129,-64.373993,-0.004590,6.078784,1.028450,-0.133018,-0.077669
776442173,-63.231148,0.468644,6.261352,0.993337,-0.094479,-0.067603
776462217,-61.940357,0.552637,6.182535,1.014211,-0.136404,-0.077330
776482274,-59.322361,1.177615,5.908052,1.021464,-0.149565,-0.066448
776502305,-57.081043,1.886054,5.518337,0.994447,-0.145128,-0.055374
776522349,-54.550320,1.268484,5.112138,0.970658,-0.138425,-0.052256
776542394,-52.054306,0.026493,4.922653,0.952771,-0.149814,-0.047211
776562438,-49.276970,-0.659342,4.626517,0.985998,-0.148675,-0.048325
776582483,-46.680344,-0.674274,4.461560,1.011557,-0.126167,-0.047799
776602527,-44.072662,-0.148709,4.042421,1.024814,-0.118305,-0.036963
776622571,-41.484856,0.659201,3.783197,1.025321,-0.126306,-0.034780
776642616,-39.212585,0.834272,3.432865,0.998637,-0.102790,-0.038812
