Timestamp (us),Gyroscope X (deg/s),Gyroscope Y (deg/s),Gyroscope Z (deg/s),Accelerometer X (g),Accelerometer Y (g),Accelerometer Z (g)
2570515414,0.301730,-0.226612,-0.725274,0.961773,0.183306,0.180150
2570535414,0.934894,-0.213263,-0.751025,0.964131,0.191133,0.177955
2570555414,1.408939,-0.007239,-0.434952,0.964126,0.191803,0.180316
2570575414,1.309475,-0.119299,-0.000828,0.961023,0.195681,0.179861
2570595415,0.446624,-0.315029,0.019200,0.962194,0.196431,0.183236
2570615415,-0.018897,-0.323045,-0.343406,0.959011,0.191575,0.182184
2570635415,0.422838,-0.418039,-0.823751,0.957519,0.184866,0.181269
2570655415,1.216067,-0.420820,-0.941352,0.955851,0.186202,0.176853
2570675418,1.872283,-0.413344,-0.579615,0.959591,0.191309,0.177177
2570695416,2.207575,-0.541492,-0.063811,0.961229,0.192311,0.179732
2570715416,1.894138,-0.700334,0.021934,0.959036,0.193038,0.182800
2570735415,1.732520,-1.012351,0.054484,0.959721,0.195478,0.182861
2570755415,1.748759,-0.813582,0.175098,0.961098,0.196935,0.185042
2570775414,1.962918,-0.684745,0.135539,0.961519,0.199460,0.184277
2570795415,1.414519,-0.500623,0.046017,0.956067,0.200982,0.187209
2570815415,0.408654,-0.269565,-0.064426,0.958117,0.198187,0.185540
2570835415,-0.269170,-0.031703,-0.153600,0.964010,0.198682,0.178020
2570855415,-0.216290,-0.146083,-0.122925,0.962800,0.201512,0.177053
2570875415,-0.323959,-0.336362,-0.113972,0.960605,0.197979,0.181007
2570895415,-0.134339,-0.543838,-0.341877,0.959039,0.191616,0.178717
2570915415,0.392133,-0.492775,-0.519298,0.960651,0.188422,0.173948
2570935417,1.270107,-0.342124,-0.387204,0.957886,0.190641,0.172427
2570955417,1.285060,-0.417951,-0.288137,0.958125,0.195529,0.177645
2570975417,0.422112,-0.629180,-0.321234,0.962977,0.193369,0.180007
2570995417,-0.081010,-0.581115,-0.129171,0.962740,0.193589,0.175988
2571015417,0.079700,-0.467234,-0.138020,0.967402,0.189657,0.174909
2571035417,0.979358,-0.568549,-0.065677,0.962696,0.192163,0.177925
2571055418,1.521449,-0.463123,-0.023035,0.958116,0.190812,0.178356
2571075416,1.491979,-0.241777,0.006493,0.961057,0.195615,0.175301
2571095416,1.654011,0.139717,0.156010,0.963849,0.203568,0.176211
2571115416,1.257278,0.088892,0.462027,0.963722,0.208281,0.181336
2571135417,-0.184216,0.108972,0.628106,0.965555,0.210007,0.183973
2571155417,-1.282425,0.172262,0.458051,0.963656,0.205102,0.181476
2571175416,-1.800125,0.409135,0.254160,0.963040,0.200532,0.178803
2571195417,-1.548993,0.330110,-0.187390,0.966851,0.195638,0.179190
2571215417,-1.031012,0.176146,-0.189058,0.975626,0.198863,0.182513
2571235417,-0.983540,0.439744,0.767046,0.999974,0.210701,0.194526
2571255418,0.652362,0.971198,2.884978,1.046539,0.207632,0.201518
2571275419,4.258065,5.158014,5.197723,1.123815,0.195840,0.203480
2571295419,-7.037081,22.637569,-0.909387,1.117824,0.157245,0.241868
2571315419,-9.493504,40.133884,-11.152989,1.048364,0.132094,0.331677
2571335419,11.545520,48.249943,-7.638203,1.001494,0.145500,0.366847
2571355419,19.230537,55.612396,7.659175,0.987537,0.221456,0.368641
2571375419,-5.190702,65.296204,15.804923,0.999127,0.259917,0.335512
2571395419,-26.034462,73.535446,22.109440,0.988703,0.228487,0.296301
2571415418,-35.017685,74.468086,33.499653,0.983990,0.154196,0.300679
2571435418,-35.803211,76.011017,49.865219,0.913726,0.056684,0.319440
2571455418,-32.714413,74.573013,62.138157,0.858911,0.017292,0.350507
2571475418,-27.802294,68.820282,69.216774,0.906620,-0.007311,0.353554
2571495418,-11.187935,68.007950,78.309357,1.009850,-0.022053,0.333932
2571515418,15.635909,74.136429,90.713158,1.049015,-0.031464,0.363204
2571535419,34.878761,77.900742,96.854851,0.992149,-0.043854,0.423207
2571555419,39.898842,78.187889,96.055489,0.928354,-0.013215,0.456026
2571575419,32.730820,73.929413,94.215294,0.868516,0.023704,0.476110
2571595419,15.427999,63.777897,91.399414,0.788525,0.018080,0.485516
2571615420,-3.835048,51.869137,89.915123,0.753460,-0.026437,0.479918
2571635420,-9.617517,43.360687,91.545570,0.792710,-0.083215,0.458199
2571655421,2.185688,39.130081,90.758499,0.785557,-0.124607,0.451922
2571675421,15.899509,32.963390,84.750732,0.702561,-0.122516,0.481429
2571695421,19.863953,20.402657,75.229591,0.613325,-0.113785,0.476566
2571715421,19.204109,2.934456,61.952168,0.570899,-0.109896,0.431383
2571735419,15.515516,-12.802601,46.917675,0.611414,-0.083691,0.391435
2571755419,15.563370,-22.623699,35.532574,0.733141,-0.079397,0.382652
2571775420,24.417471,-26.947096,26.194942,0.794145,-0.110878,0.471135
2571795420,35.120277,-30.593061,16.085859,0.788209,-0.132774,0.602946
2571815420,29.942959,-33.981331,5.880966,0.758349,-0.097240,0.672337
2571835420,7.712537,-35.351578,-2.089370,0.764620,-0.100116,0.677552
2571855420,-9.025767,-35.908062,-2.337161,0.808301,-0.188445,0.636568
2571875420,-6.756115,-35.453049,1.746451,0.859389,-0.232361,0.565605
2571895420,4.636908,-32.304955,-3.023850,0.884574,-0.162069,0.528110
2571915420,4.082010,-34.848961,-6.026720,0.887321,-0.102463,0.504782
2571935421,0.252978,-36.622856,-4.488920,0.874773,-0.102155,0.469624
2571955422,1.644174,-30.899817,-5.987890,0.886960,-0.106107,0.471905
2571975422,4.461121,-25.266968,-7.979321,0.880501,-0.087801,0.483782
2571995422,3.591835,-23.432415,-9.153963,0.852145,-0.060283,0.503415
2572015422,-9.122310,-22.682625,-12.982545,0.857514,-0.031977,0.494734
2572035422,-22.223314,-19.746700,-17.518412,0.888776,-0.023462,0.475397
2572055422,-27.337049,-14.965709,-22.182718,0.914717,-0.041569,0.474568
2572075421,-31.446213,-17.577574,-23.899956,0.885795,-0.066710,0.466271
2572095421,-33.414371,-20.472740,-27.837095,0.887694,-0.072342,0.418579
2572115421,-32.949375,-18.172037,-34.499062,0.907756,-0.048400,0.393420
2572135421,-32.619919,-17.450926,-38.250309,0.901486,-0.031777,0.376865
2572155421,-30.244576,-14.862120,-40.864269,0.914783,-0.017664,0.353704
2572175421,-32.939857,-13.750455,-41.191364,0.913144,0.026857,0.375078
2572195421,-45.070541,-16.131023,-39.042946,0.916000,0.059888,0.362468
2572215421,-56.112328,-16.782167,-41.428940,0.926575,0.082948,0.337865
2572235421,-72.187798,-21.973810,-45.982769,0.906147,0.079142,0.333887
2572255421,-89.773865,-28.832607,-50.864117,0.906927,0.067155,0.285095
2572275423,-98.646797,-28.809147,-54.433372,0.900753,0.081674,0.274138
2572295423,-102.251282,-29.537872,-55.895473,0.930562,0.071054,0.274966
2572315423,-106.737427,-29.124859,-61.568756,0.977668,0.051813,0.264334
2572335423,-112.844765,-27.645264,-70.036026,0.996315,0.050224,0.238093
2572355423,-115.462967,-25.291470,-80.233040,0.989424,0.062268,0.230997
2572375424,-116.858612,-24.013559,-91.487076,0.975193,0.093105,0.198546
2572395423,-119.399765,-25.041801,-99.275322,0.987572,0.115546,0.139764
2572415422,-119.811676,-24.441301,-104.800888,1.003286,0.120779,0.122146
2572435422,-125.849655,-26.432119,-110.197800,0.996319,0.108994,0.133203
2572455422,-132.118317,-31.944521,-117.112770,1.010512,0.071374,0.129911
2572475422,-135.550034,-38.853668,-127.499672,1.067070,0.032520,0.128523
2572495423,-141.192200,-41.812637,-140.744110,1.217029,0.012825,0.067031
2572515423,-125.938606,-22.571527,-140.650238,1.307931,0.063837,-0.045125
2572535423,-89.670570,14.909924,-127.656570,1.269115,0.039539,0.130632
2572555423,-80.433975,16.324799,-96.813873,1.296307,-0.088044,0.396755
2572575423,-81.050034,21.116884,-31.356915,1.303127,-0.150894,0.468026
2572595423,-80.984917,41.516777,31.146038,1.357270,-0.386597,0.536774
2572615425,-51.649857,77.966194,70.317764,1.157084,-0.431703,0.652027
2572635425,-46.490864,109.652618,71.153664,1.051774,-0.142785,0.757629
2572675425,-120.257332,141.045532,90.551842,1.223130,0.232652,0.420098
2572695425,-143.331055,146.124359,120.757973,1.105366,0.060502,0.317479
2572715426,-125.237328,137.181824,143.323883,0.954939,-0.203923,0.267669
2572735430,-74.037399,131.853607,149.976379,0.885282,-0.326421,0.307344
2572755425,-20.486963,135.031494,141.054108,0.831062,-0.270777,0.424616
2572775425,20.718689,135.091583,124.907005,0.839225,-0.044777,0.519648
2572795425,36.759247,139.817825,109.864426,0.874445,0.180619,0.574553
2572815424,7.368856,143.443161,91.356262,0.753916,0.224917,0.670991
2572835425,-46.271767,128.830383,56.854973,0.563161,0.142164,0.659578
2572875425,-109.296616,78.765083,-18.289171,0.323879,-0.029927,0.527093
2572895425,-112.081520,56.475266,-41.535763,0.401609,-0.069538,0.377156
2572915425,-75.093796,36.787117,-56.867336,0.400832,-0.106716,0.300003
2572935427,-37.538425,15.016101,-77.002441,0.303368,-0.085558,0.331808
2572955426,-18.365728,-7.916038,-100.483215,0.293332,0.051842,0.408681
2572975426,-28.870045,-33.529755,-123.352707,0.356024,0.238627,0.493280
2572995426,-63.447109,-60.293648,-149.017578,0.516095,0.303823,0.566316
2573015427,-108.641945,-53.680191,-178.812881,0.914331,0.132059,0.689722
2573035427,-138.992294,-5.309096,-168.102478,1.231247,-0.300591,0.998659
2573055427,-162.733887,67.812187,-91.724182,1.507754,-0.960122,1.376352
2573075426,-100.669472,20.154678,-84.093513,0.979556,-0.880254,0.800706
2573095426,-51.813568,16.057940,-123.563881,0.819523,-0.277032,0.383274
2573115426,-40.864826,24.822815,-108.059784,0.501163,0.004223,0.241295
2573135426,-56.793541,-1.264960,-113.317497,0.361376,0.192534,0.284974
2573155426,-80.772385,-10.114204,-146.498535,0.660765,0.209321,0.396004
2573175426,-98.773033,1.282780,-143.154663,0.941526,-0.041289,0.444915
2573195426,-101.529732,-10.143253,-119.600723,0.916584,-0.337175,0.453497
2573215426,-106.692787,-14.626787,-151.983185,0.678633,-0.272419,0.560479
2573235426,-128.281464,-41.898205,-191.915833,0.595044,-0.132605,0.461985
2573255426,-138.700134,-79.397537,-207.862045,0.718586,-0.032223,0.201810
2573275428,-113.093864,-112.223709,-194.280594,0.995868,0.098840,0.083642
2573295428,-86.978661,-112.040855,-155.879684,1.393980,0.245304,-0.132426
2573315428,-117.085945,-66.880409,-163.029449,1.384413,0.170694,0.013932
2573335428,-89.434151,-78.508423,-175.710342,1.225173,-0.062392,0.343287
2573355428,-59.418655,-55.445656,-161.558868,1.388424,0.092457,0.530457
2573375429,-72.675896,-10.184714,-124.155159,1.437472,-0.252989,0.850774
2573395429,-69.423462,15.860552,-70.507576,1.187160,-0.543352,0.962266
2573415427,-81.069939,33.909466,-67.602844,1.124019,-0.326113,0.949353
2573435427,-145.657013,52.324814,-58.940849,1.170983,-0.033442,0.863052
2573455428,-217.178741,66.684753,-29.809359,1.184471,-0.045550,0.748441
2573475428,-252.250122,75.354645,-0.355022,1.143211,-0.261667,0.640609
2573495428,-223.909409,86.244179,26.626181,1.089282,-0.473847,0.522373
2573515428,-149.394379,106.568474,47.707397,1.016794,-0.564899,0.423890
2573535428,-67.534828,124.351212,59.662575,0.950031,-0.528591,0.397393
2573555428,-9.373267,131.519638,67.092926,0.915357,-0.387038,0.435734
2573575428,24.302462,127.084648,74.854912,0.861048,-0.218569,0.470910
2573595428,26.285034,114.814308,80.547783,0.760976,-0.036415,0.505323
2573615430,-4.277225,96.929657,84.119766,0.610460,0.054215,0.529780
2573635430,-40.961853,73.961143,79.565880,0.421818,0.028698,0.499996
2573655430,-62.776257,47.870235,65.231071,0.347994,-0.014361,0.462698
2573675430,-77.375702,22.827356,54.323856,0.445568,0.002356,0.409606
2573695430,-79.949966,1.838317,43.556107,0.572192,-0.025698,0.320186
2573715430,-66.482201,-11.424658,23.310078,0.576296,-0.005074,0.325475
2573735429,-64.592781,-24.247301,0.591966,0.461919,0.067324,0.463502
2573755429,-89.166931,-47.961212,-17.449490,0.406436,0.141787,0.604371
2573775429,-127.301620,-79.403122,-36.321083,0.519033,0.147238,0.567657
2573795429,-163.934555,-93.979492,-60.990696,0.664158,0.095906,0.403619
2573815429,-185.990311,-81.870239,-88.682411,0.718586,0.057330,0.361340
2573835429,-196.622925,-30.678062,-119.856003,1.109854,-0.147314,0.546205
2573855429,-180.878448,34.595448,-114.493912,1.334681,-0.613831,0.664458
2573875430,-141.835114,68.749855,-103.633263,1.109625,-0.674598,0.766474
2573895430,-133.086487,75.084717,-132.860596,0.947135,-0.628829,0.636705
2573915430,-125.578537,89.184219,-152.557495,1.024005,-0.727807,0.351759
2573935431,-100.012749,91.335655,-162.996323,0.993509,-0.573975,0.168023
2573955431,-83.778366,87.187424,-180.963318,0.933197,-0.235118,0.221774
2573975431,-80.780449,34.520142,-164.870834,0.790816,-0.142904,0.153065
2573995431,-89.328056,-2.221307,-153.030655,0.767042,-0.145582,0.045049
2574015431,-114.808289,-9.413008,-168.597092,0.814533,-0.040358,0.118526
2574035432,-135.025833,-22.405066,-177.276291,0.847351,-0.088924,0.171961
2574055432,-138.486542,-37.491058,-185.042206,0.908714,-0.222724,0.219422
2574075430,-155.446411,-52.391773,-205.293808,1.241954,-0.310940,0.119780
2574095431,-152.685318,-52.315643,-221.554138,1.683067,-0.339186,-0.190498
2574115430,-95.547470,-39.986557,-189.026703,1.658982,-0.183125,0.146826
2574135431,-101.405632,-59.143620,-118.391258,1.262810,-0.131876,0.644653
2574155431,-134.106125,-38.477585,-65.930542,1.250916,-0.307513,0.493259
2574175431,-101.312920,60.180122,-19.001322,1.204767,-0.733223,0.552332
2574195431,-54.700794,136.757034,13.685719,0.873640,-0.705259,0.796222
2574215432,-75.481613,155.201370,20.642824,0.960812,-0.383542,0.658433
2574235432,-130.921783,161.350006,38.437859,1.152354,-0.208676,0.539275
2574255432,-170.066681,152.403122,63.165085,1.121138,-0.265779,0.428554
2574275433,-150.464554,146.350464,70.375542,1.019319,-0.436337,0.327348
2574295433,-109.673882,137.706589,67.789024,0.869143,-0.516432,0.288665
2574315433,-61.407055,136.667709,57.291351,0.834790,-0.431300,0.234470
2574335434,-14.173363,140.118134,44.171478,0.726178,-0.260862,0.295066
2574375434,-19.168081,92.043472,5.556814,0.563979,0.017857,0.550212
2574395434,-66.233688,64.367661,-30.191982,0.566425,0.002394,0.546826
2574415432,-94.950500,50.391319,-63.624512,0.447808,-0.034940,0.411205
2574435432,-102.866516,34.144985,-92.240189,0.356179,-0.041700,0.324004
2574455432,-125.252762,7.894688,-119.771713,0.408105,-0.055126,0.282226
2574475432,-158.831802,-9.608572,-142.375000,0.570040,-0.088005,0.168425
2574495432,-159.069824,-19.634521,-143.954712,0.602553,-0.245230,0.225989
2574515432,-144.416794,-21.373436,-143.390610,0.728158,-0.470553,0.363618
2574535433,-104.094688,-10.019852,-154.994873,1.005273,-0.589359,0.565170
2574555433,-42.396885,50.310284,-143.733215,1.408652,-0.684355,0.832574
2574575433,40.748985,99.059738,-104.619873,1.151309,-0.665524,0.915985
2574595433,7.502632,63.582191,-134.005386,0.772664,-0.023837,0.867925
2574615434,-86.549339,17.625860,-149.873215,0.730121,0.220254,0.525880
2574635435,-148.824051,-22.121479,-133.191574,0.684594,0.106967,0.228519
2574655435,-183.148727,-47.355114,-141.317673,0.623184,0.028331,0.118372
2574675435,-175.951218,-42.991333,-157.655701,0.752457,-0.133113,0.195948
2574695435,-142.285934,-39.582485,-152.003845,0.873396,-0.412542,0.198540
2574715435,-93.390991,-39.595982,-151.588791,0.900007,-0.519993,0.161783
2574735435,-50.000912,-38.829266,-168.585022,0.827402,-0.341083,0.270591
2574755433,-33.478687,-58.629223,-182.629471,0.805931,-0.118341,0.341841
2574775434,-44.398327,-89.729530,-192.013794,0.925153,0.021458,0.326846
2574795434,-76.453384,-117.661102,-182.233994,1.098143,0.068004,0.202085
2574815434,-113.851593,-114.990509,-158.722488,1.230656,0.064047,-0.030582
2574835434,-140.300797,-84.504120,-143.305634,1.257266,-0.056198,0.004189
2574855434,-116.329163,-69.049026,-109.569344,1.316863,-0.249528,0.424802
2574875434,-99.225937,-56.056202,-29.404194,1.437081,-0.457926,0.689090
2574895434,-72.442444,-19.381048,30.364761,1.285299,-0.638110,0.679749
2574915435,-52.705677,15.976902,29.392387,1.192909,-0.545692,0.769163
2574935435,-69.202187,39.310410,16.481094,1.232336,-0.205598,0.663267
2574955437,-99.221024,65.386940,27.572243,1.249433,0.041816,0.463886
2574975437,-118.403465,82.446045,55.540489,1.173657,-0.026333,0.379157
2574995437,-117.180557,83.821304,78.007507,1.093644,-0.266920,0.346200
2575015437,-87.856941,84.946457,86.744484,1.063145,-0.416017,0.325744
2575035437,-49.580280,87.485558,93.427933,1.014738,-0.418560,0.330404
2575055437,-14.935556,87.800735,103.360161,0.942227,-0.356570,0.336749
2575075436,8.481010,93.964737,105.033897,0.909303,-0.272134,0.388481
2575095436,12.872814,99.351944,97.131699,0.860278,-0.192912,0.484008
2575115436,-2.150327,94.819763,85.867477,0.794363,-0.138346,0.546722
2575135436,-16.731167,88.872375,72.267021,0.728125,-0.131361,0.517397
2575155436,-21.985054,87.947174,53.927628,0.644345,-0.113189,0.456163
2575175436,-27.472603,84.777237,31.556622,0.543208,-0.086908,0.389521
2575195436,-41.289749,68.338455,10.400915,0.483725,-0.048479,0.356862
2575215436,-49.977917,40.282608,-3.703770,0.472742,-0.062306,0.352676
2575235436,-59.219383,9.806668,-18.775272,0.485469,-0.168407,0.326158
2575255436,-76.042862,-8.822418,-51.906666,0.564415,-0.233453,0.211103
2575275438,-70.898590,-20.107548,-78.134705,0.583484,-0.147367,0.309034
2575295438,-64.500610,-39.143147,-88.093567,0.602238,-0.058340,0.465933
2575315438,-72.035347,-54.848358,-106.773514,0.688764,0.035883,0.546357
2575335438,-84.787987,-42.393196,-128.293045,0.900302,0.039186,0.639470
2575355439,-115.056290,-5.077161,-125.420998,1.311412,-0.159343,0.804647
2575375438,-149.772003,37.979458,-70.134430,1.527268,-0.587229,0.947391
2575395438,-145.687393,43.548119,-23.252436,1.050524,-0.707328,0.723145
2575415437,-125.660172,32.426353,-64.261520,0.731591,-0.406756,0.437288
2575435437,-116.282372,23.839211,-84.966019,0.568452,-0.440933,0.081520
2575455437,-84.727898,12.494650,-75.506363,0.577861,-0.629803,-0.035615
2575475437,-20.369928,36.252522,-79.532921,0.829698,-0.561136,0.168275
2575495437,20.900227,54.361160,-58.183422,0.998164,-0.510038,0.526390
2575515437,-9.478712,32.175877,-44.774437,0.802827,-0.277853,1.000017
2575535437,-76.992516,-22.311371,-41.171711,0.690959,-0.127550,0.601613
2575555438,-82.260582,-29.590439,-29.100103,0.823820,-0.356203,0.155215
2575575438,-59.056458,-0.103830,-28.017481,0.836733,-0.539431,0.335942
2575595438,-31.236145,10.372461,-30.943010,0.770870,-0.490306,0.482295
2575615439,-4.497070,-3.855846,-29.571980,0.707477,-0.357607,0.481898
2575635439,-8.801005,-10.754763,-30.166988,0.812264,-0.330709,0.382293
2575655440,-1.766180,-3.745325,-30.382885,0.906352,-0.320525,0.420209
2575675440,1.375368,-10.811911,-28.123396,0.814060,-0.273078,0.486325
2575695440,-1.760709,-27.164124,-30.915092,0.737745,-0.223459,0.435719
2575715440,-3.898620,-32.212708,-34.005764,0.793882,-0.202260,0.386702
2575735440,3.122838,-31.386421,-34.079578,0.837495,-0.174926,0.430231
2575755438,6.456388,-34.351471,-36.733532,0.819912,-0.164121,0.460446
2575775439,-4.535639,-23.295252,-48.200844,0.771498,-0.095629,0.474048
2575795439,0.150057,-11.872442,-58.274750,0.767448,-0.051365,0.512003
2575815439,2.092277,-9.313755,-72.452782,0.834243,-0.059968,0.524301
2575835439,-1.831504,-13.518085,-85.197884,0.881190,-0.062826,0.483132
2575855439,-1.381887,-18.361361,-86.857437,0.842465,-0.056868,0.435491
2575875439,-1.770410,-23.047916,-88.118706,0.821449,-0.042931,0.412717
2575895439,-7.612092,-33.013802,-99.765022,0.859847,-0.047134,0.379145
2575915439,-8.623321,-42.426682,-112.537819,0.932282,-0.035575,0.315936
2575935439,-3.543915,-47.241634,-115.138161,0.944345,-0.002562,0.347476
2575955441,-5.118100,-66.109077,-113.525574,1.025300,-0.007309,0.408841
2575995441,25.705393,-41.311577,-101.315872,1.308328,-0.115263,0.291210
2576015442,102.318863,-18.654850,-54.751453,1.204009,-0.340927,0.667889
2576035442,147.584320,18.936190,26.047482,1.568647,-0.401792,0.880742
2576055442,141.741608,82.574020,121.719696,1.545035,-0.344397,0.975127
2576075452,132.340485,131.544052,178.414078,1.254703,-0.099364,0.890813
2576095441,56.095989,173.752563,175.903656,1.057559,0.261700,0.870693
2576115441,-61.872971,176.566864,188.261932,1.094976,0.305212,0.447430
2576135441,-115.093140,157.443756,242.623016,1.093849,0.047602,0.059601
2576155441,-83.155434,133.735886,293.902924,0.938728,-0.331953,-0.000072
2576175441,-2.666599,117.814011,302.931793,0.900697,-0.536632,0.054592
2576195441,84.770645,108.874863,276.719971,0.930720,-0.426384,0.059403
2576215441,142.076965,99.372032,239.066956,0.803341,-0.025555,0.202561
2576235441,134.106857,63.006466,212.700928,0.433561,0.303973,0.543500
2576255441,54.885918,3.844903,171.831024,0.325939,0.342491,0.661683
2576275443,-44.041832,-20.605333,121.295822,0.368151,0.287052,0.579132
2576295443,-76.884521,-31.837078,64.159767,0.356376,0.042248,0.663866
2576315443,-78.016228,-24.988222,-4.480509,0.360613,0.008006,0.627766
2576335443,-92.063576,-21.322628,-62.127113,0.334896,0.069221,0.490471
2576355443,-95.102074,-32.475510,-100.834488,0.363085,0.069167,0.388684
2576375443,-106.412033,-46.820427,-130.887146,0.449458,-0.051656,0.401718
2576395443,-122.694679,-60.288235,-152.485825,0.540334,-0.238085,0.391723
2576415442,-126.234581,-64.361786,-161.502014,0.635382,-0.484721,0.449467
2576435442,-115.620270,-26.928617,-135.152908,0.997275,-0.967922,0.545092
2576455442,-47.908825,57.626167,-99.117897,1.190701,-1.128883,0.681594
2576475442,3.934709,15.284660,-94.063629,0.710841,-0.770991,0.675278
2576495442,-24.167023,-56.046638,-104.342171,0.784451,-0.717077,0.397253
2576515442,-24.696175,-71.055237,-123.118073,0.728784,-0.611006,0.237350
2576535442,20.136335,-73.983688,-150.006073,0.763949,-0.454846,0.180209
2576555443,77.426514,-67.050491,-159.122009,0.775046,-0.293697,0.245528
2576575443,89.647728,-76.065887,-149.113449,0.840283,-0.051233,0.368703
2576595443,51.389530,-94.903915,-135.569656,0.883012,0.152200,0.430863
2576615444,-5.619170,-112.363983,-136.985535,0.902183,0.197338,0.468947
2576635444,-55.923523,-126.277969,-157.051300,1.070659,0.121037,0.430586
2576655444,-59.688290,-100.615860,-174.704910,1.483614,0.025239,0.230430
2576675444,-21.445049,-33.390495,-164.013306,1.468970,-0.241171,0.370198
2576695444,42.972103,-28.812490,-131.248413,1.270878,-0.533155,0.560140
2576715445,88.050827,-5.176382,-65.462433,1.384808,-0.255212,0.541236
2576735445,62.077824,34.587814,-7.852694,1.293940,-0.191153,0.607749
2576755444,19.142305,54.750397,22.163017,1.083465,-0.114359,0.688278
2576775444,-32.649269,54.455303,43.641079,1.058352,-0.039239,0.602405
2576795444,-79.074806,52.295143,59.228794,1.050861,0.004812,0.359928
2576815444,-71.826012,54.310677,75.502319,0.939391,-0.045964,0.172227
2576835444,-19.795422,55.195286,83.954277,0.801436,-0.139862,0.152669
2576855444,41.496376,56.648121,89.048050,0.747414,-0.188092,0.164451
2576875445,93.129227,59.046707,96.537437,0.765634,-0.201931,0.126445
2576895444,122.985962,50.126057,90.164459,0.780595,-0.046739,0.067018
2576915445,118.689888,42.442673,66.995338,0.760002,0.191545,0.228343
2576935444,56.899868,20.737196,46.812176,0.686963,0.353860,0.523575
2576955446,-40.414902,-17.194969,21.431318,0.742719,0.409258,0.564241
2576975446,-106.143044,-47.164871,-2.518852,0.862112,0.336387,0.203612
2576995446,-100.776360,-78.360733,-9.507331,0.780121,0.124720,0.079612
2577015446,-89.141846,-109.844650,-33.522846,0.598569,-0.002221,0.011505
2577035446,-10.201241,-113.303711,-78.323875,0.412702,-0.010098,0.183066
2577055446,36.132778,-64.448654,-115.203407,1.125951,-0.036329,0.715328
2577075445,33.805344,-14.455609,-93.031754,1.685662,0.073147,0.764890
2577095445,-2.905702,7.730453,-81.444031,1.142481,0.336912,0.585797
2577115445,-84.166687,-12.725800,-107.068626,0.854032,0.295859,0.294458
2577135445,-137.606476,-32.189358,-122.208549,0.897676,-0.003203,0.112863
2577155445,-130.803207,-27.293947,-108.332214,1.058197,-0.399680,0.094209
2577175446,-72.451912,-27.384663,-81.309151,1.044769,-0.620484,0.068551
2577195447,9.042376,-36.980827,-57.684799,0.956547,-0.443801,0.074890
2577215446,53.408295,-44.283077,-46.820118,0.957850,-0.070473,0.157557
2577235446,61.053062,-46.038418,-42.576260,0.969274,0.160296,0.266778
2577255446,40.219997,-39.932613,-40.814117,0.964282,0.297999,0.327826
2577275447,-5.817758,-28.764275,-44.499714,0.956242,0.320873,0.332592
2577295447,-54.444031,-23.936998,-55.622486,0.990969,0.215182,0.240248
2577315447,-71.784904,-27.682899,-56.696594,1.072230,0.158281,0.164133
2577335447,-62.325008,-26.047602,-38.881180,1.116754,0.119484,0.142555
2577355447,-53.008698,-14.284832,-20.829847,1.049660,0.069354,0.180140
2577375448,-45.908100,-10.110267,-15.782051,1.000790,0.028248,0.214577
2577395448,-38.264732,-9.134912,-24.347843,1.043110,0.011135,0.193100
2577415447,-18.014284,-9.211117,-26.833788,1.063579,0.005899,0.168850
2577435447,5.575357,-12.881765,-14.963549,1.055072,0.025152,0.212070
2577455447,8.980720,-10.451979,-0.460189,0.993762,0.094222,0.246969
2577475447,7.646724,-2.842100,6.905562,0.937536,0.183592,0.265919
2577495447,-2.331656,0.717236,2.223419,0.939125,0.248710,0.276610
2577515447,-25.165737,-1.121260,-3.523031,0.957212,0.204985,0.271717
2577535447,-41.940071,-2.655148,-5.719254,1.000741,0.073313,0.231854
2577555447,-33.236145,-5.295427,-10.694212,1.082408,-0.031153,0.167602
2577575447,-10.438486,-5.178355,-15.966429,1.067182,-0.070117,0.141138
2577595447,11.870075,-3.742872,-20.056892,0.981376,-0.055274,0.155553
2577615449,25.306877,-5.713425,-24.091387,0.966288,0.002090,0.184165
2577635449,31.115585,-6.032908,-28.577284,1.056337,0.065268,0.234818
2577655449,30.511969,-3.440975,-24.178661,1.075141,0.170032,0.309928
2577675449,14.347754,-1.111423,-16.766827,1.012229,0.255830,0.278969
2577695450,6.843610,2.855913,-4.500403,0.937346,0.214221,0.125428
2577715450,12.715439,11.368944,4.659777,0.885796,0.078734,0.097346
2577735448,18.777229,16.425377,-1.234723,1.045975,0.115348,0.129866
2577755449,33.904686,16.330864,2.313889,1.156225,0.243336,0.114688
2577775448,46.321178,20.625580,19.913757,1.034228,0.243444,0.157516
2577795449,44.747906,17.949841,25.609776,0.983781,0.123697,0.214581
2577815449,53.457188,19.647377,36.733326,1.084003,0.233805,0.167560
2577835449,44.395103,39.500820,50.393921,1.091747,0.282304,0.163153
2577855449,16.674202,46.169731,62.421272,0.970167,0.253261,0.240457
2577875449,2.084028,45.335052,74.057892,0.963788,0.124440,0.294092
2577895450,5.482829,53.694366,81.474617,1.058673,0.047398,0.285467
2577915449,16.996046,59.088730,82.621071,1.066571,0.055142,0.272931
2577935451,30.974504,57.982197,85.928741,1.030650,0.042740,0.261449
2577955451,35.698009,56.090546,91.873611,1.109124,0.050655,0.219337
2577975451,41.865822,57.110180,106.507553,1.109771,0.001764,0.208784
2577995451,53.716949,57.680782,126.353470,1.000176,-0.080594,0.268966
2578015451,58.808552,61.104256,132.629745,1.005730,-0.139218,0.373271
2578035451,67.845741,69.005280,131.876297,1.173486,-0.058983,0.479539
2578055451,69.685684,93.754158,134.225494,1.324367,0.053838,0.570085
2578075450,58.983196,135.088318,130.887695,1.242938,0.138476,0.703786
2578095450,26.573238,154.235229,122.969650,1.024187,0.186702,0.814864
2578115450,-44.619568,152.260849,122.673058,0.812103,0.087480,0.650155
2578135450,-113.975174,133.481277,123.530960,0.635342,-0.158412,0.420828
2578155450,-124.968071,106.245064,129.989273,0.542575,-0.460623,0.255330
2578175451,-59.467270,83.517685,127.543694,0.491318,-0.622764,0.156602
2578195451,44.900284,89.977448,118.860794,0.539630,-0.542203,0.305628
2578215451,111.426689,110.842117,115.422592,0.551857,-0.384516,0.530823
2578235451,112.052002,118.902725,101.377625,0.535207,-0.067976,0.703299
2578255451,48.937061,111.273674,77.299042,0.476579,0.063243,0.752687
2578275452,-38.212288,90.229874,57.813869,0.444981,-0.139428,0.607803
2578295452,-69.243492,60.067482,46.138596,0.365520,-0.378826,0.391943
2578315452,-32.523140,26.461006,21.926910,0.332703,-0.564607,0.294768
2578335452,26.516901,-12.443829,-13.085365,0.394000,-0.550043,0.209053
2578355452,88.806786,-48.747478,-41.041698,0.338177,-0.300445,0.181304
2578375453,130.325867,-76.166977,-60.082596,0.293858,-0.016832,0.305116
2578395451,130.237900,-69.761848,-66.608658,0.536414,0.026717,0.467795
2578415451,118.882370,-79.841743,-74.976753,0.582307,-0.039801,0.594793
2578435451,19.234491,-120.162758,-121.751053,0.775335,0.315125,0.850794
2578455451,-116.308556,-150.727417,-133.889420,1.056401,0.431228,0.791820
2578475451,-178.960190,-156.285950,-90.117447,1.334085,-0.308093,0.607670
2578495452,-111.485550,-121.022171,-54.906631,0.881719,-0.678248,0.624766
2578515452,-40.454819,-135.176971,-76.353874,0.466558,-0.567800,0.587602
2578535452,-18.291437,-158.760468,-77.586899,1.063342,-0.629056,0.195843
2578555452,116.842125,-89.228653,-25.901571,1.679942,-0.585194,0.191343
2578595454,114.640564,8.178840,66.789185,0.941820,-0.009226,1.218490
2578615454,-51.410770,-18.130384,67.408577,1.142678,0.162043,0.842706
2578635454,-110.856461,-6.200408,105.919083,1.285726,-0.368030,0.413265
2578655455,-67.076431,10.861208,152.658859,1.030408,-0.706920,0.239032
2578675454,55.580997,56.858295,124.433655,0.993722,-0.449310,0.297644
2578695454,147.704285,57.157314,93.819336,0.905795,-0.157052,0.376553
2578715455,141.450851,52.260899,96.324677,0.856471,0.077221,0.443697
2578735453,86.869965,51.369862,97.983925,0.808648,0.151696,0.501453
2578755453,8.812223,43.999771,102.295135,0.659449,0.163049,0.641801
2578775453,-59.925354,30.423845,100.998817,0.623049,0.013594,0.676478
2578795453,-85.413689,25.483763,94.039864,0.742395,-0.258530,0.564647
2578815453,-56.542370,28.651232,79.485275,0.785451,-0.496619,0.532799
2578835454,3.088176,46.111946,61.465290,0.672556,-0.454341,0.613746
2578855454,31.666073,62.169765,57.378693,0.528312,-0.272179,0.653097
2578875454,14.228557,63.949947,55.816418,0.491435,-0.152579,0.672415
2578895454,-19.216587,68.918892,46.607082,0.542459,-0.213085,0.706149
2578915454,-39.543659,65.294258,37.080410,0.424308,-0.394925,0.662693
2578935455,-37.591217,39.431339,17.316463,0.273876,-0.537441,0.543236
2578955455,-18.925852,15.820290,-22.793856,0.349911,-0.574909,0.394434
2578975456,26.887253,9.160831,-67.497444,0.426373,-0.439306,0.321424
2578995462,66.886642,7.587584,-100.973312,0.378592,-0.176353,0.381211
2579015456,72.957817,-11.394958,-124.206970,0.337248,0.037769,0.481309
2579035456,48.399834,-44.755299,-142.417542,0.455750,0.132934,0.547902
2579055454,5.687051,-75.178719,-158.225525,0.656369,0.154837,0.584247
2579075454,-39.053909,-95.459473,-174.936523,0.815707,0.103017,0.578712
2579095455,-64.673988,-102.921989,-193.054459,0.931180,0.008725,0.557698
2579115455,-74.852814,-93.921570,-206.659180,1.008362,-0.108294,0.568847
2579135455,-76.488602,-79.929932,-206.053986,1.064355,-0.353401,0.713742
2579155455,-117.940872,-60.098442,-211.616058,1.059031,-0.183587,0.991753
2579175455,-171.671021,-77.126869,-219.835083,1.463675,0.360179,0.451483
2579195455,-123.454391,-77.531349,-138.953369,1.810012,-0.121174,0.030546
2579215455,-78.822815,-38.489143,-12.478519,1.329763,-1.000170,0.626378
2579235456,-36.968376,-14.187818,51.768890,0.651913,-1.222332,0.893698
2579255457,5.367432,3.478918,57.567295,0.698530,-0.702616,0.772344
2579275457,-7.710400,11.016732,71.796021,1.145411,-0.297527,0.431293
2579295457,-19.439360,7.615528,108.577408,0.961901,-0.123656,0.258662
2579315458,34.484283,-0.567849,127.518509,0.899285,-0.200489,0.456969
2579335458,92.970795,21.031563,101.954041,0.790008,-0.099274,0.494541
2579355458,102.600479,40.498024,65.420982,0.710499,0.145759,0.423934
2579375475,48.071079,39.813896,46.188477,0.904886,0.310826,0.450082
2579395456,-20.832951,35.600410,67.344505,0.737999,0.035682,0.579785
2579415456,-58.527691,28.767357,59.150394,0.706789,-0.261056,0.665669
2579455456,-61.809032,7.408923,26.091106,0.936997,-0.228876,0.460339
2579475456,-54.697746,-10.141911,40.508526,0.716752,-0.391744,0.314495
2579495456,-25.292866,-14.495049,33.896511,0.661055,-0.589725,0.283773
2579515457,13.619560,-1.545806,10.497286,0.750145,-0.654480,0.337476
2579535457,45.582424,-3.109807,-1.428197,0.729848,-0.490818,0.455619
2579555457,63.709431,-24.868670,8.413577,0.679371,-0.235966,0.478925
2579575459,53.336281,-25.330803,14.215753,0.745052,-0.076655,0.414017
2579595459,27.522404,-16.992823,10.952163,0.878545,-0.128880,0.430849
2579615459,4.359222,-12.097044,16.697281,0.919266,-0.175292,0.595706
2579635459,-26.932362,-6.049520,17.648731,0.927376,-0.204063,0.636365
2579655459,-41.765652,-12.263592,20.199244,0.906136,-0.467100,0.639919
2579675459,-41.699989,-13.347901,39.422581,0.997461,-0.887442,0.553617
2579695459,12.607008,14.119332,36.648609,0.915825,-0.839924,0.526160
2579715458,47.029282,19.625435,26.572075,0.706445,-0.516303,0.450485
2579735458,57.516563,5.072894,22.228117,0.650709,-0.359940,0.323740
2579755458,65.217506,2.767531,6.769142,0.697876,-0.265774,0.329154
2579775458,51.278950,9.244569,-12.240484,0.761180,-0.108762,0.398619
2579795458,27.651052,2.297196,-2.229524,0.715040,-0.060825,0.510161
2579815458,17.930548,-10.540902,20.093531,0.725050,-0.205532,0.545232
2579835458,29.820608,-13.697906,30.419025,0.809677,-0.281768,0.558658
2579855458,41.754448,-11.902933,36.610630,0.860571,-0.228043,0.576862
2579875459,40.457775,-13.260644,34.107330,0.857358,-0.132959,0.603554
2579895459,21.835176,-17.212231,19.292807,0.808791,-0.110023,0.577993
2579915460,5.387541,-16.660900,-4.709254,0.747734,-0.167629,0.476831
2579935460,2.768508,-14.850344,-26.690378,0.724973,-0.222466,0.384494
2579955460,11.317346,-9.110374,-38.177246,0.754943,-0.212978,0.393133
2579975460,19.294765,-7.767559,-38.098186,0.810056,-0.161303,0.471249
2579995461,12.592383,-14.526251,-31.364714,0.867896,-0.093618,0.509650
2580015460,0.116729,-19.116220,-27.403664,0.907417,-0.071478,0.470029
2580035464,-4.542254,-13.475841,-30.645266,0.923532,-0.042900,0.426333
2580055460,-9.499076,-11.124188,-34.569733,0.886979,-0.003703,0.430470
2580075460,-18.179634,-8.920543,-39.768417,0.884391,0.056660,0.439460
2580095460,-29.964108,-6.417756,-46.451344,0.887599,0.087114,0.387030
2580115460,-42.411171,0.025693,-57.093163,0.908225,0.090559,0.353435
2580135460,-52.621792,3.065526,-63.755314,0.904164,0.087515,0.376063
2580155460,-58.538681,-2.527434,-68.125748,0.941850,0.156221,0.341636
2580175460,-72.874382,-9.467485,-70.498589,0.970487,0.226320,0.327530
2580195460,-93.200211,-18.613701,-72.127327,0.959285,0.190071,0.363366
2580215460,-117.414307,-25.032400,-79.814941,0.931937,0.141846,0.338838
2580235462,-136.148987,-28.868055,-91.110977,0.967061,0.119929,0.225052
2580255462,-144.575256,-27.068245,-102.601234,1.005625,0.109586,0.201062
2580275462,-152.619354,-28.403097,-114.033440,1.037588,0.136465,0.151075
2580295462,-160.681747,-27.099607,-125.454720,1.065664,0.161383,0.104363
2580315462,-170.734650,-27.390514,-136.608902,1.064728,0.166788,0.086848
2580335462,-188.293518,-25.686510,-151.241135,1.112471,0.150447,0.025735
2580355462,-190.214722,-19.401176,-161.649139,1.236778,0.159785,-0.020590
2580375461,-169.401932,-15.544110,-159.177933,1.376974,0.073341,-0.041019
2580395461,-118.300636,7.387482,-139.217468,1.441771,-0.024750,-0.015052
2580415461,-120.868965,34.044418,-122.858818,1.337055,-0.099430,0.080728
2580435461,-128.741531,44.323929,-112.716751,1.275721,-0.110228,0.169121
2580455461,-134.137054,69.090889,-73.439804,1.312518,-0.100738,0.327789
2580475462,-193.133850,90.510208,-33.834465,1.230729,-0.282384,0.497777
2580495462,-240.844696,92.003189,-13.971413,1.227623,-0.456014,0.448877
2580515462,-231.315353,90.885094,0.466862,1.240074,-0.422002,0.341117
2580535462,-207.057343,97.135918,21.165096,1.155081,-0.394312,0.308002
2580555462,-168.138168,101.155678,48.053131,1.068816,-0.424150,0.254960
2580575464,-119.682457,112.409813,72.159439,0.998268,-0.474126,0.234585
2580595464,-72.149086,118.634087,83.259911,0.883312,-0.490884,0.322621
2580615464,-43.773632,116.929985,83.214012,0.862496,-0.378162,0.399582
2580635464,-37.438820,112.180420,88.807312,0.857779,-0.236393,0.459292
2580655464,-40.206867,107.849533,100.177803,0.788509,-0.173688,0.495030
2580675464,-55.071972,105.538872,94.457886,0.757316,-0.158284,0.508801
2580695463,-85.181137,100.792053,73.901138,0.790899,-0.130924,0.520212
2580715463,-119.410675,82.284851,56.336159,0.721231,-0.165516,0.566197
2580735463,-142.644928,44.777283,39.080643,0.626079,-0.376287,0.497967
2580755463,-123.349854,10.670572,13.195384,0.674704,-0.621072,0.076419
2580775464,-24.753960,13.854009,9.698442,0.467348,-0.794536,0.162101
2580795464,11.918537,18.496485,-7.588625,-0.059160,-0.614423,0.622704
2580815464,28.708260,1.529144,-46.694580,0.022299,-0.130582,0.364697
2580835463,-6.474825,-19.377895,-72.535217,0.368080,0.054604,0.572669
2580855464,-63.453678,-31.554829,-93.657463,0.795468,0.082943,0.740452
2580875464,-88.504974,-13.215258,-98.596130,0.924055,-0.015204,0.488487
2580895465,-119.540329,12.923642,-61.799671,0.834428,-0.299408,0.849156
2580915465,-135.998856,46.375221,-47.095425,0.809752,-0.496254,0.880209
2580935465,-100.843567,59.681881,-51.807541,0.743210,-0.814810,0.589712
2580955465,-57.762772,53.300678,-56.686989,0.687758,-0.821332,0.496487
2580975466,-33.446060,50.979954,-52.448326,0.503071,-0.593376,0.588636
2580995466,-50.001545,41.287430,-44.737026,0.473734,-0.510491,0.619905
2581015466,-65.528381,25.969187,-32.832893,0.548892,-0.674121,0.572550
2581035465,-60.556740,22.356403,-18.157310,0.599764,-0.837148,0.594905
2581055465,-36.583786,29.138462,-7.924467,0.489335,-0.795647,0.637943
2581075465,-10.957741,32.418022,-15.154171,0.406865,-0.629523,0.626351
2581095465,-1.503475,29.959293,-31.372795,0.318563,-0.558200,0.581768
2581115465,-12.176740,9.768466,-45.884029,0.413532,-0.702179,0.564869
2581135465,-12.712769,-2.134765,-46.344376,0.621440,-0.822417,0.595536
2581155465,17.027655,-22.419983,-27.481133,0.618736,-0.875048,0.515590
2581175465,38.227924,-41.083138,-17.431849,0.624362,-0.754994,0.350069
2581195465,64.720345,-39.895668,-11.737155,0.584544,-0.516837,0.340627
2581215465,85.692856,-46.187252,-7.503211,0.597221,-0.264654,0.518766
2581235467,78.730263,-53.808128,5.459212,0.751137,-0.130284,0.614028
2581255467,62.913395,-52.987572,19.746098,0.823386,-0.100854,0.643219
2581275467,51.944324,-48.135876,20.146578,0.775675,-0.049117,0.674964
2581295476,37.710175,-45.811924,12.882905,0.747962,-0.019841,0.640485
2581315467,26.671108,-40.504215,6.419436,0.776634,-0.065219,0.592944
2581335467,26.612690,-32.731194,0.555777,0.820771,-0.138712,0.566605
2581355466,34.591358,-25.457241,-6.102266,0.830408,-0.146353,0.605952
2581375467,32.237789,-28.847670,-13.447502,0.787073,-0.117955,0.588660
2581395466,22.258032,-34.911369,-23.078781,0.766409,-0.052659,0.559810
2581415466,11.458405,-38.830284,-29.486319,0.763858,-0.040340,0.533872
2581435466,8.053693,-41.934021,-36.486076,0.784492,-0.067239,0.514243
2581455466,2.945647,-43.933212,-43.110703,0.824707,-0.104672,0.511757
2581475467,2.094421,-49.036179,-50.523430,0.855368,-0.122605,0.466550
2581495467,3.120009,-52.903507,-53.474323,0.863025,-0.109848,0.416445
2581515467,10.163575,-55.385231,-54.901131,0.872468,-0.051810,0.382354
2581535467,11.855612,-59.148773,-53.204742,0.856594,0.034630,0.377035
2581555469,4.590401,-64.290649,-58.125809,0.836878,0.075441,0.442706
2581575469,-15.790021,-69.028069,-72.465172,0.792558,0.053807,0.434383
2581595469,-26.473370,-69.134964,-95.168297,0.802743,0.022046,0.377142
2581615469,-26.862206,-67.723907,-122.956100,0.892976,-0.013875,0.313018
2581635469,-19.788631,-69.364624,-148.279144,1.007484,0.014187,0.264665
2581655469,-20.462803,-81.803551,-160.621826,1.092029,0.025979,0.235689
2581675469,-12.509371,-98.805214,-160.299896,1.135474,0.063552,0.060596
2581695468,-10.966160,-91.528275,-162.049774,1.161730,0.224676,-0.031281
2581715468,-20.321920,-68.158569,-158.077744,1.056143,0.182224,0.326972
2581735468,17.597252,-77.749008,-128.456070,1.288047,-0.022396,0.677614
2581755468,62.506371,-38.783146,-40.867935,1.734789,-0.090232,0.753665
2581775469,47.758495,18.436239,46.590786,1.702214,-0.460676,0.616548
2581795469,70.835953,77.317566,116.003159,1.373318,-0.512092,0.443178
2581815470,50.949581,119.761444,117.793831,1.134147,-0.222109,0.748823
2581835469,-54.721699,126.615051,111.094482,1.173480,0.240166,0.515899
2581855469,-65.635590,108.835434,156.980530,1.212857,0.107194,-0.110144
2581875469,-21.932133,114.059715,206.206085,1.142291,-0.424254,0.064328
2581895471,60.952133,122.873283,215.051132,0.995909,-0.526358,0.227519
2581915471,132.806152,133.504364,206.490219,0.952903,-0.214249,0.152966
2581935471,145.669678,140.711731,206.451981,0.978944,0.115799,0.138305
2581955473,120.352760,136.076004,218.975555,0.906935,0.215210,0.257462
2581975471,79.373482,114.141121,204.618256,0.871578,0.211284,0.438962
2582015470,-4.293569,27.897760,127.376610,0.477345,0.213878,0.461770
2582035470,-47.743095,-18.405796,82.424553,0.292077,0.268008,0.310846
2582055470,-64.685432,-53.267288,23.445951,0.046495,0.165376,0.150413
2582075470,-95.186752,-120.306961,-50.341129,-0.067822,0.099445,0.042913
2582095470,-135.702698,-131.831070,-119.136177,0.587949,0.033232,0.307034
2582115470,-182.465820,-10.695854,-92.456055,1.950682,-1.005770,0.640377
2582135470,49.304047,47.175999,-72.574944,1.303032,-0.740804,0.835206
2582155470,56.438313,-18.496010,-38.621979,0.560922,-0.201642,0.840704
2582175470,-18.210587,-41.308315,-60.268852,0.760679,-0.073745,0.424528
2582195470,-83.790161,-26.788383,-78.022736,0.701056,-0.177240,0.301464
2582215472,-99.162216,-32.264160,-106.979965,0.839464,-0.331885,0.334058
2582235472,-41.996330,-33.516850,-105.700348,0.847164,-0.487293,0.323023
2582255472,10.343839,-40.103931,-95.270500,0.784539,-0.398913,0.250615
2582275473,28.578529,-39.101177,-96.521034,0.691409,-0.160146,0.287421
2582295473,17.089655,-50.170963,-103.052589,0.650016,-0.010484,0.367895
2582335472,-18.085297,-67.039268,-119.663185,0.975025,-0.007948,0.308736
2582355472,-1.375112,-46.647907,-115.682716,1.180645,0.086483,0.160854
2582375471,-1.592638,-27.305332,-104.849159,1.234049,0.240745,0.290374
2582395471,-49.798176,-35.005138,-104.176086,1.498176,0.229990,0.533554
2582415471,-83.132896,-27.618908,-113.282898,1.460796,-0.057368,0.490799
2582435472,-27.098135,-27.497248,-113.911781,1.161731,-0.528675,0.565357
2582455472,34.170521,-31.077629,-78.086174,1.189214,-0.683548,0.551138
2582475472,88.503532,-0.052891,-16.502415,1.169647,-0.457263,0.447217
2582495472,103.126175,40.447571,19.192055,0.983954,-0.063589,0.512181
2582515472,59.291508,55.948463,33.426388,0.829354,0.061086,0.552858
2582535472,-6.462872,57.038849,34.664124,0.810725,0.083567,0.514470
2582555474,-57.501884,43.687607,34.980583,0.920232,0.120497,0.430448
2582575474,-85.931786,28.796995,34.402817,0.972408,0.097784,0.229186
2582595474,-82.576416,14.023935,32.417835,0.773040,0.049858,0.059620
2582615474,-66.259758,-12.198633,17.742258,0.478416,0.085066,-0.038296
2582635474,-59.247601,-56.163956,-12.153444,0.174310,0.213767,-0.172772
2582655474,-62.034702,-105.263947,-50.203590,-0.266559,0.309855,-0.101791
2582675473,-9.337951,-129.562180,-153.054367,0.304853,0.296365,-0.026415
2582695473,129.701920,-57.089447,-232.891541,1.900563,0.086304,0.096865
2582715473,208.790924,8.354273,-148.360916,1.801148,0.049019,0.412411
2582735473,141.642059,-73.201332,-79.419647,0.984520,0.402197,0.670406
2582755473,2.468426,-128.181137,-108.369675,0.833888,0.747107,0.549570
2582775473,-121.657486,-99.893311,-121.168961,0.890273,0.663247,0.420439
2582795473,-218.629669,-58.576809,-90.546349,1.178360,0.261405,0.215884
2582815474,-231.598114,4.389826,-36.596878,1.594259,-0.078926,0.045968
2582835474,-98.582397,30.224506,14.156307,1.487100,-0.098336,-0.008083
2582855474,-15.121746,15.007400,71.203835,1.221000,-0.335780,0.360307
2582875475,-27.427895,13.869679,61.857224,0.907934,-0.287791,0.499354
2582895475,3.127532,6.934762,15.932693,0.852947,-0.075144,0.120450
2582915476,57.974518,-12.758512,5.337543,1.094677,0.046387,-0.106660
2582935476,74.386230,-15.859991,26.965139,1.141321,0.115468,-0.006366
2582955476,40.705647,-6.216237,37.281181,0.957203,0.167792,0.200957
2582975476,-9.771224,-2.719202,29.182226,0.834659,0.198270,0.275238
2582995476,-24.626066,-2.233850,18.084455,0.896505,0.140529,0.270545
2583015475,-26.928957,0.207841,12.186825,1.010767,0.070446,0.268668
2583035475,-30.483494,6.673841,13.313652,1.058984,-0.002852,0.198492
2583055475,-24.516424,10.116001,15.968554,1.018942,-0.039081,0.129412
2583075475,-12.650367,8.008908,14.396438,1.016059,-0.057976,0.100666
2583095475,-0.551339,5.343726,11.024742,1.030026,-0.077436,0.114606
2583115475,3.209667,2.709072,5.912752,1.060676,-0.055118,0.150511
2583135475,1.801615,3.676175,3.171440,1.098468,0.028339,0.175059
2583155475,-1.310367,7.243176,0.988476,1.058649,0.080594,0.222930
2583175476,-0.353299,4.994817,-1.475487,0.998555,0.066271,0.225646
2583195476,4.301800,2.752376,-6.965707,1.128946,0.083974,0.213916
2583215477,14.347988,10.764495,-4.562934,1.002053,0.121854,0.189070
2583235477,5.435276,18.079411,-2.853130,0.664800,0.104688,0.274966
2583255477,-19.525955,5.736502,-15.784413,0.872611,0.086343,0.196613
2583275477,-22.429779,-5.535645,-13.166675,1.202302,0.068267,0.114284
2583295477,-26.277063,0.417963,2.098577,1.183110,0.049378,0.227034
2583315478,-16.924585,6.394225,8.966957,1.065833,-0.016141,0.404367
2583335477,11.051612,16.022787,20.483294,1.046722,-0.071752,0.447628
2583355477,24.859716,24.015020,25.779518,1.068778,-0.063926,0.347482
2583375477,20.726852,36.254215,21.912851,1.065155,0.058784,0.207732
2583395477,17.798834,44.096821,27.544582,0.989899,0.163975,0.268571
2583415477,0.884997,32.357834,39.286839,0.910934,0.110205,0.313664
2583435477,-15.484831,20.044699,45.990860,0.943677,-0.012543,0.233419
2583455477,-9.263885,21.074207,44.871071,0.983102,-0.125718,0.184109
2583475477,31.833910,28.601496,48.676868,0.936445,-0.154157,0.224029
2583495477,63.616497,32.663647,51.051453,0.889745,-0.074514,0.314282
2583515477,59.558273,28.214701,46.226585,0.968067,0.020410,0.317169
2583535479,48.811821,28.101332,49.756680,1.087211,0.067140,0.328779
2583555479,31.954727,33.525780,61.451271,1.068832,0.010793,0.404257
2583575479,15.972308,33.589958,72.064270,1.012736,-0.039049,0.421060
2583595479,15.079235,34.546726,77.185959,1.024246,-0.077573,0.363298
2583615479,28.283873,39.224556,81.018097,1.021956,-0.119670,0.384810
2583635480,33.624424,45.843334,82.658356,1.028328,-0.127601,0.399044
2583655480,38.465561,52.601692,91.002876,1.026299,-0.124436,0.375805
2583675478,40.137321,56.913025,99.198166,0.993382,-0.081578,0.482360
2583695478,20.672911,63.585102,102.212975,1.021143,-0.025452,0.532402
2583715479,13.677434,79.262276,107.827766,0.982498,-0.006293,0.473614
2583735479,11.451688,88.907867,112.999763,0.847035,0.015131,0.455046
2583755479,7.491355,91.709549,114.585815,0.810878,-0.034716,0.481992
2583775479,-0.717447,89.818359,114.502693,0.764908,-0.106486,0.474240
2583795479,-12.315311,82.507645,114.398827,0.635794,-0.087248,0.394928
2583815479,-23.382092,64.426239,116.970734,0.579612,-0.139974,0.368902
2583835479,-11.239458,48.749527,108.034302,0.535805,-0.330299,0.407963
2583855479,6.006237,30.800959,74.592224,0.511950,-0.407159,0.433076
2583875480,10.787292,2.126815,32.638042,0.463200,-0.310847,0.363788
2583895480,30.662470,-30.274967,-8.190294,0.433159,-0.194489,0.280971
2583915481,47.528851,-57.463799,-43.230217,0.466039,-0.059489,0.298201
2583935481,61.358593,-70.625999,-72.665955,0.583281,-0.007890,0.297858
2583955481,60.267387,-75.893593,-100.701431,0.643221,0.142654,0.304267
2583975481,33.593506,-91.071602,-125.748192,0.738853,0.350837,0.351106
2583995479,-4.115441,-111.057755,-146.968658,0.935358,0.399261,0.411449
2584015480,-34.893539,-123.195496,-155.405899,1.133992,0.294524,0.526980
2584035480,-74.079712,-126.135490,-161.946579,1.477907,0.142636,0.504043
2584055480,-110.117920,-99.342392,-159.380432,1.604956,0.116840,0.331677
2584075480,-88.684578,-77.964149,-116.091850,1.196003,-0.134677,0.546878
2584095480,-88.841087,-76.812988,-73.942833,1.045996,-0.342335,0.646708
2584115480,-97.535187,-47.296829,-54.780209,1.264649,-0.714990,0.447755
2584135480,-47.123177,-9.556872,-25.331373,1.169661,-0.771584,0.475034
2584155481,-3.306018,-1.162596,23.537329,0.993885,-0.532738,0.572760
2584175481,4.475271,9.333232,64.809792,1.190135,-0.397999,0.458006
2584195482,32.338444,34.963013,98.261787,1.269477,-0.385564,0.351891
2584215483,64.856796,57.296318,120.961998,1.073819,-0.292125,0.442256
2584235483,72.880569,65.599411,133.798981,1.067182,-0.214465,0.535861
2584255483,47.469681,78.341354,147.969269,0.974365,-0.145247,0.331089
2584275483,61.088551,80.410263,150.169861,0.873255,0.003388,0.168796
2584295483,76.090065,67.140686,131.064362,0.996606,0.034375,0.229948
2584315483,71.333488,56.733730,112.188141,0.929345,0.078687,0.368242
2584335482,52.457756,46.755230,104.674660,0.792190,0.123850,0.475080
2584355482,14.301116,48.641243,98.624146,0.832018,0.025270,0.423452
2584375482,-3.746428,58.198715,101.535820,0.834532,-0.160982,0.402896
2584395482,-16.449303,55.036755,110.696976,0.678137,-0.241950,0.516313
2584415482,-20.842758,41.765961,112.228668,0.584954,-0.320008,0.513837
2584435482,6.486842,37.779491,101.262451,0.623121,-0.391859,0.440893
2584455483,29.427185,34.419331,78.131706,0.702596,-0.359676,0.368225
2584475483,35.833130,17.418646,50.084774,0.657335,-0.235441,0.343239
2584495483,32.540562,-3.384891,19.903164,0.555996,-0.061393,0.425471
2584515483,14.098876,-19.741695,-6.057366,0.485639,-0.035563,0.493599
2584535495,-11.705565,-33.312973,-31.039373,0.518090,-0.066978,0.487202
2584555484,-38.604073,-35.002449,-65.987373,0.616838,-0.114848,0.490026
2584575484,-52.292084,-35.652561,-97.390755,0.745287,-0.201953,0.526773
2584595484,-43.075069,-39.111717,-105.951233,0.842421,-0.248950,0.505577
2584615484,-34.027828,-38.941059,-106.411293,0.845838,-0.180271,0.501090
2584635484,-42.668453,-32.733429,-114.652840,1.047883,-0.247434,0.522035
2584655484,-35.060593,-30.107182,-102.890129,1.167086,-0.328543,0.627374
2584675483,-42.150585,-28.849510,-76.334167,0.948802,-0.171564,0.633163
2584695483,-74.979591,-20.915911,-70.847435,0.758351,-0.040294,0.459018
2584715483,-116.806198,-21.669306,-69.589058,0.910081,-0.327874,0.598323
2584735484,-215.613815,-38.842720,96.818428,1.747126,-1.897227,0.305219
2584755484,15.605957,96.649315,96.424736,1.035076,-1.216075,0.577198
2584775484,63.858665,58.725094,49.419941,0.532601,-0.730972,0.450756
2584795484,88.585266,-11.932616,58.358925,0.538898,-0.691989,0.096847
2584815484,134.745026,5.509359,10.375574,0.853546,-0.077697,0.292348
2584835484,117.333916,40.581875,27.083052,1.041590,0.224261,0.352541
2584855484,94.667244,35.447495,81.210754,0.853115,0.227023,0.628447
2584875486,0.668736,3.531197,72.407219,0.723170,0.226467,0.708330
2584895486,-87.004547,-13.406610,50.154873,0.756271,0.017187,0.476996
2584915486,-84.510300,-14.410419,44.091358,0.784510,-0.456469,0.465767
2584935486,-40.907467,-8.667258,25.027395,0.777184,-0.703720,0.487736
2584955486,20.363304,7.034596,8.527751,0.755105,-0.680398,0.369577
2584975486,65.126236,23.351074,-0.619110,0.708262,-0.539524,0.437725
2584995485,67.568077,24.032389,-5.086564,0.676595,-0.384730,0.567292
2585015485,58.125084,12.415870,-3.402509,0.751805,-0.276673,0.536743
2585035485,37.197025,5.260005,7.668570,0.808906,-0.224513,0.467466
2585055485,18.306503,5.895053,24.455320,0.754106,-0.249285,0.452974
2585075486,14.629814,15.464089,27.065706,0.724077,-0.314746,0.528657
2585095485,12.299582,12.223806,19.233326,0.741908,-0.350679,0.680352
2585115485,-4.480494,-13.352903,15.132293,0.695303,-0.385034,0.675394
2585135485,3.333980,-14.531293,2.669427,0.707780,-0.459662,0.599041
2585155486,30.325855,-8.245115,-16.245125,0.690259,-0.388394,0.579253
2585175486,27.704773,-17.211121,-33.876160,0.747726,-0.218904,0.578230
2585195488,18.637556,-12.841433,-39.189285,0.786715,-0.123741,0.526809
2585215488,17.331129,-7.540632,-31.532017,0.726093,-0.046566,0.506587
2585235487,1.688656,-6.035430,-25.615902,0.716255,-0.083471,0.517636
2585255488,-8.143226,-8.304391,-34.064358,0.793878,-0.180901,0.488080
2585275488,0.899554,-6.497444,-43.316650,0.835313,-0.233355,0.454094
2585295488,20.014986,0.856491,-50.633873,0.890515,-0.144590,0.430664
2585315488,27.932379,4.798115,-57.375324,0.986812,0.026212,0.470878
2585335487,16.520290,0.064222,-60.706238,0.959091,0.165844,0.499649
2585355486,-7.783511,-7.582923,-68.623451,0.849410,0.238737,0.539476
2585375487,-32.996826,-10.259177,-80.465096,0.814084,0.250347,0.478921
2585395487,-48.865997,-11.014329,-94.919113,0.806660,0.295162,0.461465
2585415487,-66.376862,-14.289499,-104.657822,0.818503,0.398371,0.411198
2585435487,-87.467812,-19.171741,-104.774933,0.858822,0.431469,0.344416
2585455487,-119.638969,-26.602781,-105.468216,0.922180,0.361210,0.312109
2585475487,-147.675110,-37.700443,-116.483658,0.904499,0.242218,0.254469
2585495487,-163.485626,-46.630768,-136.038055,0.881500,0.181640,0.154465
2585515487,-165.367279,-50.494305,-156.188171,0.953589,0.192186,0.051680
2585535489,-157.597733,-52.836845,-171.404129,1.034535,0.176989,0.018066
2585555489,-156.097626,-59.086060,-179.567139,1.084684,0.187019,0.030914
2585575489,-167.956894,-68.207367,-182.192169,1.124379,0.171430,0.023161
2585595489,-191.068146,-77.335175,-186.445236,1.242054,0.166605,0.031808
2585615489,-200.550522,-73.890167,-174.554962,1.565946,0.255345,-0.116163
2585635489,-212.392715,-22.015379,-160.061722,1.662001,0.097409,-0.052293
2585655488,-190.069138,8.456925,-144.426804,1.474709,-0.272206,0.382590
2585675488,-169.748718,34.670868,-83.600601,1.529566,-0.345052,0.684091
2585695488,-201.414795,66.998650,-23.339762,1.339733,-0.516713,0.559668
2585715488,-206.909653,86.526733,-11.882591,1.117896,-0.359302,0.393380
2585735489,-207.684586,84.741692,-4.385615,1.093162,-0.189414,0.304777
2585755489,-210.399704,75.438828,21.552296,1.104680,-0.168833,0.165563
2585775489,-184.368469,69.998787,51.065060,1.053602,-0.316750,0.057314
2585795489,-120.223991,65.807556,62.410446,0.999810,-0.454386,-0.003596
2585815489,-44.678810,66.570381,52.479141,0.930604,-0.354568,0.014788
2585835489,0.718840,61.626812,30.354889,0.749799,-0.083717,0.162598
2585855490,-12.144238,35.270668,-4.287033,0.564983,0.105895,0.300396
2585875490,-68.834152,-13.143404,-56.836777,0.552999,0.198350,0.301865
2585895491,-118.866020,-77.210930,-103.638878,0.655600,0.304250,0.034188
2585915491,-116.104630,-115.465324,-129.612198,0.744169,0.255457,-0.233169
2585935491,-86.850090,-116.704147,-145.364456,0.747075,0.138670,-0.068067
2585955491,-58.407261,-109.600929,-153.399475,0.806754,0.086752,0.229238
2585975491,-69.920677,-121.584442,-154.797241,1.150858,0.246001,0.248499
2585995490,-94.329941,-94.952415,-127.570450,1.573477,0.330293,0.298070
2586015490,-105.780220,-38.751106,-71.507416,1.388078,0.033748,0.632698
2586035490,-148.109024,-20.804346,-58.370159,1.051986,0.063825,0.356205
2586055490,-172.371124,-10.801571,-55.280140,1.088464,-0.127070,0.182180
2586075490,-193.555481,-8.404156,-20.138506,1.072455,-0.576974,0.304138
2586095490,-140.837997,-0.189777,-2.679702,1.042293,-0.814977,0.233424
2586115491,-58.214550,3.714547,3.019851,1.070152,-0.759349,0.223363
2586135491,-16.830692,2.361142,20.520603,1.033321,-0.608275,0.352114
2586155491,6.131845,8.224983,47.351578,1.121232,-0.359259,0.293349
2586175491,-0.376736,43.417728,52.328529,1.219235,-0.159826,0.386592
2586195492,-37.371365,58.198780,53.737602,1.096801,-0.194570,0.604175
2586215493,-73.038185,50.132118,69.880486,1.093497,-0.479473,0.573766
2586235493,-69.677544,48.795235,90.875755,1.338916,-0.822065,0.507888
2586255493,-12.929340,59.730957,134.985077,1.252255,-0.931089,0.510971
2586275493,59.310135,69.495659,172.805099,1.014236,-0.775322,0.396448
2586295493,117.379456,79.354767,199.495590,0.896100,-0.564533,0.359547
2586315512,145.305420,92.122757,218.673264,0.870967,-0.206936,0.396489
2586335492,128.706589,99.473770,210.462875,0.789016,0.363259,0.391373
2586355492,76.727127,79.966286,172.191727,0.292156,0.531779,0.454292
2586375492,-16.882553,30.741217,95.291260,-0.023718,0.642958,0.151490
2586395492,-57.795998,-44.132359,17.863554,-0.074400,0.521770,0.107507
2586415492,-100.079277,-62.218143,-46.387272,0.501464,0.177719,0.530799
2586435493,-133.665009,-4.089473,-21.860313,1.467082,-0.951070,0.589151
2586455492,59.554363,65.095467,16.687983,1.206505,-0.939390,0.695352
2586475492,75.440735,54.113796,-8.306221,0.573604,-0.289694,0.970070
2586495492,-0.924036,-4.394892,-33.438713,0.681534,-0.138355,0.499613
2586515492,-26.785578,-9.687119,-36.039955,0.796737,-0.139437,0.404100
2586535494,-0.227780,-5.089151,-37.983147,0.786706,-0.237425,0.561394
2586555494,20.802853,-9.297260,-28.439386,0.697753,-0.288778,0.563659
2586575494,26.749649,-14.514187,-31.687815,0.716841,-0.175046,0.509928
2586595494,14.891486,-20.758236,-43.505901,0.714951,-0.029200,0.579182
2586615494,-12.922543,-29.117374,-47.634583,0.745621,-0.054149,0.526512
2586635494,-16.179327,-27.400372,-47.665485,0.847564,-0.168046,0.474923
2586655494,-1.006438,-23.963083,-47.036037,0.869819,-0.220105,0.497292
2586675494,6.884438,-26.331984,-48.284840,0.880995,-0.163898,0.515696
2586695494,6.246486,-32.644268,-45.160378,0.885838,-0.098992,0.459288
2586715494,12.609042,-35.162766,-35.321686,0.888622,-0.091711,0.413140
2586735494,17.927616,-37.135632,-28.452044,0.855986,-0.069318,0.443116
2586755494,10.973453,-44.576241,-30.704348,0.849043,-0.018429,0.437886
2586775494,3.547676,-51.353325,-36.460789,0.883691,0.026076,0.403892
2586795494,-2.298353,-50.295479,-37.145622,0.941327,0.045112,0.390223
2586835494,-3.277095,-49.897392,-45.525024,0.999367,0.070071,0.409853
2586855495,-16.158541,-53.016003,-58.127739,0.968509,0.113049,0.451572
2586875495,-30.224142,-51.017147,-76.082977,0.941186,0.101000,0.458506
2586895496,-39.319157,-48.559662,-103.828140,0.961654,0.013726,0.513962
2586915496,-33.518784,-39.184376,-138.489319,1.203849,-0.157394,0.521036
2586935496,-4.839879,4.284565,-149.160065,1.456879,-0.192182,0.389756
2586955496,2.024994,43.469284,-132.034958,1.098553,-0.031575,0.416154
2586975496,-45.705185,23.840239,-107.486076,1.079466,-0.327536,0.536171
2586995495,-57.594181,30.372770,-25.601334,1.267761,-0.597047,0.550235
2587015495,-13.368777,55.790703,86.323616,1.232148,-0.976155,0.603590
2587035495,83.830856,86.505402,146.512253,1.181884,-0.904984,0.604727
2587055495,131.899933,113.273720,153.557907,1.240474,-0.229922,0.538299
2587075496,109.932739,127.304596,177.996109,1.254148,0.193776,0.322220
2587095496,56.667225,130.208359,227.089981,0.991759,0.081373,0.387894
2587115496,21.916502,120.016708,249.165802,0.799541,-0.097692,0.466700
2587135496,20.570288,117.548706,234.250458,0.700928,-0.133641,0.463888
2587155496,17.806562,112.825485,212.360397,0.633431,-0.101912,0.414923
2587175496,10.150347,94.212082,191.323212,0.571170,-0.080411,0.345006
2587195498,10.022459,62.948093,164.883026,0.507905,-0.074380,0.317003
2587215498,18.183937,21.988003,132.635468,0.495061,-0.096862,0.295966
2587235498,36.075554,-8.374660,102.696800,0.521943,-0.039910,0.332578
2587255498,63.531006,-18.836800,83.232910,0.420761,0.080584,0.477843
2587275498,72.197166,-29.037743,57.796986,0.194332,0.094616,0.690984
2587295498,6.211754,-68.715775,-8.922661,0.059429,0.137146,0.782379
2587315498,-86.477074,-122.688477,-76.557426,0.316593,0.130701,0.776492
2587335496,-160.816696,-101.708511,-84.565834,1.139840,-0.384856,0.742897
2587355497,-63.467449,-26.103874,-95.483162,1.150615,-0.519813,0.717167
2587375497,5.653723,-10.584776,-92.586334,0.761847,-0.269520,0.886368
2587415497,-19.553766,-23.655336,-103.111801,0.825269,-0.267688,0.428615
2587435498,-6.356502,-15.286793,-102.488083,0.739802,-0.251656,0.437633
2587455497,-3.561041,-25.686041,-105.432648,0.640738,-0.185161,0.522543
2587475497,-27.428877,-51.410065,-111.050919,0.679631,-0.150011,0.457266
2587495497,-43.884773,-69.035934,-120.265823,0.781474,-0.153696,0.376071
2587515497,-47.803181,-85.512024,-130.432327,0.797694,-0.141239,0.324049
2587535499,-40.252281,-97.273651,-144.631866,0.810754,-0.077733,0.283617
2587555499,-26.263203,-97.741859,-156.419434,0.834212,-0.027450,0.287368
2587575499,-21.837578,-98.452171,-162.151123,0.903958,0.050397,0.342060
2587595499,-23.723900,-103.422226,-166.231216,1.049117,0.083972,0.355958
2587615500,-26.457249,-106.626816,-156.933014,1.253650,0.169258,0.253450
2587635499,-38.911686,-79.193565,-148.436035,1.464455,0.258492,0.150305
2587655498,-40.776905,-39.933701,-154.669739,1.452832,-0.181211,0.457959
2587675498,-3.862914,-24.489117,-125.172180,1.585769,-0.461453,0.726398
2587695499,-17.997408,-15.920272,-52.671593,1.456378,-0.613489,0.811442
2587715499,-26.035275,-1.564388,0.647386,1.191727,-0.562760,0.540277
2587735499,1.977689,22.934296,23.875118,1.037022,-0.320163,0.467583
2587755499,0.590495,40.897312,42.258816,1.018901,-0.142577,0.367709
2587775499,15.907713,48.263016,66.078171,1.012476,-0.074000,0.214350
2587795500,41.208038,41.319546,81.861488,0.962314,-0.075083,0.191422
2587815500,51.910866,29.522118,86.311684,0.900246,-0.037112,0.173795
2587835499,63.888046,25.938129,91.813141,0.781559,-0.008673,0.111231
2587855501,68.249191,10.348538,95.169601,0.669969,0.058912,0.113994
2587875501,46.212212,-18.745850,90.622169,0.668476,0.124880,0.090618
2587895501,22.724649,-43.435680,73.248917,0.646095,0.170893,0.045719
2587915501,12.509637,-71.267105,39.414711,0.663774,0.163978,0.001581
2587935501,19.060888,-95.807053,-9.299309,0.782752,0.182677,0.055214
2587955501,32.553532,-109.356560,-53.238876,0.977700,0.325543,0.207861
2587975501,42.024216,-101.339081,-72.810776,1.076421,0.468977,0.321219
2587995500,12.262104,-74.930840,-85.143463,1.087486,0.551124,0.443302
2588015500,-43.084145,-42.630295,-106.695168,1.174199,0.496117,0.488622
2588035500,-83.440887,-20.793222,-121.314529,1.086456,0.378890,0.469563
2588055500,-109.629959,-13.404815,-133.805298,0.990961,0.074724,0.252440
2588075501,-110.739151,1.143294,-137.795013,1.049667,-0.170181,-0.016491
2588095501,-63.120407,14.277177,-111.709999,1.010097,-0.419995,-0.043518
2588115501,-11.625044,-3.163689,-73.246338,0.920607,-0.324136,-0.001560
2588135501,26.141825,-24.169813,-43.952190,0.983261,-0.137254,0.007145
2588155502,46.586411,-30.435535,-28.012978,1.259549,0.075542,0.154793
2588175501,24.355717,-18.672596,-6.071068,1.372292,0.298568,0.343144
2588195503,-18.914286,-5.227512,12.380036,1.156889,0.268220,0.406206
2588215503,-36.352520,4.685533,10.180552,1.074212,0.149461,0.363870
2588235503,-37.437195,14.782681,5.010182,1.118505,0.082531,0.288175
2588255503,-37.264721,18.841118,7.156808,1.098811,0.021140,0.136223
2588275503,-25.148209,17.214029,13.788652,0.951690,-0.077726,0.054531
2588295503,-7.370846,9.285180,19.807659,0.837911,-0.136179,0.082926
2588315504,5.753673,3.470397,21.825886,0.931461,-0.075049,0.122699
2588335502,13.320982,8.350645,23.167473,1.036352,-0.010458,0.198837
2588355502,3.978999,13.445535,25.998806,1.026356,-0.043986,0.331242
2588375502,-9.086403,10.292556,27.098692,1.040242,-0.162454,0.357010
2588395503,3.342669,16.824196,33.920105,1.130835,-0.244290,0.280185
2588415503,16.316225,31.217579,34.646725,1.076882,-0.277428,0.298577
2588435503,26.137579,26.227762,28.491814,1.030276,-0.227592,0.300717
2588455503,41.262058,25.712006,30.013329,1.123276,-0.147951,0.261116
2588475503,45.011921,32.198532,39.899128,1.104844,-0.126419,0.264704
2588495503,40.944878,29.731705,44.746868,1.031860,-0.137291,0.260761
2588515505,40.410294,29.932180,41.647873,1.017600,-0.124727,0.266354
2588535505,43.362778,33.434258,40.638195,1.010296,-0.074977,0.327087
2588555505,45.185352,34.538254,44.637310,0.967360,-0.053533,0.345389
2588575505,49.627121,38.742188,55.981770,0.935698,-0.060961,0.325756
2588595505,51.937832,56.022892,77.421799,0.954713,-0.066201,0.324386
2588615505,50.691536,76.797348,92.174828,1.009695,-0.006198,0.336332
2588635505,55.363514,98.417053,97.223030,1.023136,0.198621,0.458287
2588655504,41.034966,110.986557,95.894012,1.002963,0.290397,0.527275
2588675504,-0.777290,111.335945,85.170776,1.033424,0.337940,0.489726
2588695504,-35.307175,103.691261,83.030167,1.005512,0.184621,0.476659
2588715504,-50.710693,95.994705,87.801407,0.922423,-0.072315,0.503669
2588735504,-54.846657,85.678825,88.725800,0.899379,-0.258591,0.481670
2588755504,-50.558464,71.919426,96.960655,0.860648,-0.341263,0.428003
2588775505,-28.513485,61.699379,116.132614,0.813376,-0.485064,0.320733
2588795505,15.487322,61.294373,126.063370,0.761517,-0.626784,0.466511
2588815505,42.880131,59.449192,114.851578,0.745476,-0.409972,0.537998
2588835505,48.949200,58.426708,103.695465,0.724234,-0.195827,0.523457
2588855507,28.701382,55.802792,105.996056,0.650972,-0.232664,0.604103
2588875507,10.078430,59.117542,99.257080,0.689030,-0.257429,0.676837
2588895507,7.173606,65.613380,87.621521,0.725160,-0.241892,0.704418
2588915507,5.764802,65.570129,77.551437,0.611401,-0.274076,0.681784
2588935507,3.830908,63.349285,59.704304,0.506323,-0.310679,0.712576
2588955507,0.789195,61.013245,39.392960,0.498281,-0.322267,0.710392
2588975507,-0.536781,57.629879,27.665781,0.505945,-0.326980,0.614764
2588995506,0.487019,46.092026,31.262295,0.464751,-0.403710,0.496217
2589015506,16.715553,27.600868,27.852287,0.369619,-0.427470,0.429127
2589035506,39.993332,12.632935,9.256231,0.340483,-0.341839,0.430255
2589055506,57.315731,3.063380,-9.679064,0.386690,-0.190947,0.459689
2589075506,55.107742,-12.626741,-23.573032,0.423557,-0.054886,0.493362
2589095506,41.423370,-37.542908,-36.179657,0.433540,0.005975,0.536676
2589115506,18.327909,-71.144608,-56.204460,0.401909,-0.028599,0.513173
2589135506,-11.519544,-100.693207,-85.875557,0.412386,-0.052960,0.414500
2589155506,-26.874744,-120.318634,-117.588066,0.457512,-0.040557,0.331665
2589175506,-26.720499,-138.387466,-144.644104,0.567266,-0.008233,0.320051
2589195508,-23.746613,-159.377228,-165.247940,0.789514,0.004740,0.348815
2589215508,-17.734636,-172.333313,-179.807373,1.030236,-0.024949,0.384077
2589235508,2.776443,-171.368195,-189.343826,1.263659,-0.153333,0.366142
2589255508,16.384903,-160.709732,-196.088516,1.495789,0.052972,0.731727
2589275508,-108.034760,-168.966736,-228.220703,1.325852,0.927486,0.739840
2589295508,-114.114250,-191.317535,-219.283966,1.287706,0.777791,0.081803
2589315507,-76.369186,-147.238617,-196.873398,1.485650,-0.046181,0.286552
2589335507,5.023507,-64.878433,-162.099243,1.266500,-0.454836,0.645913
2589355507,53.122292,-55.402252,-133.613617,0.861077,-0.256395,0.648269
2589375508,51.226566,-73.736092,-124.091072,0.991419,0.241130,0.307172
2589395507,20.546440,-38.698685,-100.057861,1.232334,0.503370,0.173121
2589415507,-38.490555,-3.859379,-66.972595,1.074504,0.451763,0.277954
2589435508,-74.180374,-15.313423,-34.984825,0.879682,0.302613,0.289869
2589455508,-97.997742,-27.026733,-8.894001,0.851907,0.175383,0.245115
2589475508,-107.092789,-13.848290,0.822554,0.923514,0.104255,0.145222
2589495508,-93.495476,-2.926602,-0.200986,0.953875,0.158223,0.067347
2589515510,-57.630913,-15.312716,4.364927,0.959812,0.092270,0.034852
2589535510,-9.720646,-28.136711,15.458827,1.081723,-0.055546,0.088246
2589555510,24.431805,-17.783224,30.796528,1.205783,-0.037175,0.177328
2589575510,28.881660,0.500962,49.623264,1.109029,-0.036804,0.320380
2589595511,29.657444,2.003589,61.581863,1.032327,-0.123701,0.398021
2589615511,45.194756,14.087398,85.158440,1.260336,0.002400,0.400020
2589635511,49.951622,46.933910,125.021111,1.405055,0.080859,0.468776
2589655510,32.084164,71.037025,169.730759,1.306609,-0.020286,0.509565
2589675510,11.145535,76.001488,199.593292,1.332836,-0.202934,0.375719
2589695509,36.234425,95.756317,215.948090,1.277172,-0.166586,0.222360
2589715510,82.148453,117.837067,197.688629,1.095409,0.097297,0.231253
2589735510,91.920990,105.541153,161.937271,0.882702,0.355272,0.156279
2589755510,70.115204,80.258362,111.798286,0.893571,0.541717,0.025912
2589775510,57.584442,76.513458,89.424057,0.919082,0.510544,0.057935
2589795510,42.369663,78.865082,103.739258,0.858769,0.199806,0.291238
2589815510,13.417083,58.456146,130.956848,0.844202,-0.151505,0.412425
2589835510,17.742996,52.296303,128.913193,0.769475,-0.146718,0.496522
2589855511,3.032853,56.399551,99.164803,0.676453,-0.063560,0.573210
2589875511,-16.874180,36.901722,85.437340,0.682803,-0.107943,0.415969
2589895512,-12.111867,21.310186,67.475838,0.725703,-0.151031,0.289086
2589915512,2.461416,21.499449,43.394512,0.675614,-0.097734,0.280192
2589935512,5.017048,7.628611,20.313334,0.551039,-0.061221,0.315776
2589955512,-12.318435,-19.577972,-11.370962,0.521510,-0.032060,0.315121
2589975512,-31.098228,-40.377617,-46.755779,0.573142,-0.020948,0.304160
2589995510,-48.282227,-52.596992,-82.346367,0.623307,-0.077356,0.387991
2590015511,-60.662289,-59.352943,-110.961884,0.802304,-0.237594,0.452002
2590035511,-58.154640,-53.164566,-126.382454,0.991214,-0.376631,0.513051
2590055511,-37.127750,-54.127022,-123.897957,1.003507,-0.208300,0.618224
2590075511,-41.460487,-48.352394,-101.562294,1.262372,-0.076526,0.471582
2590095511,-47.940910,-28.463354,-51.110069,1.557898,-0.353111,0.347090
2590115511,-42.996700,-12.081952,12.665501,1.110539,-0.694206,0.553794
2590135511,-38.288593,-23.866053,48.893051,0.800408,-0.802917,0.520872
2590155511,8.075728,-21.320436,74.826630,0.921745,-0.797002,0.288123
2590175512,69.759293,-1.682523,99.571663,1.077758,-0.619114,0.378360
2590195514,110.338882,27.707909,114.953293,1.166528,-0.397981,0.405228
2590215513,137.890076,62.700581,109.060509,1.149793,-0.168544,0.354193
2590235513,108.636398,65.913658,62.876812,0.803852,0.117301,0.676340
2590255514,18.772779,46.218742,33.473198,0.938891,0.118136,0.331246
2590275514,28.565405,69.034515,16.971264,0.864502,-0.077854,0.507185
2590295514,31.564255,46.735313,27.720520,0.568304,-0.083029,0.494522
2590315519,5.235302,22.381815,29.965008,0.585609,0.026720,0.483706
2590335513,-23.420570,6.089768,32.837124,0.699943,-0.049694,0.433490
2590355513,-25.153561,-4.435614,36.054081,0.732014,-0.314985,0.479210
2590375513,-14.298550,-14.117079,20.272161,0.723853,-0.416126,0.425313
2590395513,9.217281,-15.582365,1.568212,0.746590,-0.326714,0.354570
2590415513,38.061966,-11.992820,-9.173293,0.710663,-0.260397,0.406187
2590435513,47.633720,-11.101491,-19.867727,0.750077,-0.171284,0.447265
2590455513,45.771351,-13.655048,-28.944048,0.873234,-0.044452,0.465712
2590475513,24.532583,-22.484921,-28.700619,0.947134,0.026321,0.483247
2590495513,1.291717,-28.252392,-33.515476,0.931089,0.011605,0.403041
2590515514,-3.649519,-23.454283,-44.184120,0.922453,0.042964,0.320103
2590535514,-1.730655,-20.444284,-48.310169,0.927949,0.102322,0.397875
2590555514,-14.135099,-22.619204,-46.374210,0.919248,0.124606,0.462027
2590575515,-28.849628,-20.599386,-50.488194,0.940983,0.093702,0.430977
2590595515,-33.599510,-14.032118,-61.006145,0.982636,0.126467,0.355639
2590615515,-38.210335,-5.934264,-66.994865,0.985868,0.261145,0.369930
2590635515,-56.071629,-9.055953,-62.096352,0.942949,0.293175,0.378401
2590655514,-79.770393,-12.173719,-61.487606,0.948202,0.248408,0.313466
2590675514,-91.989891,-11.099387,-70.609055,1.032736,0.271646,0.245730
2590695514,-107.691483,-7.472032,-80.478508,1.008325,0.341431,0.207378
2590715514,-125.873413,-11.189683,-85.789330,0.924577,0.311878,0.158918
2590735514,-143.104431,-14.326186,-101.563812,0.944188,0.277769,0.193025
2590755514,-160.768295,-20.715868,-113.772682,1.042917,0.217198,0.165851
2590775514,-167.490509,-22.377527,-117.678497,1.070294,0.192824,0.116697
2590795514,-171.349213,-21.773252,-121.212509,1.065448,0.147394,0.073015
2590815514,-175.134018,-23.027533,-127.542572,1.054687,0.140203,0.069186
2590835514,-179.252090,-28.235474,-138.162018,1.060760,0.161084,0.044480
2590855516,-177.781616,-35.582642,-149.587646,1.119008,0.205844,0.018747
2590895516,-190.323761,-47.775631,-162.127975,1.315097,0.263720,-0.086800
2590915516,-196.299545,-46.803654,-147.050781,1.247846,0.221066,-0.206772
2590935516,-202.432068,-26.120989,-140.170731,1.180504,0.054430,-0.192484
2590955517,-224.209610,-3.553508,-135.857147,1.335078,-0.332212,-0.066223
2590975517,-196.870346,9.126252,-69.165352,1.486335,-0.681736,0.044383
2590995516,-129.517929,31.082056,12.629475,1.482136,-0.973821,0.190488
2591015516,-61.491787,64.739693,52.009483,1.201419,-0.860878,0.501354
2591035516,-58.204151,72.175903,59.256123,1.081977,-0.552100,0.684317
2591055516,-93.442741,74.478928,57.704399,1.285350,-0.128556,0.598765
2591075516,-114.155930,86.138657,79.685432,1.396393,0.025333,0.317483
2591095516,-103.213989,96.238632,114.858200,1.207994,-0.165375,0.274368
2591115517,-84.363480,92.957901,133.868881,0.975978,-0.395301,0.354650
2591135516,-52.848660,92.285103,132.861633,0.882757,-0.458345,0.372193
2591155517,-3.371528,92.840279,132.944687,0.844373,-0.413443,0.403864
2591175517,20.226879,90.407677,135.659668,0.729643,-0.266366,0.499966
2591195518,11.560431,86.561859,123.352592,0.666986,-0.119889,0.510676
2591215518,-2.791664,84.696129,102.247261,0.632507,-0.057501,0.518583
2591235518,-25.520010,71.215302,80.510902,0.580006,-0.070290,0.531751
2591255518,-38.835487,51.794552,53.020981,0.445277,-0.128914,0.504387
2591275518,-44.430195,22.907755,24.543186,0.347080,-0.193990,0.328076
2591295518,-28.539610,6.304490,-0.873914,0.320201,-0.215295,0.197055
2591315519,-7.308969,-0.061844,-28.694809,0.469124,-0.138916,0.304560
2591335517,8.412948,1.796273,-44.171295,0.853784,-0.073566,0.492416
2591355517,8.565288,7.757770,-54.100956,0.926046,0.236948,0.775705
2591375518,-42.328453,11.937552,-63.196609,0.762735,0.518504,0.623971
2591395517,-108.527695,-3.782829,-63.362503,0.562373,0.403059,0.454612
2591415517,-180.720032,-25.161228,-67.183853,0.803148,-0.111536,0.470233
2591435517,-206.990677,-14.757801,-72.544540,1.171280,-0.798439,0.512953
2591455518,-125.824104,5.159147,-62.799679,1.048888,-1.010040,0.562404
2591475518,-42.162292,22.797558,-75.671509,0.681060,-0.717859,0.513438
2591495518,-12.566290,17.458641,-87.508278,0.657374,-0.575727,0.475168
2591515518,-19.776293,-1.806898,-79.857063,0.750870,-0.509691,0.476554
2591535519,-28.378775,-12.540681,-68.286514,0.796811,-0.411710,0.543467
2591555520,-25.378918,-8.861308,-52.593876,0.736913,-0.341732,0.516796
2591575520,-35.851681,-8.550034,-39.643776,0.688035,-0.359024,0.404920
2591595520,-46.269836,-17.714520,-27.844069,0.780768,-0.468305,0.471658
2591615520,-38.942726,-21.091656,-18.416258,0.854708,-0.567722,0.558214
2591635520,-7.829747,-16.793804,-14.960576,0.865395,-0.586312,0.551857
2591655519,16.876072,-8.926711,-13.558826,0.810607,-0.434154,0.513758
2591675519,17.691242,3.335562,-22.547358,0.771714,-0.240640,0.492424
2591695519,18.875883,8.532547,-35.540791,0.747017,-0.168268,0.520070
2591715519,6.018830,-0.502271,-51.217327,0.809372,-0.131150,0.588996
2591735519,-14.928727,-0.202185,-56.693314,0.880048,-0.108459,0.430733
2591755519,-3.914715,2.398102,-51.679054,0.845638,-0.136480,0.441763
2591775519,-8.719129,-2.373001,-50.852753,0.819634,-0.187196,0.448392
2591815520,11.607391,-10.463993,-40.482632,0.904861,-0.247313,0.426640
2591835520,25.955143,-18.393929,-28.619267,0.869092,-0.189988,0.377419
2591855521,35.791283,-26.672050,-20.540979,0.802936,-0.115271,0.348696
2591875522,40.265816,-36.972511,-22.551348,0.792777,-0.020285,0.332814
2591895521,32.557678,-54.970947,-31.173782,0.844068,0.046225,0.298467
2591915522,33.264236,-66.811249,-33.729908,0.861382,0.076394,0.291519
2591935522,38.369930,-79.340439,-34.213184,0.814218,0.075030,0.291521
2591955521,26.293251,-89.689148,-48.306671,0.760438,0.108202,0.376396
2591975522,-0.731281,-106.642570,-71.679512,0.717228,0.146295,0.414234
2591995520,-19.975824,-117.464882,-91.878365,0.832021,0.213123,0.324605
2592015520,-33.745781,-94.161865,-112.910469,1.115571,0.228917,0.260264
2592035521,-43.117958,-60.280407,-132.376755,1.229595,0.039484,0.481145
2592055521,-0.825542,-35.878323,-108.180305,1.332793,-0.057116,0.591942
2592075521,28.886978,0.393430,-44.874012,1.359665,-0.066293,0.657483
2592095521,11.067489,23.485508,13.533999,1.190948,-0.327338,0.708778
2592115522,18.651300,45.125050,74.978676,1.436230,-0.613002,0.447186
2592135521,107.752747,96.860672,128.444412,1.357080,-0.619284,0.278465
2592155522,164.946503,130.835632,133.059906,1.187612,-0.261780,0.444395
2592175522,135.377731,135.404739,130.339706,1.153931,0.026671,0.477388
2592195523,89.475693,128.087341,142.399521,1.070481,0.189909,0.351627
2592215523,58.074867,123.481529,160.908630,0.942391,0.152708,0.217641
2592235523,50.672676,115.183044,170.570419,0.799877,0.067452,0.198087
2592255523,52.137283,99.383430,164.799072,0.780748,0.040696,0.224850
2592275524,53.396877,80.340652,145.349319,0.861263,0.140238,0.261530
2592295524,62.537262,48.536133,124.644791,0.765667,0.248309,0.347387
2592315524,41.098366,13.628754,88.963699,0.559234,0.429200,0.307411
2592335522,-5.518166,-22.739431,40.492966,0.292640,0.484925,0.191948
2592355522,-57.711689,-58.643295,-29.384514,0.114540,0.532290,0.118825
2592375523,-109.832756,-75.932495,-111.779221,0.250106,0.608142,0.372972
2592395522,-249.323212,-57.665363,-96.694923,1.743851,-0.120074,0.739985
2592415523,-169.457687,-10.535566,-13.057549,1.742432,-0.803315,0.319560
2592435523,-13.911839,19.125008,-2.860686,0.818245,-0.429698,0.791977
2592455523,-31.290474,-20.285507,-7.770199,0.694702,-0.415862,0.406955
2592475523,-54.078300,-11.950876,-45.715759,0.770718,-0.150441,0.282689
2592495523,-38.570534,0.195491,-51.100395,0.845192,-0.146287,0.276716
2592515523,-11.757236,3.101547,-29.942720,0.765749,-0.213474,0.406294
2592535525,-28.383446,-21.723387,-23.226410,0.806843,-0.141146,0.375860
2592555525,-53.945560,-34.745941,-41.615784,0.797169,-0.079638,0.339972
2592575525,-71.707817,-47.101936,-57.900803,0.796818,-0.165789,0.303346
2592595525,-60.372101,-45.240837,-73.744843,0.860147,-0.266554,0.254542
2592615538,-29.724779,-32.595951,-87.324585,0.900320,-0.280153,0.272213
2592635525,-6.738156,-32.290215,-97.781265,0.895641,-0.155527,0.341035
2592655543,-6.539893,-39.611938,-106.169044,0.898709,0.006791,0.342677
2592675524,-21.786915,-43.397614,-114.471901,0.903777,0.102282,0.289358
2592695524,-34.975052,-43.520805,-127.512360,0.907248,0.149613,0.235122
2592715524,-45.830994,-53.197926,-147.253174,0.959549,0.187572,0.138284
2592735524,-51.569324,-70.154953,-161.885208,0.953942,0.224449,0.019810
2592755524,-55.322937,-81.328125,-166.316223,0.790771,0.266167,0.012600
2592775524,-57.503628,-115.182060,-170.674393,0.664973,0.208304,0.089757
2592795524,-40.271202,-135.064423,-182.350769,1.017081,0.048713,0.023510
2592815525,9.392943,-91.256523,-194.342407,2.210245,0.024459,0.051767
2592835525,36.598888,-24.138313,-136.681595,2.610255,-0.193145,0.538298
2592855525,64.592751,0.968515,-35.791328,1.755551,-0.453537,0.933953
2592875526,-9.519724,0.294545,-14.179193,1.223114,-0.194319,0.777113
2592895527,-64.126427,18.564466,1.976428,1.146940,-0.202290,0.202533
2592915527,-44.283501,44.678123,39.498112,0.999556,-0.223090,0.029881
2592935527,-3.271272,50.051521,75.003296,0.983391,-0.081915,0.189915
2592955527,18.927843,58.033699,96.197044,1.112677,0.042930,0.326397
2592975527,22.785954,86.132118,106.729111,1.106292,0.089100,0.284394
2592995526,20.756882,113.000778,116.526115,0.934693,0.086187,0.239565
2593015526,21.282120,119.301651,132.043396,0.804983,0.032067,0.210449
2593035526,25.233118,111.363754,144.106262,0.823370,-0.011775,0.178743
2593055526,31.009710,103.645866,144.016083,0.968204,0.010316,0.158335
2593075526,35.308167,93.150223,142.554535,1.058489,0.065758,0.170615
2593095526,43.085358,75.345245,148.702011,0.993653,0.033419,0.209591
2593115526,47.878944,44.911751,147.845337,0.919234,-0.038910,0.254102
2593135527,45.700981,19.833088,128.621078,0.957179,-0.032918,0.246274
2593155526,60.305603,-3.384482,109.828461,0.947857,-0.029720,0.201800
2593175526,92.607880,-15.456787,96.246811,0.855796,0.009498,0.252264
2593195528,93.416359,-24.604952,74.345306,0.706102,0.161125,0.385890
2593215528,48.605648,-40.826855,48.337437,0.640498,0.270166,0.444214
2593235528,-8.644938,-50.755470,12.189940,0.599986,0.266701,0.472410
2593255528,-50.181625,-73.743866,-23.909334,0.528283,0.285836,0.254937
2593275535,-54.031075,-91.274467,-54.034836,0.472024,0.262914,0.037262
2593295528,-61.297905,-101.548653,-120.912811,0.357996,0.335943,0.213503
2593315529,-75.263542,-125.431801,-186.581406,0.940634,0.163276,0.375448
2593355527,-11.331274,-19.298061,-113.716995,1.300462,-0.166291,0.582439
2593375528,-39.520592,-19.786335,-117.666855,1.017109,-0.103908,0.335627
2593395527,-51.435101,-32.322395,-137.952209,0.900233,-0.077926,0.059580
2593415527,-41.693779,-50.810440,-133.201324,1.009757,0.021470,0.109963
2593435527,-28.451378,-42.150688,-106.217041,1.257172,0.064214,0.115629
2593455528,-11.906734,-19.180796,-76.037384,1.034375,0.076497,0.186535
2593475528,-16.512630,-20.956696,-72.140228,0.925165,0.048607,0.267412
2593495528,-22.180159,-14.982608,-66.609108,1.083543,0.042673,0.316074
2593515528,-26.619467,5.138577,-54.870682,1.163871,0.017401,0.288994
2593535530,-31.189575,18.428766,-43.001892,1.176041,0.048588,0.313813
2593555530,-40.736301,16.362862,-32.363045,1.140117,0.057740,0.334747
2593575530,-51.165226,8.912210,-27.456053,1.157214,0.096563,0.227052
2593595530,-52.068466,10.126358,-14.606954,1.077392,0.080854,0.154519
2593615530,-48.569057,9.723155,0.699150,0.903713,-0.121998,0.256591
2593635530,-46.099567,7.262895,4.361902,0.923586,-0.328104,0.303650
2593655531,-21.637062,10.021553,8.934045,1.030219,-0.293042,0.256388
2593675529,11.408132,16.722651,25.228077,1.029350,-0.091298,0.269333
2593695529,19.521746,20.993069,41.571026,1.031559,0.013852,0.315081
2593715529,20.318533,25.589851,51.577675,1.005663,-0.003680,0.334793
2593735529,23.532455,30.800606,54.123150,0.979048,-0.029954,0.307928
2593755530,20.978743,31.348310,52.316090,0.977266,-0.005318,0.273508
2593775530,11.383926,31.873453,49.606575,0.980701,-0.002707,0.283172
2593795530,1.150760,29.288767,50.014603,0.945214,-0.089505,0.327202
2593815530,0.623947,22.654535,49.591125,0.972759,-0.194963,0.304015
2593835530,21.323380,23.710163,49.712166,1.007352,-0.183633,0.238605
2593855530,49.820328,29.635695,53.985546,0.989138,-0.119849,0.310962
2593875531,61.881973,32.826576,58.741566,1.013625,-0.052444,0.401116
2593895532,58.859413,35.417023,61.372997,1.073516,0.053128,0.402924
2593915532,44.580704,43.981110,59.583160,1.117288,0.158572,0.429110
2593935532,27.202971,53.377712,61.109413,1.073612,0.121377,0.484154
2593955532,7.041775,61.579895,59.918037,1.025955,0.034949,0.491479
2593975532,-11.975662,64.776138,58.569344,0.939354,-0.006876,0.438800
2593995535,-22.725590,66.704834,66.672592,0.941106,-0.016454,0.388339
2594015531,-23.207718,67.800392,83.753143,0.927066,-0.053622,0.342978
2594035531,-2.517780,64.882835,101.636688,0.931550,-0.181802,0.393976
2594055531,3.539227,63.679230,113.644234,0.951218,-0.129754,0.560027
2594075531,-3.460701,66.451103,123.314789,0.858193,0.046893,0.505843
2594095531,-5.195158,69.584503,118.923698,0.779175,0.050299,0.518769
2594115531,-33.041630,65.410561,117.831116,0.874868,-0.000850,0.681789
2594135531,-52.711399,72.846375,99.846436,0.832552,0.081336,0.498853
2594155531,-63.822372,51.415092,75.828453,0.603239,-0.039527,0.409921
2594175532,-93.359047,17.716150,65.355476,0.547135,-0.421332,0.504888
2594195533,-80.812408,20.731071,65.398491,0.686650,-0.708586,0.509064
2594215533,-23.725214,33.540497,68.613342,0.645598,-0.654114,0.360591
2594235533,18.302502,34.910290,67.214462,0.536925,-0.560716,0.405494
2594255533,31.764700,27.463772,58.052326,0.540046,-0.365707,0.449232
2594275539,14.546796,11.764179,47.775852,0.577292,-0.214802,0.472647
2594295534,-21.769758,2.140316,45.272404,0.594639,-0.240199,0.527668
2594315534,-41.772259,3.200488,46.354485,0.584556,-0.390970,0.649194
2594335532,-48.914982,7.892163,42.566170,0.687294,-0.517984,0.717583
2594355532,-36.424221,17.677151,35.876137,0.753288,-0.558033,0.716582
2594395533,-22.344883,47.951744,10.900750,0.790449,-0.430998,0.736167
2594415533,-19.738062,58.905144,-2.961205,0.720970,-0.312419,0.686669
2594435533,-20.351145,67.948875,-16.229845,0.658905,-0.245332,0.639040
2594455533,-32.919052,72.405647,-21.329790,0.557317,-0.250543,0.607175
2594475533,-57.566589,72.947914,-14.775422,0.488317,-0.370968,0.614807
2594495533,-67.727142,65.063126,-3.096682,0.436453,-0.594675,0.551681
2594515533,-46.107059,61.931984,0.686816,0.476735,-0.733906,0.442485
2594535535,6.688238,69.667587,10.403711,0.578865,-0.878656,0.496636
2594555535,54.582024,61.804863,33.945705,0.539564,-1.077037,0.532127
2594575535,113.068321,39.438900,34.448677,0.449627,-0.993566,0.425587
2594595535,158.569092,16.142056,7.513186,0.372117,-0.653612,0.378080
2594615535,170.241470,-12.226174,-15.475520,0.319508,-0.335245,0.383513
2594635535,160.373322,-38.391609,-27.159199,0.285550,-0.073962,0.417012
2594655535,132.419678,-71.152412,-38.251602,0.276253,0.055477,0.472213
2594675534,74.444092,-107.049515,-62.985451,0.402416,0.065753,0.481535
2594695534,16.187380,-136.407043,-85.201874,0.531356,0.047033,0.457033
2594715534,-12.144169,-148.323029,-114.807846,0.585961,0.084112,0.562551
2594735534,-24.451010,-153.532715,-148.598251,0.630966,0.069404,0.668676
2594755534,-37.900898,-157.571976,-175.762131,0.864089,0.041212,0.702014
2594775534,-76.910172,-154.669479,-202.962296,1.365237,0.051500,0.562505
2594795535,-40.908482,-129.891571,-162.552231,1.492967,-0.178619,0.533394
2594815535,24.758928,-92.903290,-66.348709,1.343256,-0.539755,0.885883
2594835535,42.612240,-50.153629,2.149931,1.199952,-0.505038,0.984154
2594855535,32.884808,-11.160798,48.092381,1.050702,-0.259261,0.862301
2594875537,-16.072334,12.285284,86.897949,1.001263,-0.061624,0.757698
2594895537,-97.821106,23.401520,104.357483,1.083383,-0.013128,0.621867
2594915537,-147.332336,9.907122,125.474579,0.960966,-0.472597,0.260821
2594935537,-101.384323,-35.778042,178.203583,0.654608,-1.006655,0.176732
2594955537,33.855286,12.957048,162.538589,1.227468,-1.022434,0.513494
2594975537,219.889160,73.920639,64.688126,1.070206,-0.037956,0.093424
2594995559,185.169998,37.191273,91.063744,0.736401,0.223624,0.522881
2595015536,76.570145,34.181099,115.762138,0.678798,0.026041,0.758578
2595035536,23.588545,34.644073,99.800270,0.677878,0.040355,0.518723
2595055536,-35.093689,32.497189,102.737831,0.649235,-0.027022,0.494294
2595075536,-60.090595,15.355083,108.644417,0.610598,-0.322263,0.591208
2595095536,-47.443867,2.491851,90.224167,0.673463,-0.566157,0.513402
2595115536,4.836476,20.964706,69.003441,0.771432,-0.566439,0.505454
2595135537,61.677006,45.031403,69.417435,0.639202,-0.407765,0.553860
2595155537,63.976276,47.563774,67.731201,0.446544,-0.154418,0.579042
2595175537,20.760481,40.084572,53.394585,0.403925,-0.102519,0.623241
2595195537,-15.167206,25.508085,35.629547,0.499128,-0.268372,0.590079
2595215538,-23.392942,7.832789,11.049402,0.497601,-0.415085,0.525000
2595235538,-16.825281,-7.758645,-26.952194,0.501445,-0.404766,0.502167
2595255538,-7.377065,-12.307895,-66.217697,0.543531,-0.333529,0.504962
2595275538,3.529363,-15.970208,-95.956711,0.617385,-0.318926,0.593050
2595295538,-12.985335,-31.412613,-120.889084,0.626406,-0.221276,0.760026
2595315539,-43.400829,-59.357067,-142.152390,0.755445,-0.038203,0.683441
2595335537,-53.767605,-62.312710,-146.134506,0.905585,-0.029468,0.544345
2595355537,-61.165886,-43.605350,-135.227264,0.967614,-0.129653,0.673938
2595375538,-140.766052,9.194990,-82.667580,1.778702,-0.850585,1.256444
2595395538,-156.919266,34.594936,67.286751,1.281115,-1.267329,0.714277
2595415538,-59.717644,83.453499,9.611043,0.392402,-0.542470,0.697750
2595435538,-37.571590,21.184860,-33.075695,0.259780,-0.893561,0.360841
2595455538,-9.268735,-5.271799,-40.076439,0.612949,-1.081958,0.074577
2595475538,79.364662,39.792763,-51.780621,0.833817,-0.212841,0.106684
2595495539,137.509293,38.969776,10.842012,0.707140,0.084990,0.568409
2595515538,76.020248,11.291702,37.526859,0.665030,0.164557,0.907913
2595535540,-42.811363,-25.098242,15.930576,0.540261,0.070536,0.784959
2595555539,-93.008942,-45.892498,-1.361121,0.627198,-0.210347,0.502088
2595575540,-67.082687,-22.712496,-19.952223,0.781549,-0.403234,0.446129
2595595540,-20.602015,-1.176608,-28.857016,0.832062,-0.528734,0.517525
2595615540,24.974152,4.353055,-35.352116,0.835662,-0.470163,0.556523
2595635540,44.230812,7.532005,-41.837933,0.777133,-0.292034,0.574451
2595655540,34.724487,2.833334,-47.898273,0.743797,-0.136058,0.549097
2595675539,11.422113,-6.794790,-48.386528,0.745189,-0.061509,0.481651
2595695539,-4.369120,-14.485934,-41.067760,0.764491,-0.062753,0.442368
2595715539,-6.141570,-22.321323,-34.967480,0.772931,-0.131714,0.419340
2595735539,-3.591742,-24.477455,-41.200806,0.821202,-0.158889,0.402365
2595755539,4.543559,-21.062918,-49.643108,0.879556,-0.103515,0.413412
2595775539,16.526207,-17.355209,-55.049389,0.913060,0.018039,0.502004
2595795539,6.284775,-21.526651,-56.435165,0.962650,0.166579,0.511806
2595815539,-12.741055,-20.166782,-57.524723,1.010586,0.297962,0.514557
2595835539,-45.206501,-22.430647,-54.060455,1.013095,0.317674,0.523583
2595855540,-68.318893,-23.904467,-55.376873,1.041873,0.288819,0.423796
2595875541,-79.866814,-21.270021,-63.110176,0.982305,0.314027,0.356494
2595895541,-99.078262,-19.427975,-73.685051,0.873177,0.295036,0.322484
2595915541,-118.223343,-15.725839,-90.811668,0.878146,0.213653,0.315666
2595935541,-129.893753,-14.003560,-106.147224,0.934299,0.089849,0.310654
2595955542,-133.071198,-15.416903,-116.765381,0.965806,0.006075,0.290367
2595975542,-132.986099,-23.898813,-127.100403,0.937866,-0.008178,0.231287
2595995542,-135.622116,-33.322193,-139.835342,0.903491,0.016896,0.153843
2596015541,-134.509979,-40.082199,-156.345932,0.897455,0.054953,0.104487
2596035540,-131.707993,-47.631203,-172.617477,0.922432,0.110340,0.066945
2596055541,-129.165176,-54.225277,-182.151566,0.959739,0.158112,0.061935
2596075540,-121.451241,-58.443867,-184.455093,1.033745,0.159988,0.086641
2596095541,-105.567863,-58.884495,-176.211960,1.130054,0.134660,0.098398
2596115541,-89.607590,-57.012890,-157.766174,1.190892,0.167566,0.048610
2596135541,-110.674286,-44.651985,-147.451660,1.210345,0.196083,0.100908
2596155541,-149.627441,-43.213982,-140.570053,1.246054,0.086046,0.208222
2596175541,-166.193466,-46.333187,-108.342636,1.327842,-0.054878,0.289931
2596195541,-167.242065,-42.321339,-61.566925,1.384098,-0.334628,0.301272
2596215543,-132.181595,-26.291382,-22.169212,1.271338,-0.497972,0.256035
2596235543,-72.230827,-10.994055,-5.391102,1.121989,-0.380757,0.304085
2596255543,-35.410576,-3.366969,0.873167,1.057686,-0.147793,0.340176
2596275544,-28.824965,1.244094,9.265044,1.051162,0.034095,0.303931
2596295544,-43.676315,10.114151,18.723452,1.029189,0.126215,0.267267
2596315544,-57.044247,16.149916,31.166868,0.934583,0.108013,0.239959
2596335544,-55.438457,14.212260,41.693398,0.849476,0.053938,0.197517
2596355543,-52.996140,9.219036,45.025787,0.809275,0.053653,0.194289
2596375543,-49.267811,5.271437,47.716816,0.840510,0.061698,0.211902
2596395543,-38.478485,3.787386,53.160980,0.912443,0.051719,0.250087
2596415543,-28.123791,-0.768515,56.933998,0.991847,0.052003,0.266845
2596435543,-19.933916,-6.345353,57.955383,1.032834,0.066289,0.252261
2596455543,-21.454145,-13.197532,55.987160,1.018721,0.103548,0.255925
2596475543,-29.608208,-19.111059,50.207329,0.989225,0.109722,0.319659
2596495543,-35.109901,-27.209375,45.154816,0.990286,0.046895,0.371351
2596515543,-32.993000,-31.618122,33.089783,1.005162,0.032702,0.398901
2596535543,-36.179630,-18.415634,5.937661,1.090669,0.066871,0.524751
2596555545,-58.377239,2.723226,-23.116627,1.098009,0.325755,0.496219
2596575545,-67.687317,18.761848,-42.631496,0.862727,0.413475,0.229890
2596595545,-90.833466,9.234520,-67.066429,0.338770,0.680529,0.067815
2596615545,-166.449478,-32.974583,-103.690445,0.093968,0.878223,-0.049063
2596635545,-167.726456,-30.191957,-135.462433,1.137722,0.420453,0.108497
2596655545,-147.397491,2.629302,-42.855400,1.862619,-0.573887,0.318340
2596675545,-49.702492,16.187542,53.353619,1.122972,-0.702013,0.572921
2596695544,-51.736404,27.402363,16.029732,0.877602,-0.206679,0.456025
2596715544,-78.716537,17.014500,-25.109928,0.934185,-0.142533,0.124584
2596735544,-64.236702,-8.887797,-24.617891,0.978423,-0.374676,0.154228
2596755544,-19.174669,-11.835401,-19.673218,0.947480,-0.310538,0.226178
2596775544,-3.432546,-10.379004,-21.613565,0.827754,-0.139781,0.254457
2596795544,-6.394987,-19.397924,-19.834099,0.822490,-0.104789,0.284333
2596815544,-13.646070,-24.226021,-14.740730,0.922750,-0.085003,0.290876
2596835545,-20.744886,-19.775335,-4.849342,0.957631,-0.044878,0.262425
2596855545,-24.657442,-16.142227,8.215319,0.924531,-0.071925,0.248186
2596875545,-19.941170,-18.081530,15.376339,0.923366,-0.142576,0.238953
2596895547,-3.570593,-17.837906,15.353651,0.977622,-0.151078,0.214363
2596915547,15.916964,-13.147833,14.179466,1.006744,-0.095285,0.217721
2596935547,25.878328,-11.877267,16.301613,1.013395,-0.022744,0.240116
2596955547,27.423920,-11.203074,19.536411,1.025193,0.020725,0.239567
2596975547,23.276052,-9.237449,19.956814,1.022025,0.033724,0.247545
2596995547,17.255932,-14.140535,16.298063,1.002146,0.021312,0.221082
2597015559,18.407162,-15.028235,8.173141,0.998952,0.021794,0.211921
2597035546,21.643572,-15.085567,-2.115685,0.971298,0.044062,0.221426
2597055546,17.679369,-17.280899,-7.604743,0.969697,0.068505,0.186554
2597075546,11.176941,-16.239473,-8.932443,1.061020,0.067672,0.142973
2597095546,8.772244,-7.048653,-6.538934,1.154481,0.059802,0.087206
2597115546,18.677702,8.151565,-1.447540,1.046081,0.003203,0.176833
2597135546,24.895784,3.995679,-5.910315,0.903247,-0.094139,0.398547
2597155547,45.176651,-3.502120,-0.778622,0.971997,0.023739,0.288789
2597175547,48.472351,11.645947,11.995732,1.021493,0.109910,0.209061
2597195547,27.722874,23.861013,17.415470,1.012082,0.113725,0.258438
2597215547,12.471945,24.193947,23.988657,0.967048,0.116474,0.275821
2597235549,8.794951,22.232277,26.225752,0.929121,0.076598,0.240934
2597255549,6.678514,20.135859,23.425570,0.948807,0.010763,0.230741
2597275549,12.771917,19.530561,26.455414,0.940347,-0.008998,0.203047
2597295549,24.956837,18.770908,24.609753,0.848322,0.080602,0.204119
