Timestamp (us),Gyroscope X (deg/s),Gyroscope Y (deg/s),Gyroscope Z (deg/s),Accelerometer X (g),Accelerometer Y (g),Accelerometer Z (g)
9316120445,0.706865,-1.342392,-1.260985,-0.004806,0.953123,0.159459
9316122943,1.072651,-1.160501,-1.199981,-0.003325,0.954570,0.158032
9316125440,1.499253,-0.917810,-1.078403,-0.001158,0.955269,0.160242
9316127938,1.925836,-0.735915,-0.956492,-0.003326,0.956741,0.160229
9316130435,2.230126,-0.371223,-0.714637,-0.007657,0.961860,0.161673
9316132933,2.412821,-0.006540,-0.594595,-0.006931,0.964749,0.164610
9316135430,2.656503,0.358042,-0.474334,-0.006200,0.969813,0.169017
9316137928,2.839519,0.540129,-0.474673,-0.007733,0.970519,0.177726
9316140425,3.022100,0.540038,-0.352642,-0.007117,0.967572,0.186432
9316142937,3.205021,0.418146,-0.351324,-0.004974,0.972607,0.195214
9316145419,3.265893,0.053272,-0.349117,-0.002035,0.980559,0.199667
9316147916,3.204923,-0.493894,-0.407040,0.000192,0.986351,0.200462
9316150414,3.021584,-1.101447,-0.343692,-0.002018,0.987806,0.204809
9316152911,2.776899,-1.647895,-0.159518,-0.004229,0.989261,0.209156
9316155409,2.471323,-1.890264,0.022780,-0.006355,0.990750,0.204784
9316157907,2.287966,-1.950551,0.143833,-0.009892,0.991545,0.195303
9316160404,2.165634,-1.889346,0.264441,-0.014150,0.993796,0.186552
9316162901,2.104137,-1.706545,0.445293,-0.016941,0.998212,0.178560
9316165399,2.042621,-1.584541,0.626476,-0.016948,0.997485,0.178555
9316167897,1.981275,-1.523437,0.747302,-0.019891,0.996772,0.181424
9316170394,1.859398,-1.219258,0.745208,-0.021332,0.998238,0.181419
9316172892,1.615340,-0.975570,0.803697,-0.018380,0.996782,0.175627
9316175389,1.493084,-0.671183,0.922979,-0.016879,1.000409,0.174217
9316177887,1.309747,-0.670674,1.043700,-0.016873,1.002583,0.175687
9316180384,1.248722,-0.792165,1.044144,-0.015364,1.004765,0.172086
9316182882,1.187849,-1.035352,0.984564,-0.015343,1.004773,0.169906
9316185379,1.126786,-1.278435,0.985672,-0.015432,1.000393,0.174960
9316187878,1.187923,-1.400231,0.925865,-0.016223,1.000374,0.181491
9316190374,1.309688,-1.461122,0.987321,-0.015517,1.001084,0.184412
9316192872,1.553633,-1.461523,0.988194,-0.012540,1.004706,0.180838
9316195369,1.797332,-1.644206,1.050750,-0.010305,1.009053,0.179442
9316197867,2.041371,-1.948689,0.992593,-0.009599,1.007591,0.180165
9316200364,2.224633,-2.192381,0.873198,-0.009597,1.004695,0.177237
9316202862,2.224783,-2.314077,0.813173,-0.010256,1.009073,0.174355
9316205359,1.980819,-2.374472,0.812631,-0.008721,1.015609,0.172241
9316207857,1.614882,-2.434667,0.811652,-0.007225,1.016337,0.168629
9316210354,1.126612,-2.433658,0.931281,-0.005714,1.014899,0.161368
9316212852,0.577584,-2.311062,0.989341,-0.006404,1.012748,0.155530
9316215350,0.028594,-2.066874,1.046738,-0.005723,1.007655,0.155499
9316217847,-0.581344,-1.700994,1.103254,-0.007862,1.006966,0.150383
9316220345,-1.069140,-1.396215,1.099850,-0.010728,1.007008,0.145991
9316222842,-1.374033,-1.274123,1.098095,-0.007846,1.004077,0.146001
9316225340,-1.495381,-1.091849,0.914600,-0.004340,0.997477,0.153257
9316227837,-1.372992,-0.970666,0.792997,-0.006625,0.993834,0.160472
9316230335,-1.129027,-0.910271,0.793539,-0.008121,0.992382,0.163352
9316232832,-0.763071,-0.789280,0.794186,-0.007489,0.987269,0.168407
9316235329,-0.336147,-0.729185,0.795383,-0.007584,0.981439,0.172723
9316237827,0.213279,-0.791194,0.615616,-0.009079,0.979263,0.174870
9316240325,0.823483,-0.913995,0.497086,-0.009073,0.979990,0.174876
9316242822,1.433478,-1.097488,0.439576,-0.009801,0.981444,0.176332
9316245320,1.860307,-1.341371,0.442430,-0.011989,0.981460,0.177035
9316247817,2.104213,-1.463363,0.443967,-0.011962,0.983643,0.176325
9316250315,2.225978,-1.524254,0.505423,-0.011976,0.982189,0.176314
9316252812,2.286964,-1.524355,0.505641,-0.013408,0.981486,0.173386
9316255310,2.286756,-1.585046,0.566661,-0.011220,0.981470,0.172683
9316257807,2.347704,-1.706737,0.567542,-0.009733,0.985091,0.172727
9316260305,2.286737,-1.645842,0.566992,-0.013361,0.985849,0.172692
9316262802,2.286548,-1.645737,0.627680,-0.015543,0.985868,0.172669
9316265300,2.164575,-1.645537,0.627244,-0.011180,0.985830,0.172716
9316267797,2.103589,-1.645437,0.627025,-0.009718,0.984373,0.170541
9316270295,2.042811,-1.584646,0.565787,-0.011103,0.985861,0.164723
9316272793,1.920876,-1.462854,0.564688,-0.008942,0.984386,0.165463
9316275290,1.798733,-1.401754,0.624608,-0.006788,0.982908,0.166929
9316277787,1.615396,-1.401245,0.745329,-0.006040,0.983635,0.165489
9316280285,1.493253,-1.340144,0.805249,-0.008276,0.981459,0.169082
9316282782,1.432096,-1.279144,0.865387,-0.006086,0.978548,0.165450
9316285280,1.371110,-1.279044,0.865169,-0.004597,0.978549,0.161833
9316287777,1.309953,-1.218044,0.925307,-0.004597,0.978549,0.161833
9316290275,1.309594,-1.157040,1.046352,-0.005345,0.978547,0.164005
9316292773,1.370750,-1.218040,0.986213,-0.004514,0.981478,0.156042
9316295270,1.309537,-1.339427,1.047346,-0.003764,0.979309,0.151673
9316297768,1.187526,-1.460818,1.047572,-0.003777,0.977132,0.150930
9316300265,1.004377,-1.460413,1.107605,-0.004530,0.973507,0.150168
9316302763,0.882386,-1.521009,1.107500,-0.002294,0.976406,0.147307
9316305260,0.760583,-1.581709,1.046707,-0.001573,0.974226,0.145845
9316307758,0.638610,-1.581509,1.046270,-0.004446,0.974989,0.142912
9316310255,0.638251,-1.520504,1.167315,-0.002287,0.975685,0.145848
9316312753,0.637891,-1.459500,1.288360,-0.002277,0.972069,0.141461
9316315250,0.820491,-1.398795,1.410059,-0.005926,0.970646,0.141410
9316317748,1.003659,-1.338404,1.349695,-0.003102,0.969864,0.149429
9316320245,1.186977,-1.399709,1.229305,-0.000242,0.969095,0.153815
9316322743,1.370315,-1.400218,1.108584,-0.004608,0.974200,0.158893
9316325240,1.675436,-1.400823,1.048988,-0.008214,0.972795,0.154482
9316327738,1.980576,-1.340632,0.989060,-0.008300,0.963348,0.154410
9316330235,2.224672,-1.462728,0.929908,-0.008201,0.973524,0.153761
9316332733,2.285261,-1.523415,1.051834,-0.008205,0.980039,0.160351
9316335230,2.163080,-1.583906,1.112417,-0.011180,0.974969,0.162460
9316337728,1.919134,-1.583506,1.111544,-0.010466,0.972786,0.161725
9316340225,1.675378,-1.583210,1.049982,-0.009658,0.978604,0.158870
9316342723,1.370787,-1.704510,0.928177,-0.011106,0.980067,0.159592
9316345220,1.005228,-1.764914,0.805822,-0.008879,0.985135,0.159655
9316347718,0.639480,-1.825213,0.744156,-0.008130,0.985138,0.157483
9316350216,0.212746,-1.885413,0.682270,-0.002314,0.985811,0.158279
9316352713,-0.031408,-1.945704,0.742417,-0.003715,0.991637,0.158307
9316355211,-0.275373,-2.006099,0.741875,-0.002979,0.988015,0.153928
9316357708,-0.458104,-1.884312,0.679869,-0.002235,0.983671,0.148089
9316360206,-0.579641,-1.701933,0.557061,-0.000005,0.983671,0.143027
9316362703,-0.579395,-1.519651,0.495379,-0.001481,0.985847,0.147387
9316365201,-0.457156,-1.276772,0.433801,0.000652,0.983637,0.150301
9316367698,-0.273723,-0.973302,0.311423,0.003631,0.982916,0.142334
9316370196,-0.090309,-0.730629,0.189376,0.001456,0.985110,0.143780
9316372695,0.031759,-0.426850,0.188155,-0.001493,0.981498,0.144447
9316375192,0.153392,-0.305250,0.309305,0.000674,0.982198,0.146657
9316377690,0.397205,-0.123159,0.369872,0.002862,0.982906,0.146686
9316380187,0.641359,-0.062868,0.309726,0.007314,0.987248,0.141681
9316382685,0.946291,-0.063368,0.310818,0.005851,0.988705,0.143856
9316385182,1.190406,-0.124669,0.251335,0.002874,0.986531,0.148894
9316387679,1.312171,-0.185560,0.312791,0.003616,0.984358,0.145252
9316390177,1.372910,-0.367943,0.374692,0.004997,0.988661,0.156928
9316392675,1.372702,-0.428635,0.435711,0.003544,0.987226,0.155447
9316395172,1.433612,-0.671918,0.437256,0.005786,0.991576,0.153325
9316397670,1.494769,-0.732918,0.377117,0.005036,0.993745,0.157693
9316400167,1.616703,-0.854709,0.378217,0.003495,0.986483,0.159802
9316402665,1.677709,-0.794014,0.378104,0.003501,0.987933,0.160539
9316405162,1.738657,-0.915705,0.378985,-0.000158,0.992299,0.167073
9316407660,1.677670,-0.915605,0.378767,-0.003033,0.995958,0.167069
9316410157,1.677462,-0.976296,0.439786,-0.003088,0.993764,0.170685
9316412655,1.677481,-0.915501,0.439455,0.002039,0.990114,0.163447
9316415152,1.677500,-0.854705,0.439123,-0.003037,0.990888,0.162670
9316417650,1.677349,-0.733009,0.499149,-0.002277,0.994515,0.162706
9316420147,1.615965,-0.793496,0.620638,-0.003087,0.990868,0.167756
9316422645,1.493595,-0.853883,0.741909,-0.003039,0.993783,0.165599
9316425142,1.371433,-0.853578,0.802160,-0.006675,0.993815,0.165559
9316427640,1.249649,-0.853483,0.741035,-0.005206,0.993084,0.163389
9316430137,1.066709,-0.792387,0.740049,-0.004505,0.990171,0.163375
9316432635,1.066899,-0.792491,0.679361,-0.005951,0.998876,0.170692
9316435132,1.188682,-0.792587,0.740486,-0.000893,0.993751,0.169256
9316437630,1.371622,-0.853683,0.741472,0.003534,0.991567,0.160567
9316440128,1.432760,-0.975479,0.681665,0.003603,0.994490,0.156229
9316442625,1.310787,-0.975278,0.681229,0.002834,0.994480,0.160581
9316445123,1.188833,-0.914283,0.680460,0.006428,0.992984,0.163517
9316447620,1.066539,-0.731486,0.800406,0.006444,0.990094,0.159135
9316450118,1.005440,-0.488099,0.859549,0.006389,0.986452,0.161287
9316452615,0.883544,-0.244716,0.857787,0.010773,0.987147,0.159887
9316455113,0.822785,-0.123129,0.796217,0.012966,0.990753,0.162118
9316457610,0.944777,-0.062533,0.796323,0.010113,0.992248,0.157738
9316460108,1.005971,-0.001942,0.735521,0.005761,0.986497,0.151106
9316462605,1.067015,0.180345,0.734745,0.005007,0.985045,0.152540
9316465103,1.128059,0.362632,0.733969,0.004963,0.986476,0.158364
9316467600,1.311075,0.544719,0.733630,0.005627,0.987168,0.165644
9316470098,1.494243,0.605110,0.673265,0.008535,0.987143,0.165676
9316472595,1.799155,0.543814,0.674688,0.009229,0.984227,0.166389
9316475093,1.982323,0.604205,0.614324,0.006293,0.982793,0.167799
9316477591,2.226287,0.664600,0.614866,0.002650,0.982822,0.168486
9316480088,2.470232,0.664200,0.615739,-0.000992,0.982126,0.168440
9316482585,2.775126,0.542108,0.617494,0.002658,0.982101,0.167027
9316485083,3.141196,0.419812,0.558779,0.000436,0.979207,0.168434
9316487580,3.446298,0.358411,0.499514,-0.000311,0.977757,0.169142
9316490078,3.812178,0.236219,0.501487,-0.002459,0.981409,0.169145
9316492576,4.056104,0.175023,0.502692,-0.002425,0.982871,0.166977
9316495073,4.360998,0.052931,0.504447,-0.001705,0.982862,0.167711
9316497571,4.544316,-0.008373,0.384057,0.000436,0.979207,0.168434
9316500068,4.788281,0.052022,0.384599,-0.001723,0.978510,0.165498
9316502566,4.910102,0.173518,0.445061,-0.001711,0.980687,0.166241
9316505063,5.093100,0.294809,0.445053,0.000436,0.979931,0.169166
9316507561,5.276059,0.294509,0.445708,-0.000277,0.979219,0.166973
9316510058,5.337254,0.355100,0.384907,-0.001711,0.980687,0.166241
9316512556,5.276495,0.476687,0.323337,-0.005326,0.982899,0.166218
9316515053,5.154749,0.598374,0.261550,-0.005286,0.985811,0.164787
9316517551,5.033004,0.720061,0.199762,-0.003036,0.989440,0.161205
9316520048,4.789096,0.842053,0.198226,-0.001575,0.988706,0.159762
9316522553,4.484184,0.903349,0.196802,-0.000874,0.985793,0.159748
9316525044,4.240258,0.964545,0.195597,-0.001580,0.985808,0.157560
9316527540,3.996293,0.904150,0.195056,-0.000825,0.985813,0.154662
9316530037,3.691342,0.843855,0.194295,-0.002285,0.983651,0.153176
9316532535,3.386164,0.662072,0.254886,-0.002257,0.984386,0.151001
9316535032,3.203147,0.479986,0.255225,0.000700,0.986552,0.148143
9316537530,2.958974,0.358899,0.315703,0.002183,0.985103,0.143788
9316540027,2.715010,0.298503,0.315161,0.000696,0.981482,0.143745
9316542524,2.471405,0.177104,0.193574,0.001375,0.978561,0.145910
9316545022,2.288824,0.177195,0.071543,0.001403,0.979296,0.143736
9316547519,2.167079,0.298882,0.009755,-0.000092,0.977120,0.145883
9316550017,2.105941,0.420678,0.069562,0.002837,0.977827,0.144467
9316552515,1.983798,0.481778,0.129482,0.006528,0.979990,0.140891
9316555012,1.922793,0.421083,0.129595,0.005800,0.980720,0.141615
9316557510,1.922623,0.481983,0.189952,0.006520,0.981435,0.143082
9316560007,1.922623,0.481983,0.189952,0.007225,0.981420,0.145270
9316562505,1.922831,0.542674,0.128932,0.005744,0.979974,0.146696
9316565002,1.922831,0.542674,0.128932,0.006450,0.979235,0.148152
9316567500,1.923020,0.542570,0.068244,0.006442,0.980680,0.150343
9316569997,1.983817,0.542574,0.129151,0.003497,0.982863,0.156141
9316572495,2.105828,0.663965,0.128924,0.001267,0.982138,0.160471
9316574992,2.166664,0.785561,0.189168,0.001246,0.982130,0.162651
9316577490,2.166872,0.846252,0.128148,0.003434,0.983562,0.163413
9316579987,2.288845,0.846052,0.128585,0.003411,0.985001,0.167057
9316582485,2.532922,0.663160,0.069765,0.001215,0.986462,0.169951
9316584982,2.715843,0.541269,0.071083,-0.000952,0.987210,0.169206
9316587480,2.837569,0.358786,0.133202,-0.000967,0.988652,0.172124
9316589977,2.837323,0.176503,0.194885,-0.002395,0.990848,0.171398
9316592475,2.837227,-0.127476,0.196542,-0.005296,0.990876,0.170639
9316594972,2.837113,-0.492250,0.198531,-0.003802,0.995223,0.170688
9316597470,2.775993,-0.917720,0.200633,-0.004460,0.996705,0.164878
9316599967,2.654133,-1.160807,0.140834,-0.007311,0.996029,0.158301
9316602465,2.410168,-1.221202,0.140292,-0.008701,0.993895,0.149549
9316604962,2.105426,-1.220806,0.078512,-0.010819,0.995387,0.144449
9316607460,1.861537,-1.038019,0.076644,-0.010045,0.998296,0.142299
9316609958,1.861633,-0.734040,0.074987,-0.007121,0.996828,0.139414
9316612455,2.227666,-0.369866,0.074308,-0.005687,0.994636,0.139413
9316614953,2.898611,-0.066989,0.075053,-0.005609,0.993943,0.130687
9316617450,3.569878,0.053293,-0.044585,-0.005452,0.991109,0.111772
9316619948,3.996744,-0.068999,-0.042393,-0.003869,0.988251,0.095780
9316622445,4.119039,-0.251795,-0.162338,0.001326,0.988973,0.085668
9316624943,4.057995,-0.434082,-0.161562,-0.001472,0.992663,0.077671
9316627440,3.813822,-0.555169,-0.101085,-0.004446,0.995558,0.087107
9316629938,3.630712,-0.433173,-0.041714,-0.001902,0.992492,0.121996
9316632435,3.570010,-0.129198,-0.104278,-0.001554,0.990162,0.159047
9316634933,3.936459,0.356358,-0.226996,0.003303,0.989302,0.182350
9316637430,4.424654,0.720227,-0.287926,0.009625,0.983365,0.199817
9316639928,4.973740,0.780018,-0.346981,0.007374,0.981908,0.205595
9316642425,5.156831,0.597226,-0.406019,0.005855,0.984067,0.214316
9316644923,4.729774,0.111561,-0.404896,0.005168,0.986986,0.212877
9316647421,3.814598,-0.494791,-0.344168,0.006816,0.993567,0.199136
9316649918,2.350658,-1.343529,-0.344768,0.008495,0.994368,0.176631
9316652415,0.703588,-2.131066,-0.285666,0.008615,0.995140,0.165011
9316654913,-0.699478,-2.736617,-0.226686,0.004286,0.996639,0.162794
9316657410,-1.553761,-3.038986,-0.106709,0.003392,0.992958,0.176565
9316659908,-1.736701,-2.977890,-0.107696,0.003206,0.987092,0.190327
9316662405,-1.431542,-2.856903,-0.167955,0.003244,0.981314,0.180836
9316664903,-0.821660,-2.797108,-0.166103,0.000500,0.978508,0.161162
9316667400,-0.089861,-2.919901,-0.162820,-0.005852,0.976468,0.139274
9316669898,0.641956,-2.981897,-0.159868,-0.006472,0.974345,0.126170
9316672396,1.190984,-3.104494,-0.217928,-0.009869,0.977367,0.104353
9316674893,1.496067,-3.226690,-0.276861,-0.009665,0.978172,0.084012
9316677391,1.678648,-3.226782,-0.154830,-0.012571,0.973854,0.079587
9316679888,1.861645,-3.105490,-0.154838,-0.013282,0.981831,0.085453
9316682386,2.105497,-2.801808,-0.094934,-0.009717,0.981772,0.092759
9316684883,2.654527,-2.316343,-0.095620,-0.010536,0.981742,0.102198
9316687381,3.447294,-1.891970,-0.034414,-0.007034,0.981657,0.116044
9316689878,4.544993,-1.468097,0.027884,0.001508,0.980786,0.134301
9316692375,5.643013,-1.226820,-0.030200,-0.000084,0.975675,0.143692
9316694873,6.802171,-1.107339,-0.148090,0.001367,0.980006,0.148101
9316697371,7.839298,-1.170045,-0.265423,0.004234,0.979240,0.151761
9316699868,8.754283,-1.171650,-0.322836,0.007799,0.979181,0.159067
9316702366,9.302913,-1.354834,-0.259188,0.011391,0.980581,0.164931
9316704863,9.607636,-1.416026,-0.197076,0.012124,0.982749,0.166409
9316707361,9.729401,-1.476917,-0.135620,0.008562,0.989326,0.164966
9316709859,9.546670,-1.355130,-0.197626,0.006435,0.992987,0.162790
9316712356,9.119614,-1.232733,-0.139130,0.012961,0.987855,0.159916
9316714853,8.448821,-1.049245,-0.142526,0.013076,0.994417,0.154153
9316717351,7.594900,-0.804557,-0.086221,0.004420,0.996692,0.148988
9316719848,6.680200,-0.499077,-0.091153,0.002982,0.994538,0.145322
9316722346,5.643528,-0.193397,-0.096523,0.008158,1.003218,0.144717
9316724844,4.667841,0.112183,-0.101674,0.005221,1.002508,0.146860
9316727341,3.752724,0.296280,0.015433,0.000833,0.998191,0.145326
9316729839,2.959599,0.540973,0.132644,0.003695,0.993803,0.146051
9316732336,2.227839,0.785357,0.128698,0.004436,0.994526,0.145338
9316734834,1.618052,1.029540,0.125189,0.002982,0.993815,0.144589
9316737331,1.252342,1.090832,0.062859,0.005875,0.995232,0.147539
9316739828,1.130729,1.030028,-0.058622,0.006562,0.993037,0.149710
9316742326,1.131070,0.908228,-0.179336,0.004337,0.994487,0.155511
9316744824,1.131050,0.847432,-0.179004,0.007262,0.990848,0.150428
9316747321,1.252985,0.725640,-0.177905,0.004368,0.990155,0.148211
9316749820,1.374560,0.664853,-0.055760,-0.000038,0.991623,0.153987
9316752318,1.557141,0.664762,0.066271,0.003556,0.990127,0.156923
9316754815,1.618089,0.543070,0.067152,0.005744,0.990835,0.156952
9316757313,1.800991,0.360383,0.068802,0.005766,0.990120,0.154040
9316759810,1.922925,0.238591,0.069902,0.005095,0.990872,0.148951
9316762308,2.044500,0.177804,0.192046,0.000774,0.992374,0.146008
9316764805,2.166454,0.116808,0.192814,0.003717,0.993087,0.143139
9316767303,2.166624,0.055908,0.132458,0.008078,0.994498,0.144651
9316769800,2.166794,-0.004992,0.072101,0.003723,0.994538,0.143876
9316772298,2.105391,-0.126275,0.193922,-0.000569,0.993879,0.135830
9316774795,2.104842,-0.065166,0.375655,-0.000576,0.994601,0.137289
9316777293,2.043118,-0.003852,0.617857,-0.002058,0.993154,0.138715
9316779790,2.103953,0.117743,0.678101,-0.004214,0.998251,0.140910
9316782288,2.164769,0.178543,0.738676,0.003112,1.000383,0.137373
9316784785,2.225548,0.117752,0.799913,-0.002008,0.993174,0.133628
9316787283,2.164712,-0.003844,0.739670,-0.004906,0.998995,0.138001
9316789781,2.103877,-0.125440,0.679426,-0.000522,0.998242,0.135137
9316792278,2.043080,-0.125444,0.618520,-0.003436,0.995369,0.132902
9316794775,2.043099,-0.064648,0.618189,-0.003483,0.992454,0.135060
9316797273,2.043326,0.056839,0.556838,-0.000562,0.993882,0.135103
9316799770,2.043535,0.117530,0.495818,-0.002720,0.991014,0.129971
9316802268,2.043971,0.299709,0.373447,-0.002768,0.988099,0.132128
9316804766,2.166360,0.420891,0.251845,-0.000635,0.987336,0.136507
9316807263,2.349509,0.420487,0.191812,0.003043,0.987322,0.132186
9316809761,2.593662,0.480778,0.131666,0.002350,0.988790,0.130010
9316812258,2.776829,0.541169,0.071301,0.003015,0.985863,0.133629
9316814756,2.898860,0.723356,0.070743,0.006700,0.986575,0.129314
9316817253,3.021060,0.844643,0.009829,0.005247,0.983692,0.126369
9316819751,3.204417,0.904929,-0.111224,0.003037,0.984424,0.129984
9316822248,3.387773,0.965216,-0.232276,0.005933,0.982945,0.130005
9316824745,3.570694,0.843324,-0.230958,0.005192,0.981498,0.129986
9316827243,3.814620,0.782128,-0.229753,0.005128,0.982197,0.137258
9316829741,3.997579,0.781828,-0.229098,0.005204,0.985847,0.132926
9316832238,4.058415,0.903424,-0.168855,0.005980,0.985860,0.127847
9316834736,3.997637,0.964215,-0.230093,0.006680,0.984395,0.129298
9316837233,3.997447,0.964320,-0.169405,0.004500,0.982242,0.127077
9316839731,3.997617,0.903419,-0.229761,0.005939,0.984396,0.130743
9316842228,3.936593,0.781928,-0.229317,0.005974,0.985134,0.127842
9316844726,3.875229,0.782237,-0.108159,0.006668,0.980770,0.127090
9316847223,3.874850,0.782446,0.013217,0.005932,0.983669,0.130737
9316849721,3.813864,0.782546,0.012999,0.004469,0.986574,0.134377
9316852218,3.691644,0.600463,0.074245,0.003030,0.985145,0.131443
9316854716,3.752573,0.417976,0.075458,0.003695,0.982942,0.135794
9316857213,3.935286,0.235393,0.137795,0.001417,0.980025,0.143015
9316859711,4.118415,0.174193,0.078094,0.003605,0.980009,0.142312
9316862208,4.301394,0.234688,0.078417,0.002177,0.982929,0.142318
9316864706,4.483993,0.295392,0.200117,-0.001486,0.981501,0.143721
9316867204,4.666763,0.295196,0.261460,-0.003688,0.980787,0.145144
9316869701,4.788754,0.355792,0.261566,0.000029,0.985857,0.141590
9316872199,4.971694,0.294696,0.262552,-0.000663,0.986601,0.138681
9316874696,4.971865,0.233796,0.202195,-0.004306,0.988077,0.140832
9316877194,4.910859,0.173100,0.202309,-0.004293,0.989531,0.140843
9316879691,4.849476,0.112613,0.323798,-0.002098,0.990242,0.140146
9316882189,4.727352,0.234509,0.383386,0.000110,0.992406,0.139460
9316884686,4.605398,0.295505,0.382618,-0.000562,0.993882,0.135103
9316887184,4.361453,0.295906,0.381745,-0.001246,0.992458,0.129271
9316889681,4.117488,0.235510,0.381203,0.000943,0.991718,0.127836
9316892179,3.690526,0.053824,0.380669,0.004614,0.991700,0.124243
9316894676,3.202937,-0.188767,0.258872,0.001042,0.991757,0.117663
9316897189,2.532219,-0.370158,0.196776,-0.002561,0.996145,0.118383
9316899670,2.044498,-0.430257,0.134673,-0.002661,0.998278,0.130753
9316902167,1.739775,-0.369066,0.072561,-0.002760,0.998239,0.140926
9316904665,1.739832,-0.186679,0.071567,-0.000599,0.996764,0.141665
9316907163,1.861692,0.056409,0.131366,-0.002773,0.996061,0.140182
9316909660,1.983231,0.482092,0.311546,-0.003470,0.993183,0.134339
9316912157,2.227310,0.907261,0.310099,-0.001301,0.991711,0.134352
9316914655,2.471559,1.271531,0.248296,-0.003518,0.990992,0.137229
9316917152,2.654784,1.514309,0.186937,-0.004929,0.991021,0.132853
9316919650,2.715828,1.696596,0.186161,-0.001162,0.993939,0.122015
9316922147,2.593666,1.696901,0.246412,0.001097,0.993951,0.114046
9316924645,2.349701,1.636505,0.245870,-0.001784,0.994711,0.111840
9316927143,2.166514,1.515318,0.306566,-0.003973,0.996175,0.114007
9316929640,1.922133,1.333540,0.428064,-0.001805,0.994703,0.114020
9316932138,1.738739,1.151662,0.549779,-0.001770,0.995441,0.111119
9316934635,1.494546,0.969780,0.610588,-0.000309,0.995431,0.110408
9316937133,1.372933,0.908975,0.489107,0.000342,0.993222,0.116213
9316939630,1.311928,0.848280,0.489220,0.000321,0.993214,0.118393
9316942128,1.373463,0.787071,0.307705,0.002536,0.995381,0.116980
9316944625,1.495416,0.726075,0.308474,0.008372,0.998235,0.117793
9316947123,1.678337,0.604183,0.309792,0.009037,0.996032,0.122144
9316949620,1.861277,0.543087,0.310778,0.006814,0.996033,0.126480
9316952118,1.983609,0.481883,0.190170,0.005359,0.996770,0.127196
9316954615,2.166966,0.542170,0.069118,0.002397,0.993153,0.129316
9316957113,2.349547,0.542078,0.191149,0.000181,0.991710,0.131461
9316959610,2.348998,0.603187,0.372882,0.001648,0.993151,0.131488
9316962108,2.348979,0.542391,0.373213,0.003083,0.990234,0.130755
9316964605,2.288409,0.663874,0.250956,0.000848,0.985887,0.132151
9316967103,2.227859,0.846152,0.128367,0.001581,0.987332,0.132897
9316969601,2.105565,1.028948,0.248312,0.001574,0.987329,0.133624
9316972098,1.800482,1.151145,0.307245,-0.002787,0.985919,0.132112
9316974596,1.678301,1.090654,0.367828,-0.004928,0.988126,0.129924
9316977093,1.617276,0.969162,0.368273,-0.004180,0.988852,0.128485
9316979590,1.617030,0.786879,0.429955,-0.006380,0.985243,0.126980
9316982088,1.738983,0.725883,0.430723,-0.006353,0.987426,0.126270
9316984586,1.921942,0.725583,0.431378,-0.004894,0.990311,0.128488
9316987083,2.044104,0.725279,0.371127,-0.002774,0.986648,0.131390
9316989581,2.105071,0.664383,0.371677,-0.002772,0.983752,0.128462
9316992078,2.166379,0.481687,0.251513,-0.002751,0.983761,0.126282
9316994575,2.227346,0.420791,0.252063,-0.004261,0.983027,0.131347
9316997073,2.288465,0.238199,0.192588,-0.002799,0.981570,0.129172
9316999571,2.288256,0.177508,0.253607,-0.001226,0.983776,0.119031
9317002068,2.349224,0.116612,0.254157,-0.003407,0.983071,0.118275
9317004566,2.470988,0.055721,0.315614,-0.002689,0.985958,0.121938
9317007063,2.654098,-0.066275,0.256244,-0.001228,0.986672,0.121960
9317009561,2.776033,-0.188067,0.257343,0.002408,0.986641,0.122000
9317012058,2.959124,-0.370859,0.198305,0.006003,0.982973,0.122739
9317014556,3.080869,-0.492546,0.260092,0.007465,0.982240,0.121296
9317017053,3.202633,-0.553437,0.321549,0.004542,0.982259,0.122717
9317019551,3.263241,-0.553329,0.443143,0.002334,0.980819,0.124135
9317022048,3.201838,-0.674611,0.564964,0.003800,0.983707,0.125627
9317024546,3.262748,-0.917894,0.566508,0.006003,0.983697,0.123471
9317027043,3.323450,-1.221869,0.629072,0.007463,0.984411,0.123492
9317029541,3.506521,-1.465456,0.570365,0.005282,0.984430,0.123468
9317032038,3.689253,-1.587243,0.632371,0.003821,0.983716,0.123447
9317034536,3.872023,-1.587439,0.693714,0.003781,0.980803,0.124878
9317037033,4.054812,-1.526839,0.754726,0.003053,0.981534,0.125602
9317039531,4.115856,-1.344552,0.753950,-0.000521,0.984486,0.121951
9317042028,4.116083,-1.223065,0.692599,-0.001241,0.985942,0.122681
9317044526,4.177088,-1.162370,0.692486,0.001641,0.982287,0.121959
9317047024,4.116121,-1.101474,0.691936,-0.002702,0.984504,0.121927
9317049521,4.055343,-1.040682,0.630698,-0.003415,0.985240,0.121198
9317052019,3.933617,-0.858199,0.568579,-0.001956,0.988850,0.124149
9317054516,3.750715,-0.675512,0.566929,-0.004886,0.988866,0.126297
9317057013,3.567605,-0.553516,0.626299,-0.004899,0.988137,0.127018
9317059511,3.445841,-0.492624,0.564843,-0.004153,0.990311,0.127042
9317062009,3.507035,-0.432033,0.504042,-0.001163,0.995387,0.123480
9317064506,3.568400,-0.432342,0.382884,-0.004777,0.994702,0.120528
9317067004,3.629595,-0.371751,0.322083,-0.004098,0.993953,0.124890
9317069501,3.751776,-0.311260,0.261500,0.000258,0.993189,0.124932
9317071999,3.751985,-0.250568,0.200480,0.000243,0.993183,0.126386
9317074496,3.752136,-0.372264,0.140455,-0.000503,0.991009,0.126361
9317076994,3.691073,-0.615347,0.141563,0.004660,0.997511,0.125014
9317079491,3.447070,-0.797334,0.141684,0.004785,1.000457,0.114863
9317081989,3.264281,-0.857933,0.080672,0.004722,0.999708,0.120670
9317084486,3.081322,-0.857633,0.080017,-0.001120,0.995404,0.119120
9317086984,2.959160,-0.857329,0.140268,0.001808,0.996835,0.118436
9317089482,2.897985,-0.857124,0.200738,0.005491,1.000443,0.117051
9317091979,2.897795,-0.857020,0.261426,0.001879,0.996139,0.110438
9317094476,2.958952,-0.918020,0.201288,0.008346,0.994604,0.117038
9317096974,2.958933,-0.978816,0.201619,0.006899,0.995343,0.117028
9317099471,3.020089,-1.039816,0.141481,0.001061,0.995385,0.119144
9317101969,3.081056,-1.100712,0.142031,0.000306,0.995380,0.122043
9317104466,3.019900,-1.039712,0.202169,0.004641,0.993159,0.122800
9317106964,3.019541,-0.978707,0.323214,0.006844,0.992425,0.119912
9317109462,3.019370,-0.917807,0.383571,0.005377,0.990260,0.119153
9317111959,3.019181,-0.917703,0.444259,0.003176,0.988099,0.119112
9317114457,3.141362,-0.857211,0.383676,0.003929,0.991723,0.119875
9317116954,3.202368,-0.796516,0.383563,0.010482,0.988051,0.115559
9317119452,3.263562,-0.735925,0.322761,0.009001,0.985880,0.116253
9317121949,3.263601,-0.614333,0.322098,0.003956,0.993906,0.119165
9317124448,3.263411,-0.614229,0.382787,0.006839,0.988803,0.116978
9317126945,3.202406,-0.674924,0.382900,0.007530,0.990230,0.122083
9317129443,3.324132,-0.857407,0.445019,0.003182,0.990274,0.120582
9317131941,3.384721,-0.918094,0.566945,0.007519,0.985882,0.119143
9317134438,3.506523,-0.857394,0.627738,0.006124,0.992434,0.119177
9317136935,3.567737,-0.736007,0.566606,-0.001223,0.990294,0.124894
9317139433,3.628951,-0.614621,0.505473,0.000280,0.991025,0.120556
9317141930,3.567965,-0.614520,0.505255,-0.001131,0.989607,0.114716
9317144428,3.385006,-0.614220,0.504600,-0.001879,0.988881,0.116155
9317146926,3.202236,-0.614024,0.443256,0.000232,0.988834,0.123446
9317149423,3.080244,-0.674620,0.443151,-0.002675,0.987411,0.121950
9317151921,2.958233,-0.796011,0.443377,-0.002648,0.988870,0.120507
9317154418,2.958422,-0.796115,0.382689,-0.005527,0.986735,0.115372
9317156916,2.897455,-0.735220,0.382139,-0.004801,0.988176,0.116845
9317159413,2.958479,-0.613728,0.381695,-0.004815,0.988171,0.118298
9317161911,2.958518,-0.492137,0.381032,-0.005575,0.984543,0.118262
9317164408,2.958896,-0.492346,0.259656,-0.007743,0.986015,0.118249
9317166906,2.898307,-0.431659,0.137730,-0.008430,0.990382,0.118275
9317169403,2.837510,-0.431663,0.076823,-0.007024,0.988178,0.121181
9317171901,2.837321,-0.431559,0.137511,-0.008491,0.986013,0.120421
9317174398,2.837283,-0.553150,0.138174,-0.008492,0.987461,0.121886
9317176896,2.959407,-0.675046,0.078586,-0.008467,0.991816,0.123372
9317179393,2.959198,-0.735737,0.139605,-0.010640,0.989666,0.120425
9317181891,2.958971,-0.857224,0.200956,-0.014267,0.988976,0.118927
9317184389,3.019919,-0.978916,0.201838,-0.012786,0.989698,0.116768
9317186886,3.020051,-1.161407,0.142144,-0.012801,0.991864,0.120418
9317189383,3.081188,-1.283203,0.082337,-0.012919,0.988197,0.129110
9317191881,3.203312,-1.405099,0.022749,-0.010065,0.985978,0.132759
9317194379,3.264431,-1.587691,-0.036726,-0.008613,0.989585,0.136435
9317196876,3.264165,-1.830769,0.025288,-0.007886,0.989579,0.136443
9317199373,3.202704,-2.134439,0.148103,-0.008612,0.988137,0.134971
9317201871,3.202173,-2.620596,0.272131,-0.008605,0.987416,0.133512
9317204369,3.079877,-3.045862,0.334703,-0.004954,0.984495,0.129170
9317206866,3.079384,-3.410427,0.458068,-0.003487,0.986660,0.129929
9317209364,3.078929,-3.653401,0.580770,0.002461,0.991006,0.120580
9317211869,3.139329,-3.713984,0.763384,-0.001843,0.988171,0.111790
9317214359,3.138742,-3.774466,0.945780,-0.003963,0.991834,0.108887
9317216856,3.077566,-3.774262,1.006249,-0.002468,0.994734,0.107472
9317219354,2.955404,-3.773957,1.066501,-0.002489,0.993278,0.108188
9317221851,2.894039,-3.773648,1.187658,-0.003942,0.991843,0.106707
9317224349,2.771499,-3.773135,1.369286,-0.005397,0.992579,0.107424
9317226846,2.770723,-3.833513,1.612370,-0.005376,0.994035,0.106708
9317229344,2.709111,-4.015487,1.795210,-0.006139,0.994751,0.111065
9317231841,2.769889,-4.076279,1.856448,-0.007601,0.995485,0.112508
9317234339,2.769681,-4.136970,1.917468,-0.009815,0.991870,0.112457
9317236836,2.891616,-4.258762,1.918568,-0.010620,0.991846,0.120442
9317239334,3.135295,-4.502241,1.981455,-0.011349,0.995471,0.124095
9317241831,3.439772,-4.745716,2.105249,-0.012762,0.996948,0.121184
9317244329,3.622447,-5.049890,2.168249,-0.013454,0.997693,0.118274
9317246827,3.682940,-5.414555,2.291833,-0.014910,1.000601,0.121187
9317249324,3.682636,-5.779225,2.354510,-0.012042,0.997663,0.122650
9317251821,3.621176,-6.082895,2.477325,-0.011329,0.996928,0.123379
9317254319,3.559753,-6.264973,2.599478,-0.012036,0.998390,0.122656
9317256816,3.498331,-6.447052,2.721630,-0.009826,0.997659,0.119041
9317259314,3.437079,-6.690031,2.783425,-0.007602,0.997657,0.114705
9317261812,3.253665,-6.932704,2.905473,-0.007527,1.002031,0.111105
9317264309,2.948336,-6.992791,3.026088,-0.006065,1.000573,0.108930
9317266807,2.642855,-6.931181,3.206730,-0.003206,1.000529,0.114048
9317269304,2.337791,-6.748189,3.265332,-0.003222,1.002695,0.117698
9317271819,2.215687,-6.565498,3.324588,-0.002509,1.002683,0.119160
9317274300,2.276352,-6.383002,3.445189,-0.002572,1.001934,0.124967
9317276795,2.398003,-6.200606,3.566007,-0.001894,1.001908,0.130062
9317279293,2.519674,-5.957415,3.686494,0.005376,1.003293,0.131606
9317281790,2.580984,-5.532049,3.623704,0.010403,1.002501,0.137469
9317284288,2.581117,-5.106479,3.621383,0.008199,1.003959,0.141090
9317286785,2.703224,-4.681109,3.619500,0.007513,1.006877,0.139651
9317289283,2.703130,-4.377026,3.678530,0.010456,1.006866,0.136049
9317291780,2.702998,-4.194535,3.738224,0.011960,1.007597,0.131711
9317294278,2.459110,-4.011747,3.736356,0.012707,1.009047,0.131003
9317296776,2.154008,-3.950347,3.795621,0.015638,1.006859,0.126659
9317299273,1.604922,-4.010137,3.854676,0.016436,1.005433,0.117936
9317301771,1.055798,-4.191519,3.914393,0.019402,1.003259,0.109958
9317304268,0.506656,-4.433697,3.974442,0.017287,0.998959,0.099001
9317306766,0.079447,-4.797667,4.035590,0.013732,0.994678,0.086575
9317309263,-0.286983,-5.222427,4.157977,0.012289,0.988902,0.079974
9317311761,-0.592597,-5.586388,4.340938,0.009335,0.982392,0.078439
9317314258,-0.715176,-5.707466,4.523229,0.007148,0.980237,0.076945
9317316756,-0.654909,-5.585557,4.765536,0.007842,0.976597,0.076926
9317319253,-0.167301,-5.282170,4.887002,0.009978,0.970044,0.075446
9317321751,0.686225,-4.979384,5.009778,0.010735,0.967877,0.070351
9317324248,1.783678,-4.737794,5.133759,0.013747,0.971513,0.063144
9317326746,2.759251,-4.800087,5.198272,0.011612,0.976619,0.063159
9317329243,3.490973,-5.166062,5.202881,0.004324,0.981019,0.068926
9317331741,3.978711,-5.653229,5.207279,-0.001413,0.989066,0.068196
9317334238,4.161498,-6.200690,5.210917,-0.008008,0.991998,0.076140
9317336736,4.283376,-6.504869,5.213012,-0.011114,0.991944,0.096454
9317339233,4.283508,-6.687361,5.153318,-0.012767,0.994050,0.118981
9317341731,4.344247,-6.869743,5.215219,-0.017305,0.993294,0.136368
9317344228,4.344360,-7.113031,5.155857,-0.018074,0.991835,0.139255
9317346726,4.222330,-7.295218,5.156415,-0.020071,0.991203,0.119606
9317349223,4.039333,-7.416509,5.156423,-0.029117,0.995790,0.081750
9317351721,3.673453,-7.294317,5.154449,-0.038974,0.998178,0.050409
9317354218,3.003153,-6.746263,5.027688,-0.043977,1.006221,0.048961
9317356716,2.150330,-6.015731,4.777901,-0.038965,1.017732,0.067999
9317359214,1.114227,-5.102303,4.647841,-0.031695,1.031426,0.081263
9317361711,0.016891,-4.371057,4.579244,-0.020062,1.042187,0.091647
9317364209,-1.080881,-3.821990,4.633019,-0.009136,1.044998,0.092516
9317366706,-2.056510,-3.334023,4.626873,-0.003273,1.039173,0.082362
9317369204,-2.849160,-2.785560,4.621052,0.009161,1.034028,0.070106
9317371701,-3.520387,-2.176188,4.797399,0.020924,1.030359,0.053492
9317374199,-4.191594,-1.506022,4.973415,0.031247,1.025260,0.033946
9317376696,-4.984964,-0.835550,5.209682,0.040950,1.018762,0.002027
9317379194,-5.961103,-0.164883,5.384607,0.050773,1.012311,-0.042246
9317381691,-7.242194,0.445489,5.558771,0.059039,1.001488,-0.080027
9317384189,-8.645409,1.177757,5.792524,0.065826,0.995736,-0.110519
9317386686,-9.926422,2.031312,5.965362,0.066677,0.989262,-0.129454
9317389184,-10.841214,3.248936,6.076833,0.068164,0.982746,-0.138934
9317391681,-11.145687,4.708534,6.067786,0.070907,0.975414,-0.128785
9317394179,-10.779177,6.592601,6.058820,0.070583,0.963700,-0.106348
9317396676,-9.558346,8.900626,5.929215,0.065106,0.952005,-0.077426
9317399174,-7.483817,11.450541,5.862029,0.058063,0.938106,-0.039091
9317401671,-4.677074,13.999043,5.676086,0.053183,0.931421,0.008044
9317404169,-1.321342,16.303358,5.432747,0.045446,0.921161,0.046399
9317406666,2.156760,18.059998,5.010764,0.021229,0.927795,0.075252
9317409164,5.329587,19.330879,4.651029,0.008713,0.940149,0.102823
9317411661,8.136570,20.237480,4.231284,0.002687,0.947356,0.131154
9317414159,10.454773,20.719730,4.054865,-0.003122,0.957547,0.139888
9317416657,11.980247,20.899197,3.816577,-0.007934,0.975079,0.127613
9317419154,12.712195,20.654709,3.759835,-0.010032,0.988888,0.132054
9317421652,12.651057,20.168444,3.762269,-0.011476,1.006282,0.147431
9317424149,11.980016,19.561586,3.763182,-0.014938,1.022312,0.144607
9317426647,10.577081,18.773544,3.762469,-0.013350,1.034662,0.142537
9317429144,8.807962,17.743025,3.822460,-0.009770,1.043298,0.156450
9317431642,6.916815,16.530315,3.883009,-0.011181,1.053464,0.161598
9317434139,4.964490,15.317813,4.004027,-0.006045,1.058507,0.161693
9317436637,3.134120,14.044314,4.125813,0.002726,1.063519,0.161827
9317439134,1.364886,12.649019,4.187793,0.017270,1.059775,0.158326
9317441632,-0.221218,11.192524,4.190072,0.030330,1.059651,0.161376
9317444129,-1.563623,9.553347,4.254906,0.043389,1.059528,0.164426
9317446627,-2.662290,7.853077,4.381633,0.060848,1.056485,0.160962
9317449125,-3.517240,6.030921,4.570585,0.069541,1.052052,0.160298
9317451622,-4.128376,4.390854,4.820104,0.083365,1.047593,0.155329
9317454119,-4.617691,2.872284,5.130085,0.093548,1.042439,0.150315
9317456617,-5.045905,1.718387,5.438295,0.096433,1.035163,0.145932
9317459114,-5.473854,0.807570,5.684491,0.096459,1.027209,0.135698
9317461612,-5.840681,0.322222,5.928585,0.103078,1.019218,0.120449
9317464110,-6.146787,0.201757,6.292285,0.106019,1.011965,0.110252
9317466607,-6.696912,0.446571,6.713810,0.110503,1.009080,0.095018
9317469105,-7.308137,0.934773,7.194480,0.114842,1.002516,0.091382
9317471602,-7.858129,1.605157,7.613685,0.115648,1.001093,0.081933
9317474100,-8.407685,2.457720,7.910520,0.114285,1.001866,0.073203
9317476597,-8.896653,3.249596,8.329281,0.114986,0.997505,0.071724
9317479095,-9.385582,4.163063,8.747377,0.117253,0.996796,0.062296
9317481592,-9.813525,5.076430,9.165694,0.111577,1.007039,0.057223
9317484090,-10.057732,6.049875,9.341581,0.107179,1.007787,0.061541
9317486588,-10.179759,7.083811,9.456886,0.107013,1.002652,0.073855
9317489085,-10.301426,8.056742,9.451146,0.109257,1.004830,0.069536
9317491582,-10.423491,8.969086,9.567113,0.099165,1.010745,0.065835
9317494080,-10.484588,9.820535,9.683630,0.090457,1.017344,0.070150
9317496577,-10.545743,10.489597,9.801142,0.088951,1.020956,0.078881
9317499075,-10.606329,11.158345,9.736588,0.078695,1.020289,0.086030
9317501574,-10.667087,11.887994,9.732392,0.066311,1.024006,0.091736
9317504072,-10.605474,12.678029,9.606926,0.064885,1.024753,0.089546
9317506569,-10.605263,13.346783,9.603280,0.055435,1.032076,0.096037
9317509066,-10.604713,13.893735,9.478920,0.051000,1.034982,0.106185
9317511564,-10.665017,14.258297,9.294648,0.039287,1.038670,0.117712
9317514061,-10.663825,14.440057,8.929525,0.035565,1.040839,0.128588
9317516559,-10.662859,14.500331,8.625753,0.033985,1.039354,0.140187
9317519056,-10.783885,14.500010,8.321877,0.027405,1.040844,0.145213
9317521554,-11.087891,14.439193,8.017674,0.026678,1.040850,0.145205
9317524052,-11.391953,14.195988,7.714469,0.021596,1.040173,0.143691
9317526549,-11.879409,13.770905,7.532978,0.019311,1.035806,0.150173
9317529047,-12.305917,13.224133,7.352369,0.018595,1.040885,0.153838
9317531544,-12.732465,12.555765,7.172422,0.022197,1.038668,0.155314
9317534041,-13.037039,11.887200,6.992912,0.022829,1.032108,0.158905
9317536539,-13.280796,11.279435,6.873978,0.022809,1.031375,0.160353
9317539037,-13.463719,10.793264,6.815286,0.023412,1.026251,0.168315
9317541534,-13.707232,10.367782,6.634669,0.026950,1.024009,0.176332
9317544032,-13.890115,10.003203,6.575315,0.026855,1.018179,0.180647
9317546529,-14.012052,9.516933,6.516841,0.026856,1.016007,0.178451
9317549027,-14.134159,9.091563,6.518725,0.024715,1.019662,0.177728
9317551524,-14.439243,8.605699,6.520285,0.027659,1.019651,0.174126
9317554022,-14.805067,8.302217,6.459944,0.028406,1.021101,0.173419
9317556519,-15.292675,7.998830,6.338479,0.022624,1.022613,0.171186
9317559017,-15.841230,7.817136,6.216132,0.015435,1.027053,0.166780
9317561514,-16.511740,7.696436,6.093017,0.016162,1.027046,0.166788
9317564012,-17.182421,7.636637,6.030258,0.013293,1.030707,0.166057
9317566509,-17.913879,7.637629,5.906262,0.012595,1.030001,0.162410
9317569007,-18.523344,7.699217,5.782371,0.009542,1.024176,0.171780
9317571504,-18.949642,7.821196,5.598115,0.005853,1.020565,0.173893
9317574002,-19.132412,7.821392,5.536772,0.004484,1.030749,0.174681
9317576499,-19.193192,7.882184,5.475533,0.001490,1.031464,0.184101
9317578997,-19.192984,7.942875,5.414514,-0.000033,1.029277,0.189155
9317581494,-19.192604,7.942666,5.293138,-0.002159,1.031490,0.185515
9317583992,-19.192245,7.881661,5.172093,0.000071,1.032214,0.181184
9317586490,-19.313858,7.820857,5.050611,0.000113,1.032231,0.176825
9317588987,-19.374334,7.638257,4.869324,0.001631,1.032244,0.170301
9317591490,-19.617977,7.395266,4.748400,0.000177,1.031533,0.169552
9317593982,-19.983252,7.030674,4.506326,0.003094,1.029339,0.166661
9317596479,-20.470673,6.727183,4.324172,0.003783,1.022077,0.163707
9317598977,-20.957939,6.301996,4.081993,0.003031,1.017728,0.162212
9317601475,-21.506212,5.816113,3.839928,0.003084,1.011957,0.151268
9317603972,-21.993290,5.390822,3.537061,0.007330,1.005357,0.157079
9317606470,-22.358566,5.026231,3.294987,0.012218,1.000888,0.173815
9317608967,-22.357866,4.843426,3.053229,0.014316,0.998664,0.180362
9317611465,-22.113163,4.842608,2.811350,0.016369,0.989905,0.185406
9317613962,-21.685482,4.902286,2.569795,0.020587,0.984742,0.195588
9317616460,-21.014027,5.022463,2.389470,0.024848,0.978147,0.199945
9317618957,-20.281433,5.020845,2.149337,0.028467,0.970145,0.194111
9317621455,-19.670605,5.080118,1.847749,0.030700,0.965802,0.184655
9317623952,-19.120970,5.078800,1.606962,0.031457,0.963636,0.179560
9317626450,-18.815319,4.956290,1.365964,0.032991,0.960035,0.167922
9317628947,-18.570713,4.651495,1.125742,0.036677,0.958575,0.161411
9317631445,-18.387300,4.286106,0.946322,0.038809,0.958537,0.166521
9317633943,-18.142904,3.920619,0.767120,0.040238,0.952722,0.163586
9317636440,-17.899035,3.677036,0.769319,0.035858,0.947684,0.160593
9317638937,-17.472149,3.615539,0.771179,0.035041,0.944034,0.166370
9317641435,-16.862305,3.553743,0.773694,0.034210,0.941827,0.175065
9317643932,-16.008362,3.369850,0.717058,0.036958,0.938118,0.188149
9317646430,-15.032677,3.064270,0.722209,0.035344,0.934446,0.201185
9317648927,-13.935225,2.697798,0.788816,0.029436,0.934460,0.210568
9317651432,-12.837794,2.270531,0.855755,0.026520,0.934482,0.211263
9317653921,-11.862335,1.843464,0.922257,0.024264,0.929403,0.214106
9317656419,-10.947921,1.234110,0.989535,0.024276,0.933752,0.217046
9317658916,-10.216426,0.746648,1.055495,0.024404,0.943216,0.212759
9317661414,-9.850849,0.259786,1.120145,0.024484,0.950488,0.211361
9317663911,-9.851570,-0.226267,1.304861,0.021622,0.954876,0.210636
9317666409,-10.035250,-0.712019,1.488922,0.022431,0.959247,0.206317
9317668906,-10.341073,-1.136671,1.732903,0.023152,0.958514,0.206319
9317671404,-10.768659,-1.500432,1.915428,0.020958,0.955631,0.204820
9317673901,-11.318048,-1.924892,2.037159,0.019530,0.958551,0.204826
9317676399,-11.806054,-2.288866,2.037401,0.012965,0.958598,0.206935
9317678896,-12.172050,-2.531448,2.037417,0.010701,0.956412,0.213434
9317681394,-12.293681,-2.653048,1.916267,0.012093,0.954203,0.217793
9317683891,-12.232488,-2.592457,1.855466,0.014220,0.950542,0.219969
9317686389,-11.988125,-2.471474,1.734300,0.015639,0.950515,0.223618
9317688886,-11.865944,-2.410983,1.673717,0.016350,0.953399,0.228008
9317691384,-11.682587,-2.350697,1.552665,0.018515,0.957718,0.233879
9317693881,-11.498871,-2.351414,1.310568,0.020709,0.959153,0.233914
9317696379,-11.193541,-2.291328,1.189952,0.020045,0.959908,0.228098
9317698876,-10.948819,-2.231350,0.947741,0.023728,0.963516,0.226713
9317701374,-10.764914,-2.232172,0.644956,0.029606,0.965663,0.222433
9317703871,-10.641806,-2.232998,0.281264,0.036200,0.964902,0.216686
9317706369,-10.519265,-2.233512,0.099636,0.039892,0.965618,0.211645
9317708866,-10.396914,-2.233921,-0.021303,0.041374,0.965616,0.208754
9317711364,-10.274734,-2.173429,-0.081886,0.045044,0.967047,0.206625
9317713862,-10.152741,-2.112834,-0.081781,0.048689,0.962675,0.201545
9317716359,-10.030900,-1.930542,-0.021650,0.051573,0.956124,0.197894
9317718856,-9.786709,-1.748660,-0.082460,0.053699,0.953911,0.201534
9317721354,-9.420525,-1.506182,-0.143163,0.052199,0.949560,0.202212
9317723851,-8.993336,-1.203009,-0.203980,0.050739,0.947398,0.200726
9317726349,-8.565938,-0.839144,-0.325817,0.049230,0.945217,0.204327
9317728846,-8.138539,-0.475279,-0.447654,0.048498,0.941601,0.201384
9317731344,-7.772129,-0.111314,-0.569709,0.049974,0.939425,0.197024
9317733842,-7.528069,0.253060,-0.570824,0.049966,0.940870,0.199215
9317736339,-7.223079,0.434947,-0.570727,0.048443,0.937959,0.203536
9317738837,-6.856744,0.555729,-0.691456,0.047713,0.932895,0.199130
9317741334,-6.490448,0.554920,-0.811522,0.044869,0.930774,0.190361
9317743832,-6.245934,0.554207,-0.992713,0.041323,0.933737,0.183804
9317746329,-6.123734,0.675493,-1.053627,0.042848,0.933752,0.176553
9317748827,-6.001705,0.857680,-1.054185,0.042858,0.929412,0.171433
9317751324,-5.879655,1.100663,-1.055074,0.042852,0.927961,0.170696
9317753822,-5.635653,1.282650,-1.055195,0.041348,0.927954,0.175766
9317756319,-5.330663,1.464537,-1.055098,0.042699,0.923556,0.182289
9317758817,-4.903929,1.524736,-0.993213,0.041916,0.923540,0.188094
9317761314,-4.477176,1.645731,-0.931659,0.041139,0.923527,0.193173
9317763812,-4.111617,1.706135,-0.809304,0.038842,0.917707,0.199644
9317766309,-3.623707,1.766130,-0.807889,0.038793,0.916963,0.203998
9317768807,-3.135854,1.643738,-0.805479,0.041049,0.922042,0.201155
9317771304,-2.586617,1.581833,-0.924559,0.043272,0.922764,0.197551
9317773802,-2.098954,1.459545,-0.861461,0.039581,0.920602,0.201128
9317776299,-1.794250,1.337558,-0.799018,0.034551,0.927186,0.201122
9317778797,-1.672694,1.215975,-0.676542,0.033865,0.928656,0.198218
9317781294,-1.490170,1.033496,-0.553516,0.032532,0.938854,0.195373
9317783792,-1.429241,0.851009,-0.552304,0.032603,0.949019,0.197631
9317786290,-1.429090,0.729313,-0.612329,0.033328,0.952632,0.201300
9317788787,-1.550685,0.729305,-0.734142,0.033354,0.954815,0.200590
9317791285,-1.611690,0.668609,-0.734029,0.035584,0.956988,0.197724
9317793782,-1.733682,0.608014,-0.734134,0.034120,0.960617,0.202096
9317796280,-1.916811,0.669214,-0.674432,0.035695,0.970066,0.198551
9317798777,-2.221762,0.608919,-0.675192,0.031488,0.981750,0.193505
9317801275,-2.648647,0.670415,-0.677052,0.030032,0.983934,0.195686
9317803772,-3.197108,0.792698,-0.801057,0.030758,0.986099,0.197890
9317806270,-3.684582,0.914882,-0.924843,0.031579,0.993371,0.195047
9317808767,-4.232853,1.037061,-1.109535,0.025766,0.998491,0.199382
9317811265,-4.720516,1.159349,-1.172633,0.017060,1.002918,0.201500
9317813762,-5.208010,1.220736,-1.296088,0.017846,1.009452,0.201558
9317816260,-5.756130,1.221220,-1.540805,0.012026,1.015293,0.207352
9317818757,-6.304099,1.100007,-1.845548,0.006916,1.013881,0.208011
9317821255,-6.913244,0.978999,-2.089821,-0.001625,1.024166,0.198547
9317823752,-7.461043,0.796886,-2.454920,-0.007347,1.030046,0.194168
9317826250,-8.070226,0.554287,-2.698530,-0.008809,1.031504,0.196343
9317828747,-8.679372,0.433279,-2.942803,-0.010970,1.033703,0.196336
9317831245,-9.288516,0.312270,-3.187076,-0.015341,1.035185,0.198479
9317833742,-9.775290,0.251649,-3.552620,-0.021285,1.024324,0.201238
9317836240,-10.262103,0.069436,-3.917501,-0.027822,1.024383,0.200440
9317838737,-10.687551,-0.113085,-4.403540,-0.033618,1.025889,0.199661
9317841235,-10.990875,-0.417503,-4.949167,-0.036636,1.020802,0.206130
9317843732,-11.172454,-0.843607,-5.433007,-0.038139,1.020071,0.210468
9317846230,-11.232268,-1.330604,-5.855390,-0.046210,1.012146,0.210320
9317848727,-11.413886,-1.878300,-6.338566,-0.045587,1.009926,0.219031
9317851225,-11.412374,-2.487196,-6.881444,-0.044999,1.006244,0.229911
9317853722,-11.410522,-3.217893,-7.545036,-0.047266,0.996816,0.229815
9317856220,-11.286922,-4.070277,-8.146838,-0.047419,0.993134,0.242140
9317858722,-11.041940,-4.983344,-8.565809,-0.047343,0.996061,0.237075
9317861215,-10.675400,-6.017993,-8.862306,-0.043109,0.987283,0.242143
9317863713,-10.126261,-6.991939,-9.037101,-0.033820,0.977724,0.250168
9317866210,-9.455318,-7.905184,-9.151103,-0.031792,0.963163,0.252261
9317868708,-8.723522,-8.636039,-9.205193,-0.019511,0.955784,0.253794
9317871205,-7.992066,-9.245093,-9.138570,-0.013772,0.943395,0.250130
9317873703,-7.321179,-9.732664,-9.194203,-0.000689,0.940384,0.248071
9317876200,-6.711828,-10.159026,-9.068324,0.011673,0.937382,0.245278
9317878699,-6.346592,-10.524087,-8.882961,0.027007,0.934381,0.235977
9317881196,-6.042551,-10.949741,-8.636796,0.035673,0.928489,0.236755
9317883694,-5.799477,-11.314498,-8.391181,0.047185,0.918928,0.240443
9317886192,-5.617711,-11.496558,-8.025403,0.058914,0.923935,0.235523
9317888689,-5.557632,-11.374545,-7.722408,0.065478,0.925335,0.234879
9317891187,-5.558502,-11.130841,-7.420294,0.068318,0.922386,0.239249
9317893684,-5.498139,-10.704953,-7.179643,0.071966,0.924532,0.240032
9317896182,-5.376941,-10.157471,-6.878749,0.075620,0.928853,0.242285
9317898679,-5.255325,-9.488604,-6.699894,0.078487,0.927363,0.245213
9317901177,-5.194508,-8.819743,-6.581946,0.077045,0.931001,0.247404
9317903674,-5.011604,-8.394368,-6.522923,0.077051,0.931727,0.247410
9317906172,-4.890084,-8.029482,-6.342412,0.079941,0.927351,0.245228
9317908669,-4.829551,-7.664494,-6.162117,0.082863,0.928779,0.245271
9317911167,-4.951580,-7.238619,-6.104187,0.081467,0.937504,0.247502
9317913664,-4.951446,-6.813049,-6.106507,0.077810,0.937526,0.249642
9317916162,-4.950953,-6.448483,-6.229872,0.077091,0.936088,0.247443
9317918659,-4.829036,-6.023009,-6.171067,0.082154,0.933861,0.248209
9317921157,-4.707307,-5.597430,-6.051575,0.080686,0.932420,0.248182
9317923655,-4.646755,-5.171647,-5.871613,0.076423,0.932497,0.237961
9317926152,-4.585805,-4.685277,-5.813358,0.074930,0.926701,0.236447
9317928650,-4.524457,-4.138320,-5.876811,0.076291,0.917963,0.237850
9317931147,-4.402143,-3.652259,-5.939714,0.079131,0.914290,0.241487
9317933644,-4.280037,-3.226889,-5.941598,0.071196,0.915108,0.235592
9317936142,-4.158138,-2.862211,-5.882462,0.067617,0.915162,0.229739
9317938640,-4.036222,-2.436736,-5.823658,0.066109,0.910085,0.230411
9317941137,-3.914323,-2.072058,-5.764522,0.064582,0.902103,0.230334
9317943635,-3.792614,-1.707275,-5.644698,0.063822,0.899200,0.231030
9317946132,-3.609371,-1.403701,-5.706388,0.060933,0.901405,0.231015
9317948630,-3.243036,-1.282919,-5.827117,0.058741,0.897075,0.228051
9317951127,-2.877099,-1.222724,-5.826138,0.053639,0.894218,0.226520
9317953625,-2.389057,-1.345220,-5.884417,0.049306,0.892095,0.221369
9317956122,-1.839820,-1.407126,-6.003496,0.044895,0.889941,0.224211
9317958620,-1.107265,-1.530336,-6.242965,0.040538,0.892153,0.225633
9317961117,-0.191693,-1.471458,-6.482774,0.033994,0.893657,0.227026
9317963615,0.906856,-1.352086,-6.722259,0.031770,0.894383,0.232094
9317966112,2.066280,-0.989526,-6.902164,0.036078,0.890703,0.234294
9317968611,3.225722,-0.566171,-7.082399,0.043360,0.895714,0.238046
9317971107,4.445942,-0.203607,-7.201397,0.048420,0.897106,0.242473
9317973605,5.605177,0.159057,-7.320614,0.052046,0.900692,0.246900
9317976102,6.764411,0.521721,-7.439830,0.059338,0.902086,0.246264
9317978600,7.801653,0.823789,-7.559152,0.064443,0.899876,0.242670
9317981097,8.717092,1.065158,-7.739267,0.064467,0.905678,0.245621
9317983595,9.449441,1.489318,-7.860343,0.063738,0.908580,0.248542
9317986093,10.120632,1.974478,-7.921281,0.071646,0.907027,0.256612
9317988590,10.609282,2.581322,-8.104912,0.078877,0.903328,0.257390
9317991087,10.975978,3.249161,-8.289313,0.075410,0.915736,0.251632
9317993585,11.281518,3.978001,-8.413575,0.062374,0.934695,0.263986
9317996083,11.525466,4.585662,-8.355329,0.062114,0.933143,0.289407
9317998580,11.952086,4.889149,-8.234081,0.061404,0.939673,0.293809
9318001077,12.378632,4.949452,-8.111507,0.056563,0.947780,0.275648
9318003575,12.805100,4.766573,-7.987609,0.050729,0.952168,0.281431
9318006072,13.170394,4.583899,-7.803241,0.046924,0.953580,0.300295
9318008570,13.474757,4.583712,-7.620085,0.039769,0.958757,0.292988
9318011068,13.779558,4.765703,-7.559299,0.029718,0.968309,0.288588
9318013565,13.901247,5.069690,-7.439144,0.023183,0.977781,0.296582
9318016063,13.961970,5.434573,-7.319539,0.016586,0.982885,0.306722
9318018560,14.083698,5.860151,-7.200046,0.009966,0.980739,0.312447
9318021058,14.327758,6.224525,-7.201161,0.003436,0.982248,0.312387
9318023555,14.510605,6.467513,-7.141144,-0.004529,0.985227,0.311594
9318026053,14.571706,6.832187,-7.142914,-0.011722,0.985320,0.303522
9318028563,14.571592,7.075474,-7.083552,-0.018304,0.978120,0.300488
9318031047,14.571917,7.500939,-7.146561,-0.024907,0.971636,0.300366
9318033544,14.511423,7.865605,-7.270144,-0.034894,0.968904,0.277706
9318036041,14.328956,8.230471,-7.394164,-0.042726,0.962522,0.254316
9318038539,14.085882,8.595227,-7.639779,-0.047679,0.958999,0.236792
9318041036,13.720913,9.203367,-7.887156,-0.052582,0.952601,0.211254
9318043534,13.355848,10.115591,-8.075501,-0.048731,0.946139,0.182904
9318046032,12.868870,11.210401,-8.265280,-0.036800,0.944709,0.151048
9318048529,12.320297,12.184033,-8.272549,-0.026457,0.941790,0.131518
9318051026,11.893831,12.974974,-8.339074,-0.016860,0.936697,0.111963
9318053524,11.710835,13.461743,-8.281693,-0.005806,0.925801,0.086567
9318056022,11.833035,13.583031,-8.342607,0.007987,0.914813,0.078642
9318058519,12.016184,13.582626,-8.402640,0.021157,0.908216,0.064202
9318061017,12.321096,13.521331,-8.401217,0.036492,0.903767,0.053436
9318063514,12.686939,13.277548,-8.398582,0.053591,0.900582,0.087031
9318066012,13.601977,12.850267,-8.514361,0.068213,0.897297,0.151122
9318068509,15.005155,11.996408,-8.747451,0.077912,0.899191,0.202842
9318071007,16.712730,10.655890,-8.855422,0.081222,0.899755,0.237040
9318073504,18.358959,8.768416,-8.899939,0.080144,0.898173,0.271900
9318076002,19.882494,6.395092,-8.760175,0.072723,0.901072,0.290009
9318078499,21.284056,4.021965,-8.620849,0.058425,0.904915,0.268078
9318080997,22.563175,1.953331,-8.301553,0.043592,0.907391,0.225055
9318083494,23.659374,0.614650,-7.926202,0.033634,0.915531,0.209745
9318085992,24.633942,-0.237570,-7.614628,0.023427,0.925021,0.221332
9318088489,25.730219,-0.725006,-7.183228,0.012411,0.932311,0.239434
9318090987,26.948565,-0.908665,-6.753050,0.005744,0.937387,0.256841
9318093484,28.288769,-0.849236,-6.263073,0.004184,0.936634,0.266992
9318095982,29.568214,-0.668220,-5.834666,0.002732,0.933027,0.263315
9318098479,30.603090,-0.668877,-5.224072,-0.000085,0.934536,0.255301
9318100977,31.393965,-0.851522,-4.613358,-0.008667,0.942633,0.248000
9318103474,32.001495,-1.033657,-3.881923,-0.013684,0.950670,0.248006
9318105972,32.487667,-1.094314,-3.333652,-0.011493,0.956448,0.252434
9318108470,32.973679,-1.033276,-2.725356,-0.015698,0.963789,0.242995
9318110967,33.582073,-0.911850,-2.238330,-0.022928,0.966040,0.240752
9318113465,34.190460,-0.790424,-1.751305,-0.025187,0.967476,0.250186
9318115962,35.042999,-0.608708,-1.324426,-0.024558,0.965982,0.258902
9318118459,36.017891,-0.427400,-1.018486,-0.023112,0.967415,0.261109
9318120957,37.115120,-0.307297,-0.833155,-0.020760,0.976153,0.251754
9318123455,38.273708,-0.187503,-0.768981,-0.022814,0.987083,0.248906
9318125952,39.249355,-0.006613,-0.705793,-0.022851,0.990689,0.256201
9318128450,40.164627,0.295656,-0.825552,-0.018488,0.989203,0.254784
9318130947,40.896542,0.537638,-0.824257,-0.013316,0.992813,0.249781
9318133445,41.445477,0.719124,-0.823287,-0.010279,1.001528,0.244793
9318135942,41.810940,1.083611,-0.641901,-0.008757,1.006611,0.242668
9318138440,42.054695,1.691377,-0.522966,-0.010085,1.017535,0.239828
9318140937,42.054779,2.542621,-0.466919,-0.008348,1.029220,0.221767
9318143435,41.750191,3.637444,-0.473977,0.001860,1.026972,0.216775
9318145932,41.019093,4.793555,-0.604272,0.009141,1.023292,0.212467
9318148430,39.922230,5.828571,-0.795902,0.006622,1.031437,0.179797
9318150927,38.459599,6.742491,-1.048867,0.006082,1.036586,0.165295
9318153425,36.630978,7.413829,-1.301816,0.008274,1.043088,0.170456
9318155922,34.435768,7.782103,-1.372354,0.011002,1.059216,0.129183
9318158420,31.935749,7.907588,-1.503345,0.006163,1.065152,0.108825
9318160917,29.252199,8.033688,-1.452928,0.008972,1.065812,0.119762
9318163415,26.508020,8.098882,-1.523773,0.014823,1.066500,0.116925
9318165913,23.702688,8.225078,-1.534480,0.017081,1.067960,0.110420
9318168410,20.836519,8.229677,-1.605431,0.009773,1.070904,0.116902
9318170908,18.092093,8.112590,-1.614594,0.007639,1.074561,0.115453
9318173405,15.530666,8.116794,-1.623765,0.007284,1.066456,0.144458
9318175903,13.274209,8.242088,-1.632507,0.009890,1.064863,0.174271
9318178400,11.140009,8.671056,-1.703158,0.004310,1.070799,0.155359
9318180898,9.066683,9.343212,-1.714228,-0.003704,1.062173,0.148665
9318183395,6.932201,10.076367,-1.665160,-0.010369,1.065077,0.163875
9318185893,4.980866,10.809118,-1.676125,-0.010764,1.063767,0.128250
9318188391,3.089874,11.298900,-1.503481,-0.016432,1.062428,0.111462
9318190888,1.442921,11.484199,-1.388995,-0.026539,1.070509,0.111412
9318193385,0.161374,11.243535,-1.149502,-0.034340,1.071380,0.091710
9318195883,-0.814580,10.697974,-1.150013,-0.034258,1.064172,0.076395
9318198381,-1.363478,10.030018,-1.209020,-0.038720,1.043896,0.067472
9318200878,-1.362552,9.360639,-1.569502,-0.045969,1.030933,0.052759
9318203376,-0.812958,8.629668,-1.867000,-0.054927,1.019331,0.065654
9318205873,0.468302,7.958396,-2.101520,-0.058001,1.014945,0.078669
9318208370,2.298648,7.346915,-2.395095,-0.058030,1.004073,0.071319
9318210868,4.678289,6.855916,-2.808744,-0.056734,0.998205,0.082190
9318213365,7.424074,6.485802,-3.282434,-0.048135,0.985770,0.083645
9318215863,10.413862,6.297676,-3.756245,-0.045995,0.972702,0.075576
9318218360,13.281528,6.231445,-4.170468,-0.044503,0.968360,0.067565
9318220858,15.843939,6.348312,-4.465400,-0.035072,0.968994,0.070581
9318223355,18.161913,6.709074,-4.580469,-0.031539,0.974715,0.086652
9318225853,20.174862,7.374420,-4.637597,-0.016932,0.981857,0.086867
9318228351,21.822161,8.283443,-4.758050,0.002342,0.989082,0.055883
9318230848,22.860010,9.314852,-5.002726,0.019213,1.000582,0.051796
9318233346,23.165834,10.347566,-5.189333,0.032629,1.017254,0.033900
9318235843,22.678307,11.503485,-5.197378,0.036715,1.040572,0.009412
9318238341,21.336061,12.782919,-4.905703,0.058116,1.054998,-0.009139
9318240838,19.383743,14.002663,-4.555191,0.064001,1.059319,-0.011948
9318243336,16.821447,14.858632,-4.204873,0.068471,1.067289,-0.015473
9318245833,13.831851,15.046654,-3.791751,0.076774,1.075307,-0.039304
9318248331,10.415343,14.627315,-3.437530,0.079768,1.085453,-0.038467
9318250828,6.998440,13.539327,-3.018974,0.076828,1.091258,-0.029735
9318253326,3.946940,12.025377,-2.475412,0.075961,1.088312,-0.018139
9318255823,1.504661,10.267558,-1.746276,0.059104,1.088403,-0.004516
9318258322,-0.083678,8.325844,-1.073776,0.049586,1.081217,-0.004675
9318260820,-0.817829,6.382524,-0.519597,0.045951,1.069663,-0.015703
9318263318,-1.002724,4.438091,-0.084828,0.022839,1.069925,-0.031945
9318265815,-0.882081,2.614437,0.168306,-0.003910,1.072389,-0.046029
9318268312,-0.334117,0.911465,0.300929,-0.026410,1.066082,-0.056499
9318270810,0.397261,-0.548833,0.311504,-0.043096,1.062620,-0.063977
9318273307,1.372792,-1.948841,0.261934,-0.058050,1.066497,-0.093183
9318275805,2.287225,-3.105460,0.271507,-0.071840,1.061557,-0.100639
9318278302,3.323687,-4.079894,0.280523,-0.083572,1.049308,-0.102315
9318280800,4.603944,-4.933031,0.350437,-0.091761,1.039888,-0.091575
9318283297,6.372698,-5.665690,0.239371,-0.088953,1.030410,-0.090162
9318285795,8.568376,-6.338255,0.129502,-0.078966,1.023005,-0.077026
9318288292,11.069098,-6.646546,0.018735,-0.072560,1.017102,-0.068279
9318290790,13.570146,-6.529371,-0.155039,-0.063099,1.014852,-0.071099
9318293288,16.193336,-5.865235,-0.331361,-0.046925,1.002181,-0.025957
9318295785,18.877838,-4.775733,-0.570472,-0.040560,1.004950,-0.004790
9318298282,21.440990,-3.503958,-0.993079,-0.028871,1.007044,-0.008279
9318300780,23.516161,-1.927298,-1.358402,-0.019345,1.023646,-0.000055
9318303278,25.042469,-0.288942,-1.726022,-0.011414,1.029343,0.012430
9318305775,26.080511,1.350424,-1.974012,0.008663,1.028332,0.040987
9318308273,26.630415,2.808307,-2.162067,0.010322,1.039986,0.030919
9318310770,26.631155,3.963217,-2.289741,0.014278,1.057460,0.014379
9318313268,26.082754,4.875949,-2.357366,0.022046,1.063817,0.044309
9318315765,25.351488,5.484899,-2.484678,0.026999,1.068063,0.062565
9318318263,24.436996,5.851070,-2.550630,0.026443,1.076102,0.052445
9318320760,23.400305,6.095954,-2.555668,0.032401,1.086246,0.047500
9318323258,22.180407,6.158856,-2.499678,0.024425,1.096460,0.054756
9318325755,20.960529,6.282553,-2.444020,0.019307,1.097217,0.058339
9318328253,19.984255,6.527650,-2.266776,0.015684,1.099425,0.059043
9318330750,19.251814,7.015635,-2.029295,0.014254,1.095103,0.052454
9318333248,18.824343,7.624710,-1.791386,0.009069,1.090040,0.057445
9318335746,18.640480,8.355184,-1.431890,-0.001671,1.093820,0.043547
9318338243,18.518206,9.206838,-1.254903,-0.005087,1.092491,0.019517
9318340741,18.151836,10.180587,-1.018765,-0.008611,1.084601,0.000523
9318343238,17.664192,10.971731,-1.024821,-0.012880,1.081056,-0.012632
9318345735,16.932074,11.277121,-0.907722,-0.024597,1.068813,-0.015761
9318348233,16.382816,11.278230,-0.788311,-0.039373,1.059432,-0.000733
9318350730,16.077185,10.853474,-0.605018,-0.043069,1.055094,0.001374
9318353228,16.137621,10.306420,-0.480441,-0.049748,1.045684,0.006317
9318355726,16.625151,9.758563,-0.415022,-0.060887,1.033376,0.018456
9318358223,17.600611,9.331495,-0.348520,-0.064889,1.010816,0.034957
9318360721,18.759256,9.025615,-0.342714,-0.061416,1.000583,0.042185
9318363218,19.673975,8.780931,-0.338113,-0.057711,0.991166,0.026167
9318365716,20.100842,8.658639,-0.335921,-0.064909,0.986189,0.013695
9318368213,19.978413,8.415866,-0.213656,-0.067746,0.985518,0.005665
9318370711,19.306482,7.991920,0.089703,-0.059110,0.981064,0.010813
9318373208,18.268538,7.264594,0.393409,-0.056904,0.986123,0.013056
9318375706,16.986235,6.416287,0.818281,-0.052457,0.986843,0.005116
9318378203,15.765444,5.445974,1.061970,-0.047297,0.987552,-0.001362
9318380701,14.666475,4.597158,1.366121,-0.048786,0.986102,0.000791
9318383198,13.872420,3.687045,1.671695,-0.046714,0.980247,0.006583
9318385696,13.383543,2.958714,1.916678,-0.047509,0.976606,0.010181
9318388193,13.199428,2.290783,2.223110,-0.047526,0.970083,0.005771
9318390691,13.442615,1.682739,2.409363,-0.045480,0.961321,0.011542
9318393188,13.991168,1.256372,2.474336,-0.039828,0.953241,0.020991
9318395686,14.784520,1.133167,2.295774,-0.033974,0.951034,0.015225
9318398183,15.639334,1.313631,1.994395,-0.026787,0.949490,0.022560
9318400681,16.433216,1.676582,1.691805,-0.020392,0.950099,0.038623
9318403179,16.983156,2.039934,1.388340,-0.013155,0.947850,0.040140
9318405694,17.227800,2.464791,1.204829,-0.009601,0.942718,0.043774
9318408174,17.411236,2.768260,1.082451,-0.009657,0.941972,0.048855
9318410669,17.655785,2.889138,0.900597,-0.001731,0.944047,0.058406
9318413167,17.960888,2.827738,0.841332,0.006108,0.939570,0.070813
9318415664,18.327108,2.583745,0.722592,0.003857,0.938113,0.076591
9318418162,18.876041,2.157170,0.666189,0.004638,0.941749,0.074447
9318420660,19.363949,1.609104,0.610231,0.009727,0.943877,0.076700
9318423157,19.852085,1.182524,0.492922,0.011214,0.947498,0.076743
9318425655,20.157129,0.938737,0.434652,0.009180,0.949023,0.062924
9318428152,20.279064,0.816945,0.435752,0.009990,0.951222,0.056409
9318430650,20.278856,0.756254,0.496771,0.007890,0.956342,0.052791
9318433147,20.034437,0.452884,0.618931,0.004373,0.958592,0.042594
9318435645,19.729181,0.027919,0.680848,0.002926,0.958608,0.041852
9318438142,19.545235,-0.700912,0.926923,0.000683,0.955706,0.045439
9318440640,19.361650,-1.490747,1.051953,-0.003622,0.953594,0.037381
9318443137,19.360985,-2.402474,1.178302,-0.007158,0.953664,0.027168
9318445635,19.421534,-3.192814,1.243517,-0.010140,0.947143,0.028540
9318448132,19.543106,-3.861663,1.308288,-0.012408,0.939163,0.029908
9318450630,19.725498,-4.469711,1.433635,-0.013056,0.937028,0.019710
9318453127,19.907925,-4.956169,1.558318,-0.010086,0.939200,0.015399
9318455625,20.029196,-5.381626,1.743139,-0.007906,0.941353,0.017619
9318458122,20.150902,-5.624905,1.805590,-0.010037,0.939220,0.010312
9318460620,20.211643,-5.807287,1.867491,-0.009967,0.940696,0.004510
9318463117,20.333597,-5.868283,1.868259,-0.008562,0.940664,0.009613
9318465615,20.394394,-5.868279,1.929165,-0.007136,0.939916,0.011803
9318468113,20.454662,-5.746370,2.171473,-0.004864,0.942105,0.004577
9318470610,20.453962,-5.563565,2.413231,-0.003377,0.945726,0.004621
9318473107,20.514627,-5.381069,2.533831,0.003144,0.949281,0.010534
9318475605,20.514723,-5.077091,2.532174,0.005340,0.947820,0.007640
9318478102,20.514799,-4.833908,2.530848,0.005257,0.944167,0.012699
9318480600,20.576069,-4.530134,2.468721,0.007374,0.945571,0.020727
9318483098,20.698288,-4.348052,2.407475,0.007310,0.947717,0.029463
9318485595,20.820488,-4.226764,2.346560,0.002182,0.951367,0.036702
9318488093,21.003504,-4.044677,2.346221,0.001406,0.950629,0.041048
9318490590,21.125477,-4.044878,2.346658,0.004260,0.948410,0.044697
9318493088,21.247393,-4.227465,2.348089,0.002055,0.952040,0.050514
9318495585,21.247505,-4.470752,2.288727,0.003521,0.954929,0.052005
9318498083,21.125704,-4.531452,2.227933,0.005695,0.955631,0.053488
9318500580,20.882099,-4.652852,2.106347,0.005715,0.958535,0.054237
9318503078,20.638115,-4.774044,2.106136,0.006475,0.961438,0.053540
9318505575,20.393923,-4.955925,2.166945,0.007976,0.965065,0.052131
9318508073,20.210737,-5.077112,2.227641,0.005094,0.968721,0.052853
9318510570,19.966393,-5.137299,2.348476,0.002919,0.969466,0.052835
9318513068,19.661045,-5.258181,2.469423,0.000175,0.978245,0.044150
9318515565,19.111731,-5.439459,2.589829,-0.003372,0.983380,0.039789
9318518063,18.562609,-5.620841,2.649546,-0.006995,0.985589,0.040492
9318520560,18.013485,-5.802223,2.709263,-0.007669,0.991408,0.040529
9318523058,17.708307,-5.984005,2.769854,-0.009884,0.987794,0.040477
9318525555,17.464132,-6.105092,2.830332,-0.009910,0.985611,0.041187
9318528053,17.464285,-6.226788,2.770307,-0.011296,0.988547,0.036833
9318530550,17.647640,-6.166502,2.649254,-0.014971,0.983494,0.036028
9318533048,18.136139,-6.046023,2.468274,-0.015057,0.985632,0.046944
9318535545,18.624653,-5.864750,2.286962,-0.014135,0.990048,0.030999
9318538043,18.991179,-5.744073,2.105545,-0.014166,0.984242,0.028775
9318540541,19.235899,-5.684094,1.863334,-0.018717,0.979861,0.043954
9318543038,19.541758,-5.745913,1.561317,-0.022309,0.979185,0.038822
9318545536,19.847427,-5.807626,1.319988,-0.025144,0.974171,0.026398
9318548033,20.092093,-5.930036,1.078772,-0.026647,0.972716,0.030004
9318550531,20.397573,-5.991644,0.898131,-0.029541,0.972747,0.028519
9318553028,20.642048,-6.113950,0.717603,-0.033624,0.977239,0.003798
9318555526,20.581249,-6.113954,0.656696,-0.035748,0.975833,-0.003503
9318558023,20.276337,-6.052658,0.655273,-0.032917,0.975053,0.003789
9318560521,19.971653,-5.869874,0.592499,-0.026980,0.975051,-0.008500
9318563018,19.544825,-5.625991,0.589644,-0.031194,0.973699,-0.025272
9318565516,19.056801,-5.442699,0.647591,-0.028203,0.976604,-0.031031
9318568013,18.324436,-5.319593,0.826372,-0.026658,0.978799,-0.038265
9318570511,17.653017,-5.318179,1.006035,-0.021450,0.980975,-0.048365
9318573008,16.920612,-5.316665,1.185479,-0.018569,0.980215,-0.046159
9318575506,16.371677,-5.498151,1.184508,-0.014774,0.984591,-0.058439
9318578003,15.761759,-5.679538,1.183319,-0.016220,0.981711,-0.062110
9318580501,15.151271,-5.860611,1.364194,-0.018407,0.980279,-0.062872
9318582999,14.540669,-5.798397,1.604431,-0.013218,0.979551,-0.073722
9318585496,14.052116,-5.493200,1.843780,-0.008917,0.976592,-0.070063
9318587993,13.746789,-4.945225,2.021769,-0.000903,0.972910,-0.075089
9318590491,13.502864,-4.275968,2.077937,0.012192,0.972076,-0.076405
9318592988,13.380932,-3.546115,2.134211,0.017236,0.977807,-0.066131
9318595486,13.319946,-2.937953,2.191366,0.019335,0.974135,-0.061049
9318597983,13.319853,-2.633870,2.250397,0.022138,0.973344,-0.050849
9318600481,13.258280,-2.694252,2.432574,0.033766,0.981207,-0.042668
9318602979,13.135454,-2.997613,2.676547,0.035234,0.982648,-0.042641
9318605476,13.012553,-3.544157,2.921846,0.036658,0.985520,-0.036789
9318607974,12.950522,-4.455575,3.169352,0.032317,0.995703,-0.029493
9318610471,12.827620,-5.610181,3.357278,0.028717,0.995748,-0.033166
9318612969,12.644108,-6.764894,3.423609,0.031749,1.001565,-0.040356
9318615466,12.216539,-7.675921,3.548429,0.030546,1.006022,-0.062138
9318617964,11.606106,-8.282670,3.670937,0.024824,1.011178,-0.067250
9318620461,10.690287,-8.523829,3.972428,0.019055,1.014143,-0.069471
9318622959,9.713767,-8.461015,4.211355,0.010572,1.022279,-0.086945
9318625456,8.615104,-8.337101,4.510202,0.007899,1.029638,-0.104361
9318627954,7.516689,-8.030903,4.747367,0.003448,1.023848,-0.100820
9318630451,6.479638,-7.725012,4.863373,0.003433,1.025290,-0.097903
9318632949,5.625944,-7.358838,4.858328,-0.002455,1.015899,-0.099492
9318635448,4.955719,-7.175663,4.672867,-0.003252,1.014429,-0.093698
9318637945,4.589990,-7.175167,4.610868,-0.013968,1.014599,-0.113437
9318640443,4.346214,-7.235666,4.549639,-0.017043,1.010937,-0.099690
9318642940,4.163387,-7.417857,4.489290,-0.016447,1.005810,-0.091001
9318645438,3.980371,-7.599945,4.489629,-0.016401,1.000760,-0.100487
9318647935,3.980313,-7.782331,4.490624,-0.012902,0.992710,-0.093968
9318650433,4.041224,-8.025616,4.492168,-0.008594,0.989754,-0.091036
9318652930,4.224106,-8.269099,4.494149,-0.005020,0.986802,-0.087385
9318655428,4.346022,-8.451686,4.495580,-0.004203,0.989004,-0.094627
9318657925,4.223424,-8.633559,4.678203,-0.000333,0.997031,-0.111239
9318660423,3.856881,-8.815033,4.859951,0.009810,0.998377,-0.106030
9318662920,3.489750,-9.056989,5.224095,0.005043,0.980876,-0.080778
9318665418,3.122790,-9.359845,5.527883,0.011684,0.983030,-0.088683
9318667915,2.389666,-9.844383,5.892043,0.006987,0.997712,-0.115513
9318670413,1.411990,-10.449800,6.438057,0.006273,0.999895,-0.114778
9318672911,0.434124,-11.055113,7.044760,0.009563,0.999727,-0.079132
9318675408,-0.360574,-11.600034,7.591097,0.014522,0.993839,-0.071128
9318677906,-0.910890,-11.963177,8.015938,0.023282,0.994502,-0.073933
9318680403,-1.461150,-12.143932,8.439784,0.041444,0.995788,-0.070816
9318682901,-1.950195,-12.203300,8.802497,0.042302,1.012487,-0.068501
9318685398,-2.378331,-12.505953,9.166755,0.047972,1.010207,-0.055374
9318687896,-2.866904,-12.869614,9.349061,0.053516,1.005704,-0.031364
9318690393,-3.294795,-13.598043,9.594263,0.052983,1.012304,-0.045128
9318692891,-3.783294,-14.326583,9.717870,0.060486,1.024643,-0.057307
9318695388,-4.332798,-15.115817,9.841590,0.061124,1.031118,-0.041990
9318697886,-4.942833,-15.661978,9.842390,0.059112,1.042789,-0.048465
9318700383,-5.736565,-16.146624,10.084955,0.056377,1.047951,-0.061537
9318702881,-6.652611,-16.509272,10.447798,0.045436,1.056721,-0.049964
9318705378,-7.690951,-16.689121,10.930584,0.034790,1.069951,-0.064516
9318707876,-8.729461,-16.808073,11.473728,0.031356,1.075131,-0.080504
9318710373,-10.011707,-16.865932,11.954980,0.033689,1.080241,-0.091341
9318712871,-11.599094,-16.983980,12.496159,0.022187,1.084013,-0.101614
9318715368,-13.430314,-17.344917,12.977102,0.017128,1.081173,-0.107505
9318717866,-15.322161,-17.766760,13.336782,0.016486,1.079765,-0.117697
9318720364,-17.274820,-18.249399,13.635886,0.015117,1.079087,-0.127165
9318722861,-19.166630,-18.549650,13.994904,0.012981,1.074779,-0.135942
9318725359,-20.936466,-18.850100,14.354358,0.012981,1.074779,-0.135942
9318727856,-22.584332,-19.150751,14.714248,0.010095,1.072641,-0.140350
9318730353,-24.232117,-19.208218,15.072813,0.013798,1.066120,-0.153440
9318732851,-25.635900,-19.083698,15.431256,0.017379,1.063171,-0.150516
9318735349,-26.795301,-18.777401,15.668202,0.018039,1.057345,-0.149099
9318737846,-27.527534,-18.228724,15.844664,0.015090,1.053734,-0.148432
9318740344,-27.955006,-17.619650,16.082571,0.010671,1.055197,-0.141202
9318742841,-28.138569,-17.132565,16.322016,0.014246,1.050073,-0.139748
9318745339,-28.078112,-17.010761,16.503635,0.019409,1.045714,-0.151352
9318747836,-27.895531,-17.010853,16.625666,0.022425,1.042835,-0.165149
9318750334,-27.712629,-17.193542,16.627316,0.017399,1.042180,-0.172477
9318752831,-27.590979,-17.619207,16.690760,0.019031,1.040066,-0.192823
9318755329,-27.774395,-18.469940,16.755434,0.017864,1.042365,-0.220435
9318757826,-28.507353,-19.623442,17.001863,0.010999,1.048381,-0.256803
9318760324,-29.606188,-20.654749,17.246321,0.008831,1.049854,-0.256816
9318762822,-30.704891,-21.260487,17.488459,0.015730,1.046747,-0.221153
9318765319,-31.375929,-21.259283,17.546745,0.018278,1.046579,-0.184062
9318767816,-31.619553,-20.833416,17.482864,0.019984,1.051440,-0.130227
9318770314,-31.375036,-20.226068,17.359047,0.029546,1.056900,-0.061039
9318772811,-30.886635,-19.801508,17.237095,0.042789,1.057278,-0.001297
9318775309,-30.276184,-19.742025,17.056883,0.048417,1.054981,0.016190
9318777807,-29.787992,-19.986219,16.938580,0.039886,1.048616,-0.010115
9318780304,-29.483154,-20.290697,16.941328,0.036436,1.046549,-0.031244
9318782823,-29.239361,-20.169401,17.002228,0.032869,1.048780,-0.036354
9318785304,-28.873232,-19.501249,16.999891,0.031351,1.049491,-0.029098
9318787795,-28.323402,-18.286549,16.813162,0.035563,1.053738,-0.009397
9318790293,-27.651054,-16.525095,16.502512,0.044969,1.059431,0.000924
9318792790,-26.734604,-14.277678,16.190083,0.055713,1.060721,0.019221
9318795288,-25.513546,-11.848165,15.999126,0.067037,1.059050,0.049857
9318797785,-24.048182,-9.480056,15.688001,0.080020,1.056724,0.058703
9318800283,-22.521738,-7.416129,15.318060,0.093985,1.053044,0.039934
9318802780,-21.300303,-5.594885,14.948355,0.105060,1.053742,0.023346
9318805278,-20.566587,-3.833741,14.516544,0.112351,1.055859,0.023443
9318807775,-20.259644,-2.254388,14.023513,0.118097,1.055781,0.030773
9318810273,-20.257086,-0.735643,13.347657,0.124740,1.065902,0.030196
9318812770,-20.559763,0.418932,12.733386,0.124175,1.078281,0.025196
9318815268,-20.984354,1.148033,12.060310,0.121206,1.084799,0.037567
9318817765,-21.409101,1.390769,11.389887,0.123955,1.091951,0.060907
9318820263,-21.467854,1.268025,10.662074,0.121054,1.102116,0.069673
9318822761,-21.465868,0.962898,9.996162,0.109430,1.110185,0.076146
9318825258,-21.342096,0.657675,9.391376,0.099156,1.113855,0.089142
9318827756,-21.279278,0.474145,8.785708,0.088990,1.116120,0.089774
9318830253,-21.216608,0.412309,8.240065,0.077396,1.119856,0.088947
9318832750,-21.214773,0.228878,7.634178,0.069445,1.125012,0.088898
9318835248,-21.518475,-0.075330,7.209927,0.059334,1.128023,0.084449
9318837746,-22.005514,-0.379030,6.906397,0.046211,1.128121,0.087939
9318840243,-22.736992,-0.438834,6.782732,0.040996,1.125943,0.098766
9318842741,-23.529606,-0.376841,6.718874,0.035846,1.120170,0.099393
9318845238,-24.444515,-0.132053,6.774961,0.029322,1.111546,0.089081
9318847736,-25.481434,-0.008655,6.831274,0.026924,1.097721,0.098398
9318850233,-26.579662,0.297438,7.007751,0.023715,1.082421,0.114963
9318852731,-27.616692,0.664122,7.123425,0.023432,1.061310,0.124248
9318855228,-28.653837,1.274094,7.298463,0.023861,1.040911,0.135727
9318857726,-29.385633,2.004948,7.352553,0.022804,1.027029,0.156687
9318860224,-29.690298,2.856589,7.346821,0.023120,1.008757,0.181988
9318862721,-29.567661,3.768115,7.220910,0.027021,0.990435,0.212417
9318865218,-29.017509,4.800220,6.913799,0.029564,0.977231,0.237782
9318867716,-28.101009,6.013903,6.485628,0.037336,0.965488,0.250133
9318870213,-26.879179,7.287672,5.936841,0.042331,0.959614,0.254505
9318872711,-25.718521,8.561644,5.448524,0.049677,0.963925,0.250984
9318875209,-24.618870,9.774920,4.960320,0.052646,0.967545,0.248138
9318877706,-23.702465,10.684625,4.533806,0.049652,0.968984,0.258290
9318880203,-23.030478,11.290960,4.229453,0.043035,0.974080,0.270610
9318882701,-22.542055,11.776316,4.107171,0.038714,0.987167,0.278655
9318885199,-22.358961,12.201586,4.105506,0.040288,0.998063,0.276575
9318887696,-22.359245,12.505773,4.225225,0.038830,1.004591,0.283148
9318890193,-22.359755,12.688473,4.406294,0.037370,1.014014,0.292651
9318892691,-22.421555,12.506603,4.649823,0.033785,1.022030,0.294852
9318895189,-22.422426,12.142247,4.894565,0.030218,1.026433,0.291939
9318897686,-22.484154,11.595498,5.079393,0.030398,1.030849,0.277440
9318900184,-22.545294,11.109233,5.081827,0.031176,1.028691,0.270164
9318902681,-22.667458,10.501476,5.084705,0.031947,1.027254,0.264348
9318905179,-22.850359,10.076102,5.025682,0.026456,1.036122,0.238918
9318907676,-23.216810,9.590547,5.148401,0.026547,1.036158,0.229472
9318910174,-23.522253,9.165685,5.271005,0.029272,1.025200,0.238140
9318912671,-23.705307,8.862006,5.272007,0.032187,1.015764,0.228653
9318915169,-23.766161,8.679615,5.212096,0.038776,1.009933,0.218507
9318917666,-23.765631,8.557711,5.030694,0.040157,1.004099,0.220659
9318920164,-23.521082,8.678588,4.848841,0.039999,0.996072,0.229318
9318922661,-23.032206,8.798857,4.546484,0.047067,0.982895,0.238017
9318925159,-22.299347,9.040318,4.244338,0.053614,0.977048,0.232231
9318927656,-21.505369,9.099185,3.882716,0.052827,0.971237,0.232906
9318930154,-20.650122,8.853766,3.401594,0.051084,0.960274,0.252426
9318932651,-19.672750,8.486452,2.860884,0.052505,0.957352,0.253146
9318935149,-18.695211,8.058237,2.259817,0.050431,0.955241,0.240026
9318937646,-17.839815,7.691123,1.718670,0.039589,0.953912,0.231902
9318940144,-17.351091,7.325026,1.418965,0.032374,0.953273,0.225277
9318942642,-16.984550,6.898438,1.179843,0.032996,0.952501,0.235453
9318945139,-16.679525,6.593854,1.121904,0.037161,0.941524,0.245590
9318947636,-16.313133,6.288962,0.942807,0.035864,0.938702,0.226659
9318950134,-16.068487,6.105757,0.701923,0.027937,0.938075,0.218573
9318952632,-15.824203,5.983557,0.582083,0.021910,0.935869,0.238112
9318955129,-15.457528,5.982539,0.340641,0.017459,0.930803,0.242385
9318957626,-14.846850,6.163507,0.099077,0.019566,0.924962,0.244545
9318960124,-13.930446,6.465150,-0.384810,0.021602,0.920541,0.255435
9318962621,-12.892030,6.888184,-0.868923,0.027511,0.919080,0.244588
9318965119,-11.853653,7.189626,-1.352373,0.024713,0.923493,0.237323
9318967617,-11.120545,7.613369,-1.716202,0.025426,0.923481,0.238784
9318970114,-10.631424,7.915921,-2.080241,0.029773,0.926334,0.243214
9318972612,-10.386229,8.279668,-2.445485,0.032933,0.940167,0.230272
9318975109,-10.202039,8.582719,-2.810616,0.041076,0.945948,0.220957
9318977607,-10.078986,9.007566,-3.115940,0.049108,0.948065,0.219608
9318980104,-9.894984,9.310723,-3.420383,0.057124,0.953072,0.222642
9318982602,-9.711154,9.674780,-3.664469,0.065892,0.952290,0.217645
9318985099,-9.405616,9.795557,-3.846104,0.066640,0.952292,0.215473
9318987597,-9.039092,9.916235,-4.027522,0.067438,0.952314,0.208215
9318990094,-8.673174,9.915635,-4.026211,0.073999,0.957333,0.211232
9318992592,-8.368393,10.036830,-3.965095,0.076969,0.960953,0.208385
9318995089,-8.002967,10.279726,-3.783046,0.074053,0.960975,0.209080
9318997587,-7.576761,10.461831,-3.539760,0.071943,0.961022,0.201789
9319000084,-7.028584,10.643733,-3.296036,0.066252,0.974155,0.201099
9319002582,-6.236328,10.642746,-3.111134,0.073030,0.949278,0.228602
9319005079,-5.504569,10.398363,-3.107188,0.074697,0.947902,0.205354
9319007577,-5.138349,10.154370,-3.225928,0.069601,0.957651,0.139964
9319010074,-5.137819,10.032465,-3.407329,0.061177,0.938725,0.165892
9319012573,-5.137289,9.910561,-3.588730,0.056459,0.942966,0.206570
9319015071,-5.258732,9.788857,-3.770568,0.045419,0.954162,0.155660
9319017568,-5.563003,9.484962,-4.012755,0.033124,0.949950,0.144591
9319020066,-6.111446,9.059978,-4.194464,0.028537,0.947727,0.165600
9319022563,-6.843095,8.453013,-4.315146,0.027828,0.942671,0.159013
9319025061,-7.514174,7.724567,-4.313570,0.025004,0.942730,0.150261
9319027558,-8.185254,6.996119,-4.311994,0.018207,0.941237,0.174884
9319030056,-8.673544,6.328271,-4.249406,0.003388,0.933287,0.195737
9319032553,-8.917491,5.720610,-4.307653,0.005618,0.934736,0.192139
9319035051,-8.978650,5.173549,-4.304888,0.010757,0.934712,0.187108
9319037548,-8.734460,4.747369,-4.423071,-0.002540,0.930397,0.204371
9319040046,-8.490628,4.382195,-4.420208,-0.004640,0.925379,0.191228
9319042543,-8.307425,3.956116,-4.538609,-0.007416,0.927629,0.179587
9319045041,-8.307577,3.469750,-4.535957,-0.005225,0.934855,0.185479
9319047538,-8.429362,2.861785,-4.654456,-0.000685,0.944301,0.176153
9319050036,-8.612286,2.375615,-4.713147,0.005196,0.942828,0.168212
9319052534,-8.856553,1.950549,-4.651012,0.003843,0.949398,0.163886
9319055031,-9.040006,1.586284,-4.528302,0.007590,0.953031,0.155961
9319057529,-9.223875,1.100636,-4.283553,0.010600,0.958839,0.150951
9319060026,-9.468522,0.675779,-4.100041,0.025300,0.965294,0.140987
9319062524,-9.774742,0.190540,-3.734353,0.030390,0.965250,0.141043
9319065021,-10.019350,-0.112725,-3.551505,0.039154,0.970259,0.141904
9319067519,-10.141532,-0.173216,-3.490921,0.043572,0.970968,0.136871
9319070016,-10.080507,-0.051725,-3.491366,0.050809,0.968720,0.138387
9319072514,-9.775480,0.251754,-3.491932,0.054429,0.971579,0.142809
9319075011,-9.409429,0.676723,-3.492942,0.064818,0.975195,0.124782
9319077509,-9.043623,0.919410,-3.432270,0.071515,0.977372,0.111064
9319080006,-8.860663,0.919110,-3.431615,0.075183,0.982422,0.112596
9319082504,-8.677762,0.736422,-3.429965,0.072236,0.975915,0.110334
9319085001,-8.678027,0.493344,-3.367951,0.073049,0.973771,0.099426
9319087499,-8.678103,0.250161,-3.366625,0.075339,0.968727,0.083424
9319089996,-8.739147,0.067874,-3.365849,0.072419,0.965850,0.081917
9319092494,-8.739583,-0.114305,-3.243479,0.075273,0.962907,0.084833
9319094991,-8.679032,-0.296583,-3.120890,0.074450,0.957083,0.089141
9319097489,-8.435522,-0.479162,-2.997646,0.069223,0.951280,0.097760
9319099986,-8.070230,-0.661836,-2.813277,0.067714,0.948374,0.100629
9319102490,-7.705184,-1.026794,-2.567225,0.064052,0.946223,0.101299
9319104981,-7.278942,-1.331160,-2.381975,0.060323,0.938976,0.104110
9319107479,-6.852947,-1.817809,-2.135042,0.055892,0.934642,0.106936
9319109977,-6.426555,-2.243870,-2.009817,0.048561,0.928888,0.107538
9319112474,-6.000371,-2.730624,-1.823573,0.037704,0.929725,0.103064
9319114972,-5.573998,-3.217481,-1.698017,0.030385,0.928320,0.106607
9319117469,-5.147833,-3.765030,-1.511440,0.026709,0.924715,0.107266
9319119967,-4.721649,-4.251783,-1.325196,0.023119,0.931281,0.108729
9319122464,-4.356432,-4.677641,-1.139501,0.016628,0.936427,0.107970
9319124961,-4.051805,-5.042811,-1.075732,0.012300,0.937926,0.105753
9319127459,-3.747158,-5.347186,-1.012295,0.004320,0.943071,0.108611
9319129957,-3.442491,-5.590765,-0.949189,0.000731,0.948189,0.108610
9319132454,-3.076990,-5.712748,-0.825840,0.002297,0.948945,0.097732
9319134951,-2.772398,-5.591448,-0.704035,0.001667,0.952610,0.091212
9319137449,-2.528396,-5.409461,-0.704156,0.003859,0.956940,0.094175
9319139947,-2.344982,-5.166788,-0.826203,0.008193,0.958339,0.098594
9319142444,-2.283521,-4.863117,-0.949018,0.012582,0.961209,0.098664
9319144942,-2.160734,-4.681348,-1.192328,0.018446,0.964798,0.097302
9319147439,-2.038307,-4.438574,-1.314594,0.025700,0.969073,0.103229
9319149937,-1.732750,-4.257000,-1.496561,0.034421,0.974789,0.109182
9319152434,-1.427780,-4.135909,-1.496132,0.042480,0.978365,0.106391
9319154932,-1.122620,-4.014923,-1.556391,0.049070,0.983396,0.106501
9319157429,-1.000382,-3.772044,-1.617969,0.054199,0.988436,0.107323
9319159927,-0.938713,-3.407684,-1.801803,0.057875,0.991317,0.105931
9319162444,-0.877404,-2.982318,-1.864594,0.061544,0.994920,0.105999
9319164930,-0.999262,-2.617343,-1.867019,0.061549,0.997094,0.107469
9319167418,-1.242923,-2.313069,-1.930238,0.061534,0.999260,0.111119
9319169916,-1.730965,-2.190572,-1.871960,0.063735,1.000698,0.110427
9319172413,-2.402042,-2.310959,-1.813011,0.062288,1.001437,0.110417
9319174911,-3.134087,-2.370449,-1.754611,0.060819,1.001444,0.111854
9319177408,-3.804975,-2.490939,-1.756350,0.058624,1.002181,0.114016
9319179906,-4.414857,-2.550735,-1.758202,0.053527,1.001498,0.113955
9319182403,-5.024740,-2.610529,-1.760054,0.051369,0.997905,0.108090
9319184901,-5.451513,-2.792320,-1.821276,0.045610,0.997254,0.101480
9319187398,-5.817091,-2.913520,-1.943300,0.036177,0.999515,0.101394
9319189896,-6.060696,-3.034920,-2.064886,0.031074,0.998829,0.102059
9319192393,-6.304642,-3.034519,-2.065759,0.033257,0.995915,0.099154
9319194891,-6.426992,-3.034111,-1.944820,0.036146,0.992262,0.097705
9319197388,-6.610330,-3.033602,-1.824099,0.034657,0.992985,0.102054
9319199886,-6.793498,-3.093992,-1.763735,0.034628,0.992973,0.104961
9319202383,-6.915906,-3.275971,-1.641801,0.038196,0.987847,0.107142
9319204881,-6.916153,-3.458254,-1.580118,0.042468,0.986325,0.115172
9319207378,-6.855243,-3.701536,-1.578574,0.044565,0.985549,0.123183
9319209876,-6.672360,-3.945019,-1.576593,0.047399,0.980426,0.126083
9319212373,-6.490083,-4.309782,-1.391885,0.048066,0.976051,0.128237
9319214871,-6.369001,-4.735134,-1.146375,0.050220,0.973849,0.128971
9319217369,-6.308679,-5.038899,-0.962435,0.054619,0.972378,0.123922
9319219866,-6.248506,-5.220969,-0.718470,0.055383,0.970214,0.118100
9319222364,-6.248904,-5.281556,-0.596762,0.053237,0.968799,0.112978
9319224861,-6.249812,-5.159443,-0.293985,0.050349,0.970280,0.112231
9319227358,-6.372295,-4.976542,-0.113352,0.052529,0.972433,0.114451
9319229856,-6.311762,-4.611555,0.066942,0.053196,0.968058,0.116606
9319232353,-6.311969,-4.064184,0.185335,0.051017,0.964458,0.112921
9319234851,-6.190202,-3.517015,0.304165,0.053247,0.965182,0.108590
9319237349,-6.068417,-2.909049,0.422663,0.053275,0.965918,0.106416
9319239846,-5.946500,-2.483575,0.481467,0.048898,0.965226,0.107089
9319242344,-5.885341,-1.936513,0.478702,0.046710,0.964518,0.107060
9319244841,-5.885018,-1.511048,0.415694,0.044557,0.965995,0.105594
9319247339,-5.945643,-0.963890,0.351804,0.040946,0.971829,0.108505
9319249836,-5.884126,-0.477834,0.227994,0.038022,0.974020,0.112123
9319252334,-5.700825,0.008128,0.165310,0.038015,0.974017,0.112850
9319254831,-5.456367,0.433089,0.042486,0.034323,0.974026,0.118623
9319257329,-5.211759,0.736354,-0.140362,0.032812,0.974016,0.124420
9319259827,-5.028155,0.978923,-0.323097,0.029113,0.974746,0.131652
9319262324,-4.722579,1.221292,-0.505395,0.024700,0.976212,0.138155
9319264822,-4.417250,1.281379,-0.626011,0.022475,0.978385,0.144688
9319267319,-4.233931,1.220074,-0.746401,0.017364,0.978421,0.146812
9319269816,-4.050709,0.854791,-0.865133,0.018062,0.980575,0.151923
9319272314,-3.867126,0.428503,-1.104910,0.019500,0.984176,0.157054
9319274811,-3.866333,-0.058384,-1.405699,0.015840,0.988542,0.163587
9319277309,-3.926337,-0.545276,-1.767394,0.012882,0.989996,0.170106
9319279807,-4.108541,-1.153455,-2.068175,0.012830,0.993595,0.178854
9319282304,-4.230325,-1.761421,-2.186673,0.009233,0.999435,0.180312
9319284802,-4.291143,-2.430282,-2.304621,0.009828,0.997204,0.191929
9319287299,-4.351923,-2.977552,-2.423232,0.009833,1.000102,0.194131
9319289796,-4.473311,-3.524931,-2.663438,0.012810,1.003724,0.190558
9319292294,-4.655797,-3.828923,-2.844500,0.019416,1.005141,0.185554
9319294791,-4.838284,-4.132915,-3.025562,0.022240,1.005083,0.194306
9319297289,-4.838002,-4.437101,-3.145281,0.028833,1.005046,0.189291
9319299787,-4.959842,-4.619393,-3.205411,0.033275,1.002144,0.178417
9319302284,-5.142839,-4.740684,-3.205403,0.036848,0.999916,0.182800
9319304782,-5.325799,-4.740384,-3.206059,0.048483,0.996920,0.179999
9319307279,-5.570103,-4.678979,-3.085887,0.059378,0.992477,0.177178
9319309777,-5.631071,-4.618083,-3.086437,0.065070,0.989481,0.187393
9319312274,-5.508871,-4.496796,-3.147352,0.070791,0.985049,0.193237
9319314772,-5.325835,-4.253913,-3.148022,0.078025,0.976283,0.188890
9319317269,-5.020997,-3.950331,-3.087900,0.083067,0.973324,0.191103
9319319767,-4.777524,-3.646440,-2.906619,0.084427,0.966757,0.194703
9319322264,-4.534031,-3.281753,-2.725671,0.085861,0.965288,0.195434
9319324762,-4.290520,-2.856270,-2.545053,0.088697,0.956546,0.194673
9319327259,-3.986231,-2.491579,-2.303198,0.085697,0.945673,0.193831
9319329757,-3.621125,-2.066087,-2.000768,0.079144,0.936313,0.185694
9319332254,-3.255830,-1.640700,-1.759026,0.074007,0.934166,0.188528
9319334752,-2.951445,-0.972030,-1.518828,0.063021,0.925539,0.188342
9319337250,-2.646871,-0.303465,-1.339318,0.047706,0.921307,0.188868
9319339747,-2.280894,0.486384,-1.281629,0.036754,0.914142,0.186513
9319342244,-1.915125,1.215541,-1.162920,0.025000,0.904057,0.189214
9319344742,-1.610211,1.762306,-1.104124,0.005218,0.897649,0.198395
9319347240,-1.426948,2.126676,-1.166146,-0.005168,0.889690,0.212029
9319349737,-1.059837,2.307836,-1.529959,-0.012625,0.882438,0.224247
9319352234,-0.448421,2.427592,-2.013943,-0.016994,0.882473,0.224926
9319354732,0.346294,2.425246,-2.617985,-0.026531,0.882520,0.233542
9319357229,1.384709,2.240219,-3.159472,-0.031603,0.887639,0.236432
9319359727,2.544830,1.811912,-3.638508,-0.036657,0.899282,0.243731
9319362224,3.704894,1.201218,-4.116549,-0.042417,0.908768,0.246646
9319364722,4.803782,0.590729,-4.534120,-0.042372,0.916751,0.249614
9319367220,5.903087,0.101623,-5.073731,-0.043002,0.929829,0.251886
9319369717,6.941046,-0.326380,-5.492515,-0.039953,0.942169,0.249105
9319372214,7.796027,-0.814877,-5.911623,-0.027487,0.954414,0.250062
9319374712,8.589492,-1.181370,-6.149548,-0.018724,0.961595,0.253120
9319377210,9.138823,-1.547358,-6.327659,-0.008377,0.973883,0.247512
9319379707,9.321913,-1.730150,-6.386697,0.002765,0.991985,0.240504
9319382204,9.321515,-1.790737,-6.264989,0.014415,0.988995,0.236250
9319384702,9.198049,-1.728906,-5.780252,0.040479,0.985106,0.244502
9319387200,9.074221,-1.606071,-5.174471,0.061682,0.979179,0.227249
9319389697,8.889256,-1.361439,-4.508883,0.080731,0.973281,0.207066
9319392195,8.643609,-0.752038,-3.906190,0.096804,0.963037,0.189724
9319394694,8.397623,-0.020837,-3.182784,0.119298,0.957033,0.189200
9319397191,8.335030,0.892243,-2.581094,0.143128,0.947349,0.197384
9319399689,8.455738,1.683222,-2.099462,0.161168,0.930484,0.196002
9319402186,8.882133,2.473283,-1.859490,0.169839,0.915182,0.187261
9319404684,9.247882,3.141644,-1.740450,0.170419,0.902808,0.190808
9319407181,9.675584,3.870179,-1.924964,0.164637,0.903596,0.187843
9319409679,10.225410,4.476819,-2.169065,0.155711,0.897798,0.202963
9319412176,10.897794,5.143740,-2.595126,0.133819,0.889989,0.203389
9319414674,11.387391,5.750062,-3.082199,0.114403,0.883727,0.174785
9319417171,11.633249,6.417475,-3.631165,0.094203,0.889034,0.162974
9319419669,11.696300,6.963492,-4.240811,0.072874,0.883326,0.182318
9319422166,11.820110,7.387923,-4.788888,0.051760,0.884943,0.186458
9319424664,12.187827,7.690361,-5.335428,0.028710,0.887402,0.165873
9319427161,12.738483,7.931704,-5.880981,0.006169,0.889043,0.167091
9319429659,13.594091,8.233342,-6.425775,-0.007631,0.900029,0.175742
9319432156,14.571465,8.474088,-6.909111,-0.019811,0.904551,0.161107
9319434654,15.670582,8.593147,-7.330661,-0.034070,0.914925,0.141406
9319437152,16.769093,8.590928,-7.569483,-0.046280,0.932470,0.142130
9319439649,17.927795,8.467435,-7.564672,-0.048537,0.941871,0.158891
9319442147,19.147049,8.161664,-7.437271,-0.045613,0.950541,0.165530
9319444644,20.305294,7.795197,-7.309757,-0.038230,0.962832,0.165704
9319447142,21.219675,7.672313,-7.184443,-0.036047,0.981641,0.183312
9319449639,22.317032,7.609925,-7.058805,-0.027751,0.990808,0.236525
9319452137,23.658182,7.668832,-6.872268,-0.012116,0.993423,0.276689
9319454634,25.426428,7.726934,-6.744891,0.003004,0.994681,0.293580
9319457132,27.194824,7.663340,-6.677539,0.019167,0.997507,0.279245
9319459629,28.658213,7.357064,-6.609953,0.028825,0.996783,0.257543
9319462127,29.572515,6.990997,-6.483313,0.037711,0.997496,0.241658
9319464624,29.876822,6.808423,-6.299162,0.048794,0.998196,0.224343
9319467122,29.449329,6.748641,-6.118295,0.061305,1.005391,0.215815
9319469619,28.472792,6.750659,-5.879036,0.073149,1.017684,0.205863
9319472117,27.130239,7.057362,-5.582057,0.090016,1.024114,0.197377
9319474614,25.787897,7.424756,-5.346097,0.111130,1.024668,0.195434
9319477112,24.506540,7.792049,-5.109919,0.125553,1.011463,0.195493
9319479610,23.530518,8.219429,-4.994357,0.141430,0.998968,0.196301
9319482107,22.920408,8.646207,-4.877485,0.150022,0.985083,0.197018
9319484611,22.737564,9.011282,-4.880129,0.153703,0.980002,0.187572
9319487102,22.920389,9.193473,-4.819779,0.153817,0.979323,0.175213
9319489600,23.468739,9.314478,-4.636413,0.146660,0.977258,0.161311
9319492097,24.078053,9.374585,-4.452497,0.138692,0.974443,0.155388
9319494595,24.626135,9.252511,-4.207117,0.131544,0.970209,0.138562
9319497092,25.052036,9.069944,-3.901153,0.121381,0.965959,0.132604
9319499590,25.294542,8.705500,-3.473474,0.106190,0.966121,0.124443
9319502087,25.354486,8.401943,-3.168158,0.085201,0.968513,0.116235
9319504585,25.353424,8.037692,-2.862728,0.064184,0.971618,0.111667
9319507082,25.352610,7.855723,-2.618982,0.045991,0.974664,0.115849
9319509580,25.535173,7.794836,-2.496619,0.029839,0.976188,0.133125
9319512077,26.022894,7.854935,-2.434515,0.010929,0.985037,0.141704
9319514575,26.815544,7.914534,-2.371320,-0.009461,0.990268,0.149513
9319517072,28.035065,7.851841,-2.305933,-0.016166,0.989536,0.165422
9319519570,29.559137,7.788857,-2.118079,-0.021844,0.993261,0.154486
9319522067,30.961256,7.786868,-1.930992,-0.032473,0.999982,0.131890
9319524565,32.119251,7.846179,-1.684423,-0.037704,1.000693,0.147100
9319527062,33.216442,7.844691,-1.498428,-0.043649,1.002865,0.162312
9319529560,34.252644,7.843303,-1.312652,-0.048407,1.014625,0.139093
9319532057,35.105865,7.781419,-1.127199,-0.049595,1.028501,0.124649
9319534555,35.531574,7.598957,-0.760548,-0.051075,1.035020,0.133403
9319537052,35.774254,7.173613,-0.393225,-0.049537,1.037213,0.126896
9319539550,35.711979,6.687973,-0.026663,-0.045785,1.043020,0.120440
9319542048,35.466137,6.081356,0.521971,-0.041315,1.050267,0.116183
9319544559,34.976334,5.414343,1.070063,-0.035226,1.054669,0.092301
9319547041,34.181808,4.808522,1.556044,-0.027855,1.052474,0.080011
9319549539,33.021553,4.203197,1.980027,-0.016975,1.050198,0.080841
9319552036,31.861712,3.719255,2.281971,-0.005313,1.049385,0.077329
9319554534,30.579956,3.417900,2.582483,0.004197,1.047155,0.069423
9319557031,29.358887,3.359837,3.003264,0.013693,1.044195,0.062238
9319559529,28.137854,3.423365,3.423383,0.022408,1.039047,0.058662
9319562026,27.038832,3.608284,3.843274,0.029536,1.030239,0.065214
9319564524,26.061989,3.853694,4.202583,0.037385,1.020698,0.071770
9319567021,25.268167,4.281192,4.561553,0.046142,1.014843,0.063101
9319569519,24.718515,4.829776,4.860045,0.050561,1.014104,0.056604
9319572016,24.168732,5.560852,5.218231,0.054133,1.014048,0.063183
9319574514,23.801737,6.352527,5.637428,0.058392,1.011073,0.071202
9319577011,23.556694,7.083207,6.057394,0.060545,1.010319,0.073400
9319579509,23.311804,7.692190,6.417334,0.062762,1.010314,0.069791
9319582006,22.945244,8.057981,6.656787,0.060651,1.011085,0.063233
9319584504,22.274223,8.119984,6.714742,0.054882,1.012602,0.059547
9319587002,21.542576,8.121079,6.651433,0.054854,1.011867,0.061721
9319589499,20.811537,8.243455,6.405398,0.058511,1.011844,0.059581
9319591996,20.141558,8.608912,6.158255,0.060056,1.014040,0.052347
9319594494,19.716000,9.277739,5.788952,0.053566,1.017738,0.050123
9319596992,19.473854,10.189240,5.297602,0.047810,1.021433,0.047181
9319599489,19.415064,11.161028,4.685198,0.047112,1.020726,0.043534
9319601987,19.356390,11.889528,4.013433,0.047160,1.022917,0.040644
9319604484,19.236822,12.314047,3.282419,0.042209,1.027361,0.030449
9319606982,18.994999,12.434890,2.613313,0.036441,1.028154,0.026030
9319609479,18.691750,12.373655,2.066360,0.033614,1.032556,0.021672
9319611977,18.266111,12.191238,1.641009,0.030949,1.039194,0.002797
9319614474,17.717936,12.009335,1.397286,0.032584,1.042874,-0.012419
9319616972,16.925640,11.888731,1.213046,0.044371,1.045731,-0.025349
9319619470,16.011356,11.707532,1.028701,0.055428,1.052938,-0.033894
9319621967,15.219215,11.465233,0.784436,0.060516,1.054342,-0.032373
9319624464,14.610013,11.161838,0.541158,0.062773,1.057974,-0.036682
9319626962,14.122726,10.675854,0.299310,0.064456,1.063845,-0.054788
9319629459,13.574415,10.068380,0.057907,0.063911,1.066095,-0.071492
9319631957,12.660186,9.461508,-0.184805,0.063360,1.066172,-0.089666
9319634454,11.318900,8.977030,-0.369022,0.061998,1.065497,-0.099861
9319636952,9.733538,8.675444,-0.494418,0.059726,1.064031,-0.091903
9319639449,7.964989,8.252674,-0.559118,0.053187,1.067710,-0.089040
9319641947,6.074430,7.708511,-0.623591,0.046041,1.070718,-0.099271
9319644444,4.061878,7.103752,-0.688170,0.038773,1.077299,-0.093487
9319646942,2.049326,6.498993,-0.752749,0.028474,1.077338,-0.081246
9319649439,0.402522,5.954534,-0.755662,0.015224,1.067249,-0.074200
9319651937,-0.695613,5.348483,-0.695589,0.009297,1.062911,-0.067031
9319654435,-1.306235,4.741839,-0.512393,0.000638,1.069529,-0.067803
9319656932,-1.490085,4.316987,-0.267976,-0.007305,1.071792,-0.071507
9319659430,-1.551886,4.135118,-0.024447,-0.012403,1.074004,-0.068640
9319661927,-1.491675,4.074639,0.218855,-0.015346,1.073291,-0.065771
9319664425,-1.492167,4.318135,0.399593,-0.014833,1.065959,-0.050559
9319666922,-1.370628,4.743818,0.579774,-0.014251,1.061551,-0.039684
9319669420,-1.370835,5.291189,0.698167,-0.014161,1.064483,-0.046202
9319671917,-1.553622,5.838650,0.694529,-0.019875,1.068918,-0.052772
9319674415,-1.979844,6.203812,0.508947,-0.023517,1.068223,-0.052818
9319676913,-2.467148,6.265095,0.324804,-0.027929,1.067517,-0.048511
9319679410,-2.954528,6.083196,0.141988,-0.029332,1.064653,-0.056542
9319681907,-3.258969,5.840200,-0.039843,-0.026379,1.061750,-0.063799
9319684405,-3.440812,5.779078,-0.404295,-0.025653,1.063915,-0.061595
9319686902,-3.622863,5.657265,-0.707727,-0.030640,1.067620,-0.068889
9319689400,-3.865938,5.413961,-1.010715,-0.035668,1.071309,-0.071824
9319691898,-4.231024,5.049265,-1.313477,-0.028488,1.070486,-0.063030
9319694395,-4.535333,4.623778,-1.555001,-0.028598,1.064650,-0.057261
9319696892,-4.778902,4.015908,-1.734624,-0.026283,1.066132,-0.069579
9319699390,-5.022717,3.225755,-1.852564,-0.026083,1.072729,-0.084062
9319701888,-5.449738,2.253620,-1.909477,-0.020103,1.070571,-0.102908
9319704385,-5.937745,1.281585,-1.966608,-0.014324,1.063989,-0.105074
9319706882,-6.731252,0.310363,-1.842767,-0.012885,1.066143,-0.101408
9319709380,-7.646902,-0.599758,-1.659006,-0.007596,1.073419,-0.115103
9319711877,-8.684203,-1.692275,-1.596063,-0.000955,1.077022,-0.121544
9319714375,-9.904484,-2.845288,-1.533444,-0.000976,1.075566,-0.120828
9319716873,-11.124762,-3.998300,-1.470825,0.003235,1.070399,-0.109919
9319719370,-12.101267,-5.090814,-1.346976,0.008594,1.069443,-0.063356
9319721867,-12.651018,-6.062331,-1.161573,0.016371,1.062046,-0.047337
9319724365,-12.713028,-6.912953,-0.914398,0.015559,1.062743,-0.037893
9319726863,-12.470259,-7.642380,-0.606107,0.011043,1.059823,-0.024883
9319729360,-11.922839,-8.068121,-0.177004,0.013935,1.051827,-0.030726
9319731858,-11.253789,-8.372261,0.373248,0.003780,1.046131,-0.038875
9319734355,-10.585078,-8.554601,1.044213,-0.004891,1.049848,-0.041123
9319736853,-10.159934,-8.736750,1.592929,-0.010474,1.060852,-0.054910
9319739350,-10.161675,-8.857402,2.139785,-0.008908,1.061608,-0.065788
9319741848,-10.590207,-8.612578,2.683124,-0.008231,1.063030,-0.059229
9319744345,-11.384428,-8.245669,3.163801,-0.011844,1.061622,-0.062913
9319746843,-12.239240,-7.818070,3.522552,-0.011194,1.060861,-0.055644
9319749341,-13.032894,-7.451473,3.821165,-0.009173,1.056434,-0.043301
9319751838,-13.581997,-6.963998,3.937924,-0.008712,1.053426,-0.018609
9319754335,-13.643151,-6.294936,4.055436,-0.000781,1.048262,-0.016380
9319756833,-13.337991,-5.565888,4.052550,-0.005492,1.041644,0.013315
9319759330,-12.422757,-4.777149,3.990828,-0.008576,1.028566,0.018996
9319761828,-11.202346,-3.806628,3.868515,-0.004366,1.024848,0.031369
9319764325,-9.677115,-2.593320,3.806656,-0.001546,1.020443,0.036455
9319766823,-8.212455,-1.258530,3.622540,-0.005964,1.017563,0.039291
9319769321,-6.869596,0.015561,3.377630,0.005588,1.012362,0.043013
9319771818,-5.770571,1.046765,3.072485,0.005366,1.006481,0.060408
9319774317,-4.915605,1.713595,2.768455,0.012036,1.008647,0.049597
9319776814,-4.243335,2.015742,2.344383,0.018601,1.007875,0.046757
9319779312,-3.693342,1.953419,1.982551,0.019387,1.004996,0.038022
9319781810,-3.264999,1.708701,1.499900,0.016481,1.001401,0.034330
9319784307,-2.959274,1.221313,1.200203,0.014539,1.002239,0.010332
9319786804,-2.836886,0.734433,1.021228,0.024089,1.002197,0.000262
9319789302,-2.714820,0.430150,0.962634,0.023314,1.000736,0.003876
9319791800,-2.409586,0.186258,0.843675,0.022491,0.995636,0.008916
9319794297,-1.982701,0.124762,0.845535,0.016731,0.996432,0.003771
9319796795,-1.494999,0.124066,0.907970,0.013155,0.990694,-0.007939
9319799292,-1.068435,0.245165,1.030212,0.012986,0.979042,-0.001488
9319801790,-0.763882,0.244874,1.152680,0.012150,0.973212,0.004273
9319804287,-0.520334,0.183886,1.275261,0.009980,0.966719,-0.003068
9319806785,-0.337470,-0.120392,1.277573,0.009681,0.960083,0.021588
9319809282,-0.215291,-0.667963,1.159617,0.015498,0.959310,0.020920
9319811780,-0.276506,-1.397411,1.163376,0.015531,0.951358,0.009959
9319814277,-0.337741,-2.187655,1.167467,0.011750,0.947711,0.021518
9319816775,-0.521308,-2.916695,1.292166,0.016813,0.944760,0.021551
9319819273,-0.521896,-3.585239,1.417189,0.009446,0.939716,0.026519
9319821770,-0.522806,-4.071187,1.662593,0.010162,0.935361,0.023587
9319824267,-0.462483,-4.374953,1.846533,0.014560,0.936061,0.020734
9319826765,-0.402292,-4.496227,2.090167,0.006616,0.939772,0.018494
9319829262,-0.403238,-4.495705,2.393607,0.013174,0.938998,0.016381
9319831760,-0.404355,-4.434283,2.757404,0.009419,0.938257,0.027962
9319834257,-0.465890,-4.373074,2.938919,0.009456,0.935376,0.021400
9319836755,-0.588222,-4.311870,3.059527,0.010771,0.933136,0.033752
9319839253,-0.587824,-4.251283,2.937819,0.012951,0.934565,0.035240
9319841750,-0.587446,-4.251492,2.816443,0.012820,0.929444,0.043921
9319844247,-0.464527,-4.252214,2.513439,0.011351,0.930899,0.046823
9319846745,-0.280830,-4.313727,2.271673,0.009246,0.933120,0.041002
9319849243,-0.036127,-4.314545,2.029794,0.012168,0.934548,0.041045
9319851740,0.147399,-4.315158,1.848385,0.012991,0.938925,0.035274
9319854237,0.209200,-4.133288,1.604857,0.016629,0.934550,0.030920
9319856735,0.209844,-3.890419,1.421466,0.013718,0.938195,0.034549
9319859233,0.271437,-3.769241,1.238957,0.018123,0.938174,0.030237
9319861730,0.333369,-3.769862,0.935735,0.020899,0.935924,0.041879
9319864228,0.517236,-3.892276,0.633613,0.020788,0.932984,0.050576
9319866725,0.701104,-4.014690,0.331490,0.024384,0.928592,0.050583
9319869222,0.884971,-4.137103,0.029368,0.022799,0.923484,0.059248
9319871720,1.190602,-4.320409,-0.211298,0.023436,0.919822,0.065041
9319874218,1.740160,-4.564909,-0.450760,0.025607,0.914730,0.061393
9319876715,2.473132,-4.566737,-0.812268,0.024826,0.910371,0.062805
9319879213,3.083961,-4.507463,-1.113856,0.027815,0.916171,0.059975
9319881710,3.633804,-4.448090,-1.415663,0.027172,0.916934,0.051979
9319884208,4.061446,-4.510005,-1.656556,0.022090,0.916981,0.051197
9319886705,4.489108,-4.511123,-1.897780,0.028605,0.916914,0.054175
9319889203,4.916996,-4.390753,-2.200354,0.031489,0.922671,0.062245
9319891700,5.405702,-4.209585,-2.442354,0.033508,0.923312,0.079714
9319894198,5.894596,-4.028520,-2.745043,0.036323,0.926146,0.092121
9319896695,6.322466,-3.968946,-3.047286,0.036313,0.930487,0.097241
9319899193,6.627947,-4.030556,-3.227927,0.033402,0.934131,0.100870
9319901690,6.933370,-4.274552,-3.407574,0.029010,0.935605,0.105193
9319904188,7.116593,-4.639836,-3.526306,0.025463,0.941464,0.101564
9319906685,7.056078,-4.944027,-3.706931,0.019874,0.950293,0.086308
9319909183,6.690482,-5.126023,-3.828623,0.009132,0.956969,0.075338
9319911680,6.142134,-5.247027,-4.011990,0.001229,0.963592,0.071667
9319914178,5.410827,-5.367730,-4.196011,-0.002990,0.970928,0.063682
9319916676,4.618723,-5.488438,-4.440939,-0.006537,0.976062,0.059321
9319919173,3.765463,-5.548146,-4.625729,-0.007225,0.980429,0.059346
9319921670,2.912392,-5.607958,-4.871207,-0.005026,0.986210,0.063048
9319924168,2.058942,-5.667561,-4.995308,-0.001344,0.991265,0.063127
9319926674,1.327446,-5.788160,-5.118642,0.004506,0.994125,0.062486
9319929164,0.779079,-5.969959,-5.301677,0.003772,0.994128,0.063205
9319931659,0.291869,-6.212759,-5.544850,0.001646,0.995617,0.058832
9319934157,-0.256934,-6.576737,-5.605515,0.004651,0.999251,0.052352
9319936654,-0.805794,-7.123103,-5.665185,0.007655,1.003609,0.046604
9319939152,-1.355392,-7.608254,-5.482434,0.009172,1.005793,0.042276
9319941649,-1.904611,-8.093616,-5.421059,0.013515,1.002852,0.041575
9319944147,-2.270833,-8.457685,-5.359692,0.016377,0.998464,0.042301
9319946644,-2.515082,-8.821955,-5.297889,0.017901,0.998479,0.035050
9319949142,-2.576296,-8.943342,-5.236756,0.020881,0.997758,0.027083
9319951639,-2.393507,-8.882742,-5.175744,0.022322,0.996292,0.027088
9319954137,-2.149655,-8.579059,-5.115840,0.027351,0.991156,0.028558
9319956634,-1.784229,-8.336164,-4.933792,0.033255,0.987520,0.016241
9319959132,-1.479618,-8.154069,-4.812318,0.042032,0.983122,0.006857
9319961629,-1.358137,-7.910771,-4.631143,0.050646,0.980106,0.015650
9319964127,-1.358381,-7.484993,-4.512087,0.057996,0.977179,0.004808
9319966625,-1.419991,-7.058905,-4.271873,0.060271,0.975025,-0.006811
9319969122,-1.359571,-6.450631,-4.032218,0.060153,0.971358,0.001881
9319971620,-1.177556,-5.842347,-3.670749,0.061635,0.971357,-0.001010
9319974117,-0.934536,-5.173369,-3.309393,0.063229,0.973572,-0.013330
9319976615,-0.874513,-4.625681,-2.948029,0.066137,0.974995,-0.011834
9319979112,-0.875477,-4.077893,-2.586884,0.071218,0.977120,-0.008855
9319981610,-0.876649,-3.590797,-2.164719,0.072006,0.980758,-0.011726
9319984107,-0.755659,-3.104005,-1.802806,0.069912,0.987328,-0.014606
9319986605,-0.512753,-2.799801,-1.439461,0.064825,0.994614,-0.008067
9319989102,-0.208691,-2.556596,-1.136255,0.061131,0.998966,0.002100
9319991599,0.095560,-2.313496,-0.893736,0.061823,0.998222,0.005009
9319994097,0.460797,-2.070497,-0.651000,0.061089,0.997502,0.004995
9319996595,0.643397,-2.009792,-0.529300,0.056692,0.996801,0.007849
9319999092,0.704005,-2.009684,-0.407706,0.052424,1.002669,0.003485
9320001590,0.520629,-2.130766,-0.286321,0.048310,1.012218,-0.013203
9320004087,0.154313,-2.190752,-0.165924,0.038964,1.010893,-0.025671
9320006585,-0.333956,-2.189743,-0.046295,0.031735,1.011697,-0.029379
9320009082,-0.944122,-1.945351,0.071572,0.023993,1.020556,-0.047566
9320011580,-1.615614,-1.579058,0.309934,0.021150,1.016986,-0.057799
9320014078,-2.287106,-1.212765,0.548295,0.023919,1.014010,-0.046163
9320016575,-2.714086,-0.847186,0.605466,0.026864,1.011827,-0.051961
9320019073,-3.019168,-0.724990,0.664400,0.027600,1.009652,-0.054876
9320021570,-3.263114,-0.724589,0.663526,0.028300,1.007463,-0.054158
9320024068,-3.446092,-0.785085,0.663203,0.031078,1.000870,-0.046909
9320026565,-3.384955,-0.906881,0.603396,0.032367,0.995723,-0.034579
9320029063,-3.140896,-1.150568,0.544907,0.034504,0.997859,-0.027999
9320031560,-2.897066,-1.515743,0.547769,0.035392,1.000813,-0.041775
9320034058,-2.714298,-2.124000,0.551739,0.041083,0.997817,-0.031560
9320036555,-2.714299,-2.732062,0.494366,0.044557,0.996997,-0.015540
9320039053,-2.714301,-3.340123,0.436993,0.048382,0.999213,-0.032923
9320041550,-2.897016,-3.765602,0.317282,0.055014,1.003537,-0.037904
9320044048,-3.262991,-3.947388,0.316966,0.057360,1.011548,-0.047266
9320046545,-3.873044,-3.946283,0.375471,0.066162,1.023089,-0.044175
9320049043,-4.666434,-3.944669,0.554696,0.071262,1.029566,-0.038982
9320051540,-5.581836,-4.064446,0.734148,0.074221,1.027389,-0.046234
9320054038,-6.496935,-4.427615,0.793550,0.068516,1.029655,-0.055727
9320056535,-7.595371,-4.790275,0.973673,0.061454,1.034145,-0.073213
9320059033,-8.998892,-5.030738,1.212729,0.060779,1.040689,-0.072445
9320061530,-10.463472,-4.906223,1.510266,0.060128,1.042174,-0.078981
9320064028,-11.927883,-4.842607,1.747446,0.057261,1.044387,-0.081177
9320066525,-13.331119,-4.779197,1.924157,0.051472,1.044448,-0.084147
9320069023,-14.673594,-4.837373,2.162437,0.047662,1.042238,-0.068217
9320071520,-15.710742,-4.835463,2.280102,0.038220,1.037979,-0.073441
9320074018,-16.686920,-4.894448,2.398315,0.041107,1.026360,-0.082217
9320076516,-17.419136,-4.893039,2.517071,0.032933,1.026359,-0.064139
9320079013,-18.090742,-4.891520,2.757422,0.030233,1.031535,-0.080845
9320081511,-18.762539,-4.889898,3.058461,0.027401,1.022177,-0.097662
9320084008,-19.556665,-4.827070,3.480107,0.035974,1.016974,-0.086705
9320086506,-20.411385,-4.703556,3.779828,0.034629,1.022098,-0.093222
9320089003,-21.327484,-4.640528,4.201037,0.019269,1.022193,-0.083943
9320091501,-22.060913,-4.881675,4.685248,0.018319,1.006905,-0.075348
9320093998,-22.672594,-5.244509,5.231246,0.017994,0.995191,-0.052911
9320096496,-22.796062,-5.790740,5.658610,0.022191,0.990019,-0.040549
9320098993,-22.675964,-6.337162,6.208222,0.018646,0.991534,-0.048570
9320101491,-22.495201,-6.701088,6.878436,0.024443,0.989304,-0.048523
9320103988,-22.375368,-6.882528,7.547436,0.023597,0.987815,-0.037643
9320106486,-22.072500,-6.821084,8.215766,0.023503,0.980537,-0.034792
9320108983,-21.525476,-6.699350,8.823949,0.019198,0.978425,-0.042849
9320111481,-20.917259,-6.517024,9.371330,0.012775,0.988666,-0.045750
9320113978,-20.430616,-6.273911,9.796569,0.011486,0.995261,-0.056616
9320116477,-20.065550,-5.970011,10.099661,0.017362,1.002475,-0.055770
9320118973,-19.699932,-5.727220,10.221023,0.018105,1.009717,-0.050620
9320121471,-19.272951,-5.484738,10.221225,0.026298,1.013346,-0.067217
9320123968,-19.150431,-5.546047,10.039928,0.022959,1.025080,-0.086788
9320126466,-19.333315,-5.910625,9.980574,0.011650,1.047031,-0.099828
9320128963,-19.881966,-6.396299,9.859884,0.020530,1.058603,-0.104730
9320131461,-20.613537,-6.760081,9.737877,0.024260,1.065850,-0.107542
9320133959,-21.344637,-6.820093,9.492836,0.024990,1.073085,-0.100938
9320136456,-21.831486,-6.515836,9.185991,0.027128,1.084635,-0.085566
9320138953,-21.952248,-6.273079,8.820101,0.033940,1.085838,-0.036789
9320141451,-21.585194,-6.274306,8.457281,0.037507,1.082588,0.042441
9320143948,-20.791445,-6.944986,8.099637,0.044848,1.085155,0.113036
9320146446,-19.693089,-8.041634,7.806094,0.046937,1.086547,0.123971
9320148944,-18.777937,-9.320261,7.573578,0.042998,1.085305,0.078860
9320151441,-18.289652,-10.476599,7.338871,0.028174,1.084165,0.031449
9320153939,-18.350567,-11.449439,7.222579,0.021088,1.082129,0.010280
9320156438,-18.655539,-12.178591,7.164778,0.015253,1.077103,0.007270
9320158935,-19.021816,-12.725049,7.227139,0.016027,1.081460,0.006585
9320161433,-19.388077,-13.210710,7.289168,0.017580,1.093071,0.007416
9320163930,-19.815306,-13.635474,7.350649,0.026885,1.091484,0.021315
9320166428,-20.181356,-14.060444,7.351659,0.030156,1.086963,0.054748
9320168925,-20.547447,-14.607005,7.353333,0.032062,1.075974,0.072855
9320171423,-20.852722,-15.092766,7.415580,0.036426,1.073765,0.070706
9320173920,-21.219379,-15.639012,7.599318,0.037749,1.069356,0.080135
9320176418,-21.464725,-15.881064,8.024587,0.041083,1.056171,0.098968
9320178915,-21.465841,-15.819644,8.388384,0.045206,1.054591,0.122257
9320181413,-21.101135,-15.454739,8.812522,0.054447,1.054425,0.144160
9320183910,-20.491875,-14.968957,9.054807,0.047696,1.047882,0.159298
9320186408,-19.699694,-14.605066,9.298409,0.053378,1.048503,0.173901
9320188905,-18.846355,-14.302176,9.481872,0.061215,1.046922,0.189237
9320191403,-17.992830,-13.999390,9.604649,0.066017,1.043144,0.215425
9320193900,-17.200310,-13.757299,9.727537,0.075340,1.036495,0.222745
9320196398,-16.712475,-13.332424,9.787652,0.079021,1.041550,0.222823
9320198896,-16.712702,-12.845850,9.906376,0.084813,1.048007,0.231657
9320201393,-16.956890,-12.419672,10.024558,0.082434,1.047947,0.251979
9320203890,-17.444687,-12.114892,10.021153,0.075686,1.047198,0.272248
9320206388,-17.871195,-12.053604,9.897918,0.068423,1.057401,0.280966
9320208885,-18.358423,-12.357200,9.655076,0.058444,1.064809,0.267104
9320211383,-19.028667,-12.842883,9.412573,0.049781,1.066357,0.261932
9320213881,-19.943087,-13.449651,9.230549,0.035334,1.073760,0.258922
9320216378,-21.040653,-14.056015,9.108557,0.026117,1.081175,0.241434
9320218876,-22.321501,-14.479484,9.106292,0.017462,1.081278,0.234072
9320221373,-23.724245,-14.659570,9.102264,0.015397,1.087136,0.227553
9320223871,-25.249092,-14.656963,9.157494,0.015664,1.089414,0.202137
9320226368,-26.895668,-14.471874,9.150603,0.020916,1.088711,0.184747
9320228866,-28.481350,-13.982800,9.202963,0.029759,1.090855,0.174686
9320231363,-29.944965,-13.189950,9.254101,0.037809,1.087910,0.166759
9320233861,-31.164406,-12.276012,9.244761,0.050914,1.082736,0.160324
9320236358,-32.078724,-11.362679,9.175826,0.059041,1.078375,0.142938
9320238856,-32.870880,-10.449652,9.046639,0.062704,1.068941,0.131280
9320241353,-33.419682,-9.597507,9.100721,0.070513,1.054316,0.137069
9320243851,-33.663151,-8.685275,9.034188,0.079879,1.046959,0.139297
9320246356,-33.723640,-7.712546,8.967978,0.088393,1.033768,0.148740
9320248846,-33.539757,-6.558042,8.780271,0.093184,1.014779,0.161731
9320251343,-33.111900,-5.343141,8.593104,0.102538,1.003798,0.161751
9320253841,-32.562031,-4.006849,8.405713,0.106669,0.989911,0.172593
9320256339,-31.707066,-2.731958,8.159057,0.114898,0.971537,0.206703
9320258836,-30.485973,-1.396976,7.852691,0.118216,0.960518,0.229185
9320261333,-29.081692,0.059193,7.485629,0.123979,0.955379,0.229937
9320263831,-27.555437,1.515162,7.119003,0.127422,0.948030,0.243001
9320266329,-25.968180,3.031827,6.752265,0.130044,0.943547,0.268432
9320268826,-24.259573,4.366217,6.569022,0.129941,0.949299,0.284463
9320271324,-22.733925,5.700907,6.385124,0.132045,0.949973,0.293212
9320273821,-21.452263,6.914408,6.201016,0.129104,0.956502,0.302677
9320276319,-20.536556,8.006915,6.016260,0.126049,0.954296,0.315708
9320278816,-19.925837,8.917537,5.831407,0.117993,0.956514,0.323630
9320281314,-19.620317,9.585581,5.707476,0.110613,0.962326,0.340308
9320283811,-19.498022,10.010845,5.644905,0.102534,0.967431,0.353339
9320286309,-19.436958,10.253928,5.643797,0.093881,0.975500,0.353304
9320288806,-19.315365,10.253937,5.765610,0.085251,0.981405,0.348893
9320291304,-19.254946,10.254149,5.947893,0.076553,0.984387,0.348820
9320293802,-19.194546,10.193567,6.130507,0.066435,0.987395,0.345097
9320296299,-19.073009,10.011189,6.253314,0.053472,0.991177,0.335535
9320298796,-18.951151,9.646215,6.255740,0.042588,0.989832,0.331771
9320301294,-18.646353,9.220144,6.259152,0.036731,0.986245,0.332406
9320303791,-18.280397,8.733072,6.202425,0.038976,0.985528,0.325158
9320306315,-17.914614,8.306903,6.206056,0.035413,0.982692,0.314923
9320308791,-17.548450,7.880525,6.088310,0.027375,0.979124,0.315534
9320311283,-17.243048,7.575732,5.908995,0.022288,0.974824,0.311085
9320313780,-16.815500,7.209840,5.669760,0.022321,0.967597,0.300856
9320316278,-16.266094,7.087035,5.490324,0.020122,0.961092,0.296422
9320318775,-15.594828,7.207316,5.370687,0.020795,0.958168,0.299315
9320321272,-15.045267,7.570877,5.188599,0.025158,0.956683,0.297898
9320323770,-14.434305,8.055719,4.884690,0.027382,0.956681,0.293562
9320326268,-13.884309,8.601458,4.580231,0.032385,0.948638,0.295010
9320328765,-13.272949,9.146888,4.154614,0.032329,0.936306,0.289103
9320331263,-12.661589,9.692317,3.728998,0.027981,0.935625,0.286869
9320333760,-12.050417,10.237852,3.364070,0.028008,0.938532,0.286892
9320336258,-11.439247,10.783386,2.999141,0.028797,0.940723,0.282556
9320338755,-10.828491,11.207539,2.756252,0.033880,0.939228,0.281874
9320341253,-10.278156,11.631476,2.331080,0.037533,0.934136,0.275335
9320343750,-9.788864,11.873129,1.906685,0.039067,0.931258,0.264429
9320346248,-9.482512,12.175877,1.481302,0.039118,0.927658,0.255682
9320348745,-9.297905,12.600310,0.994132,0.039174,0.929129,0.251333
9320351243,-9.174436,13.146542,0.566769,0.036948,0.932750,0.259330
9320353740,-8.989620,13.631667,0.018579,0.036159,0.929835,0.262933
9320356238,-8.805392,14.056312,-0.347215,0.037636,0.926936,0.257840
9320358735,-8.621468,14.116285,-0.650332,0.034695,0.923327,0.257781
9320361233,-8.376803,13.993876,-0.891548,0.031667,0.912444,0.259845
9320363730,-8.071020,13.688874,-1.192239,0.028075,0.910320,0.253249
9320366228,-7.765219,13.444670,-1.493262,0.024535,0.915458,0.248162
9320368725,-7.520612,13.139874,-1.733483,0.021576,0.916911,0.254681
9320371223,-7.214451,12.834663,-2.155551,0.016430,0.916932,0.260438
9320373721,-6.908120,12.468553,-2.637975,0.012118,0.915541,0.253839
9320376218,-6.541162,12.163349,-2.999136,0.012103,0.916260,0.256025
9320378716,-6.235549,11.919248,-3.239471,0.012136,0.919893,0.256053
9320381213,-5.929936,11.675146,-3.479805,0.010729,0.923545,0.254611
9320383711,-5.868042,11.552933,-3.782365,0.007882,0.926490,0.250968
9320386208,-6.050093,11.431121,-4.085797,0.004247,0.927246,0.251660
9320388705,-6.354515,11.248920,-4.267959,0.001336,0.930890,0.255290
9320391203,-6.902750,10.884628,-4.510687,0.000662,0.936710,0.255326
9320393701,-7.512009,10.398848,-4.752972,-0.002158,0.941839,0.250973
9320396198,-8.304228,9.913364,-4.995911,-0.002773,0.943337,0.240803
9320398696,-9.279594,9.428288,-5.178817,-0.000467,0.946265,0.230676
9320401193,-10.376953,8.882613,-5.361828,0.006019,0.947634,0.238026
9320403691,-11.412948,8.336632,-5.665998,0.008801,0.946835,0.250405
9320406188,-12.083421,7.729464,-5.847149,0.013263,0.946836,0.240280
9320408686,-12.448754,7.182486,-6.088228,0.015506,0.949014,0.235960
9320411183,-12.447961,6.695598,-6.389017,0.019149,0.948262,0.234541
9320413681,-12.325345,6.330206,-6.629344,0.025747,0.940987,0.222204
9320416178,-12.141913,6.025614,-6.809096,0.025733,0.939533,0.222193
9320418676,-11.959011,5.842927,-6.807446,0.029417,0.941693,0.219343
9320421174,-11.836850,5.842622,-6.867697,0.038347,0.941699,0.198366
9320423671,-11.653814,6.085504,-6.868368,0.043416,0.939476,0.198405
9320426168,-11.470344,6.510565,-6.991410,0.045673,0.942383,0.193365
9320428666,-11.104045,7.117818,-7.054103,0.047915,0.946733,0.191242
9320431163,-10.615584,7.724766,-7.177047,0.052157,0.948820,0.205839
9320433661,-10.005170,8.270718,-7.299222,0.059394,0.946572,0.207356
9320436158,-9.272462,8.633872,-7.541344,0.065859,0.937071,0.206629
9320438656,-8.540171,8.875645,-7.661426,0.071655,0.935565,0.207408
9320441153,-7.746742,8.995623,-7.841314,0.076079,0.939172,0.204577
9320443651,-7.136519,8.933617,-7.960176,0.076751,0.937696,0.208934
9320446148,-6.770033,8.932703,-8.140928,0.079022,0.939885,0.201708
9320448646,-6.647739,8.749907,-8.260875,0.078373,0.939922,0.193707
9320451144,-6.708764,8.628417,-8.260429,0.075520,0.941417,0.189326
9320453641,-6.831361,8.446542,-8.077806,0.074758,0.940686,0.192219
9320456139,-7.014946,8.264770,-7.895404,0.071897,0.932765,0.179773
9320458636,-7.260103,8.022613,-7.530823,0.064683,0.932126,0.173148
9320461134,-7.443895,7.780149,-7.287400,0.060321,0.930715,0.171636
9320463631,-7.566720,7.476788,-7.043427,0.057319,0.923462,0.174455
9320466129,-7.628313,7.355609,-6.860918,0.050729,0.918431,0.174344
9320468626,-7.567894,7.355822,-6.678636,0.047023,0.917711,0.180839
9320471124,-7.446849,7.416940,-6.375090,0.046985,0.922040,0.188865
9320473621,-7.142674,7.416857,-6.131246,0.041905,0.918467,0.184422
9320476119,-6.838348,7.295078,-5.947426,0.033174,0.916368,0.182856
9320478616,-6.472714,6.990603,-5.883771,0.025907,0.921500,0.187175
9320481114,-6.290268,6.564941,-5.759419,0.023132,0.922302,0.174069
9320483611,-6.168997,6.139484,-5.574598,0.022446,0.924497,0.171898
9320486109,-6.108712,5.714128,-5.389995,0.023294,0.933952,0.168345
9320488606,-6.048862,5.106592,-5.083021,0.021086,0.931788,0.169031
9320491104,-5.867041,4.498857,-4.775611,0.019652,0.933256,0.168299
9320493601,-5.746584,3.891430,-4.347043,0.019740,0.939808,0.165443
9320496099,-5.625597,3.162099,-4.099876,0.012514,0.945681,0.166134
9320498597,-5.504630,2.371972,-3.852378,0.013947,0.945660,0.168330
9320501094,-5.322336,1.459944,-3.725374,0.016766,0.942703,0.174880
9320503591,-5.018637,0.548030,-3.415870,0.013956,0.943491,0.165407
9320506089,-4.775754,-0.424684,-3.166940,0.010288,0.950750,0.175596
9320508586,-4.289286,-1.336794,-2.796093,0.010283,0.958713,0.183650
9320511084,-3.863614,-2.248909,-2.486151,0.011132,0.966720,0.178632
9320513582,-3.437942,-3.161023,-2.176210,0.012641,0.968178,0.174299
9320516079,-3.255629,-4.012255,-2.049538,0.013381,0.959488,0.164794
9320518576,-3.134113,-4.863491,-1.983773,0.017764,0.960183,0.163394
9320521074,-3.012199,-5.654140,-2.039715,0.023695,0.970315,0.161356
9320523572,-3.012220,-6.322997,-2.096757,0.021703,0.981994,0.152701
9320526069,-3.011863,-6.992063,-2.275175,0.022428,0.985607,0.156370
9320528567,-3.195202,-7.599616,-2.211827,0.027476,0.984099,0.159321
9320531064,-3.318123,-8.206956,-1.966196,0.028159,0.976110,0.156362
9320533562,-3.319014,-8.632108,-1.721124,0.020181,0.978359,0.156291
9320536061,-3.259258,-8.935560,-1.355120,0.025352,0.984140,0.153484
9320538558,-3.138308,-9.178422,-1.049916,0.028802,0.975347,0.164357
9320541056,-3.017320,-9.299692,-0.745376,0.035351,0.966604,0.155643
9320543553,-2.834758,-9.360579,-0.623013,0.042014,0.968767,0.145558
9320546051,-2.651780,-9.300084,-0.622690,0.037470,0.965112,0.160742
9320548548,-2.529542,-9.057205,-0.684267,0.044623,0.962830,0.170978
9320551046,-2.407644,-8.692527,-0.625131,0.044699,0.964309,0.164449
9320553543,-2.224381,-8.328156,-0.687153,0.046942,0.967935,0.161594
9320556041,-2.040739,-7.963995,-0.870551,0.050427,0.960603,0.170298
