Timestamp (us),Gyroscope X (deg/s),Gyroscope Y (deg/s),Gyroscope Z (deg/s),Accelerometer X (g),Accelerometer Y (g),Accelerometer Z (g)
6383024748,0.170969,-0.617900,0.522286,0.977729,0.062002,0.222935
6383044709,-0.247303,-0.631899,0.460209,0.975631,0.048635,0.221112
6383064670,-0.186237,-0.830266,0.240614,0.977552,0.056867,0.219738
6383084631,0.917767,0.064896,0.888025,0.977062,0.053329,0.219878
6383104592,1.703202,-0.311689,0.177778,0.966581,0.054820,0.221209
6383124554,4.778197,-1.971815,0.160064,0.974124,0.045682,0.217035
6383144515,6.685664,-1.146416,1.424976,0.977503,0.047563,0.217522
6383164477,5.000720,0.030355,1.539080,0.970850,0.070113,0.219489
6383184437,-0.034167,0.144486,1.135211,0.963254,0.075919,0.219528
6383204400,-4.764030,0.226872,0.557840,0.967059,0.065907,0.215117
6383224361,-5.971785,0.199336,0.075758,0.971413,0.051476,0.213521
6383244322,-4.711202,-0.550208,-0.040387,0.976241,0.048481,0.217210
6383264283,-1.632899,-0.787124,0.486220,0.975490,0.050353,0.214161
6383284245,-0.377229,-0.654085,0.566064,0.976844,0.056581,0.218364
6383304206,-0.642453,0.504315,1.360345,0.968153,0.046809,0.215268
6383324167,-0.824600,0.916097,1.624757,0.962194,0.039299,0.213461
6383344128,-0.448775,0.189796,0.321706,0.987437,0.037165,0.222154
6383364090,0.390300,-0.255696,-0.532459,1.019546,0.019416,0.230865
6383384051,3.555985,0.488278,0.061275,1.009834,0.014357,0.226126
6383404012,6.533295,2.016756,0.949201,0.981237,0.040352,0.224356
6383423991,8.235078,2.995293,2.402940,0.951183,0.056019,0.211437
6383443933,10.059670,2.528798,4.003443,0.963909,0.061393,0.177616
6383463895,11.888989,4.223889,6.496282,0.980755,0.063062,0.173162
6383483856,11.110529,6.227747,7.128226,0.964043,0.049485,0.190198
6383503817,11.358983,5.926763,9.110332,0.933038,0.060547,0.209846
6383523778,7.121286,1.051426,9.650051,0.941927,0.085838,0.242468
6383543739,7.305850,-1.145060,10.602620,0.969988,0.052712,0.228682
6383563700,8.064751,-2.007507,10.272484,0.978160,0.052568,0.224555
6383583662,6.112782,-3.526574,8.135679,0.972506,0.067916,0.244506
6383603623,3.364023,-5.223517,7.036256,0.972514,0.053086,0.268516
6383623584,3.497491,-8.186051,5.158951,0.980119,0.028060,0.240837
6383643545,1.922111,-6.686760,3.223794,0.959604,0.018009,0.247637
6383663507,3.877088,-9.240788,-0.606171,0.968154,-0.003299,0.220005
6383683468,7.719759,-5.915301,-1.000681,0.958991,0.027284,0.234998
6383703429,1.629876,-6.968869,-1.360754,0.966988,0.038488,0.242246
6383723390,-2.300387,-4.542782,0.011494,0.974103,0.026443,0.212979
6383743351,0.060418,-4.467420,-0.360288,0.954595,0.010821,0.243656
6383763314,1.539710,-4.439692,0.646362,0.988987,0.002344,0.191701
6383783275,3.982965,-1.045683,1.840901,0.978927,0.003633,0.216810
6383803236,3.858351,0.125884,1.846327,0.974123,0.036060,0.211729
6383823197,0.342200,1.078811,1.195773,0.958088,0.063453,0.227468
6383843159,-4.785012,-1.256139,0.499272,0.966472,0.040495,0.236103
6383863120,-7.621742,0.379309,-0.028626,0.996691,0.001918,0.199134
6383883081,-0.447631,3.263842,1.144361,0.987421,0.015012,0.205306
6383903042,2.816174,3.863103,1.784172,0.984143,0.039069,0.213230
6383923004,2.108224,2.562714,0.690901,0.973997,0.024110,0.239879
6383962926,-2.150737,6.552349,3.790112,0.991009,0.014645,0.213847
6383982887,-4.306590,5.143284,3.079278,1.001258,0.032194,0.215204
6384002847,-10.493050,7.041645,3.169839,0.991457,0.061752,0.196874
6384022808,-20.206213,9.212831,0.979103,1.019367,0.047252,0.213468
6384042769,-23.948843,11.777461,-0.296941,1.023816,-0.026797,0.243903
6384062730,-21.782213,7.471087,-5.383429,1.033937,-0.047706,0.269655
6384082691,-17.736919,-1.929372,-18.189705,1.034436,0.001454,0.299911
6384102653,-22.568409,-10.023626,-42.176113,0.927097,0.096430,0.334815
6384122614,-31.648014,-20.064659,-69.072807,0.855557,0.220649,0.374540
6384142575,-23.488291,-10.782755,-103.166527,0.861976,0.367739,0.361230
6384162536,-6.764778,-7.941397,-142.132660,0.667783,0.505572,0.287661
6384182497,12.372653,-8.735147,-154.681839,0.644843,0.630457,0.351396
6384202458,-8.903393,-18.352402,-168.026825,0.800091,0.509121,0.481350
6384222420,-3.900536,-22.270741,-202.407242,0.989671,0.140387,0.276872
6384242381,29.271290,-15.695306,-234.160202,1.056996,0.151764,0.101533
6384262342,55.804390,-23.498114,-226.167877,0.671808,0.464758,-0.058087
6384282304,67.297852,-68.285309,-235.246140,0.668477,0.931246,-0.285704
6384302265,41.619713,-127.345505,-223.350128,0.515122,0.990533,-0.405500
6384322226,49.293732,-189.412567,-197.807510,0.447548,0.836296,-0.595079
6384342189,52.007092,-211.008789,-166.300552,0.418771,0.890850,-0.651957
6384362150,-6.199182,-229.565887,-123.380074,0.297137,0.827995,-0.716173
6384382111,-56.954117,-265.753693,-84.962280,0.339757,0.767712,-0.842619
6384402072,-80.119232,-285.761108,-57.026775,0.558867,0.659120,-0.952561
6384422033,-98.844048,-292.561890,-34.932590,0.523591,0.535075,-0.894263
6384441995,-94.599159,-288.576111,-12.786211,0.531192,0.422658,-0.855857
6384461956,-87.944717,-252.814407,18.230614,0.650823,0.461880,-0.668448
6384481917,-83.746498,-197.730438,59.486507,0.903749,0.384114,-0.342818
6384501878,-105.002945,-115.658188,108.655144,0.926492,0.380328,-0.610880
6384521840,-167.407120,-77.701920,153.078629,0.273139,0.516536,-0.859851
6384541801,-194.899704,-142.110870,236.134979,0.333121,0.190979,-1.361635
6384561761,-120.394691,-188.255051,317.497437,1.296583,0.027725,-1.724114
6384581722,13.398438,-141.186325,300.345306,2.329740,1.033975,-1.261057
6384601683,-212.003815,43.196838,185.847992,2.279730,2.579138,-0.616250
6384621644,-868.874329,-46.243614,190.444092,1.068371,2.866837,-1.574924
6384641605,-1249.032471,-188.354355,117.566422,1.100539,1.609135,-2.971020
6384661566,-1231.891357,-107.048073,-4.832164,1.177675,-0.225301,-3.274573
6384681528,-899.061279,-89.174934,-106.405762,1.645473,-2.054155,-2.259125
6384701489,-350.988922,-56.384731,-185.736465,1.624017,-2.376200,-1.202388
6384721450,20.287285,-122.415688,-139.504288,1.320790,-1.439250,-0.462748
6384741411,160.781662,-183.143158,-80.328636,1.235236,-0.821129,-0.131685
6384761372,137.642899,-167.156433,-56.112526,0.921543,-0.224208,0.297712
6384781334,-54.467022,-138.216934,-46.044029,0.710648,0.412779,0.674066
6384801295,-291.624878,-121.983238,-38.450531,0.625388,0.857830,0.165282
6384821256,-458.141937,-132.171219,-40.723560,0.626543,0.602109,-0.488612
6384841217,-475.696594,-113.790253,-15.839877,0.715138,-0.223031,-0.577281
6384861178,-402.105530,-106.181168,8.465553,0.634818,-0.399038,-0.206251
6384881140,-313.022644,-112.746597,20.153868,0.590898,0.048564,-0.205920
6384901102,-252.234665,-136.241302,39.424107,0.777126,0.187849,-0.258968
6384921064,-251.758926,-144.496536,64.589325,1.142497,0.011304,-0.330875
6384941025,-241.293182,-132.933334,64.166443,1.294618,-0.128661,-0.389536
6384960986,-238.845520,-121.747360,56.317951,1.201475,-0.193575,-0.350478
6384980947,-259.039856,-120.254669,44.272892,1.077990,-0.246668,-0.363802
6385000908,-280.213257,-124.805801,27.945620,1.109833,-0.198347,-0.493226
6385020869,-291.372070,-117.118256,2.267814,1.171164,-0.049394,-0.663734
6385040831,-326.729706,-123.012703,-5.019804,0.985883,-0.099297,-0.639361
6385080753,-479.395081,-87.122169,-0.280537,1.303890,-0.139419,-0.372707
6385100715,-511.769470,-78.991943,1.512858,1.295678,-0.510460,-0.595164
6385120674,-480.265289,-69.725563,4.168340,1.223270,-0.836542,-0.629214
6385140635,-416.965912,-63.870293,6.121924,1.126043,-0.776417,-0.477541
6385180558,-313.797272,-52.483509,8.479805,1.100097,-0.559417,-0.351444
6385200519,-266.356415,-49.772533,6.234274,1.088935,-0.558946,-0.364496
6385220480,-240.985153,-47.835995,7.362562,1.062547,-0.445068,-0.291264
6385240441,-252.809952,-38.222160,4.326478,1.033644,-0.205994,-0.199458
6385260403,-291.776886,-26.851822,-0.334985,1.032927,-0.003778,-0.152791
6385280364,-334.015320,-20.151625,0.767671,1.012225,-0.123433,-0.206849
6385300325,-341.121582,-25.022045,2.967574,1.037589,-0.354610,-0.245943
6385320286,-306.960785,-24.595488,0.856128,1.101655,-0.368321,-0.218135
6385340247,-243.884384,-38.162701,-12.355999,1.055055,-0.246146,-0.020564
6385360209,-176.616547,-83.615105,-40.412220,1.264700,-0.207712,-0.190639
6385380170,-91.851021,-75.705902,-41.859131,1.438228,-0.216006,-0.318086
6385400131,-5.300240,-64.086624,-41.036453,1.424570,0.205421,-0.383154
6385420092,3.861405,-48.810123,-57.543560,1.306609,0.661832,-0.317668
6385440054,-72.452507,-52.011665,-76.498856,1.140536,0.656324,-0.158989
6385460016,-157.609360,-67.348846,-101.013115,1.153263,0.196841,-0.223077
6385479977,-211.321533,-58.076080,-94.427124,0.843755,-0.538532,-0.154968
6385499938,-198.425888,-98.147751,-74.705994,0.520356,-0.575438,-0.097917
6385519900,-157.519577,-140.142487,-70.447716,0.708185,-0.486060,-0.143744
6385539861,-128.217133,-141.164871,-74.698090,0.776091,-0.466677,0.048960
6385559822,-90.595085,-135.556458,-73.671417,0.872251,-0.410534,0.058819
6385579783,-76.446541,-134.585739,-60.170090,1.155213,-0.134656,0.097099
6385599744,-84.875038,-121.606430,-40.742912,1.153967,0.092182,0.167394
6385619706,-99.178223,-108.583450,-42.881546,1.271702,0.044306,0.147025
6385639667,-73.931839,-89.459885,-45.756207,1.182297,0.147728,0.225192
6385659628,-41.291767,-77.950531,-56.594299,1.151978,0.262962,0.158185
6385679590,-16.991610,-62.119896,-68.498566,1.069673,0.398513,0.150813
6385699549,-6.018884,-45.620110,-78.929993,1.027201,0.450560,0.105563
6385719510,0.865398,-22.330671,-77.765678,0.950877,0.544211,-0.065289
6385739472,-13.279776,-9.623205,-66.432121,0.926405,0.561293,-0.139140
6385759433,-24.529690,-3.092769,-51.429264,0.945622,0.455456,-0.214639
6385779394,-15.599781,0.030745,-34.593876,1.002014,0.412494,-0.278101
6385799355,-5.177839,5.994335,-13.697471,0.994613,0.489084,-0.217570
6385819317,-22.669842,13.074148,7.393421,1.024693,0.685697,-0.153126
6385839278,-70.573738,22.178150,29.966974,1.082264,0.758501,-0.162642
6385859239,-94.286118,36.000881,66.259186,1.090316,0.700863,-0.169837
6385879201,-60.631386,53.821533,120.608055,1.129770,0.692151,-0.115972
6385899162,-30.926134,89.045906,170.531189,1.309365,0.810006,0.014608
6385919123,-66.180496,149.607697,203.239456,1.603171,0.903287,0.130657
6385939084,-175.810440,224.139313,231.081879,1.680875,1.064531,0.110044
6385959045,-355.488892,277.899506,263.687317,1.639701,1.107027,0.139918
6385979007,-523.577576,254.406815,272.167999,1.392644,-0.148137,-0.315389
6385998968,-311.306152,71.449791,273.818329,0.595252,-2.056606,-1.254174
6386018930,408.604980,-174.615265,203.653687,1.223356,0.195557,-2.197357
6386038891,685.253174,132.256851,-150.126465,0.852471,5.859330,-0.730122
6386058852,-28.122959,-9.852500,-105.513176,-1.012854,4.192087,1.755521
6386078814,-522.095276,-80.419601,-96.574326,0.326709,1.829922,-0.221094
6386098775,-574.614990,-17.929596,-175.642120,1.477185,0.468687,-0.294985
6386118736,-431.763306,45.675030,-267.392975,1.720415,-0.291996,-0.522474
6386138697,-195.496506,83.653000,-233.108566,1.257523,-0.974988,-0.636244
6386158659,68.415932,8.455004,-185.016571,0.599964,-1.126213,-0.297060
6386178619,289.523895,-113.858810,-164.841171,0.547812,-0.451680,-0.337112
6386198580,353.705048,-158.965576,-184.802628,0.830625,0.376975,-0.161463
6386218542,236.768112,-161.865295,-163.774994,0.885339,0.885218,0.270498
6386238502,40.771366,-181.864868,-134.224899,0.801500,0.929485,0.435061
6386258463,-131.129913,-186.541412,-127.226929,0.906167,0.674075,0.230629
6386278424,-209.283676,-167.580948,-133.418106,0.882904,0.406033,0.116303
6386298385,-209.085922,-125.756691,-134.481750,0.870841,0.216845,0.236924
6386318346,-156.152069,-100.976471,-116.865448,0.754164,-0.000458,0.362461
6386338308,-61.047096,-97.154694,-99.974014,0.620140,-0.067588,0.388876
6386358269,26.403576,-101.356461,-80.310555,0.755124,0.153650,0.396379
6386378230,69.003098,-81.477020,-46.752960,0.921750,0.350315,0.393117
6386398192,84.051186,-45.741714,-4.255936,0.754443,0.395047,0.380938
6386418153,63.838516,-15.079202,53.849819,0.803258,0.505040,0.496682
6386438114,49.267105,-17.206377,46.959198,0.966156,0.999349,0.511789
6386458075,53.441120,9.967945,-28.271099,0.803373,0.888467,0.490950
6386478036,61.373703,-22.974508,-3.423815,0.408959,-0.100651,-0.213551
6386497998,235.783417,-30.767422,17.420330,0.633782,-0.098917,-0.402325
6386517959,328.824341,33.061558,18.163664,0.661282,0.999424,-0.340406
6386537920,196.947540,72.873238,27.936832,0.430362,1.435768,-0.011126
6386557881,-14.797165,81.807770,57.649689,0.451396,1.026941,-0.129982
6386577844,-159.726059,85.548065,87.568344,0.685933,0.671678,-0.450689
6386597805,-212.948959,72.734062,154.107361,0.766096,0.386254,-0.611369
6386617766,-166.562164,41.956577,234.769562,1.213187,0.303218,-0.409395
6386637727,-102.603546,53.909103,304.573151,1.777064,0.561366,0.182610
6386657688,-114.891068,113.248238,355.634399,2.397909,0.875350,0.704446
6386677650,-260.064240,196.772430,411.844177,2.708336,1.116949,1.135083
6386697611,-573.681641,272.237274,394.651001,2.127921,0.044104,0.260897
6386717572,-186.365021,30.438416,400.777649,0.160963,-3.293617,-1.732153
6386737533,698.540649,-122.581398,113.020920,4.058081,6.243936,-3.269159
6386757494,324.531128,284.930176,-307.858246,-0.280773,5.879588,2.511963
6386777456,-492.333008,-105.150444,56.017082,-0.791470,0.749173,-0.673199
6386797417,-389.935852,-77.815552,4.759744,0.026497,-1.487576,-0.344731
6386817377,-183.527039,-36.618652,-150.141922,1.640625,0.054302,-0.475610
6386837338,14.749949,65.300850,-131.067719,1.454166,-0.044193,-0.113169
6386857299,24.983746,60.528477,-86.803268,0.616205,-0.549457,-0.211687
6386877260,118.753212,-110.376556,-36.276890,0.206917,-0.570102,-0.035639
6386897221,206.900742,-161.201172,-44.174503,0.731015,-0.209329,-0.156782
6386917183,178.738586,-47.877464,-64.715836,1.050307,0.577197,0.303247
6386937144,-4.865151,-82.102646,-13.989782,0.542185,0.873195,0.592042
6386957105,-210.913254,-82.830467,22.693058,1.360096,0.681480,0.673653
6386977066,-344.269653,-10.895418,-14.937003,1.667306,0.219221,0.522311
6386997027,-347.348633,-7.409237,-25.782478,0.871794,-0.295380,0.237774
6387016988,-210.421783,-12.185078,-8.770342,0.486766,-0.750814,0.125347
6387036950,-23.943819,6.152639,-6.420761,0.806656,-0.438479,0.383165
6387056911,46.817646,14.555917,15.035692,0.862307,-0.028168,0.502402
6387076873,58.884583,29.366526,28.479101,0.818197,0.176957,0.493406
6387096833,65.334526,35.189785,-7.527629,0.899958,0.547296,0.346419
6387116795,60.268841,31.820854,-49.379757,1.047978,0.910261,0.164798
6387136756,50.598969,21.568619,-68.825279,0.990846,1.061400,-0.027132
6387156718,16.419825,15.750364,-74.173820,0.909855,1.221271,0.025859
6387176679,-38.238304,-20.450359,-70.900276,1.138774,1.226692,0.073861
6387196641,-98.844910,-41.940605,-83.287399,1.209942,0.992314,0.022274
6387216602,-130.750839,-53.521580,-106.728149,0.934249,0.744556,0.022459
6387236563,-134.481552,-62.119396,-122.255562,0.714651,0.568008,0.002474
6387256524,-121.020676,-65.338814,-128.573776,0.557428,0.418022,0.003140
6387276485,-100.907661,-76.910942,-129.385559,0.620001,0.331590,-0.007501
6387296447,-81.686295,-79.364304,-120.082069,0.743404,0.317612,-0.043072
6387316408,-63.276070,-73.032944,-100.260277,0.747511,0.390032,-0.035897
6387336369,-53.924175,-72.030357,-71.049591,0.682977,0.536408,0.038380
6387356330,-70.752563,-71.519012,-47.829250,0.677948,0.660216,0.146900
6387376290,-110.139175,-75.556076,-34.254486,0.744965,0.650726,0.185711
6387396251,-137.233185,-83.684799,-35.227425,0.783305,0.610824,0.119773
6387416213,-148.077271,-87.425011,-51.665977,0.576910,0.699069,0.171274
6387436174,-192.358414,-109.506836,-63.800930,0.659914,0.518827,0.280925
6387456135,-229.611099,-135.566727,-83.989441,1.361775,0.147827,0.253433
6387476096,-219.845993,-106.587189,-118.851051,1.391648,-0.133485,0.363583
6387496057,-161.438400,-88.634209,-133.006088,0.806800,0.024029,0.545331
6387516019,-105.609024,-102.429146,-112.301971,0.532104,0.137959,0.502093
6387535980,-38.812069,-101.167877,-93.838173,0.620746,-0.000688,0.351731
6387555941,44.985046,-78.131615,-81.331200,0.719670,0.015778,0.572188
6387575902,103.517258,-71.024323,-65.711525,0.844407,0.392644,0.603908
6387595864,133.605606,-58.403542,-34.878674,0.904613,1.007796,0.324482
6387615825,47.934559,-68.424606,41.536598,1.196860,0.964321,0.473977
6387635786,-70.437698,-48.090721,49.288834,1.368577,0.902250,0.708803
6387655747,-149.546158,-8.447614,13.897491,0.905042,0.643021,1.022809
6387675708,-104.033134,7.015883,42.014534,0.950175,-0.607988,0.785239
6387695670,147.782288,-15.783248,41.362881,1.001560,-1.529275,0.728059
6387715632,394.178436,17.903549,83.139969,1.385861,-0.740622,-0.201361
6387735594,355.629211,118.115128,109.524406,1.090939,1.684097,0.587093
6387755555,16.779799,155.886505,137.271423,0.460785,1.301095,0.617233
6387775516,-254.624298,158.631073,200.850082,0.952680,0.009576,-0.073345
6387795477,-208.300446,114.153702,309.825867,1.392939,-1.086231,-0.327245
6387815438,-59.123314,119.320755,404.260406,1.922002,-0.818017,0.244652
6387835409,-47.385246,169.461655,491.373505,2.523363,-0.491046,0.440644
6387875322,165.393158,-245.351593,438.675171,1.370559,-2.277166,-5.058208
6387895283,957.388916,196.470947,-262.762054,4.992454,9.264606,1.721379
6387915245,177.100403,108.992714,122.586227,0.293537,1.185756,0.468534
6387935204,28.407385,-32.920837,110.497833,-0.068027,-1.448592,-0.705158
6387955165,-56.582695,-18.367302,-47.550690,2.047107,2.469003,-1.401116
6387975126,-110.813629,89.741272,45.890881,0.867033,1.127797,0.416896
6387995088,-170.053162,-19.130009,27.886093,0.668081,-0.863914,-0.052419
6388015049,25.095360,-53.229801,24.339476,1.049406,-1.249359,-0.312843
6388035011,260.663147,-26.148058,31.976242,1.096560,-0.616808,-0.275261
6388054972,312.898468,-6.194760,23.231838,0.985295,-0.007397,-0.023569
6388074933,232.440109,-0.526191,21.674871,0.871138,0.246540,0.328507
6388094894,88.065994,-8.306699,11.396287,0.655174,0.121333,0.446798
6388114855,-22.557869,-11.994852,-27.874681,0.628933,-0.169889,0.317864
6388134816,-47.279148,-6.135855,-57.837055,0.756234,-0.519400,0.178039
6388154777,-27.389704,6.673820,-66.313370,0.903211,-0.658401,0.144401
6388174739,8.841667,19.554085,-59.185108,0.982815,-0.641796,0.136574
6388194700,54.758865,29.924089,-40.826691,1.197809,-0.698294,0.111392
6388214661,108.278717,40.702633,-19.028521,1.274144,-0.784549,0.029244
6388234622,176.584702,55.671623,-3.896793,1.002880,-0.679129,0.015713
6388254584,207.574127,51.290009,14.396392,0.904786,-0.425547,0.043544
6388274546,178.518570,40.319096,33.920219,1.066259,-0.262068,0.210471
6388294508,153.018707,43.920532,40.903900,1.112119,-0.560054,0.291957
6388314468,185.390579,46.396667,34.108398,1.075793,-0.595565,0.206092
6388334430,240.007004,39.814323,31.862526,1.083562,-0.314398,0.137612
6388354391,239.643341,40.470848,28.763863,1.093323,-0.150192,0.140929
6388374352,218.335266,48.679554,26.669987,1.110593,-0.272647,0.096355
6388394313,214.362198,65.240547,26.670053,1.155944,-0.472822,-0.015365
6388414274,233.412521,85.690292,30.497152,1.108088,-0.429906,-0.005016
6388434236,244.300644,95.362663,35.884388,1.068452,-0.278484,0.015361
6388454197,237.890778,92.993942,42.788292,1.056675,-0.164328,-0.006485
6388474158,219.443420,84.358009,49.107754,1.046149,-0.208873,-0.039095
6388494119,208.229645,80.350029,50.108845,1.098807,-0.257729,-0.073116
6388514079,187.726593,76.080818,53.918064,1.140202,-0.159776,-0.065128
6388534040,153.904556,73.086464,57.886292,1.167106,-0.050722,-0.022985
6388554002,117.076088,69.946365,60.243427,1.252276,-0.103730,0.011590
6388573963,105.980644,66.387314,69.076515,1.306404,-0.185753,0.029225
6388593924,114.186661,58.087330,69.260231,1.232942,-0.202724,-0.014734
6388613885,141.744232,50.042076,64.270828,1.231815,-0.248335,-0.076294
6388653807,206.061050,50.991199,52.300945,1.197680,-0.147788,-0.081117
6388673769,210.498642,49.493244,40.607388,1.179577,0.009960,-0.054256
6388693730,178.030960,47.431713,30.386492,1.198308,0.131073,-0.001350
6388713691,134.895447,46.089123,24.136477,1.173678,0.202565,0.002855
6388733652,84.430199,55.812141,21.572100,1.227481,0.324664,-0.026205
6388753613,18.930843,65.389603,28.596811,1.193367,0.378686,0.138199
6388793536,93.452385,46.309166,3.538139,1.201227,0.029917,-0.041710
6388813497,157.595459,57.086353,0.060727,1.171507,0.203077,-0.106832
6388833458,189.089905,65.006927,-4.696666,1.156005,0.492303,0.061255
6388853421,158.361771,73.644501,-1.380706,1.266387,0.611247,0.105223
6388873382,90.195862,72.863022,-2.857055,1.280408,0.690216,0.051280
6388893343,42.407719,60.928268,-4.431540,1.185770,0.653519,0.048324
6388913304,33.701466,44.565639,-5.346586,1.090734,0.526814,0.019061
6388933266,56.841011,37.004776,-7.178939,1.101437,0.457798,-0.006020
6388953227,78.732086,32.032608,-13.254179,0.989255,0.518106,0.054223
6388973188,76.285355,24.465990,-20.749294,0.889732,0.577743,0.108516
6388993149,60.663620,14.991953,-25.788181,0.854132,0.511699,0.098564
6389013110,47.011353,7.084155,-24.136629,0.823059,0.527254,0.152012
6389033072,44.618206,-6.162110,-23.411337,0.809077,0.375940,0.119631
6389053033,64.498734,-13.030055,-22.439825,0.847668,0.356641,0.082864
6389073003,80.871597,-15.433292,-19.179394,0.900920,0.451439,0.038852
6389092954,90.294922,-10.079382,-11.786938,0.886071,0.568022,0.000518
6389112915,83.079475,-8.045753,-2.835548,0.825651,0.574397,0.039373
6389132876,58.774284,-15.179484,-3.777989,0.856349,0.526563,0.072227
6389152837,36.356812,-14.122687,-9.249722,0.885235,0.419752,0.098820
6389172798,29.444914,-12.093868,-13.487718,0.850402,0.327778,0.137569
6389192760,37.568794,-1.922381,-13.863133,0.843013,0.303009,0.222709
6389212721,48.656345,15.682248,-11.765715,0.823046,0.302198,0.327350
6389232682,66.134857,20.965948,-18.857487,0.892820,0.268907,0.269530
6389252644,96.259506,31.681137,-27.759809,1.086896,0.215272,0.195199
6389272605,106.227119,52.010731,-41.296764,1.276019,0.386497,0.264797
6389292566,96.349182,62.308681,-30.127647,1.334412,0.199426,0.219303
6389312528,84.781929,73.832741,-9.486773,1.289465,-0.082041,0.409038
6389332489,49.967239,92.530838,39.663460,1.351929,-0.076991,0.450532
6389352450,24.228725,122.918114,69.495987,1.633865,-0.057545,0.363594
6389372411,47.447433,152.793793,85.374756,1.226269,-0.564148,0.739956
6389392372,237.469284,161.407852,166.323746,1.466880,-2.180933,-0.572219
6389412333,382.883270,215.251129,238.337494,2.181628,-0.145047,-1.611168
6389432296,42.516357,259.839050,261.204498,1.217452,1.510945,-0.673055
6389452257,-192.997513,160.857330,391.354889,0.834266,-0.661767,-1.286661
6389472218,-188.932434,81.597954,483.895416,1.335224,-0.872680,-0.640410
6389492179,-204.026001,-9.816718,608.812744,1.752098,-1.830630,-0.452980
6389512141,145.151886,-170.828598,652.457581,2.084550,-5.439465,-2.879495
6389532102,888.915833,-39.097084,-68.969696,6.191969,8.771419,-1.652162
6389552068,335.292969,124.249451,75.978714,0.486129,3.286121,1.837829
6389572024,-74.321938,-72.034500,225.818695,0.687898,-1.657148,-0.301958
6389591986,-47.394302,-92.885887,62.053120,2.609201,-0.213084,-1.759202
6389611947,95.445168,61.789852,144.479721,1.165380,0.892896,-0.069616
6389631908,21.769135,-74.563110,127.470100,0.342057,-0.138755,-0.056708
6389651868,157.685364,-127.570137,116.151413,0.809140,-0.639619,-0.783731
6389671829,304.959991,-69.908890,67.076553,0.979165,0.088311,-0.557778
6389691790,278.898529,-21.913876,44.879047,0.780935,0.780374,0.138079
6389711751,116.621033,-56.099636,35.924088,0.609951,0.614293,0.452282
6389731712,-10.032069,-93.381119,7.761249,0.937034,0.113489,0.283723
6389751674,-58.168457,-83.313538,-31.354137,1.270705,-0.331130,0.139133
6389771635,-36.858540,-44.242294,-59.286324,1.334611,-0.724086,-0.007881
6389791596,36.468723,-14.447832,-60.834087,1.219647,-1.050900,0.052095
6389811557,101.113174,-23.334921,-39.926037,0.975543,-1.157210,0.093707
6389831518,183.996399,-16.062677,-24.613205,0.803272,-1.082900,0.024403
6389851480,248.757523,3.525716,-17.256475,0.665379,-0.810711,-0.046328
6389871441,255.687332,4.819894,-5.638889,0.578153,-0.543433,-0.100022
6389891402,219.336304,-6.256179,6.764886,0.716583,-0.343493,-0.098118
6389911364,155.710968,-7.442416,15.390476,0.944033,-0.339374,-0.071886
6389931325,97.368668,-4.788131,13.569574,1.004261,-0.413531,-0.027951
6389951286,74.029121,-7.047801,-1.242814,0.955730,-0.314511,-0.016804
6389971247,62.997990,3.813670,-25.391878,0.975425,-0.194736,0.075845
6389991210,60.095448,14.065744,-37.187969,0.892732,-0.326138,0.100976
6390011171,87.983612,19.667233,-47.440956,0.783294,-0.474908,-0.005319
6390031132,132.256226,29.817856,-57.449280,0.793545,-0.435528,-0.090099
6390071055,151.620163,59.266098,-71.014336,0.964133,-0.060703,-0.034922
6390091016,127.664932,67.008026,-78.709663,1.049569,0.012947,-0.016531
6390110977,106.682899,69.084045,-89.361740,1.143790,0.005624,0.003165
6390130938,104.258392,66.485832,-95.634720,1.166873,0.071996,0.026724
6390150899,105.591377,56.647781,-99.713898,1.150688,0.262964,0.082671
6390170861,90.157753,38.039307,-112.441772,1.104644,0.523484,0.105880
6390190822,67.101578,20.371231,-119.693901,0.961914,0.754331,0.045390
6390210783,42.882023,9.736836,-114.164650,0.788157,0.934879,0.004369
6390230743,20.279377,-5.771931,-102.126236,0.691786,0.998992,0.025136
6390250704,0.142040,-35.168964,-90.787498,0.816618,0.955425,0.062106
6390270665,-17.099991,-60.087029,-86.321892,1.035149,0.910508,0.060566
6390290626,-25.630770,-67.261467,-82.476349,1.050157,0.966455,0.049271
6390310588,-42.599396,-70.071625,-69.853912,0.983092,1.051664,0.022787
6390330549,-66.031189,-78.169121,-49.579628,0.998985,0.959134,-0.015291
6390350510,-77.695190,-88.458847,-30.515429,1.057047,0.727737,-0.071174
6390370471,-71.808701,-96.423553,-18.614233,0.976242,0.570217,-0.059149
6390390432,-71.181732,-105.558334,-10.728290,0.952224,0.564378,0.034391
6390410394,-91.998268,-109.132584,-5.964873,0.981465,0.545245,0.126849
6390430355,-107.079987,-99.551384,-3.964712,0.909264,0.503657,0.097340
6390450316,-95.693466,-81.172455,1.676792,0.710217,0.621508,0.096130
6390470277,-81.587616,-56.130421,15.969253,0.533425,0.792674,0.095274
6390490239,-107.411484,-27.673820,16.046301,0.155537,0.638003,0.153983
6390510199,-164.827881,-42.722946,-17.764809,0.023071,0.331161,0.324315
6390530161,-191.430573,-85.254272,-62.096138,0.678841,0.251528,0.334551
6390550122,-211.322678,-92.768517,-90.064491,1.249004,0.146629,0.396446
6390570085,-209.340012,-88.338448,-103.763443,1.230464,0.047527,0.518932
6390590046,-177.996414,-86.802483,-84.438179,1.166302,0.076421,0.428952
6390610007,-128.006897,-66.987167,-59.644611,1.012368,0.017670,0.348960
6390629968,-48.133247,-55.624954,-49.819805,0.764983,-0.058934,0.374545
6390649930,18.882542,-52.871986,-37.975475,0.598716,0.126147,0.443863
6390669891,40.401749,-51.975388,-15.638371,0.600825,0.407434,0.485371
6390689852,12.566156,-45.288654,-5.957601,0.673960,0.520316,0.498705
6390709813,-27.742655,-50.380192,-11.365427,0.702605,0.456566,0.498362
6390729774,-43.712658,-66.946869,-23.119083,0.833141,0.370190,0.458826
6390749735,-23.558998,-61.313034,-40.880840,0.935657,0.432608,0.473343
6390769697,6.825911,-54.898815,-58.974243,0.925357,0.549184,0.506212
6390789656,49.473824,-51.442272,-72.415924,0.910571,0.555348,0.500740
6390809618,101.057388,-45.591896,-87.637939,0.861506,0.576449,0.429468
6390829579,148.180954,-39.939270,-91.103226,0.790833,0.596858,0.282958
6390849540,177.001053,-42.105835,-94.055695,0.769035,0.681025,0.130017
6390869501,167.870880,-41.591007,-102.101051,0.616404,0.926604,0.038053
6390889462,107.179222,-41.643116,-103.402000,0.526271,1.200288,0.047488
6390909424,1.919762,-32.043774,-110.769211,0.482014,1.254490,0.148597
6390929385,-69.331512,-11.455172,-120.757477,0.506546,0.995132,0.214580
6390949346,-43.126259,-1.173272,-113.180321,0.535999,0.601027,0.057847
6390969307,34.881516,-0.508616,-97.509438,0.609556,0.597456,-0.171861
6390989269,25.285730,-17.642647,-22.433495,0.733299,0.524091,-0.053560
6391009230,-3.789448,5.525211,8.491667,0.629270,0.841169,0.010639
6391029191,-54.701355,23.117048,4.100186,0.345372,1.041280,0.048505
6391049153,-134.467087,13.123442,31.939934,0.437982,0.559084,0.172567
6391069113,-115.574905,3.499406,63.679771,0.345178,-0.143042,0.168615
6391089075,48.833935,-70.647095,121.072342,0.437421,-0.720374,-0.240396
6391109036,278.923645,-44.008701,201.716995,1.121343,0.469910,-0.706301
6391128999,253.311371,47.934231,243.752762,1.035980,1.846061,-0.050996
6391148960,37.732445,105.901016,265.289337,0.939222,1.705309,0.326076
6391168921,-179.128815,142.869812,295.687134,1.034759,1.014818,0.082162
6391188882,-338.689301,150.717407,329.141113,1.663049,1.021170,-0.139264
6391208843,-514.762390,156.008469,362.202789,1.874822,0.505572,-0.238576
6391228804,-515.492676,14.944101,338.117523,1.084694,-0.560575,-0.416817
6391248766,-154.425537,-78.836891,285.581207,1.310695,-0.410775,-0.331622
6391268727,279.681488,3.319266,162.783356,0.982243,1.240369,-0.295758
6391288688,356.168427,33.800503,84.591972,0.369260,2.145388,0.297305
6391308649,94.438515,12.252558,60.664669,0.435124,2.272571,0.656124
6391328610,-232.314362,-21.993341,2.814126,0.653057,1.202400,0.282078
6391348582,-356.610321,-20.125854,-18.432350,0.811123,0.113653,-0.018365
6391368532,-315.454346,-19.854906,3.826382,1.066661,-0.672462,-0.129927
6391388493,-150.160385,-16.292131,14.787555,0.983065,-1.070098,-0.253800
6391408454,50.785324,-8.831521,5.111271,0.543795,-0.650632,-0.032786
6391428415,111.226990,-9.011928,22.668259,0.688411,0.164416,0.389151
6391448376,-25.040104,6.930788,64.558220,1.400278,0.606465,0.706853
6391468338,-213.517868,7.499091,70.431053,1.215563,0.184285,0.467701
6391488299,-262.782867,-5.581000,52.953583,1.047544,-0.403322,0.259885
6391508260,-207.076355,3.370205,35.744545,1.044891,-0.628562,0.271357
6391528221,-109.297272,11.772695,24.253574,0.864794,-0.454804,0.333595
6391548183,-25.336695,11.403083,26.755281,0.813464,-0.260577,0.363711
6391588105,47.380527,16.210754,48.291882,1.020452,-0.125159,0.346895
6391608066,19.384897,20.820780,46.150925,0.999428,-0.110792,0.332342
6391628027,-15.896868,20.201674,45.291492,0.816061,-0.232502,0.240093
6391647989,-33.968372,11.157735,42.232292,0.694476,-0.259945,0.154535
6391667950,-45.001522,10.680079,36.800472,0.749848,-0.151648,0.214788
6391687911,-70.093658,13.950628,42.510975,0.855468,-0.251736,0.258159
6391707874,-66.335670,13.949997,44.375214,0.953924,-0.405403,0.187993
6391727835,-42.663837,18.640148,31.840416,0.844847,-0.293894,0.183529
6391747796,-51.451759,14.983129,33.471333,0.809673,-0.182669,0.274218
6391767757,-90.067001,12.135077,45.809792,0.987727,-0.429024,0.250194
6391787719,-90.948677,13.579067,55.238365,0.829588,-0.704643,0.268381
6391807680,-46.582458,8.689829,88.095062,0.763436,-0.689746,0.338954
6391827641,-15.740248,18.787922,94.837807,1.075549,-0.327823,0.501113
6391847602,-34.088001,34.239166,72.395668,1.148157,0.075694,0.528162
6391867563,-65.259117,36.176250,33.340904,1.002263,0.088684,0.355625
6391887525,-74.729362,33.560722,18.650776,1.114939,-0.142518,0.208677
6391907486,-62.973320,34.295982,5.930727,1.127243,-0.288856,0.137357
6391927446,-61.252968,33.149067,-1.932092,1.091021,-0.188844,0.131777
6391947407,-80.093483,32.264023,0.731568,1.091431,-0.147373,0.108522
6391967368,-106.140381,34.023975,2.547804,1.061751,-0.152408,0.159783
6391987329,-132.294189,32.591366,4.937665,1.096073,-0.178486,0.178597
6392007291,-145.352295,31.986864,1.275266,1.039493,-0.395064,0.097603
6392027252,-120.524109,35.334194,-4.058939,0.827941,-0.587887,0.170277
6392047213,-80.752487,38.154064,-9.699674,0.820625,-0.544537,0.201760
6392067174,-50.151867,31.999773,-11.198307,0.925505,-0.523908,0.225929
6392087135,-30.442398,34.479576,-6.089922,0.939197,-0.533621,0.267681
6392107097,-26.494350,43.806217,-5.885900,0.791280,-0.453066,0.319561
6392127058,-49.983135,38.391518,5.906819,0.874374,-0.424576,0.212983
6392147019,-65.269592,47.432972,3.930259,0.857137,-0.582489,0.137304
6392166980,-58.998920,45.955666,9.113989,0.845143,-0.559576,0.241248
6392186941,-53.314915,46.158398,9.284258,0.992369,-0.445131,0.252273
6392206902,-51.311359,51.153049,-3.481975,0.927019,-0.366340,0.266812
6392226864,-53.457634,52.147194,-4.150832,0.959883,-0.349730,0.282168
6392246825,-49.083977,55.053543,-7.897481,1.039894,-0.415569,0.231261
6392266788,-39.084118,55.991837,-20.767836,0.967492,-0.417021,0.192530
6392286749,-35.317356,51.879963,-21.159069,0.907192,-0.328215,0.242876
6392306710,-42.701008,46.978119,-19.893534,0.969545,-0.288620,0.228437
6392326671,-53.595402,48.910954,-25.237423,0.907783,-0.311718,0.227592
6392346632,-64.360580,45.908215,-26.604248,0.903794,-0.314362,0.230476
6392366593,-68.993607,44.623234,-26.276114,0.942764,-0.329690,0.216872
6392386555,-66.588402,45.980663,-31.909128,0.782843,-0.386346,0.251201
6392406516,-56.815269,37.817993,-21.505085,0.885793,-0.402559,0.228585
6392426477,-41.474815,41.804852,-26.431414,0.822265,-0.424645,0.252278
6392446439,-50.803085,38.034477,-21.538668,0.971100,-0.333730,0.333835
6392466400,-64.338043,41.902531,-21.763733,0.923995,-0.435450,0.300307
6392486380,-63.690598,40.681164,-23.004433,0.859063,-0.401857,0.357300
6392506321,-61.506599,35.285984,-21.182869,0.978089,-0.387741,0.250524
6392526282,-52.837742,40.763908,-25.116493,0.936870,-0.403631,0.272339
6392546243,-42.474415,38.991211,-16.632582,0.925601,-0.399651,0.256769
6392566205,-40.247417,39.180733,-20.936291,0.871393,-0.302766,0.279503
6392586166,-50.266731,33.917027,-26.031261,0.861760,-0.234842,0.305259
6392606127,-64.877327,33.814476,-20.842697,0.884018,-0.336057,0.268350
6392626088,-56.306087,31.731855,-21.790295,0.871845,-0.397680,0.254020
6392646049,-29.220734,30.049915,-20.992458,0.865000,-0.413234,0.229836
6392666011,-13.717408,28.348791,-21.652086,0.952746,-0.286723,0.259332
6392685972,-26.300900,28.712448,-23.409422,0.937113,-0.241931,0.271607
6392705933,-40.354969,26.531988,-21.980261,0.977052,-0.278124,0.286500
6392725894,-37.992683,26.351889,-24.575352,0.953005,-0.352252,0.229085
6392745855,-24.888603,23.867167,-25.408707,0.938585,-0.322369,0.242173
6392765817,-20.092722,24.362158,-28.786064,0.842087,-0.278122,0.259438
6392785778,-22.734715,21.102083,-27.993034,0.887956,-0.281026,0.248671
6392805739,-25.258970,21.009396,-25.162800,0.851237,-0.327537,0.262055
6392825700,-21.473537,16.480284,-25.014500,0.938727,-0.280211,0.284466
6392845663,-22.071693,20.432442,-27.147421,0.949899,-0.288126,0.254568
6392865624,-18.156467,15.281366,-25.980780,0.925998,-0.325210,0.225415
6392885585,-15.091061,14.758187,-27.889990,0.865062,-0.290551,0.240030
6392905546,-15.476757,10.810192,-25.251839,0.873730,-0.241578,0.288196
6392925507,-13.171843,10.487348,-27.072788,0.924214,-0.221559,0.275590
6392945469,-20.081839,11.989628,-32.197952,0.913454,-0.140533,0.288908
6392965430,-29.170822,10.174149,-38.000813,0.933917,-0.152673,0.256427
6392985391,-23.598358,11.261560,-44.290825,0.942003,-0.237389,0.193946
6393005353,-4.134036,6.902177,-48.265144,0.875571,-0.227721,0.180185
6393025314,11.806459,1.857765,-54.337177,0.890083,-0.125119,0.213647
6393045275,6.851937,6.504555,-58.314575,0.949496,-0.059912,0.220499
6393065234,-28.239527,14.432093,-48.219452,0.985215,-0.061196,0.251316
6393085196,-57.336349,11.679945,-37.352379,0.965906,-0.212082,0.281845
6393105157,-59.857994,8.857753,-34.191711,0.912146,-0.360180,0.261066
6393125118,-55.583736,8.267632,-25.919426,0.929872,-0.376867,0.270042
6393145079,-45.373531,7.078243,-15.038640,0.929744,-0.445591,0.288467
6393165041,-29.339737,5.301012,-3.598881,0.916374,-0.503409,0.309749
6393185002,1.930362,5.722060,5.808444,0.926043,-0.488310,0.317237
6393204963,27.099304,9.260324,12.701621,0.957680,-0.360574,0.309897
6393224924,32.346691,12.296504,14.368917,0.957725,-0.211838,0.286517
6393244886,20.540886,12.393704,13.699836,0.933588,-0.099556,0.289426
6393264847,11.295949,9.139619,10.782582,0.929257,-0.081812,0.275123
6393284808,5.692252,8.040846,3.874521,0.915819,-0.056528,0.254065
6393304769,1.671365,7.310265,-2.732873,0.916002,-0.029186,0.252892
6393324730,-1.207521,8.949386,-9.036458,0.930592,-0.070734,0.250380
6393364653,-2.274442,8.005439,-11.186377,0.962865,-0.180608,0.268798
6393384614,-1.008550,8.387844,-8.116643,0.977092,-0.211624,0.277581
6393404576,-2.823893,6.920965,-6.792303,1.008946,-0.216831,0.292183
6393424538,0.995964,5.550858,-1.358792,1.021026,-0.276970,0.265980
6393444499,17.578611,4.143071,1.840128,0.950825,-0.262489,0.224297
6393464460,24.136198,0.609656,2.337622,0.929958,-0.175471,0.229956
6393484421,14.950150,-3.574924,5.705986,0.937705,-0.129973,0.282259
6393504382,-1.800027,-2.243585,5.808021,0.979138,-0.127814,0.316313
6393524344,-13.353870,0.851653,2.615608,0.962660,-0.141760,0.308225
6393544305,-11.456668,2.071909,-0.195617,0.931897,-0.154424,0.278273
6393564266,-2.256679,1.535966,-2.486773,0.916937,-0.184214,0.263189
6393584227,7.945605,-2.610117,-5.869686,0.936356,-0.167481,0.271193
6393604189,9.939803,-1.232707,-9.788879,0.956581,-0.106881,0.277219
6393624151,0.675498,-3.052576,-10.515001,0.924315,-0.087444,0.284322
6393644109,-10.108171,-6.179937,-9.604877,0.909007,-0.109535,0.310720
6393664071,-19.579161,-4.873231,-13.948914,0.915523,-0.107837,0.319554
6393684032,-28.984282,-3.333633,-15.841701,0.894245,-0.175094,0.323817
6393703993,-20.128414,-3.827094,-12.707628,0.862729,-0.291082,0.314029
6393723954,-0.058262,-2.142961,-20.673416,0.838638,-0.234552,0.277602
6393743916,21.263399,-5.767074,-19.140375,0.972353,-0.145267,0.205652
6393763877,32.358170,-3.988827,-21.064436,1.005898,-0.078595,0.213644
6393783838,22.561371,2.095209,-21.447426,0.874183,-0.026509,0.288324
6393803799,-3.325154,-0.249537,-18.410219,0.852494,-0.018582,0.299088
6393823760,-25.783489,-0.991073,-18.187342,0.903312,-0.075399,0.229011
6393843722,-36.162949,0.814230,-18.087730,0.960773,-0.144470,0.196047
6393863683,-25.926945,4.640794,-20.085995,0.902367,-0.254151,0.213163
6393883644,-1.434661,1.488410,-20.956614,0.847456,-0.296170,0.266025
6393903605,14.358375,-7.565085,-16.610462,1.031463,-0.241109,0.326322
6393923567,18.870615,-5.283813,-9.578757,1.266192,-0.205054,0.316195
6393943528,18.373775,8.394318,-11.908021,1.181967,-0.172351,0.273683
6393963489,18.799442,7.414580,-14.356530,0.959869,-0.154821,0.233535
6393983451,18.448833,-8.581595,-5.120237,0.876212,-0.189250,0.206885
6394003413,15.674086,-17.136414,-1.625493,0.979155,-0.130523,0.242870
6394023374,1.486314,-9.008095,-13.425344,0.942622,-0.052067,0.298466
6394043335,-13.568004,-10.228918,-20.402401,0.865679,-0.063608,0.318826
6394063296,-13.010721,-12.735524,-18.028915,0.936816,-0.140477,0.296894
6394083258,4.876647,-4.524991,-13.709239,0.993638,-0.189571,0.280619
6394103219,25.092068,2.290781,-7.224389,0.950656,-0.156921,0.282392
6394123180,28.889315,-0.954396,-0.171607,0.923747,-0.105645,0.270040
6394143141,22.615393,-2.088023,4.719704,0.967822,-0.062882,0.266688
6394163103,5.874721,3.555461,4.913987,0.988481,-0.058526,0.280836
6394183064,-7.546872,8.253929,5.598785,0.942529,-0.082995,0.303160
6394203023,-16.566505,6.173716,4.380549,0.919589,-0.126341,0.300262
6394222985,-11.681074,3.613261,2.002267,0.933443,-0.170452,0.302240
6394242946,4.837800,2.056305,-0.976582,0.951050,-0.166849,0.275095
6394262907,19.743591,1.833525,-1.101547,0.942408,-0.103634,0.271624
6394282869,24.633974,-1.279402,1.621097,0.925201,-0.060259,0.279158
6394302830,19.941608,-3.506202,2.443753,0.926643,-0.033293,0.284206
6394322791,2.339457,-3.010296,1.747333,0.939484,-0.037964,0.303368
6394342752,-14.572737,-2.115095,0.278476,0.947486,-0.080743,0.323885
6394362713,-23.146925,-1.086768,2.601322,0.954497,-0.176609,0.325038
6394382675,-14.927349,-0.505234,6.065619,0.939505,-0.227370,0.305560
6394402636,5.157984,-2.408709,6.597793,0.942610,-0.185551,0.295644
6394422597,19.741367,-2.579251,5.469881,0.961397,-0.116119,0.289114
6394442558,22.046524,0.221448,6.384042,0.952535,-0.092437,0.298581
6394462519,18.743172,1.147569,4.094919,0.937394,-0.105089,0.292956
6394482481,13.083951,1.435720,2.261917,0.952526,-0.113772,0.281719
6394502442,8.575267,1.357176,1.427479,0.951421,-0.109889,0.279177
6394522403,8.657336,1.296689,1.731417,0.968868,-0.102064,0.285834
6394542366,3.491465,1.925797,3.815672,0.979430,-0.096297,0.283657
6394562327,0.442935,5.454175,6.373135,0.951370,-0.100061,0.254975
6394582288,0.896817,2.687476,7.828346,0.930180,-0.101732,0.268728
