Timestamp (us),Gyroscope X (deg/s),Gyroscope Y (deg/s),Gyroscope Z (deg/s),Accelerometer X (g),Accelerometer Y (g),Accelerometer Z (g)
8134035337,-0.361864,-0.222554,-0.288022,0.964707,0.070029,0.234825
8134055338,-0.423587,-0.360196,-0.408706,0.964672,0.075603,0.230452
8134075338,-0.637329,-0.404912,-0.316334,0.963973,0.074887,0.236568
8134095339,-0.004847,-0.565756,-0.090514,0.968323,0.070750,0.239776
8134115339,-0.652736,-0.464691,-0.065215,0.966523,0.071036,0.238021
8134135340,-1.109051,-0.224750,0.422139,0.966927,0.069252,0.228292
8134155340,-0.291937,-0.057857,0.729223,0.972256,0.069683,0.234542
8134175341,0.135205,-0.044566,0.567626,0.972044,0.068421,0.235015
8134195341,1.027149,-0.058921,-0.333105,0.963311,0.072589,0.233769
8134215341,1.363337,0.113289,-0.806580,0.961187,0.081692,0.237894
8134235343,0.303904,0.262550,-0.506044,0.960548,0.086350,0.238455
8134255343,-1.192785,-0.106042,-0.330351,0.960314,0.078323,0.236204
8134275344,-1.003804,-0.480015,-0.291522,0.960889,0.069540,0.233152
8134295344,0.392011,-0.535739,0.044325,0.969141,0.072544,0.232916
8134315345,0.645487,-0.199149,0.429207,0.969430,0.076565,0.241158
8134335345,-0.140197,-0.204441,0.455618,0.972457,0.079000,0.244343
8134355350,-0.659375,-0.280430,0.199957,0.975796,0.080600,0.240339
8134375344,-0.535774,0.047407,0.266300,0.970927,0.076265,0.235157
8134395345,-0.168717,0.237344,0.339756,0.964328,0.073197,0.233313
8134415345,0.234590,0.015617,0.452909,0.963206,0.075937,0.232530
8134435345,0.111993,-0.127839,0.682099,0.962882,0.078229,0.233404
8134455346,-0.398969,-0.118196,0.805979,0.961927,0.079295,0.230276
8134475346,-0.841358,-0.080209,0.511453,0.959844,0.076380,0.233128
8134495347,-0.848365,0.100776,0.077503,0.965743,0.074769,0.230932
8134515347,-0.550653,0.189685,-0.296628,0.966433,0.072939,0.231149
8134535347,-0.588557,0.250363,-0.387922,0.966680,0.072228,0.232622
8134555348,-0.558859,0.074908,-0.387262,0.961753,0.075115,0.230157
8134575350,-1.055317,-0.068379,-0.346348,0.963881,0.074041,0.234482
8134595350,-0.590543,-0.205909,-0.127467,0.968176,0.071159,0.236394
8134615351,-0.415457,-0.297261,0.008936,0.963939,0.070500,0.241195
8134635351,-0.552822,-0.326694,0.154084,0.965271,0.072343,0.238535
8134655351,-1.100438,-0.040567,0.679642,0.967434,0.071957,0.240205
8134675352,-1.625836,0.122609,1.015673,0.970463,0.070425,0.232962
8134695351,-0.244664,0.298985,0.431015,0.968090,0.070585,0.234212
8134715351,0.870371,0.637055,0.021625,0.964937,0.076744,0.234360
8134755352,-1.167956,0.247479,0.275880,0.963598,0.077763,0.233692
8134775352,-1.421980,-0.240182,0.195659,0.963455,0.069826,0.231532
8134795353,-0.475837,-0.181720,0.221469,0.967994,0.065013,0.232199
8134815353,0.586173,0.189030,0.245335,0.967588,0.068326,0.234424
8134835354,0.609429,0.272694,0.214452,0.968202,0.073564,0.239276
8134855354,0.311778,0.272041,-0.103358,0.969895,0.076818,0.240520
8134875354,-0.526990,0.335451,-0.092214,0.967269,0.076097,0.237038
8134895356,-0.435664,0.282175,-0.016397,0.966759,0.071401,0.232088
8134915357,0.113508,0.280370,-0.072093,0.966106,0.071350,0.233907
8134935357,0.089760,0.089995,-0.033124,0.961123,0.073211,0.235926
8134955357,-0.376748,-0.175338,0.015805,0.963033,0.073359,0.236399
8134975358,-0.460358,-0.121300,0.107134,0.963609,0.071009,0.238174
8134995358,-0.207661,0.113320,-0.115464,0.967073,0.070637,0.236390
8135015358,-0.085069,0.264044,-0.420681,0.968481,0.073356,0.237913
8135035357,-0.207055,0.286836,-0.511419,0.966125,0.072824,0.235344
8135055358,-0.085663,0.149103,-0.541746,0.965661,0.076264,0.233644
8135075358,-1.009674,-0.069613,-0.582130,0.962981,0.077629,0.242445
8135095358,-1.208374,-0.189372,-0.223511,0.965411,0.070438,0.239022
8135115359,-0.689753,-0.191447,-0.355059,0.966157,0.070198,0.236114
8135135359,-0.361766,-0.207056,-0.234897,0.963219,0.072783,0.234494
8135155360,-0.879889,-0.134756,0.238300,0.967514,0.075011,0.237787
8135175360,-1.764851,-0.177357,0.379324,0.973874,0.072343,0.232237
8135195361,-0.635642,-0.002476,-0.675335,0.969865,0.072252,0.232654
8135215361,0.448508,0.266559,-1.190663,0.964134,0.074074,0.237129
8135235363,0.272912,0.177946,-0.680303,0.962243,0.074738,0.236279
8135255363,-0.108347,0.150949,-0.161684,0.960818,0.072523,0.238214
8135275363,-0.209538,-0.312738,0.084058,0.958921,0.071689,0.234285
8135295364,0.217890,-0.267665,0.195892,0.962792,0.067532,0.229006
8135315364,1.112683,0.262361,-0.061376,0.966787,0.070875,0.227171
8135335364,1.478812,0.275897,-0.207498,0.966327,0.078082,0.234627
8135355382,1.179174,-0.173723,-0.333279,0.968708,0.079605,0.236543
8135375364,0.690470,-0.293980,-0.254509,0.971639,0.076563,0.237987
8135395364,0.607560,-0.094823,-0.110645,0.971689,0.073620,0.235661
8135415365,0.914120,0.224230,-0.181886,0.966518,0.075779,0.239134
8135435365,0.541140,0.407676,-0.310202,0.962614,0.076886,0.240810
8135455365,-0.245316,0.212763,-0.070147,0.961534,0.076699,0.238887
8135475366,-0.299448,0.030918,0.143706,0.963176,0.074486,0.232735
8135495366,0.081163,-0.137905,0.142733,0.965230,0.073852,0.235958
8135515367,0.248466,-0.230625,-0.017197,0.969144,0.079537,0.238829
8135535367,-0.093963,-0.046909,-0.069661,0.970260,0.080599,0.238459
8135575369,-1.343484,0.261800,-0.027356,0.967292,0.080505,0.233869
8135595370,-2.441318,0.394211,-0.091336,0.969855,0.072648,0.234928
8135615370,-2.103523,0.909675,-0.535977,0.970254,0.064803,0.233593
8135635371,-1.760904,0.859215,-1.335243,0.958750,0.062486,0.232510
8135655371,-1.212321,0.727897,-1.367551,0.952991,0.064944,0.230589
8135675371,-1.266758,0.411764,-0.522343,0.962079,0.066482,0.224455
8135695370,0.113442,0.301713,-0.398960,0.968719,0.071924,0.227083
8135715370,1.554577,0.234566,-0.846000,0.969673,0.073786,0.237919
8135735371,1.013808,0.396753,-0.730275,0.971603,0.081083,0.242478
8135755371,0.206293,0.569030,-0.248610,0.970417,0.085285,0.242128
8135775372,-0.503791,0.382060,0.105051,0.965760,0.081059,0.244883
8135795372,-1.374571,0.074011,0.558786,0.964370,0.073195,0.239608
8135815373,-1.022050,0.416592,0.654414,0.963239,0.069520,0.235183
8135835373,-0.128556,0.642664,0.618910,0.960666,0.067452,0.233000
8135855374,1.005407,0.112129,0.357758,0.961502,0.068911,0.234537
8135875374,1.049849,-0.170258,0.328438,0.963881,0.075550,0.238290
8135895376,0.759425,-0.306076,0.459569,0.966259,0.076042,0.238032
8135915376,0.957680,-0.314547,0.397907,0.967604,0.075484,0.239149
8135935376,0.988446,-0.253885,0.344296,0.964356,0.077957,0.241997
8135955377,0.676179,-0.153772,0.368067,0.962756,0.078203,0.237781
8135975377,0.507868,-0.260078,0.361718,0.960526,0.079582,0.235549
8135995378,0.492540,-0.253372,0.156576,0.960896,0.079846,0.235457
8136015378,0.293234,-0.444318,-0.031632,0.966023,0.078619,0.239906
8136035377,-0.164714,-0.467463,-0.363806,0.969284,0.078009,0.240222
8136055377,-0.622460,-0.474183,-0.445277,0.968551,0.073301,0.240469
8136075378,-0.370192,-0.367651,-0.340522,0.963024,0.072717,0.235953
8136095378,-0.270831,-0.322291,-0.363979,0.965238,0.075536,0.239307
8136115379,-0.049803,-0.404902,0.038151,0.967671,0.069377,0.238149
8136135379,0.507071,-0.384139,-0.078477,0.969202,0.068336,0.237542
8136155379,0.529674,-0.423253,-0.275986,0.959472,0.071574,0.233381
8136175380,0.301164,-0.419720,0.340588,0.966544,0.075635,0.235487
8136195380,-0.423645,-0.492277,0.693797,0.969332,0.072711,0.232185
8136215381,0.491773,-0.406400,0.043283,0.969599,0.070547,0.227478
8136235382,2.246953,-0.163101,-0.680175,0.964610,0.073364,0.232675
8136255383,2.118544,0.089736,-0.498351,0.964535,0.080049,0.236038
8136275383,1.195445,0.018026,-0.083445,0.962764,0.082356,0.235802
8136295384,0.071672,-0.534582,0.098978,0.961741,0.078252,0.239686
8136315384,-0.165066,-0.616787,0.313214,0.967523,0.074429,0.235242
8136335385,0.555431,0.128581,0.344540,0.970604,0.072593,0.232200
8136355396,1.296247,0.339372,0.211012,0.972556,0.076058,0.235815
8136375384,1.249508,0.162709,-0.091947,0.970930,0.077864,0.238872
8136395384,0.508836,-0.010243,-0.019386,0.969108,0.077059,0.237133
8136415385,0.279868,-0.076579,0.331530,0.969924,0.076008,0.234786
8136435385,0.479938,0.303917,0.290895,0.965953,0.077920,0.235446
8136455385,0.113892,0.320345,0.322890,0.961347,0.075014,0.235171
8136475386,-0.321190,0.260437,0.294752,0.959795,0.073171,0.231170
8136495386,-0.382664,0.154255,0.379106,0.960249,0.071275,0.226369
8136515387,0.524181,-0.031415,0.353008,0.962858,0.070331,0.227778
8136535387,0.844303,-0.071052,0.222536,0.967152,0.073508,0.233793
8136555387,0.615634,-0.025083,0.132181,0.973783,0.078118,0.235431
8136575389,-0.200141,0.061172,0.150715,0.972951,0.083085,0.238265
8136595389,-1.015846,0.177284,0.032325,0.969432,0.078465,0.234196
8136615390,-1.465186,0.338286,-0.049945,0.964866,0.073767,0.235864
8136635400,-0.138350,0.243280,-0.002380,0.967480,0.068549,0.237156
8136655391,0.281056,0.211771,0.033844,0.965084,0.071130,0.236089
8136675391,-0.475574,-0.164762,0.586159,0.958409,0.072864,0.233076
8136695390,-0.818122,-0.055191,0.982393,0.965874,0.070695,0.238658
8136715390,-0.467361,-0.042610,0.623564,0.969435,0.070028,0.235420
8136735391,0.509198,0.117240,-0.475925,0.967807,0.067874,0.228596
8136755391,1.731842,0.696220,-1.479648,0.963151,0.076437,0.229329
8136775392,1.083304,0.616073,-1.073557,0.957931,0.081161,0.234039
8136815392,-0.356036,-0.618705,-0.210259,0.962415,0.068885,0.234090
8136835393,0.674152,-0.551930,0.012712,0.967715,0.068162,0.229502
8136855393,1.989117,0.077667,0.102643,0.970228,0.072247,0.232840
8136875394,2.042737,0.145319,-0.072694,0.970741,0.076938,0.237425
8136895395,1.141070,-0.209851,0.069823,0.970729,0.082543,0.241626
8136915396,0.224939,-0.382485,0.105188,0.968786,0.079063,0.236917
8136935396,0.302718,-0.062321,0.133779,0.969942,0.076445,0.233594
8136955397,0.387766,0.203452,-0.050199,0.965701,0.079491,0.236879
8136975397,-0.954655,0.310189,-0.857679,0.966968,0.089039,0.238934
8136995397,-2.723156,0.793175,-2.987204,0.966213,0.099443,0.234297
8137015398,-1.718437,0.661529,-6.068928,0.961301,0.099187,0.221846
8137035397,2.039528,3.446946,-6.577478,0.971091,0.077711,0.241157
8137055398,4.352094,8.246839,-2.756937,0.968149,0.083350,0.294129
8137075398,1.294233,9.983266,-1.778125,0.947976,0.144220,0.318805
8137095398,-2.987882,14.610116,-4.667287,0.944985,0.164256,0.310622
8137115398,-4.683077,14.189282,-4.368860,0.938594,0.139871,0.274172
8137135399,-0.656906,14.071312,-5.974978,0.919456,0.176311,0.232189
8137155399,4.563748,17.472013,-15.862981,0.915341,0.240255,0.247676
8137175400,5.796304,21.267750,-26.828861,0.872436,0.253853,0.276772
8137195400,0.710090,19.346815,-36.265686,0.872932,0.249561,0.295177
8137215400,-11.395243,15.068634,-42.019688,0.915287,0.189091,0.274184
8137235402,-24.496408,12.265891,-39.424160,0.962607,0.134283,0.249597
8137255403,-28.819563,8.218347,-28.724201,1.033805,0.071907,0.258844
8137275403,-31.784235,4.853297,-22.889513,1.113112,-0.129030,0.259628
8137295403,-18.407936,-1.229756,-3.126769,1.128887,-0.267562,0.213844
8137315404,7.992073,-8.228410,30.821789,1.045856,-0.275262,0.187951
8137335404,36.455303,-7.956695,50.547607,0.979486,-0.118657,0.233860
8137355405,57.929356,4.857406,41.538204,0.964324,0.148381,0.379747
8137375404,41.938389,8.122160,20.835060,1.014737,0.302490,0.449583
8137395404,1.840724,2.144471,19.624241,1.067331,0.119645,0.341090
8137415404,-11.375707,-6.458976,43.699520,0.999070,-0.176897,0.163438
8137435405,8.667066,-6.830478,70.807678,0.965979,-0.307292,0.150057
8137455406,30.332798,7.524065,79.846436,1.028124,-0.251306,0.247607
8137475406,49.619778,21.388668,80.539001,1.033175,-0.123485,0.325417
8137495406,57.466934,22.587729,80.778900,0.980633,-0.010289,0.318680
8137515406,49.025997,17.052441,77.438049,0.958719,0.055735,0.230789
8137535407,35.036926,11.303732,70.787392,0.944337,0.091287,0.171901
8137555407,19.599001,-2.379047,62.393482,0.909453,0.091514,0.199641
8137575409,3.518856,-15.120768,57.547142,0.940358,0.041663,0.192235
8137595409,1.967480,-13.247221,49.642422,0.955252,-0.046698,0.201588
8137615410,22.710747,-1.545734,38.703568,0.929096,-0.000526,0.232085
8137635410,47.003712,-0.334171,23.821594,0.767882,0.176044,0.204944
8137655411,50.656956,-8.599826,8.081355,0.720797,0.293853,0.268154
8137675411,16.882256,-11.534697,-7.132116,0.827272,0.379923,0.475421
8137695411,-18.668011,-11.866827,-27.729605,0.937381,0.285327,0.349003
8137715410,-28.206125,-9.696983,-39.026482,1.005129,0.113836,0.274968
8137735411,-41.212189,-13.530238,-34.990437,1.044029,0.139637,0.439427
8137755411,-47.538162,-3.807467,-38.584904,1.070538,0.156155,0.489518
8137775412,-24.057737,19.783501,-55.555634,0.942567,0.166610,0.496917
8137795412,-4.864910,31.040268,-66.325806,0.842072,0.349258,0.412737
8137815412,-20.701763,26.261898,-70.411438,0.863707,0.555839,0.365085
8137835413,-58.051319,19.766779,-77.879112,0.850816,0.659542,0.325415
8137855413,-102.696999,13.337295,-93.612244,0.864936,0.574671,0.291652
8137875413,-132.944122,11.600825,-112.943306,0.997026,0.362739,0.205842
8137895414,-133.108200,16.463213,-120.047173,1.136396,0.033184,0.201363
8137915416,-100.860092,21.583275,-96.667351,1.191469,-0.299624,0.308464
8137935416,-66.856865,11.176275,-50.024384,1.094316,-0.676235,0.464236
8137955416,-47.699928,-5.980034,8.602356,1.172477,-0.815938,0.524271
8137975417,-34.821495,1.995666,76.498634,1.326131,-0.922739,0.568688
8137995417,-26.681982,18.076351,141.476868,1.409772,-0.885082,0.605165
8138015418,-35.432747,29.209185,172.091690,1.300175,-0.521483,0.625110
8138035417,-72.520088,23.055502,182.312515,1.192264,-0.280207,0.523080
8138055417,-102.877876,16.100367,188.258224,1.017882,-0.202064,0.414586
8138075417,-100.267563,0.311258,185.414932,0.933452,-0.143943,0.329836
8138095418,-61.419388,-4.250378,180.652939,0.951069,-0.044269,0.219022
8138135419,29.599270,21.254475,132.618134,0.485181,0.411004,0.177600
8138155419,24.641256,27.591263,74.439133,0.346404,0.743350,0.206488
8138175419,-30.039330,24.596390,-11.648769,0.310927,1.162246,0.407851
8138195419,-128.405106,-13.271406,-110.130722,0.367675,1.243369,0.341865
8138215420,-227.866791,-42.358238,-193.646378,0.809450,0.777119,0.285611
8138235422,-311.179932,-50.978767,-192.474426,1.665819,-0.409420,-0.016555
8138255422,-235.837402,8.349723,-129.709045,1.891821,-1.155762,0.000745
8138275422,-138.835602,47.971497,-105.185562,1.135715,-0.699756,0.126965
8138295423,-68.191048,52.735771,-113.531952,0.964356,-0.085627,0.124652
8138315423,-11.488928,55.439892,-130.536957,0.981990,0.161017,0.132716
8138335424,0.113979,59.755417,-138.262054,1.055587,0.320005,0.171332
8138355424,-65.431732,43.324150,-136.786240,1.061787,0.404016,0.187799
8138375423,-146.766571,33.599163,-150.444611,1.073593,0.267959,0.143853
8138395423,-192.168762,27.276505,-169.868042,1.076810,0.069711,0.061096
8138415424,-194.069122,23.803368,-170.185593,1.327083,-0.107494,-0.071946
8138435424,-163.809479,26.906464,-153.725708,1.355858,-0.152338,-0.050261
8138455425,-119.598831,14.651824,-117.737274,1.231487,-0.243208,0.142807
8138475426,-85.898819,0.259933,-60.884159,1.367931,-0.720801,0.397986
8138495426,-56.239620,0.562035,31.098145,1.413661,-1.106710,0.388777
8138515426,-26.594563,3.595430,115.271194,1.337757,-1.058961,0.443104
8138535427,-48.021236,15.641939,155.894913,1.173768,-0.674167,0.618430
8138555427,-102.869331,18.167356,155.868042,1.067667,-0.328337,0.507149
8138575428,-159.344055,7.205785,155.202988,0.932107,-0.234622,0.350097
8138595429,-176.959763,-16.272314,168.863510,0.812271,-0.352823,0.209139
8138615429,-121.131760,-26.145525,183.061569,0.855280,-0.462617,0.140931
8138635430,-18.820740,-1.779240,181.936615,0.966296,-0.353142,0.154596
8138655430,65.934563,27.004013,162.603027,0.919024,-0.073311,0.181290
8138675431,84.926605,53.563038,127.089378,0.695565,0.433875,0.270674
8138695431,34.471195,69.628326,60.942829,0.421036,0.890941,0.396709
8138715430,-69.013962,57.668770,-36.029724,0.343754,1.251416,0.430437
8138735430,-186.750427,10.820586,-134.352081,0.361513,1.309163,0.159636
8138755430,-299.803894,-15.892987,-222.360825,0.966370,0.713560,0.129451
8138775431,-368.356598,5.452614,-223.725113,1.951433,-0.510203,-0.143848
8138795431,-238.067993,70.917587,-167.394012,1.788273,-1.071928,-0.075106
8138815432,-110.006020,94.227753,-160.409348,1.059597,-0.390107,-0.047857
8138835432,-76.664391,80.016533,-180.711456,1.005847,0.116165,-0.018596
8138855432,-57.627956,69.257965,-208.274429,0.946532,0.187614,-0.011443
8138875433,-73.784500,51.304413,-210.763794,0.986899,0.262147,0.079400
8138895433,-131.283188,43.011238,-194.223770,1.036382,0.611201,0.106279
8138915435,-197.359024,63.401955,-191.225449,1.152518,0.755673,-0.025120
8138935435,-239.521500,82.853195,-210.012955,1.246809,0.445166,-0.150114
8138955436,-253.907166,80.095474,-244.124161,1.743110,-0.074137,-0.332707
8138975436,-214.255798,67.551239,-246.619415,1.786904,-0.292925,-0.247083
8138995436,-140.369263,-4.539752,-167.498245,1.554313,-0.663345,0.102525
8139015437,-102.034554,-70.801750,-32.499962,1.732774,-1.521360,0.059400
8139035437,-55.132137,-27.795559,98.376953,1.506131,-1.520215,0.521484
8139055436,-34.827221,-9.201483,122.874969,1.200630,-0.764330,0.767401
8139075437,-64.972031,-20.165276,134.271393,1.277958,-0.126776,0.559714
8139095437,-138.920212,-22.386473,147.986481,1.065605,0.025509,0.424158
8139115437,-200.375412,-39.140129,156.337631,0.804251,-0.016318,0.283976
8139135438,-188.764374,-56.210026,180.079514,0.727346,-0.205382,0.184309
8139175439,20.261318,21.892477,199.676437,0.834479,-0.361621,0.313302
8139195440,72.517624,45.551598,173.834717,0.817324,-0.052073,0.358542
8139215440,62.091011,63.095192,134.742218,0.843584,0.309911,0.339836
8139235440,18.439196,73.709770,87.557236,0.733604,0.508080,0.436843
8139255442,-53.988636,63.450291,28.659769,0.727779,0.589091,0.505321
8139275449,-122.943489,53.119053,-40.208366,0.934707,0.485399,0.344078
8139295443,-165.415634,53.075562,-115.612358,0.947055,0.544747,0.221607
8139335443,-226.715775,55.798046,-251.501984,0.826191,1.027233,0.242622
8139355444,-322.609741,16.968954,-249.406067,1.482651,0.474777,-0.291587
8139375446,-326.104004,54.196487,-215.202255,2.149028,-0.367314,-0.512934
8139395443,-254.301941,104.647530,-194.017242,1.222977,-0.537730,-0.199012
8139415443,-199.180023,80.052429,-204.226654,0.861400,-0.076349,-0.205363
8139435444,-134.797485,61.998756,-228.574402,1.012524,0.258100,-0.273470
8139455444,-100.968948,62.218803,-232.917175,1.122647,0.389531,-0.194293
8139475445,-127.071312,54.300819,-219.987534,1.097881,0.655972,-0.136153
8139495445,-174.657654,57.179501,-223.256149,1.235287,0.867765,-0.219845
8139515446,-228.112686,55.814796,-253.646271,1.273543,0.694292,-0.228288
8139535446,-273.094543,33.943287,-279.650574,1.760836,0.305434,-0.424651
8139555446,-252.922775,11.257303,-245.146500,1.796015,-0.014471,-0.404605
8139575447,-212.033371,-60.739956,-149.551651,1.612192,-0.685947,-0.025343
8139595449,-169.131821,-86.903358,-25.068295,1.778569,-1.788556,-0.071217
8139615449,-38.115963,-18.627846,86.341919,1.508861,-1.535279,0.482885
8139635449,37.547794,4.469831,106.037430,1.114697,-0.587282,0.599261
8139655450,-3.025825,-5.104989,101.683769,1.152375,0.025204,0.417009
8139675450,-110.388527,1.492991,101.247559,1.040356,0.268197,0.320931
8139695450,-199.142975,-14.367274,103.259933,0.864432,0.303656,0.206783
8139715450,-259.369781,-47.567989,112.348801,0.778641,0.225632,0.039736
8139735450,-252.004074,-63.967453,136.676971,0.882772,-0.160343,-0.001904
8139755450,-163.620163,-32.922207,167.753326,1.016979,-0.645756,0.205302
8139775451,-33.696854,-4.171124,170.266846,1.050672,-0.707576,0.356642
8139795451,60.733463,12.233213,149.463303,1.210134,-0.238588,0.370562
8139815452,69.237419,34.557209,123.249962,1.148686,0.195296,0.418281
8139835452,10.375800,48.978428,86.839851,0.864160,0.492724,0.516384
8139855452,-73.435028,59.335281,30.537899,0.665590,0.704441,0.596693
8139875452,-151.535553,56.962563,-50.734253,0.643701,1.020925,0.312761
8139895453,-204.804703,42.959698,-125.691277,0.658487,1.228593,-0.145543
8139915455,-252.232849,63.994823,-224.528534,0.450214,1.311043,-0.041271
8139935456,-315.132141,29.013746,-310.547882,1.116108,0.896185,-0.081099
8139955456,-328.453247,52.059093,-316.336578,2.431564,0.043753,-0.444618
8139975456,-237.736725,113.918419,-254.253281,1.527099,-0.599159,-0.172385
8139995457,-150.125351,111.183632,-219.060989,0.915478,0.040736,-0.233435
8140015457,-104.764069,80.398285,-226.727997,1.049576,0.652810,-0.307986
8140035457,-129.381317,59.049515,-246.125031,1.246558,0.770838,-0.280817
8140055456,-198.233612,50.319073,-232.076950,1.362059,0.573174,-0.118356
8140075457,-269.313263,43.855095,-223.850067,1.497573,0.244201,-0.221215
8140095457,-268.884308,20.587736,-217.849457,1.668553,-0.357844,-0.035654
8140115457,-240.601715,-40.459648,-128.098160,1.925384,-1.558379,-0.031498
8140135458,-162.404816,-19.074024,-0.404688,1.563187,-1.823029,0.256345
8140155458,-51.781670,-2.846166,38.684967,1.190168,-0.934477,0.436330
8140175459,-11.945900,-17.016018,53.872299,1.149391,-0.184983,0.386458
8140195459,-50.645386,-13.680689,62.256432,1.078886,0.363421,0.304896
8140215459,-103.050667,-30.782925,65.111511,0.782302,0.499488,0.181694
8140235460,-145.324677,-58.156147,59.372044,0.674624,0.483990,0.076314
8140255462,-151.495804,-58.925224,51.014050,0.611394,0.490315,0.056151
8140275462,-134.727585,-35.885571,24.645700,0.520281,0.463834,0.211530
8140295463,-116.450294,-15.058488,-14.114029,0.889564,0.255687,0.417572
8140315463,-96.123184,10.051450,-35.887615,1.263999,-0.072759,0.413253
8140335463,-85.676895,27.450867,-52.557964,1.076259,0.014621,0.314334
8140355464,-109.896011,10.796776,-81.963654,0.894759,0.180242,0.235255
8140375464,-144.700912,-19.872627,-99.957237,0.969414,0.170300,0.089392
8140395463,-155.156921,-33.595032,-91.047249,1.032251,0.149008,0.028689
8140415463,-149.745422,-31.112215,-77.039642,1.038184,0.141716,0.042453
8140435464,-132.493561,-31.238890,-80.704765,1.167068,0.138732,0.088401
8140455464,-134.713684,-25.233730,-76.238235,1.357037,-0.204577,0.233234
8140475465,-118.563675,2.593601,-41.344418,0.971767,-0.266379,0.374975
8140495465,-117.275345,5.835334,-27.321430,0.725360,0.226366,0.151841
8140515465,-130.856979,6.893656,-60.192104,0.774110,0.782162,-0.055972
8140535466,-129.103226,-8.983365,-96.939331,1.138621,0.599406,-0.115444
8140555466,-123.669144,1.424099,-80.801949,1.129262,-0.088613,0.230163
8140575467,-137.561157,6.881789,-58.611164,0.936877,-0.150750,0.316657
8140595468,-167.690491,-6.262846,-56.985275,1.196217,-0.280554,-0.003560
8140615469,-111.662621,4.915787,-21.673790,1.166625,-0.826796,-0.147888
8140635469,-50.043049,-7.995869,24.482010,1.007234,-0.834406,-0.032801
8140655470,-3.995783,-11.505194,37.062065,1.223620,-0.548545,0.119780
8140675470,14.687333,0.266675,54.538620,1.418815,-0.479545,0.364598
8140695471,3.994518,9.127394,97.027580,1.452917,-0.666589,0.456204
8140715471,-17.354841,7.513328,159.560959,1.192599,-0.747410,0.362423
8140735470,-22.326559,-4.593464,213.859802,1.094688,-0.593439,0.304524
8140755470,-17.846733,-7.324065,258.649780,1.093139,-0.454742,0.173306
8140775471,-5.431934,-18.375492,293.136566,1.146424,-0.344361,0.171143
8140795471,16.662182,-18.891363,305.318512,1.138345,-0.197621,0.242875
8140815471,41.792183,-25.849079,270.795074,0.777748,0.030258,0.278706
8140835472,49.459785,-29.864943,189.723755,0.604350,0.523943,0.146871
8140855472,36.254047,-27.944649,77.457184,0.313909,1.062530,-0.006352
8140875472,-61.214859,-54.973358,-21.260380,0.226634,0.308095,0.334383
8140895473,-160.758835,-68.425705,-3.281420,0.996792,-1.389436,-0.019635
8140915473,-25.774963,-6.032340,13.844776,1.221938,-1.033085,-0.245321
8140935475,54.475151,-12.240974,4.630322,0.883137,-0.420253,-0.122600
8140955476,69.237762,-45.891056,1.865676,0.741881,-0.175310,0.160094
8140975476,44.953388,-35.809517,5.479794,0.751976,-0.419962,0.414892
8140995476,30.133244,-13.660781,-15.177510,0.775433,-0.220841,0.579178
8141015477,24.552906,10.994110,-38.950905,0.906554,0.009709,0.532807
8141035477,-4.948350,24.898071,-54.237438,1.002885,-0.173683,0.508043
8141055477,-13.719093,31.781866,-69.586830,1.110526,-0.355074,0.461927
8141075477,-8.581956,40.601952,-83.199905,1.052639,-0.356730,0.285869
8141095477,4.389924,47.301586,-90.638084,0.827992,-0.192888,0.088440
8141115477,6.455272,29.602978,-97.756264,0.664835,-0.089790,0.120606
8141135477,-28.372143,-13.799332,-118.845749,0.698479,0.031076,0.478937
8141155478,-63.483643,-26.441061,-154.436127,1.010720,0.257316,0.590254
8141175478,-60.205696,17.707329,-186.667236,1.128763,0.440580,0.593279
8141195479,-46.081856,58.307175,-203.261948,0.964781,0.407171,0.601263
8141215479,-52.821903,66.774200,-214.729340,0.886274,0.526604,0.521742
8141235479,-82.414772,71.042740,-247.419861,1.225057,0.775596,0.324755
8141255480,-122.181351,104.755653,-290.160095,1.670658,1.007390,-0.007352
8141275482,-115.011269,137.151016,-301.168732,1.712804,0.449781,0.081363
8141295482,-192.034927,27.720257,-180.851700,1.833230,-4.086015,-0.166263
8141315483,-155.239426,-37.254936,66.686333,1.568350,-5.422034,-0.238525
8141335483,138.993073,14.201315,186.812424,1.491391,-3.377966,1.002770
8141355483,255.061630,-18.683071,282.882080,1.585175,-1.248065,0.052438
8141375484,287.120544,-48.294846,402.088196,3.900453,0.028370,-0.810970
8141395485,326.898102,86.604889,518.377991,3.512806,1.535655,-0.371550
8141415483,181.962738,21.099590,535.743958,2.157151,1.468690,0.728856
8141435484,19.884590,-33.682724,463.619415,1.215832,1.432232,0.896718
8141455484,-111.891571,10.632852,273.847107,0.477953,3.057663,0.167055
8141475484,-199.544281,-91.378731,91.793915,-0.760418,3.656491,-0.280960
8141495484,-311.382996,-154.500000,-141.537018,-0.750896,1.807319,0.168786
8141515485,-379.151398,-68.351517,-212.740158,0.788245,-1.320515,0.663429
8141535485,-163.190002,93.572823,-128.694565,1.805035,-1.630978,-0.372471
8141555486,58.088360,130.472000,-133.847076,0.727050,-0.556061,-0.709155
8141575486,135.982132,45.272701,-125.723358,0.337080,-0.382923,-0.387544
8141595487,83.752274,4.393316,-191.603668,0.480975,-0.371106,0.390980
8141615488,-7.200697,20.051376,-271.310577,0.873499,0.108283,0.625733
8141635489,-80.974747,35.736649,-304.010620,1.535585,0.782723,0.730219
8141655489,-72.026817,119.832466,-290.510712,1.871320,0.940247,0.629199
8141675490,-12.222139,187.061844,-300.192688,1.888361,0.735236,-0.013749
8141695490,-1.346517,118.182785,-320.265900,2.136805,-0.182363,0.310798
8141715490,-216.397232,-39.963905,-115.185692,1.736277,-5.118316,-0.161321
8141735502,-176.121429,-83.751045,168.223236,0.375817,-4.175829,-0.394097
8141755490,158.646332,-43.650318,227.664124,1.346364,-2.446739,0.614929
8141775490,327.545624,-61.436829,335.985718,4.189718,-1.325949,-0.140341
8141795491,455.060944,24.723026,465.622406,3.196216,0.783426,-0.337000
8141815491,282.293762,25.919210,433.394684,2.298041,1.608325,0.353320
8141835491,44.018955,29.978550,361.070343,1.013396,2.782339,0.860892
8141855492,-90.802834,-28.601179,191.399841,-0.581807,4.192779,-1.234048
8141875492,-286.162842,-153.651550,-69.044418,-1.500063,3.103600,0.090975
8141895492,-385.545166,-102.344185,-341.927979,0.078782,0.738990,0.820303
8141915493,-237.272064,83.350433,-367.711670,2.692238,-1.140936,0.488375
8141935493,-54.397678,173.922043,-332.404816,2.089617,-0.762082,-0.655329
8141955495,80.124496,132.652100,-231.373489,0.938151,-0.407691,-0.745066
8141975495,98.553307,76.824699,-247.406387,0.556819,-0.156228,-0.025681
8141995496,-21.746719,59.309155,-283.968597,1.004284,-0.495224,0.827421
8142015496,-129.756104,28.571577,-194.499680,2.012137,-1.704736,0.897655
8142035497,-120.321289,14.504244,-21.160952,1.832478,-2.707819,0.096603
8142055497,23.088200,29.698336,61.046646,1.026278,-2.255446,-0.162469
8142075496,160.600540,1.481594,87.273277,1.309771,-0.993335,0.165975
8142095496,228.025177,-21.309671,88.618858,2.572550,0.110728,-0.103989
8142115497,325.415283,1.511783,145.369522,1.630816,1.230152,-0.076214
8142135498,290.492432,-19.906933,126.019852,0.624516,1.680695,0.504567
8142155498,142.091431,-15.994326,43.756062,0.087267,2.060579,0.596943
8142175498,-34.101551,-24.465219,-37.397537,-0.283848,1.804137,0.523991
8142195498,-186.190186,-27.508329,-107.606018,0.258484,0.899108,0.421674
8142215499,-257.758728,-14.404350,-144.727234,0.875708,0.137084,0.291186
8142235499,-251.071091,-19.079279,-136.012558,1.245179,-0.367485,-0.307490
8142255499,-108.302948,9.193798,-84.631027,1.292196,-0.891551,-0.243413
8142275500,25.896952,24.851496,-42.424366,1.063155,-1.169033,0.227945
8142295502,80.084473,14.444670,-24.302721,1.166417,-0.763646,0.491298
8142315502,46.375698,4.161995,-22.643059,1.319363,0.056485,0.518913
8142335502,-2.878428,-0.433930,-27.367201,1.331807,0.525235,0.342903
8142355503,-17.865461,1.919693,-30.379543,1.042100,0.477224,0.402021
8142375503,-14.086141,6.798739,-38.071453,0.847899,0.321269,0.549139
8142395503,-27.029787,-3.056535,-51.524864,0.823115,0.325445,0.251550
8142415503,-17.935616,-3.835401,-56.069290,0.711731,0.137154,0.002293
8142435503,22.255058,1.797016,-48.755062,0.564553,-0.236769,0.208237
8142455503,45.514256,9.384909,-39.464924,0.793275,-0.237673,0.477544
8142475504,26.794638,5.347671,-18.934105,1.097902,0.003531,0.403567
8142495504,-4.821267,-2.861976,14.677007,0.956222,-0.086100,0.232031
8142515505,13.622267,13.360513,15.241157,0.704308,-0.165950,0.402756
8142535505,40.765602,8.642061,-10.471202,0.965447,0.264696,0.441731
8142555505,14.926124,-20.578337,-21.406935,1.393821,0.582616,0.321757
8142575506,-31.109394,-15.271178,3.074371,1.450156,-0.002640,0.329036
8142595506,-29.181890,-7.265462,15.507384,1.314413,-0.430191,0.355492
8142615507,-16.253090,-4.839086,7.344036,1.089468,-0.407114,0.345301
8142635508,-4.621844,-8.723843,10.287455,0.958969,-0.268954,0.144290
8142655509,-1.832403,-19.435347,28.561674,0.992677,-0.222837,0.037379
8142675509,12.430012,-11.018874,38.421104,1.233226,-0.406023,0.107197
8142695510,51.879452,5.057245,52.887943,1.225515,-0.476239,0.214010
8142715510,68.588707,-1.937687,80.193329,0.858820,-0.411797,0.190902
8142755509,68.981667,-21.113148,113.244377,0.781896,-0.269329,-0.042566
8142775510,108.251999,-1.712128,104.921745,0.770563,0.023337,0.063925
8142795510,114.293137,9.493926,77.075378,0.885807,0.260207,0.270515
8142815510,75.165848,1.150577,85.795593,1.031882,-0.027104,0.331221
8142835511,33.716461,-28.895330,136.633911,1.184888,-0.414787,0.121987
8142855512,27.629328,-28.455696,132.426895,1.536325,0.011871,0.251051
8142875512,-28.537724,-39.358261,90.860535,1.412495,-0.204116,0.252302
8142895512,-29.856064,-50.927425,109.142220,1.500168,-1.034269,0.300146
8142915513,9.193202,-23.256828,176.381302,1.387419,-1.157211,0.460894
8142935513,21.261772,-14.174574,216.341095,1.161754,-0.654458,0.148332
8142955513,8.512960,-16.448940,247.278152,0.915497,-0.406288,0.056296
8142975515,-7.496630,-15.348897,285.282166,0.900916,-0.632996,0.092835
8142995515,5.579696,-4.285385,278.416473,0.889907,-0.290732,0.076520
8143015516,38.392395,1.524344,219.915375,0.823019,0.323347,-0.053995
8143035516,69.765457,20.077812,169.197968,1.002641,0.109586,0.349076
8143055517,46.358536,43.716801,139.233551,0.985436,0.019706,0.617731
8143075517,-16.741169,43.354744,108.746117,0.703056,-0.166850,0.617572
8143095516,-49.221191,41.523666,79.280563,0.535682,-0.721846,0.464147
8143115517,-9.071257,58.972916,63.401436,0.619987,-1.014457,0.266261
8143135517,45.556793,76.537758,32.066986,0.429835,-0.712089,0.144220
8143155517,64.396736,69.380295,-55.340988,0.345659,-0.293928,0.311081
8143175518,54.411678,65.416336,-155.444260,0.394508,0.341248,0.212695
8143195518,12.685039,34.934422,-227.050781,0.147424,0.798336,-0.235294
8143215518,-21.697479,-11.170160,-294.060425,0.024037,0.748972,-0.176852
8143235519,-26.504574,-28.659542,-363.135956,0.282493,0.608523,-0.041561
8143255519,-11.107420,-19.004725,-413.740021,0.735867,0.516991,0.090927
8143275520,-29.513538,-23.371832,-434.108765,3.213825,-0.005818,0.058049
8143295520,27.910812,66.190453,-211.143845,2.299288,-2.180233,0.982558
8143315521,-105.905151,-51.206211,-98.388954,0.947101,-1.443975,1.184033
8143335522,-125.195610,-77.204987,-85.051338,1.732574,-1.243679,-0.617044
8143355522,-58.251522,-75.164047,35.865822,1.651127,-1.962156,0.104300
8143375523,-19.884029,-102.079185,221.730316,1.437985,-1.744151,0.202244
8143395523,134.057938,-44.825886,261.431641,1.361205,-0.895533,0.482606
8143415524,255.398834,-16.011345,200.772797,1.270550,0.547242,0.297160
8143435523,236.648788,6.351573,114.474205,1.123053,1.717625,-0.172005
8143455523,118.850784,-37.222282,60.714985,0.182111,1.312112,0.531955
8143475523,-25.467331,-48.522411,62.025787,0.206414,0.527088,0.780786
8143495524,-126.012085,-28.203327,99.014145,0.785212,-0.604418,0.565376
8143515524,-141.580780,-26.518806,128.585846,1.272164,-0.956588,-0.072497
8143535525,-100.817741,-21.765205,174.863251,1.133126,-0.994788,-0.159144
8143555525,13.883948,-31.680498,192.615036,1.000848,-0.970761,0.326525
8143575526,95.139557,-8.994021,171.865997,0.919906,-0.707566,0.322396
8143595526,64.487213,-18.504259,146.576157,1.257687,-0.351445,0.133149
8143615527,14.110895,5.919303,160.450348,1.197153,-0.451314,0.655924
8143635529,-34.996613,30.399055,178.938919,0.638034,-0.606658,0.679956
8143655529,-50.611950,41.209747,152.986694,0.299563,-0.548084,0.142487
8143675529,-33.600391,29.185650,99.859344,0.267861,-0.785318,0.142255
8143695529,-4.817981,30.006767,51.551960,0.351252,-0.502392,0.235711
8143715535,2.923596,28.993027,13.988071,0.409440,-0.302421,0.244079
8143735530,-17.776073,29.334049,-29.774683,0.332429,-0.256105,0.215683
8143755530,-43.916847,35.120419,-83.066841,0.201605,-0.060188,0.168849
8143775529,-53.850883,36.401917,-160.479706,0.353782,0.153989,0.133888
8143795530,-34.027905,54.082199,-251.492859,0.709661,0.558787,0.336488
8143815530,-36.208866,58.325996,-334.828827,0.783371,0.584189,0.435719
8143835531,-69.613922,63.281105,-400.638153,1.003769,0.517584,0.484752
8143855531,-87.748749,94.988022,-441.925415,1.505329,0.610591,0.180334
8143875531,-81.959709,93.252258,-411.850647,2.884228,-0.405090,-0.024331
8143895532,-193.957184,25.427994,-174.889847,2.164482,-1.910559,-0.185954
8143915532,-247.651871,-16.716198,-47.901787,1.816205,-2.824456,-0.423255
8143935533,-161.656219,21.664179,-10.145144,0.955396,-2.912138,0.299159
8143955533,14.737581,-20.023148,38.352585,0.827870,-1.453812,0.097596
8143975535,206.422104,-21.663979,120.446373,1.328702,-0.528678,-0.000603
8143995535,270.900970,23.906475,140.364685,1.225292,0.583241,0.890793
8144015536,84.802353,19.605297,132.723007,1.140881,0.929248,0.868482
8144035536,-125.617622,4.975893,137.291779,0.755320,0.331521,0.556623
8144055537,-171.877441,3.719976,155.564819,0.672028,-0.709495,0.144338
8144075537,-50.720272,-9.425367,192.452103,0.646195,-1.249282,0.024669
8144095538,73.951912,-1.561226,199.491913,0.759429,-0.617284,0.212488
8144155537,-68.539040,36.054817,197.441681,0.684197,-0.736092,0.438222
8144175537,-25.987097,39.246361,175.080780,0.576304,-0.999714,0.177297
8144195538,36.087856,45.223244,148.636017,0.594515,-0.725700,0.262936
8144215538,41.018776,55.035530,125.345444,0.506198,-0.427019,0.269133
8144235538,-20.145168,43.524147,118.442444,0.485855,-0.521633,0.323014
8144255539,-86.640053,38.895844,125.750961,0.468425,-0.731349,0.545346
8144275539,-75.824524,48.241131,113.720642,0.353855,-0.726748,0.303218
8144315542,24.282290,26.945370,34.038029,-0.039918,-0.425040,-0.090316
8144335542,37.798061,-1.199424,-26.386837,-0.407845,-0.191504,-0.241822
8144355543,49.463638,-43.194794,-134.236313,-0.403338,0.144566,-0.210544
8144375543,79.068207,-39.539604,-257.383362,0.035078,0.491423,0.410547
8144395543,97.177879,-0.039012,-346.671356,0.499191,0.505126,0.696229
8144415544,80.964630,34.173492,-397.211975,0.895267,0.357882,0.242930
8144435544,21.613941,-13.853970,-390.035706,2.294386,0.074368,-0.395206
8144455543,-48.722897,-83.408699,-279.269562,1.772729,-1.159341,-0.254255
8144475543,-121.427460,-204.790421,-121.141792,1.121372,-2.375481,0.236213
8144495544,-69.923569,-192.086761,80.616493,1.563642,-3.378999,-0.029606
8144515544,39.846184,-208.789093,243.242126,2.510517,-3.351401,-0.058809
8144535545,162.663818,-68.183739,252.014069,2.077965,-1.164181,1.117598
8144555545,334.246277,8.204969,155.215988,1.160511,0.604067,0.052087
8144575546,307.851715,-18.125999,121.084114,1.075332,0.623810,0.022375
8144595546,75.449707,-44.288334,189.693192,0.898616,0.132757,0.734249
8144615546,-69.671753,-18.870422,196.213959,0.405301,0.312254,0.432351
8144635547,-110.433968,-46.828762,183.676437,0.479858,-0.723858,0.024864
8144655548,-24.087961,-44.355644,172.578537,0.884007,-1.404665,0.108535
8144675549,92.636383,17.731544,165.494446,0.971624,-0.821060,0.294377
8144695549,135.971649,62.102989,152.814819,0.573227,-0.219139,0.284219
8144715550,85.592773,59.896412,104.084846,0.097910,-0.040631,0.155829
8144735550,36.166401,41.095646,24.542019,0.115196,0.159806,0.009075
8144755550,-3.372022,19.342611,-68.886169,0.129474,0.689695,0.010746
8144775551,-60.883442,-24.604713,-158.028015,-0.130102,0.633171,0.173921
8144795549,-89.519363,-39.077892,-253.476837,0.079314,0.343131,0.226732
8144815550,-85.266808,-14.965570,-331.787537,0.645322,0.267637,0.414382
8144835551,-117.755478,-6.386004,-383.482666,1.503804,0.246739,0.219477
8144855551,-139.515121,17.293758,-384.242981,2.414647,-0.415545,-0.427880
8144875551,-116.962379,14.711364,-290.497681,1.985944,-2.252597,-0.307646
8144895551,-50.629021,-54.645519,-133.651199,1.015271,-2.780752,0.091138
8144915552,16.892794,-60.792480,-16.985592,1.005281,-2.636261,0.434893
8144935553,97.718285,-56.001732,75.874931,1.775337,-2.098624,0.229969
8144955553,185.529770,-30.569704,218.568008,2.143533,-1.296274,-0.094353
8144975553,201.360031,2.342865,298.679077,1.926703,-0.375199,0.105952
8144995555,143.457397,-3.044132,289.180023,1.330669,0.098040,0.460192
8145015556,86.401352,-15.004812,249.081604,0.921071,0.150185,0.619548
8145035556,74.940193,16.063528,212.204758,0.870046,0.305671,0.273306
8145055557,50.632206,31.902779,191.589005,0.430147,0.309311,0.250760
8145075557,24.363972,22.022318,181.038727,0.304901,0.092009,0.532873
8145095558,18.840212,58.231133,147.987091,0.483236,-0.125818,0.580066
8145115558,5.417392,82.698494,108.785713,0.540656,0.133965,0.364574
8145135557,-62.170490,46.515045,69.255569,0.341578,0.378808,0.154392
8145155557,-110.443130,5.802456,13.676326,0.087328,0.102243,0.188828
8145175557,-133.354675,14.181396,-73.444176,0.180041,-0.140397,0.160287
8145195557,-168.038971,6.803868,-142.299866,0.432233,-0.264822,0.033841
8145215558,-188.660400,2.644972,-140.727737,0.966973,-1.032827,-0.338196
8145235559,-119.345917,1.800370,-27.225281,0.914870,-2.768655,-0.012678
8145255559,-39.197502,-5.608296,60.465302,0.311043,-2.474663,0.191724
8145275559,52.028439,-16.508867,93.063919,0.480977,-1.810319,-0.071267
8145295560,66.621078,-7.761392,89.150330,0.342557,-1.182437,0.066010
8145315560,43.770523,-30.174377,58.503017,0.550507,-0.364962,0.046696
8145335562,1.073624,-17.293772,23.576326,0.713948,0.035257,0.431870
8145355562,-80.621353,-19.536234,13.472582,0.559523,-0.746280,0.621564
8145375563,-74.627983,-4.177500,19.128279,0.366202,-1.216340,0.374534
8145395563,-3.462543,26.645187,2.165323,0.395483,-0.719265,0.131853
8145415564,27.189425,41.616585,6.669030,0.344869,-0.572736,0.138579
8145435564,17.558683,32.947868,17.345791,0.276251,-0.776708,0.254495
8145455564,3.378674,21.759926,14.900305,0.448509,-1.071064,0.173002
8145475563,13.744209,17.359676,-6.671214,0.686433,-0.824469,0.078385
8145495564,-5.436872,1.888834,-24.630281,0.655915,-0.971887,0.168823
8145515564,-14.675272,2.187366,-44.560486,0.492225,-1.011697,0.377858
8145535564,-26.414125,5.154186,-70.966003,0.690678,-1.041334,0.303325
8145555565,7.661418,13.024889,-79.440620,0.707478,-0.911572,0.222871
8145575565,45.888710,-6.101415,-62.012062,0.631527,-0.918071,0.329569
8145595566,65.567093,-9.362614,-35.086727,0.658481,-0.789895,0.261374
8145615566,82.724434,6.222001,-37.986702,0.660778,-0.349156,0.355328
8145635566,62.523888,18.326109,-62.411564,0.668245,0.036322,0.425920
8145655567,24.852156,31.851179,-106.490929,0.685953,0.037416,0.433288
8145675569,3.227426,44.649269,-148.010941,0.768628,0.073646,0.438489
8145695569,-20.600836,32.892582,-173.466156,0.777442,0.211862,0.365305
8145715569,-58.704334,32.861221,-162.341309,1.160610,0.128471,0.594199
8145735570,-139.588165,15.875409,-76.911484,1.394372,-1.089934,0.281054
8145755571,-181.345779,12.265358,133.151276,1.811169,-2.291572,0.121189
8145775571,-96.293579,66.722023,133.541824,0.793150,-0.661426,-0.173162
8145795571,-23.193909,22.194069,62.295181,0.158090,-0.097049,-0.235386
8145815570,-47.993130,22.559883,11.605247,-0.112437,-0.578187,0.026696
8145835570,-26.886360,39.260571,-35.492767,-0.049728,-0.690383,0.073930
8145855571,-28.640797,41.423988,-85.779366,0.366311,-0.434994,0.228807
8145875571,-57.091003,31.112392,-108.279083,0.763676,-0.230930,0.104523
8145895572,-55.633335,44.053703,-120.047379,0.808548,-0.333446,0.280865
8145915572,-59.201118,51.717175,-156.261475,1.000403,-0.307184,0.424599
8145935572,-76.784004,66.283989,-185.656601,1.289800,-0.113618,0.302491
8145955573,-82.982452,80.701279,-191.324753,1.375156,-0.082728,0.103659
8145975573,-105.183090,82.055466,-195.530701,1.130071,-0.017864,-0.027417
8145995574,-134.926025,68.606285,-211.467270,0.919308,0.006015,-0.068582
8146015575,-153.090317,58.948669,-233.059418,0.966599,-0.011100,-0.051059
8146035576,-156.501312,72.571747,-255.204437,1.066044,0.047134,0.030139
8146055576,-153.265793,93.335922,-277.366608,1.350172,0.103175,-0.085896
8146075577,-86.663933,106.041473,-267.834137,1.985690,-0.448761,-0.316208
8146095577,-15.725870,40.673668,-77.065323,1.830905,-2.204393,0.194846
8146115578,-68.831131,10.892345,137.073975,1.443794,-1.905997,0.449980
8146135578,-116.803299,51.555866,200.920380,1.405840,-0.916570,0.527072
8146155577,-216.277664,50.131958,231.147842,1.686551,-0.442493,0.352039
8146175577,-283.262177,12.915082,293.579895,1.590732,-0.312362,-0.079096
8146195578,-275.943970,-30.597767,352.251007,1.140309,-0.745523,-0.250196
8146215578,-132.636398,-37.104515,356.291901,0.794252,-1.045225,0.140420
8146235579,86.403137,35.371574,273.095154,0.617567,-0.662630,0.200445
8146255579,235.296097,169.975037,131.384323,0.514635,0.624046,-0.188328
8146275579,202.589310,174.739609,-15.307039,0.307731,2.055774,-0.130040
8146295580,4.516183,88.603462,-144.788773,0.215062,2.609775,0.515085
8146315580,-337.988495,13.127939,-215.919327,0.955643,0.662064,0.517166
8146335580,-437.035400,78.726059,-106.052628,2.051420,-2.113674,-0.514359
8146355582,-220.183197,166.864426,-57.066734,0.682899,-1.695721,-0.530545
8146375583,-108.170425,114.435303,-124.860832,0.658816,-0.655551,-0.444424
8146395583,4.954066,117.026123,-158.226044,0.819811,-0.550086,-0.224044
8146415584,32.121498,106.571121,-143.810822,0.624314,-0.731667,0.010749
8146435584,5.261090,71.186150,-156.127411,0.765843,-0.432578,0.297100
8146455584,-52.693413,60.682095,-160.929413,1.125363,-0.272053,0.453777
8146475585,-99.818550,61.697861,-140.040955,1.192198,-0.371179,0.264327
8146495584,-124.735466,63.069595,-130.745773,1.251689,-0.540879,0.157070
8146515584,-146.018250,54.114193,-141.041840,1.218591,-0.489048,0.217056
8146535585,-121.006134,52.436520,-155.359253,1.155261,-0.292023,0.049110
8146555585,-49.836075,78.447639,-164.229935,0.956643,-0.167240,-0.133045
8146575585,-19.273930,79.862701,-167.727249,0.774624,-0.236383,-0.063395
8146595586,-28.708633,70.108612,-181.888702,0.889233,-0.216017,0.017625
8146615586,0.583302,83.767418,-184.941772,1.139648,-0.304016,0.140809
8146635586,33.203796,45.665642,-129.556885,1.296903,-1.062709,0.444666
8146655587,12.178286,-29.201752,24.202726,1.428441,-2.497736,0.507900
8146675587,72.836472,-19.180023,176.588852,1.551175,-2.272356,0.646876
8146695589,91.508636,-30.598921,219.392776,1.363425,-1.257873,0.836279
8146715589,1.042910,-34.502083,272.669525,1.440637,-0.987546,0.688142
8146735590,-3.452776,-23.482616,332.074463,1.568160,-0.496807,0.364269
8146755590,25.362711,-34.839958,385.957214,1.893850,-0.070947,-0.134210
8146775591,67.869461,-41.451576,409.654907,1.632495,0.126719,0.071835
8146795591,129.300049,-61.321575,371.817291,1.039886,0.314300,0.429131
8146815592,145.583588,-41.003574,241.162613,0.674774,1.080342,0.470695
8146835590,71.865662,-24.201435,82.407097,-0.160264,2.488364,0.235052
8146855591,-75.113022,-79.573868,-67.502121,-0.512117,2.649843,0.262141
8146875591,-275.362976,-93.623978,-185.369736,0.113382,0.824543,0.700755
8146895592,-419.141907,-50.944744,-95.439438,1.698442,-2.494359,-0.329904
8146915592,-117.270760,76.637932,-79.979027,0.985544,-1.621271,-0.558834
8146935593,9.522217,84.715523,-89.569641,0.222352,-0.711664,-0.559057
8146955593,72.720009,31.923237,-146.993988,0.115922,-0.664641,-0.200454
8146975593,63.794460,8.990962,-210.121323,0.500246,-0.475666,0.323000
8146995594,-10.772013,-2.893830,-244.531815,0.979773,0.275646,0.453109
8147015594,-22.019411,44.685272,-251.429108,1.181733,0.386427,0.476792
8147035596,-24.955372,92.990242,-270.914154,1.385136,0.101123,0.565774
8147055596,-26.195299,116.258240,-296.783356,1.596865,0.067233,0.493173
8147075597,-38.704227,136.929016,-319.032776,2.142458,0.014236,0.221634
8147095597,-30.126961,133.151108,-277.235687,2.222800,-0.716116,0.276628
8147115598,-82.040573,27.378168,-101.665955,1.479398,-3.586416,0.051087
8147135598,-6.101195,-62.707424,130.015686,0.846783,-3.319252,-0.283388
8147155613,91.820175,-67.282181,206.669174,1.294646,-1.498242,0.231685
8147175597,194.708359,-69.946159,267.750702,2.649856,-0.475658,0.103191
8147195598,251.101822,-32.982143,382.493469,2.570159,0.105209,0.243698
8147215599,167.495865,-18.938259,426.416687,2.082336,0.433745,0.550078
8147235599,80.831940,-31.127720,365.305634,1.175879,1.515317,0.519682
8147255599,48.883530,-36.079075,223.579208,0.476744,3.363122,-0.761402
8147275599,-80.007034,-37.578106,36.357162,-0.876014,3.274036,0.480942
8147295600,-243.859802,-33.610405,-238.593445,-0.918109,1.543306,0.993295
8147315600,-297.747498,25.728519,-369.818848,0.984220,-0.634447,0.025922
8147335600,-166.787781,97.256462,-278.690521,2.679106,-1.091115,-0.375706
8147355601,-66.100220,160.904236,-199.972717,0.872315,-0.758783,-0.722639
8147375603,10.444207,90.523178,-235.948181,0.772163,-0.956579,-0.526773
8147395603,47.068745,40.062168,-295.085571,1.797049,-0.671673,0.248672
8147415604,69.425247,61.639233,-238.108078,1.865332,-0.825730,0.694948
8147435604,63.677418,26.219929,-116.597878,1.557349,-1.653742,0.598393
8147455605,21.809599,-7.504282,30.922573,1.126234,-1.856103,0.181853
8147475605,14.623034,-29.165031,92.053452,0.932589,-0.483712,0.045526
8147495604,79.210175,-15.339365,74.194489,1.672328,0.459218,0.172665
8147515604,188.348953,14.850554,36.109577,1.143494,1.225981,0.473085
8147535604,133.248718,-15.327254,-42.079063,0.550361,1.470574,0.614593
8147555605,-42.570724,-23.850094,-108.065865,0.538966,1.137267,0.505761
8147575605,-147.541870,4.410827,-118.368744,0.703461,0.255298,0.406947
8147595606,-166.304779,2.558917,-67.609871,0.982669,-0.955158,0.005111
8147615606,-116.670441,-2.463331,8.247922,0.988197,-1.798379,-0.295936
8147635607,26.756294,22.186865,22.398518,0.608704,-1.062286,-0.018079
8147655607,141.673004,22.443085,-5.302796,0.707312,-0.233406,0.241822
8147675607,146.199005,7.604203,-45.023525,1.236056,0.206170,0.386520
8147695610,71.939682,3.792909,-43.755119,1.706657,0.460122,0.426488
8147715610,-22.951279,3.283268,21.594168,0.912809,-0.107857,0.362550
8147735610,-45.917122,2.008515,36.804729,0.751116,-0.333149,0.445202
8147755611,-15.869175,15.290490,23.764387,0.985464,-0.212809,0.447901
8147775611,11.182057,-5.348600,22.457691,1.377002,-0.358901,0.100167
8147795611,5.893519,-14.267590,39.278816,1.491270,-0.673335,-0.040984
8147815612,27.943998,-11.773018,88.539665,1.166033,-0.905417,0.258772
8147835611,73.055038,-13.727385,136.225876,0.969941,-1.002855,0.413910
8147855611,60.610954,-22.912804,184.633331,0.986262,-0.937166,0.149632
8147875612,26.084572,-16.140751,208.075104,1.052992,-0.363629,0.026650
8147895612,25.069752,-26.272701,194.804047,0.991609,0.044614,0.093189
8147915613,27.999159,-25.949068,192.403000,1.171995,-0.023113,0.309492
8147935613,5.503843,0.633086,203.632263,0.716124,-0.073101,0.479803
8147955614,-6.989370,-0.534770,171.481064,0.591841,0.077170,0.283138
8147975614,9.468126,-6.610306,129.637070,0.892389,0.085466,0.063011
8147995614,6.603296,-1.732562,106.298088,0.797176,-0.120741,0.199309
8148015614,-34.129387,-14.022816,83.757050,0.662532,-0.460594,0.333433
8148035616,-59.275593,-16.559483,67.575241,0.698030,-0.810967,0.327589
8148055617,-43.442474,-2.240291,67.202423,0.644272,-0.949089,0.226460
8148095618,7.734885,16.394384,50.560814,0.829031,-0.481007,0.284433
8148115618,8.939627,40.863682,5.904681,0.567899,-0.172647,0.444175
8148135618,-22.894348,50.538525,-73.627197,0.587441,-0.075418,0.336884
8148155618,-35.043606,66.293114,-139.164581,0.614266,0.090088,0.056491
8148175618,-28.651581,63.142059,-186.166199,0.404332,0.208608,0.036138
8148195618,-26.357178,39.410973,-258.445190,0.324173,0.461336,-0.024924
8148215618,-17.142147,11.390171,-332.408203,0.605015,0.724410,-0.073298
8148235619,-24.913450,3.624347,-363.859528,1.003422,0.917938,-0.125531
8148255619,-52.597546,8.442042,-367.721741,1.854538,0.743207,-0.135713
8148275619,-33.726639,-17.077110,-269.858398,3.125769,-1.879001,-0.209326
8148295620,-81.931313,-104.254852,40.855442,1.916601,-4.230087,0.504587
8148315621,56.004509,-33.275097,69.655014,1.090589,-2.541192,0.845770
8148335621,183.641983,-23.532066,131.190369,1.583360,-1.449105,0.764444
8148355622,261.658203,88.567841,200.224533,2.423709,0.377903,0.355247
8148375623,239.596283,49.756439,235.724182,1.109270,1.901208,-0.704021
8148395623,66.384171,-45.092388,144.491821,0.502445,1.326466,-0.429839
8148415624,-133.709335,-91.469223,165.640320,0.720132,-0.365801,0.379077
8148435624,-147.811646,-47.675194,219.803452,0.986024,-0.929552,0.789397
8148455625,-32.486282,-34.411270,247.539261,1.146284,-1.141357,0.442898
8148475625,60.376060,-5.738255,256.719849,1.361986,-0.712783,0.295093
8148495630,62.910519,21.665340,235.351517,0.824707,-0.117426,0.166789
8148515624,-6.306390,13.588053,216.098007,0.570639,-0.260951,0.217244
8148535625,-40.109234,4.138181,205.048233,0.500618,-0.578007,0.083582
8148575626,18.459852,13.291553,140.053650,0.606729,-0.573434,0.198236
8148595626,23.396498,27.369619,119.122314,0.607480,-0.496333,0.473354
8148615627,-10.118406,35.695679,107.071129,0.489759,-0.381055,0.451972
8148635627,-73.428711,39.908985,100.934975,0.404046,-0.662241,0.565619
8148655628,-131.537842,42.505493,107.610085,0.439692,-1.100392,0.594328
8148675628,-96.020935,69.103516,122.852722,0.476913,-1.325328,0.285103
8148695628,1.888978,96.341255,95.646332,0.570948,-0.945597,-0.044698
8148715630,95.698380,125.286346,13.796518,0.239762,-0.061848,-0.220966
8148735631,74.593704,92.103165,-101.177773,-0.501833,0.644533,-0.281610
8148755630,-1.879740,6.444812,-228.230591,-0.734061,0.549336,-0.385469
8148775631,-11.308494,-25.487703,-344.297424,-0.168870,0.413691,0.076199
8148795632,24.799158,19.099543,-427.504791,0.556103,0.414153,0.528172
8148815632,4.593507,30.490755,-470.628387,1.887593,0.522348,0.233974
8148835631,-16.428137,11.001765,-440.852234,2.573458,0.330090,-0.318335
8148855631,-149.132111,-75.229965,-315.689575,2.212882,-2.204876,-0.543531
8148875631,-151.849518,-81.941254,-60.620628,1.674266,-4.208490,0.422366
8148895632,35.269814,-31.337069,2.198042,0.782383,-3.271587,0.830355
8148915632,195.918427,-93.474174,85.254990,1.848843,-1.443794,0.182063
8148935633,212.651138,6.052264,192.379578,2.470766,0.370905,0.463190
8148955633,224.760361,48.874218,168.762192,1.390602,1.027639,-0.017324
8148975633,51.609066,-19.103741,147.602814,0.763222,0.619271,0.703884
8148995634,-127.934418,-54.717758,191.680237,0.692105,0.475284,0.376818
8149015634,-136.930115,-5.602147,234.130951,0.760095,-0.193947,0.561826
8149035636,-72.905746,10.980721,239.683212,0.804838,-0.721670,0.246292
8149055637,-18.264517,17.619837,244.320312,0.797712,-0.749539,0.086016
8149075637,-19.577324,34.625603,237.470596,0.542917,-0.714254,0.084277
8149095637,-42.217083,40.412693,214.081024,0.354162,-0.787824,0.501553
8149115638,-39.600456,57.242458,165.539429,0.303291,-0.856755,0.291116
8149135638,2.272564,66.901375,113.796059,0.173824,-0.932011,-0.077547
8149155639,40.988697,63.939316,74.442863,0.144411,-0.615432,-0.029254
8149175638,34.968983,57.300678,42.134888,-0.024825,-0.224308,-0.003764
8149195638,-13.992304,22.400486,4.497265,-0.160636,-0.136806,0.109825
8149215638,-58.561245,-5.872385,-51.390869,0.009109,-0.210469,0.263994
8149235638,-82.117989,-2.102036,-120.043945,0.366490,-0.237444,0.305953
8149255639,-101.455727,10.860387,-165.800369,0.631562,-0.117095,0.208714
8149295640,-178.460815,6.254526,-111.214081,0.932996,-1.886499,-0.132134
8149315640,-101.254669,25.015690,-78.761871,0.392496,-1.888933,-0.175484
8149335641,18.507786,38.537373,-118.620804,0.276020,-1.382888,-0.039033
8149355641,110.145348,52.655735,-150.534241,0.430577,-0.953183,0.151033
8149375643,63.799751,11.692789,-118.485611,0.641329,-0.836858,-0.072843
8149395644,1.535274,-28.100050,-20.422546,1.227730,-0.979136,-0.068675
8149435644,43.519009,30.061436,-72.074707,1.096891,-0.007863,0.711223
8149455645,-38.047977,28.017849,-72.209595,0.883074,-0.130005,0.708302
8149475645,-41.934673,67.077789,-76.761322,0.901814,0.118707,0.430563
8149495645,-86.276718,76.783531,-77.507088,0.879374,0.144916,0.411965
8149515644,-136.673935,64.645851,-86.310677,0.784952,-0.373266,0.252050
8149535645,-122.503410,73.407913,-95.496323,0.827653,-0.719321,0.209178
8149555645,-86.531715,92.180992,-104.743355,0.845135,-0.747814,0.308579
8149575645,-62.522526,98.821754,-96.979813,0.815234,-0.708644,0.346079
8149595646,-56.727646,93.182037,-79.905014,1.020878,-0.629189,0.365080
8149615646,-53.528450,93.861259,-64.845627,1.231166,-0.512048,0.445303
8149635647,-55.331585,99.603569,-47.886505,1.260038,-0.414535,0.517708
8149655647,-83.605659,108.284668,-16.844612,1.081773,-0.389892,0.546366
8149675649,-124.296021,113.618126,3.440123,1.011271,-0.351038,0.400024
8149695648,-155.963882,109.149040,5.413679,0.925459,-0.434721,0.117036
8149715650,-166.277634,88.498352,-2.880859,0.797789,-0.518757,-0.004915
8149735650,-157.336365,66.285759,-7.502201,0.721476,-0.504113,-0.041209
8149755650,-126.110924,55.459236,-4.844798,0.634695,-0.520838,-0.029876
8149775651,-110.026329,54.001343,-11.789061,0.524458,-0.466439,0.114307
8149795651,-125.228592,42.101471,-38.217751,0.385128,-0.395705,0.111818
8149815651,-155.344574,12.824645,-73.512360,0.383869,-0.383229,-0.066442
8149835650,-149.550079,0.039150,-97.350380,0.736982,-0.400635,-0.105308
8149855651,-101.275322,31.479607,-103.610512,1.122276,-0.147839,0.134039
8149875652,-74.246445,69.464676,-113.967682,1.019095,0.091561,0.467006
8149895652,-104.543121,73.609673,-134.396683,1.063728,-0.306115,0.497829
8149915652,-158.551666,76.044243,-117.518471,1.292569,-0.632519,0.128332
8149935653,-162.556152,85.115952,-34.146191,1.212120,-0.722201,-0.076794
8149955653,-174.132553,59.401184,26.506367,0.995590,-1.193648,-0.118433
8149995654,-111.969734,49.278473,-10.345298,0.865465,-1.100967,0.060537
8150035656,-19.160290,61.738323,12.914602,0.711573,-0.716904,0.199763
8150055656,-58.746059,42.153286,17.576622,0.652995,-0.782765,0.040008
8150075657,-72.500565,20.354242,33.886860,0.756129,-1.072270,-0.160655
8150095657,-18.137081,2.932947,57.100658,0.811144,-1.233995,-0.187353
8150115662,58.019650,-12.502317,77.872917,0.866607,-1.136993,-0.003206
8150135658,82.976761,-15.960744,91.916954,0.991182,-0.900477,0.300446
8150155659,63.485893,-11.250064,105.921806,0.827749,-0.547204,0.440140
8150175658,44.034367,-17.808359,120.106758,0.766068,-0.471187,0.273888
8150195658,33.314732,-20.997669,129.502167,0.696782,-0.483876,0.142124
8150215658,37.436493,-29.696348,124.142433,0.570476,-0.376047,0.013135
8150235659,57.353161,-56.431129,98.327301,0.372991,-0.249151,-0.134013
8150255659,71.452766,-74.981262,48.533356,0.227591,-0.076795,-0.146335
8150275659,52.682133,-93.172485,-7.845094,0.257360,0.035175,-0.046961
8150295659,49.999783,-94.405548,-36.636330,0.752869,-0.116784,0.289472
8150315660,46.383854,-69.686050,-22.680698,1.018300,-0.783761,0.321000
8150335660,30.842209,-65.082649,48.879173,0.910797,-1.546534,0.099947
8150355661,70.888397,-73.032341,45.912933,0.740214,-0.668341,-0.055098
8150375663,91.840729,-74.997055,0.465693,0.893849,-0.283925,0.113398
8150395663,68.940552,-67.345345,-27.080374,1.086421,-0.166662,0.144092
8150415663,34.902115,-62.082050,-35.665180,0.879569,-0.103527,0.272848
8150435664,-12.611662,-75.442200,-48.146870,1.032834,-0.232366,0.402888
8150455664,-19.712486,-58.209614,-53.998444,1.376814,-0.364874,0.374910
8150475665,-6.704094,-21.101818,-41.945545,1.223560,-0.410561,0.341140
8150495665,-5.874417,-7.277507,-36.517685,0.969377,-0.403618,0.316400
8150515664,-10.191929,-0.299478,-40.481251,1.003823,-0.176182,0.220394
8150535664,-14.582196,7.351102,-58.795078,0.993655,-0.172684,0.214765
8150555665,-31.343437,2.333754,-78.628830,0.970146,-0.153379,0.302894
8150575665,-48.157608,0.285490,-94.607735,1.068700,-0.125086,0.444016
8150595666,-75.456535,21.165852,-87.525505,1.148631,-0.013356,0.435807
8150615666,-93.794640,41.215172,-76.680771,0.974951,0.010247,0.214320
8150635667,-106.434975,33.304218,-96.467033,1.011957,-0.047946,0.242860
8150655667,-111.034691,35.194244,-114.069855,1.103713,-0.075732,0.133200
8150675667,-57.627979,72.345963,-115.591728,0.817392,-0.089748,-0.012586
8150695668,-11.180888,81.171677,-119.499184,0.503955,-0.047408,0.055122
8150715670,-41.267670,54.862640,-154.419800,0.764732,0.144889,0.329172
8150735670,-94.053780,42.958229,-183.207382,1.263410,0.119082,0.446147
8150755670,-104.689453,86.677795,-181.882706,1.347798,-0.062041,0.638416
8150775671,-13.693854,152.616257,-163.591324,1.235949,-0.277749,0.505421
8150795671,48.100216,189.615738,-155.150116,1.159804,-0.091219,0.366514
8150815672,55.096451,190.918228,-164.261566,1.338948,-0.466801,0.069607
8150835681,-7.662994,81.211555,-117.015244,1.518039,-1.745611,-0.168726
8150855671,-56.022007,-28.222822,62.004944,1.253483,-2.885640,-0.278932
8150875672,-0.510995,-54.434883,203.187439,1.484716,-2.071993,0.237397
8150895672,118.213562,-53.364693,261.937866,2.276820,-1.111702,0.334057
8150915673,214.486984,-39.734756,336.806519,2.875281,0.226609,0.101329
8150935673,176.358231,-9.023799,393.122192,2.018827,0.691820,0.340966
8150955673,63.831444,-24.861124,387.400513,1.463087,0.629894,0.405738
8150975673,0.856936,-3.328063,343.164856,0.970013,0.575751,0.656192
8150995674,-16.362394,12.538139,251.227234,0.806718,1.479553,0.160679
8151015674,22.751534,11.033230,109.814133,0.329527,2.467572,-0.460514
8151035674,-95.179939,-38.512581,-63.097786,-0.677297,2.856108,0.271356
8151055676,-164.839966,-65.011452,-186.635025,-0.649506,0.702884,0.432696
8151075677,-421.134888,-94.470543,-137.819717,2.560191,-1.506117,0.215905
8151095677,-246.621338,146.351486,-79.802979,1.483246,-0.730258,-1.191071
8151115678,-74.187920,124.265549,-63.468006,-0.157245,-0.928788,-0.355491
8151135678,42.427685,30.255527,-180.961456,0.277187,-1.173250,0.001268
8151155678,28.195704,59.407112,-249.392242,0.922388,-0.427175,0.411063
8151175678,15.824723,79.430038,-234.091049,0.882890,0.480013,0.462676
8151195678,11.596771,117.975166,-229.930023,0.901577,0.559616,0.685122
8151215678,-43.093773,141.048004,-257.909943,1.486209,0.596945,0.424447
8151235679,-100.457497,151.775101,-269.802277,2.065883,0.565467,-0.249436
8151255679,-147.435135,101.514526,-225.716888,1.769257,0.006313,-0.281412
8151275679,-194.448029,-14.353331,-131.664627,2.416050,-2.869900,-0.099357
8151295680,-78.820206,-58.499306,26.050694,1.665595,-4.775781,-0.075531
8151315680,171.894775,-52.307556,108.128105,1.043410,-2.146926,0.528370
8151335681,292.531097,-50.179173,196.943192,1.968599,-1.176958,0.608982
8151355681,333.190338,-7.036749,304.343262,2.995013,-0.110349,-0.074721
8151375683,330.274048,48.695415,406.953369,2.284400,0.701647,-0.090794
8151395683,160.461914,44.765213,428.029480,1.496186,1.179665,0.344536
8151415683,-46.000572,33.867588,380.348206,0.675075,1.889778,0.788922
8151435684,-121.666245,-24.660946,244.057175,-0.277886,2.989624,-1.184316
8151455684,-197.451721,-115.742210,3.233341,-1.314167,2.875593,-0.733539
8151475684,-321.531128,-165.327591,-259.869629,-0.578797,1.000042,1.006426
8151495685,-285.363159,-13.309407,-319.694794,2.611098,-1.846453,0.648358
8151515684,-77.988014,155.499115,-232.913040,1.700606,-0.929518,0.097050
8151535685,54.386627,165.928452,-162.017242,0.440807,-0.112021,-0.341861
8151555685,112.958748,104.471733,-206.477509,0.592076,0.043965,-0.340819
8151575685,13.354492,68.161522,-324.772339,1.582286,0.090533,0.092410
8151595686,-102.593979,79.148216,-344.065979,2.407195,0.071747,0.249413
8151615686,-55.346458,42.331474,-200.981384,2.250060,-1.753424,0.789058
8151635687,-62.632969,-9.653191,1.718629,1.481642,-3.336496,0.335150
8151655703,22.787130,-13.689691,75.090683,0.833788,-1.424613,0.113991
8151675688,91.175240,-17.937866,76.834175,1.416414,-0.127979,0.515609
8151695688,148.262787,18.157297,78.226028,1.218573,0.711439,0.221506
8151715690,182.648804,11.731010,45.504536,0.761501,1.212887,0.091165
8151735690,96.103874,-3.275260,-25.975021,0.609154,1.342062,0.354364
8151755690,-30.786552,-23.929340,-78.869484,0.404976,0.993058,0.559169
8151775691,-134.553177,-36.736828,-121.045708,0.455630,0.476057,0.340949
8151795691,-153.640137,-10.282639,-141.573837,0.769521,-0.179168,0.210966
8151815692,-95.266022,40.474010,-113.671867,0.884367,-0.938834,0.142611
8151835692,-17.069273,25.689083,-61.929379,0.749094,-1.020388,-0.001346
8151855691,50.355145,-10.530237,-28.157345,0.993414,-0.568173,-0.036483
8151875692,66.694733,3.583025,-5.467556,1.180834,-0.305252,0.350494
8151915692,33.832611,-4.790079,8.794480,1.204406,0.375041,0.515141
8151935692,0.122475,-10.517103,11.208632,1.156983,0.446830,0.411216
8151955693,-48.785946,-14.412312,4.899069,1.161665,0.263355,0.295683
8151975693,-57.587849,-16.826042,13.355082,1.120721,-0.258412,0.199483
8151995694,-39.220119,-18.471090,28.036547,1.031355,-0.618204,0.125482
8152015694,-16.558033,-16.508608,24.344845,1.091151,-0.575883,0.058663
8152035695,20.820927,-10.398510,18.013741,1.089252,-0.522349,0.055176
8152055696,55.283554,-9.538221,40.019684,0.989995,-0.603216,0.088805
8152075697,71.614250,-1.992146,75.270592,0.960643,-0.717614,0.207845
8152095697,76.297409,0.242792,99.397354,0.988902,-0.647291,0.196195
8152115698,91.735260,-2.044420,118.472328,0.993076,-0.420258,0.141576
8152135698,88.882744,-2.002358,133.866211,0.939435,-0.206113,0.104360
8152155698,56.265003,-8.392734,130.434494,0.949806,-0.107320,0.010179
8152175698,32.285763,-23.925667,112.619217,1.052483,-0.108519,-0.054900
8152195698,29.541821,-41.571419,97.627060,1.069700,-0.189653,0.024601
8152215698,60.621544,-45.415268,94.933945,1.125288,-0.285118,0.233142
8152235698,62.971363,-33.054237,103.051659,1.140049,-0.476425,0.366578
8152255699,25.918447,-31.542725,95.850311,1.059440,-0.398704,0.227839
8152275699,14.800439,-39.277637,98.261543,1.135991,-0.383288,0.090818
8152295700,22.597933,-32.069389,126.272812,1.088359,-0.575458,0.287491
8152315700,5.043963,-16.109346,156.617188,0.798410,-0.687021,0.307540
8152335701,-10.019071,-18.486675,167.457428,0.834720,-0.730668,0.068311
8152355701,4.969445,-17.979187,177.349396,1.019795,-0.716217,0.037388
8152375703,26.284870,-11.670102,185.939865,0.860554,-0.576694,0.162257
8152395703,22.796959,-4.038294,172.295578,0.720340,-0.484665,0.210786
8152415703,22.375195,4.562308,149.194534,0.735999,-0.439529,0.186443
8152435704,29.403950,5.544145,131.884705,0.755396,-0.481983,0.342176
8152455709,28.027020,10.497372,123.912025,0.779285,-0.513074,0.383851
8152475705,31.304371,23.783701,102.254715,0.768893,-0.439535,0.342755
8152495705,41.606369,38.044476,55.201916,0.553578,-0.489926,0.320290
8152515704,17.362762,33.752369,-30.737957,0.327065,-0.347844,0.200346
8152535704,7.985798,22.700157,-115.202835,0.492760,-0.126781,0.037712
8152555705,30.528521,20.497265,-181.227661,0.292414,0.354184,-0.101861
8152575705,37.715313,-9.479541,-250.757309,0.000246,0.574717,-0.026917
8152595706,7.451384,-47.930279,-328.657135,0.262701,0.638827,0.064771
8152615706,-7.921347,-55.443604,-385.623871,1.353515,0.733119,0.011547
8152635706,-14.904131,-34.581032,-357.143402,2.089841,0.470125,-0.022060
8152655707,-96.485580,-57.163223,-211.878265,1.836320,-1.531455,0.358602
8152675707,-178.935028,-54.019756,-88.490242,1.672847,-2.164383,1.060475
8152695708,-76.136154,49.481506,-77.292862,1.533359,-1.571843,0.930746
8152715710,95.471283,67.185097,7.373522,1.654639,-1.113820,0.159987
8152735710,128.370163,67.403282,65.509155,1.238549,0.316804,0.225034
8152755710,72.970078,48.102077,18.764231,0.671440,1.609178,-0.218122
8152775710,-10.177667,-1.901352,-73.136002,0.189782,1.552532,-0.106621
8152795711,-136.229095,-58.419224,-98.635712,0.353293,0.693686,0.487812
8152815711,-118.723885,-5.900895,-69.149139,0.808577,-0.115531,0.637458
8152835712,-54.108868,29.436424,-32.975689,0.746841,-0.287820,0.468270
8152855710,-52.035336,23.753174,-43.682060,1.002728,-0.239851,0.127499
8152875711,-37.927853,7.402143,-37.509319,1.295366,-0.554538,-0.097413
8152895712,2.454347,-31.799236,5.921722,1.357655,-0.670191,0.133215
8152915712,63.070522,-41.509941,44.643051,1.454624,-0.779647,0.378235
8152935712,98.825218,-18.479475,65.106316,1.337436,-0.376587,0.527208
8152955713,45.614498,-24.386974,92.148613,1.362476,0.108743,0.492912
8152975713,-49.961517,-35.498035,91.450066,1.276188,0.367367,0.231295
8152995713,-72.818024,-46.653011,66.436043,1.044786,-0.132544,0.179636
8153015714,-70.598061,-35.774349,57.546158,0.889261,-0.454643,0.272046
8153035715,-36.197098,-10.499160,50.184261,0.779952,-0.400346,0.251686
8153055716,-2.305029,19.623119,17.610918,0.820673,-0.192913,0.336294
8153075717,-10.375953,32.692726,-13.165970,0.791309,-0.144655,0.317287
8153095717,-32.208366,35.625862,2.491501,0.778058,-0.293503,0.314333
8153115717,-44.131432,39.668949,39.650391,0.753901,-0.377008,0.395552
8153135718,-87.638428,31.306143,61.111977,1.067052,-0.706065,0.175172
8153155718,-86.342064,27.491257,95.533134,1.072103,-1.054670,0.146099
8153175717,-13.949845,4.695019,145.962967,0.906291,-1.376215,0.344573
8153195718,51.916641,-0.061247,189.075867,1.170613,-1.013540,0.186867
8153215718,94.969254,4.657907,222.872452,1.283968,-0.242337,0.148065
8153235718,77.590469,-3.188550,244.903870,1.387885,0.046756,0.239170
8153255718,-10.773365,-20.392307,232.193054,1.026158,-0.107300,0.194567
8153275719,-19.347004,-29.174887,222.468887,0.777141,-0.648112,0.346042
8153295720,38.859440,-4.213228,230.813889,0.868197,-0.836609,0.585559
8153315720,45.767853,23.340759,229.509933,0.885350,-0.500129,0.734079
8153335720,7.121121,41.745461,218.925964,0.681754,-0.441197,0.542215
8153355721,-17.662411,48.772919,198.595505,0.289550,-0.649298,0.277665
8153375722,-0.344761,46.686306,177.012131,0.006310,-0.827950,0.059915
8153395723,47.427692,50.151745,143.014359,-0.032083,-0.632961,0.059817
8153415723,63.803276,48.386963,80.541809,0.002188,-0.289576,0.004716
8153435723,39.196537,33.534897,22.168661,0.034853,0.087880,0.009462
8153455724,-21.060194,-3.007505,-27.728439,-0.166306,-0.037096,0.055878
8153475724,-64.037399,-34.632195,-103.131348,-0.215802,-0.190621,-0.048073
8153495724,-50.890232,-42.806442,-201.026184,0.022255,-0.131345,0.171603
8153515723,-22.289585,-22.819437,-302.189392,0.382249,0.233133,0.395936
8153535724,-37.789581,-4.813652,-377.479248,0.700666,0.339840,0.307380
8153555724,-53.507980,16.757294,-419.453583,1.166575,0.068748,0.145843
8153575725,-87.957664,8.392224,-422.320831,1.862157,-0.038742,-0.268383
8153595725,-124.070450,-37.863487,-333.938263,1.830100,-1.286910,-0.539597
8153615726,-86.543350,-48.879265,-221.490799,1.965170,-2.842348,-0.029887
8153635726,84.995468,-9.274565,-81.098648,1.856855,-4.004577,-0.011570
8153655726,216.346481,-63.849674,146.612396,1.140296,-2.833952,0.522753
8153675727,240.432358,0.345908,245.831055,1.572072,-0.140171,0.789919
8153695727,188.378281,30.118000,195.998657,1.958165,1.588929,0.038053
8153715729,45.353336,-17.876194,119.439911,0.770925,1.117391,0.025774
8153735729,-100.785126,-85.691124,162.264404,0.736465,-0.099414,0.545176
8153755730,-75.358727,-46.438599,214.740097,0.816278,-0.777782,0.591977
8153775731,-15.665936,-36.714455,225.001633,0.952428,-1.198645,0.300624
8153795731,54.565266,-2.323682,228.537354,0.976376,-0.958858,0.124690
8153815732,66.974144,10.583287,227.396286,0.747991,-0.713434,0.229357
8153835732,47.648556,11.475515,210.951965,0.553766,-0.634209,0.205295
8153855731,38.530209,23.875959,181.565964,0.362225,-0.720540,0.273015
8153875731,52.952869,39.114285,143.821884,0.383753,-0.518172,0.216669
8153915731,25.014692,45.111153,33.511574,0.099109,0.349614,0.283477
8153935732,-56.290333,7.914888,-46.493774,-0.230774,0.230314,0.154742
8153955732,-95.614273,-13.413968,-142.022293,-0.107071,0.285511,-0.137301
8153975732,-90.775574,-18.477274,-241.656326,0.157322,0.437774,-0.031897
8153995733,-72.334618,-10.979042,-332.449799,0.436507,0.361888,0.224385
8154015733,-99.358955,-6.584584,-385.534058,1.004397,0.057194,0.165368
8154035734,-136.419479,-15.049220,-391.687042,2.512144,-0.737513,-0.307201
8154055736,-153.022964,-7.112881,-232.760254,2.040927,-2.997113,-0.524060
8154075736,-70.560349,-66.417648,5.834626,1.166241,-4.346213,0.127200
8154095737,111.245003,-21.060217,167.766281,0.848276,-3.176951,0.712077
8154115737,209.483795,-12.048957,234.492828,1.931527,-0.973523,0.057544
8154135737,240.329666,61.326408,222.141541,2.440569,0.532221,-0.283373
8154155741,95.694611,20.639299,167.891479,0.884609,0.504218,0.803563
8154175737,-62.845951,-28.302528,159.642349,0.589373,0.383619,0.489297
8154195737,-55.482677,9.578714,178.777298,0.795770,-0.176799,0.466236
8154215737,-34.620232,59.553192,188.121811,0.567309,-0.512320,0.414725
8154235738,-36.704346,68.905853,189.449219,0.217851,-0.577880,0.181710
8154255738,-18.626701,63.654263,176.319580,0.182613,-0.806344,-0.017635
8154275739,7.560008,51.058456,156.377213,0.106487,-0.899162,-0.086118
8154295739,37.806458,31.562849,127.655128,0.041964,-0.725942,-0.070730
8154315740,32.290829,14.548162,86.219482,0.071010,-0.466447,0.185270
8154335740,-22.029905,-6.032629,43.677864,-0.054783,-0.313442,0.291751
8154355740,-68.793465,-30.406399,1.696459,-0.030402,-0.604735,0.230613
8154375742,-68.591537,-27.916233,-44.405720,0.195790,-0.695618,0.256088
8154395742,-58.476669,-7.225727,-83.036354,0.291512,-0.679091,0.275953
8154415743,-52.700127,2.691699,-109.416603,0.295839,-0.787563,0.223754
8154435743,-56.391800,-4.938614,-114.395905,0.326651,-0.939877,0.082009
8154455743,-35.020451,-9.564984,-106.037308,0.301113,-0.892099,0.003301
8154475744,-17.070004,-23.873945,-91.357307,0.458889,-1.169099,0.014253
8154495745,0.202134,-17.256475,-71.457146,0.791626,-1.388485,0.441665
8154515744,7.471437,0.251211,-36.035225,1.020745,-1.059233,0.532501
8154535744,-17.135201,4.987952,58.530643,1.032288,-0.942001,0.324667
8154555744,-60.326340,12.815534,149.040955,0.498614,-1.241669,0.458717
8154575745,-62.949860,15.207304,112.785660,0.044188,-1.214587,0.121606
8154595745,-29.623594,-15.041782,43.137840,0.557939,-1.285189,-0.334697
8154615745,69.004288,5.344643,20.366846,0.251769,-0.686103,0.070058
8154635746,33.054825,3.214716,11.277126,0.004549,-0.131296,0.352033
8154655746,-47.259167,-0.629205,16.593386,0.129457,-0.586492,0.268429
8154675747,-32.535763,3.384388,13.019841,0.577039,-1.045710,0.197622
8154715749,0.435984,9.504695,-5.161339,0.598899,-0.638441,0.217764
8154735749,-22.108061,7.990886,1.597921,0.569262,-0.552312,0.341839
8154755749,-45.912861,19.363379,-8.641994,0.692612,-0.668274,0.374599
8154775750,-56.029327,35.270065,-22.627871,0.641410,-0.836036,0.219769
8154795750,-44.151707,46.619133,-34.360554,0.582633,-1.031592,0.112539
8154815751,-21.442114,54.809307,-46.561562,0.647022,-0.952062,0.181564
8154835751,-20.607578,65.144737,-59.933861,0.753634,-0.743605,0.371810
8154855750,-44.873180,75.693909,-68.784859,0.864490,-0.600886,0.421450
8154875750,-62.398586,88.645157,-75.177353,0.830513,-0.649198,0.279278
8154895751,-49.873875,97.369385,-80.411263,0.742067,-0.797657,0.154060
8154935752,-16.898685,107.466927,-82.963463,0.694023,-0.573609,0.124776
8154955752,-44.653091,98.381157,-68.022377,0.596201,-0.445871,0.196809
8154975752,-70.376350,82.051727,-72.990814,0.591303,-0.634333,0.175939
8154995753,-57.306282,82.242676,-82.976120,0.749995,-0.719526,0.086169
8155015753,-50.324230,93.392036,-89.821945,0.785148,-0.417322,0.045028
8155035754,-69.094887,89.736877,-98.420876,0.607962,-0.379135,0.075222
8155055755,-74.856819,90.669647,-112.723541,0.659569,-0.502416,0.163562
8155075756,-59.069832,106.454796,-127.343948,0.856072,-0.481885,0.129741
8155095756,-53.426247,113.570862,-149.561630,0.953429,-0.182848,0.073769
8155115757,-84.243195,99.192970,-169.068359,0.967279,-0.033250,0.257053
8155135757,-134.910889,95.202873,-169.024017,0.953595,-0.087635,0.203477
8155155757,-185.002014,110.509201,-156.128113,1.324981,-0.493148,0.031013
8155195757,-105.262825,122.737244,-92.568977,1.187894,-0.915250,0.080450
8155215757,-70.945686,114.576019,-18.853590,1.154869,-1.072353,0.036740
8155235758,-103.871155,101.560257,63.884602,1.178120,-1.306504,-0.105010
8155255758,-144.076141,92.225441,107.692757,1.070431,-1.155630,-0.234930
8155275759,-146.245071,76.155716,144.594284,0.779919,-0.971744,-0.279082
8155295759,-137.034164,58.847763,190.933426,0.714291,-1.210141,-0.029704
8155315759,-103.709648,69.992737,190.814270,0.443846,-0.719637,-0.082926
8155335759,-33.170834,73.865646,132.149597,0.525912,-0.268123,-0.223217
8155355760,-0.831559,93.212547,69.090462,0.726664,0.220117,-0.041520
8155375762,-8.825246,119.933540,-9.860050,0.658595,0.805667,0.310107
8155395762,-77.734909,123.171631,-98.882538,0.577990,0.493812,0.447993
8155415763,-205.873550,108.085213,-106.679291,0.868471,-1.390061,0.165894
8155435763,-195.374359,121.164948,-54.221943,0.815135,-1.419365,-0.150441
8155455767,-140.355713,115.045662,-61.132938,0.774350,-0.856031,-0.605738
8155475764,-32.770702,102.822563,-97.521423,0.503511,-0.965020,-0.498243
8155495764,31.612568,79.552109,-102.626816,0.258050,-1.166172,0.022859
8155515763,28.277639,35.900799,-112.406822,0.397616,-0.720144,0.448410
8155535763,33.391483,39.460194,-138.929993,0.877069,-0.113713,0.472105
8155555764,35.132195,66.367233,-141.453705,0.905240,-0.066475,0.181138
8155575764,9.151448,70.117020,-146.010437,0.732930,-0.293634,0.428905
8155595765,-53.955379,51.008217,-169.345459,0.793252,-0.236970,0.482185
8155615765,-56.949806,55.343838,-202.682129,0.983868,0.025924,0.370149
8155635765,-37.508617,76.529190,-235.886078,1.227943,0.029471,0.249045
8155655766,-23.318365,75.131073,-263.742920,1.354575,0.167193,0.061757
8155675766,-4.067953,76.022675,-276.708160,1.403177,0.240414,-0.111096
8155695766,3.448395,23.620602,-227.360077,1.576277,-0.667168,0.458732
8155715768,-64.663864,-37.382832,-49.411507,1.607474,-3.197384,0.542345
8155735769,-1.104023,-4.880083,98.763420,1.340828,-3.171431,0.912793
8155755769,94.351501,1.450401,146.615280,1.473050,-2.332334,1.008959
8155775770,85.540085,-28.940603,197.085693,1.800028,-1.399724,0.438764
8155795770,87.515091,-39.347366,276.620483,1.965442,-0.601380,-0.110198
8155815770,86.453941,-19.775833,352.051239,1.763185,-0.025642,-0.134854
8155835771,65.806885,-24.047092,394.698395,1.517917,0.290598,0.052748
8155855770,68.345673,-33.500843,388.346222,1.008332,0.471376,0.260933
8155875770,59.942455,-58.823357,293.857208,0.711150,1.413505,-0.155881
8155895771,72.730484,-68.987198,137.306183,0.221198,2.562118,-0.722478
8155915771,-13.106741,-130.713882,-22.048714,-0.849147,2.542874,0.298429
8155935771,-137.190552,-129.954910,-167.141815,-0.533966,1.128232,1.118108
8155955772,-377.483002,-170.008682,-98.114532,2.102909,-2.030011,0.002255
8155975772,-181.594162,53.915138,-92.607468,2.244699,-1.219090,-0.681043
8155995773,-24.140114,79.627434,-43.546013,0.222420,-1.150950,0.068239
8156015773,93.486000,24.559883,-134.037811,0.575235,-1.268018,-0.106471
8156035773,112.155060,74.113754,-189.701263,0.694707,-0.135213,0.255875
8156055775,67.640228,60.573338,-198.175797,0.338558,0.773273,0.227659
8156075775,9.795559,46.515060,-209.626816,0.727585,0.722025,0.487952
8156095776,-59.545784,52.327621,-255.585983,1.769933,0.207604,0.667803
8156115776,-114.031921,106.025932,-281.053467,1.826891,-0.069862,0.827070
8156135777,-113.882172,187.736664,-282.260468,1.932816,-0.226254,0.403645
8156155777,-71.300835,217.625565,-265.074005,2.015852,-1.111049,-0.394482
8156175777,24.473200,41.745518,-117.089539,0.620383,-3.967129,-0.516069
8156195777,38.285400,-94.934265,108.673271,0.792257,-2.893451,0.321493
8156215777,173.797150,-64.253090,209.077545,1.838776,-0.955562,0.870352
8156235777,278.240601,-18.672464,263.261047,3.332989,-0.416940,0.701801
8156255778,230.241928,51.153286,399.579437,2.104511,0.359177,0.663826
8156275778,83.235222,34.661289,396.184082,1.781159,1.017668,0.512534
8156295778,-77.339218,30.795025,356.742188,1.168367,0.955397,0.309837
8156315779,-146.465469,-9.342819,282.766418,0.613365,1.217824,0.369177
8156335779,-89.731453,-39.403988,161.517715,0.175771,2.440567,-0.695071
8156355779,-82.168442,-67.994583,-21.964365,-0.924594,2.204401,0.013257
8156375780,-163.430908,-115.287186,-227.366364,-1.094640,0.847292,0.602409
8156395782,-366.993896,-66.250130,-250.026764,1.008957,-0.930726,0.531685
8156415782,-176.780090,120.533112,-174.593903,2.611562,-0.884746,-0.354290
8156435783,-31.178635,194.029358,-139.518112,0.561614,-0.804503,-0.394769
8156455783,44.241695,67.957130,-167.689835,0.270043,-0.910074,-0.326849
8156475783,55.976215,40.322693,-240.678192,0.796644,-0.260513,0.303158
8156495784,22.702394,127.512268,-288.698456,1.053897,0.516709,0.148498
8156515784,-13.560178,122.839050,-305.374573,1.111871,0.933728,-0.163722
8156535783,-38.646584,62.977039,-250.128998,1.154875,0.225722,0.565282
8156555783,-193.894104,2.063012,-106.982941,3.072063,-3.805832,0.653185
8156575784,-86.287323,-14.518636,91.475304,2.342912,-4.337660,0.022340
8156595784,161.766006,6.886791,125.186935,1.547164,-2.769760,0.707019
8156615785,264.438965,-39.252602,189.855820,2.217165,-1.096348,-0.186988
8156635785,341.427338,-80.709297,253.967239,3.128441,0.477658,-1.317486
8156655786,356.541870,-42.501572,318.114136,1.971774,1.169948,-0.576467
8156675786,242.416260,-86.823151,323.380798,1.072665,1.659399,0.474379
8156695787,89.237495,-84.985001,239.780350,0.158017,2.086428,0.634110
8156715787,-27.122400,-80.639839,70.568604,-0.820101,2.315709,0.386678
8156735788,-161.080841,-73.800392,-123.636658,-0.408375,1.475171,0.614448
8156755789,-197.575485,25.316778,-239.816742,0.329636,0.821827,0.456507
8156775789,-208.945389,60.835571,-257.662659,0.912717,0.081619,-0.124905
8156795789,-190.994278,63.939407,-280.951904,1.908343,-0.636770,-0.762063
8156815790,-67.411514,58.487686,-239.353378,1.623806,-1.154265,-1.206492
8156835790,78.191910,-16.559395,-149.246201,1.047404,-1.933817,-0.302563
8156855789,102.088943,1.232407,-103.429626,1.271345,-1.626351,0.761107
8156875790,86.651909,43.962307,-99.768341,1.199938,-0.287594,1.206210
8156895790,105.498795,58.706326,-87.412758,1.697659,0.620950,0.477653
8156915791,101.440445,49.622253,-49.766727,1.410318,1.014398,0.103028
8156935791,-38.065933,0.574231,-36.725403,0.878531,0.881034,0.051834
8156955791,-124.168289,-20.055490,-25.812294,0.707268,0.180336,0.078389
8156975792,-92.851105,-1.894895,-17.237640,0.572383,-0.476451,0.451259
8156995792,-39.845440,2.308086,3.505746,1.033137,-0.904125,0.533344
8157015792,-20.509602,-4.963224,38.490921,1.618124,-0.778032,0.072639
8157035793,-5.633588,1.233157,45.203888,1.280416,-0.524013,-0.178121
8157055795,42.000927,-2.571604,31.499521,0.964709,-0.588486,0.032499
8157075795,78.014160,-4.356520,36.685440,1.142554,-0.583517,0.306495
8157095796,77.165550,9.278204,73.856659,1.263495,-0.484702,0.326810
8157115796,60.869820,6.601804,138.894745,0.968437,-0.777578,0.209119
8157135796,42.399578,-18.905409,186.013031,0.934650,-0.816846,0.019560
8157155797,74.338448,0.449814,191.174927,0.879868,-0.393396,0.269186
8157175797,82.510361,19.527573,171.695633,0.954077,0.034952,0.524961
8157195796,21.447594,22.027311,160.837799,1.251481,0.274500,0.381703
8157215796,-28.027832,23.472704,175.997528,1.009504,0.127738,0.471553
8157235797,-111.128685,22.231255,167.134369,0.707654,0.094610,0.504506
8157255797,-139.465820,20.024654,143.001526,0.622945,-0.197348,0.127310
8157275798,-89.991257,18.695812,125.052299,0.692314,-0.705336,-0.017796
8157295798,-16.714872,10.966935,111.043427,0.602390,-0.684131,0.015818
8157315798,21.376888,-5.360731,91.040779,0.699380,-0.467069,0.132497
8157335799,-9.486947,-11.109849,80.690338,0.649025,-0.533269,0.291542
8157355799,-49.923393,-10.731938,75.249832,0.655054,-0.818424,0.219270
8157375799,-42.405273,-7.490068,84.905136,0.733205,-1.054420,0.080747
8157395802,-4.292842,-4.830860,97.592278,0.663676,-1.029569,0.145250
8157415802,24.259447,-0.227963,102.775711,0.665698,-0.704813,0.220733
8157435803,15.331405,8.453128,91.742905,0.560820,-0.402085,0.364530
8157455803,-10.570215,22.106995,77.314995,0.609614,-0.608528,0.551630
8157475803,-27.713047,41.845238,71.315552,0.614371,-0.758204,0.466683
8157495803,-11.616210,59.043705,37.939770,0.570573,-0.450266,0.239216
8157515802,-16.420174,53.953140,-17.991919,0.569091,-0.122138,0.005206
8157535803,-45.671150,32.741062,-76.064255,0.376912,-0.362469,0.084407
8157555803,-43.595619,35.042587,-156.401550,0.439931,-0.415499,0.092971
8157575804,-7.506236,51.026707,-254.655075,0.451334,0.194748,-0.202072
8157595804,-1.487799,26.391434,-330.526245,0.368024,0.617110,-0.204110
8157615804,-39.917229,-16.287275,-376.710785,0.486956,0.756719,-0.124878
8157635805,-73.351990,-38.724861,-415.699310,1.163354,0.696672,-0.072723
8157655805,-57.500427,-34.453800,-347.412231,3.629017,-2.121184,-0.347306
8157675805,-42.152847,-29.357403,-75.730431,1.693523,-3.567131,0.388259
8157695806,144.279587,-25.887888,11.691319,1.220654,-3.113667,0.940706
8157715808,171.144730,6.078961,140.657990,1.215412,-1.468079,0.780096
8157735808,204.676575,74.789696,203.503418,2.033709,0.804529,0.368300
8157755808,86.077530,38.834560,185.339005,1.289384,1.893483,-0.195654
8157775809,-84.279030,-40.352848,121.782990,0.741103,0.507685,0.153515
8157795809,-152.103439,-72.527122,166.352783,0.898611,-0.696818,0.292280
8157815810,-48.458221,-34.840149,222.923920,0.842397,-1.221761,0.694839
8157835811,24.365784,-6.065846,246.573532,1.098537,-0.970290,0.529638
8157855809,9.903700,16.338322,252.967041,1.083538,-0.282448,0.179957
8157875810,-44.479588,22.334562,250.277740,0.671404,-0.303354,0.185798
8157895810,-52.373783,19.263184,234.475525,0.463261,-0.554758,0.102825
8157915810,-26.103832,24.401562,201.252319,0.449188,-0.443074,0.257039
8157935811,-17.605455,21.488108,154.148819,0.551653,-0.255670,0.215056
8157955811,-16.205181,29.407228,120.145096,0.603220,-0.747306,0.443052
8157975811,-20.859175,51.448738,111.988342,0.652739,-1.135715,0.512549
8157995812,-20.311375,79.872116,119.912292,0.497475,-1.062735,0.459148
8158015812,-21.413774,94.390808,114.531990,0.249767,-0.923596,0.330827
8158035813,8.832103,109.890732,80.270935,0.112077,-0.651901,0.182239
8158055814,49.170395,117.391785,-0.044326,0.049923,-0.356536,-0.080704
8158075815,66.903458,109.981308,-86.784958,-0.152660,-0.087174,0.032430
8158095815,19.376780,76.931503,-140.358124,-0.267782,-0.100465,-0.069502
8158115816,-32.767284,31.166929,-187.780701,-0.180423,0.012932,-0.439427
8158135816,-27.886904,7.919675,-264.276123,-0.061616,0.055876,-0.140157
8158155817,-0.257237,9.944312,-355.823914,0.079068,-0.016704,0.148248
8158175817,19.383751,-2.827320,-436.712646,0.386942,0.013512,-0.276193
8158195816,12.628442,-75.704086,-471.088043,2.102085,-0.211608,-0.532857
8158215816,-12.797110,-88.817596,-368.921753,2.301008,-1.053035,-0.034478
8158235816,-103.042824,-164.793396,-138.528366,1.891796,-3.501945,0.174165
8158255817,-29.240311,-139.824310,75.922920,1.622694,-3.721543,0.946705
8158275818,168.711853,-17.514658,101.373505,1.440186,-1.214751,1.333429
8158295818,286.484833,34.023930,138.135010,2.372711,-0.410599,-0.023650
8158315818,163.283783,38.718735,210.178650,1.228697,0.996464,0.461142
8158335818,39.265915,-8.985974,157.971237,0.570077,1.092210,0.357171
8158355819,-127.396889,-42.720379,148.793549,0.482819,-0.397387,0.424879
8158375819,-43.262447,-22.528151,157.231705,0.810784,-0.791678,0.317938
8158395821,94.807312,4.862445,172.070679,1.047810,-0.894558,0.473963
8158415821,76.011818,31.152180,186.574905,0.768143,-0.272261,0.634259
8158435822,-28.341255,43.897213,183.346115,0.513892,-0.054445,0.416639
8158455822,-81.709190,37.841671,172.210754,0.570584,-0.681602,0.259828
8158475823,-55.857235,31.856560,153.660995,0.654063,-1.202560,0.277430
8158495823,-4.430543,42.249649,132.503601,0.661355,-1.159164,0.201674
8158515824,42.729904,54.259094,107.133133,0.509323,-0.972804,0.154408
8158535823,46.983639,61.123566,84.086990,0.326095,-0.653079,0.353436
8158555823,6.078757,74.971214,69.468361,0.053102,-0.455144,0.408579
8158575823,-37.537426,73.732948,50.804062,-0.053619,-0.389697,0.180190
8158595824,-22.019581,59.897659,17.054844,-0.012222,-0.501052,0.000523
8158615824,33.888432,52.893787,-33.256008,-0.120440,-0.714188,-0.055305
8158635824,61.801205,33.881355,-80.671593,-0.173827,-0.682666,0.010079
8158655825,79.576553,12.070681,-132.511765,-0.032733,-0.091765,0.009991
8158675825,70.795456,-3.019387,-193.129532,0.184001,0.320002,0.220297
8158695825,44.658340,-26.619572,-256.160034,-0.017176,0.186511,0.351401
8158715826,-13.234818,-63.618771,-319.129120,0.156440,0.107247,0.126325
8158735828,-90.517426,-100.713730,-334.452545,1.299618,-0.131153,-0.146018
8158755828,-127.099335,-90.860741,-240.584732,2.614868,-0.940782,-0.015346
8158775828,-155.914612,-114.708908,-60.476326,1.414178,-3.100772,0.051179
8158795829,-129.721344,-209.011795,216.052155,1.573109,-4.382095,0.611100
8158815829,79.112129,-46.883785,215.655167,1.449229,-1.865822,0.521205
8158835830,399.068878,5.440186,167.091339,1.489222,-0.607431,-0.387272
8158855831,323.455750,37.704666,101.297859,1.288841,1.109135,1.397723
8158875829,62.176762,27.470661,72.847137,0.585889,1.418135,0.973143
8158895830,-121.166267,40.098286,94.799141,0.594459,0.203671,0.747885
8158915830,-173.364746,35.191128,108.123085,0.727663,-0.656639,0.413723
8158935842,-99.948959,50.560959,112.657623,0.545670,-1.168174,0.054975
8158955831,5.343252,63.820274,120.384628,0.284172,-1.255324,0.222341
8158975831,42.295780,74.174652,106.687675,0.296401,-0.696678,0.153221
8158995831,7.957994,68.551987,88.700005,0.327169,-0.558976,0.260784
8159015832,-47.903435,61.601902,72.298538,0.166004,-0.386584,0.494406
8159035832,-67.997421,49.492905,58.508038,0.189282,-0.663409,0.286541
8159055834,-63.911835,17.616932,58.565472,0.158429,-1.209487,-0.032482
8159075834,18.217487,10.414465,33.661911,0.173106,-0.964167,-0.241980
8159095835,87.856682,22.681747,-25.697844,0.109671,-0.040317,0.119000
8159115835,52.115055,16.736692,-101.911346,-0.099818,0.602704,0.433840
8159135835,-60.092510,-28.406384,-173.137070,-0.161167,0.441546,0.128299
8159155835,-129.580322,-56.686913,-226.084381,0.127630,-0.015748,-0.030610
8159175836,-140.644562,-74.399353,-252.156067,0.840396,-0.497937,-0.278364
8159195835,-98.693893,-86.350227,-208.027405,1.345049,-1.073113,-0.045891
8159215835,-93.613777,-100.424683,-108.754677,0.971895,-1.385418,0.148074
8159235836,-100.160789,-138.401367,24.640942,1.156643,-2.945978,-0.014087
8159255837,-33.090492,-77.564896,96.708443,1.311251,-2.178176,0.246951
8159275837,124.652847,-9.285674,70.425781,1.054400,-1.322069,0.440919
8159295838,108.639404,14.456420,58.756721,0.898270,-0.112778,0.486260
8159315838,19.411360,13.115980,77.150406,0.914781,-0.163885,0.477725
8159335838,-79.682625,-6.589193,92.070320,0.519722,-0.708750,0.155017
8159355838,-82.517639,-29.741371,83.274200,0.357310,-0.798008,-0.237205
8159375839,-1.924235,-12.748402,72.387543,0.442987,-0.827471,-0.041051
8159395841,23.027411,2.471457,54.908497,0.451023,-0.631861,0.293344
8159415841,-22.718655,7.496877,35.731567,0.384548,-0.622943,0.252676
8159435841,-54.760670,8.899324,13.149559,0.435326,-0.733663,0.004225
8159455842,-36.398872,11.991140,-12.459301,0.543462,-0.828440,-0.010744
8159475842,-21.476387,13.402019,-35.985409,0.632808,-0.731567,0.157418
8159495842,-23.059767,16.960348,-47.233727,0.755225,-0.670285,0.276017
8159515845,-34.675083,28.376369,-42.505630,0.867485,-0.774674,0.383194
8159535842,-37.146549,41.428379,-26.511312,0.911704,-0.976573,0.353721
8159555842,-19.384787,59.568443,-19.060141,0.801567,-0.920106,0.235990
8159575843,-11.537828,67.089996,-16.895878,0.708571,-0.662874,0.083148
8159595843,-30.295441,70.392151,-18.269037,0.679507,-0.316583,0.035667
8159615844,-58.131477,67.948639,-14.566719,0.657074,-0.501905,0.100316
8159635844,-69.428696,67.023766,-21.821484,0.703599,-0.871850,0.077096
8159655844,-54.308643,78.734695,-35.744026,0.655240,-0.984661,0.094671
8159675844,-33.354942,84.407104,-42.818848,0.575123,-0.868931,0.071653
8159695845,-24.993198,83.526520,-46.728714,0.696500,-0.728532,0.108117
8159715845,-33.510254,78.818817,-57.375935,0.800713,-0.693074,0.161162
8159735847,-45.007572,72.302208,-62.058659,0.899490,-0.701507,0.226411
8159755847,-46.887630,76.640663,-48.580914,0.866059,-0.771211,0.260987
8159775848,-34.807426,80.966934,-32.583111,0.775482,-0.733733,0.338128
8159795848,-31.457439,83.591171,-23.802681,0.717020,-0.651346,0.253267
8159815849,-31.535828,86.471588,-24.240948,0.677768,-0.571744,0.148391
8159835849,-38.368744,81.871330,-23.968498,0.569004,-0.516668,0.107044
8159855862,-49.125114,72.251099,-28.260572,0.574106,-0.490288,0.115812
8159875848,-59.032196,64.985611,-33.965477,0.592951,-0.540775,0.147700
8159895849,-69.852135,52.789639,-34.727085,0.723184,-0.684429,0.148573
8159915849,-72.373558,49.460026,-27.572304,0.925541,-0.887551,0.140870
8159935850,-58.656227,56.448364,-26.655930,0.850617,-0.855815,0.214790
8159975850,-44.502045,68.372513,-21.698282,0.681615,-0.437946,0.267327
8159995851,-58.035175,71.611229,-23.710566,0.621487,-0.323098,0.199555
8160015851,-81.710686,77.074486,-25.717001,0.643843,-0.388288,0.117683
8160035851,-102.210899,80.423767,-34.347374,0.660640,-0.557882,0.024498
8160055852,-111.523918,81.054001,-38.867294,0.667468,-0.766660,-0.058242
8160075854,-102.405937,78.680237,-42.044308,0.631466,-0.957139,-0.132756
8160095854,-70.692078,75.618523,-49.926620,0.594196,-0.967750,-0.141725
8160115854,-40.815536,66.787285,-63.238297,0.649452,-0.761575,-0.091705
8160135855,-36.120552,59.310452,-77.619003,0.778272,-0.624846,-0.027562
8160155855,-50.293816,51.284088,-80.656395,0.847103,-0.594650,0.056404
8160175856,-67.023880,41.438953,-69.820282,0.823453,-0.605882,0.049588
8160195855,-79.780243,34.470943,-56.066822,0.806638,-0.726464,0.028285
8160215855,-79.029984,37.896591,-51.928940,0.819116,-0.968224,0.056753
8160235855,-54.188805,43.499840,-48.655708,0.857289,-1.007361,0.078263
8160255856,-23.491142,54.957424,-42.221249,0.917265,-0.908935,0.050902
8160275856,3.223380,65.463264,-29.745615,0.807813,-0.686521,0.038811
8160295857,-0.294062,59.626667,-8.204566,0.771241,-0.485869,0.087719
8160315857,-25.699963,50.219662,7.935532,0.829255,-0.448356,0.107976
8160335858,-51.129471,38.718544,11.637518,0.832061,-0.664740,0.065812
8160355858,-54.194092,27.682579,10.865617,0.770465,-0.902387,0.024238
8160375859,-25.946278,24.766712,10.871391,0.688425,-1.021776,0.015031
8160395860,5.596045,23.694164,7.563248,0.634133,-0.969711,0.028187
8160415860,19.415592,17.386150,0.750109,0.598784,-0.838226,0.022619
8160435861,25.490042,5.607254,-6.633596,0.612389,-0.732906,0.008185
8160455861,30.156511,-5.942083,-9.809476,0.657377,-0.678389,0.015736
8160475861,40.102177,-14.571148,-8.212331,0.715221,-0.605162,0.079319
8160495862,49.636543,-21.656553,-4.507690,0.772222,-0.558741,0.193291
8160515862,47.266537,-26.519316,-0.629556,0.796509,-0.542796,0.269913
8160535861,44.800152,-25.458897,-0.364720,0.771712,-0.533355,0.276724
8160555862,45.382080,-19.981228,-1.015354,0.793458,-0.501004,0.301804
8160575862,42.122547,-12.212967,-1.681623,0.841620,-0.487528,0.298433
8160595862,42.524502,-5.457311,-7.960737,0.757386,-0.463170,0.287633
8160615863,43.698925,-9.643339,-15.371677,0.704430,-0.426536,0.253517
8160635863,36.785515,-16.592976,-16.965248,0.736711,-0.390270,0.256477
8160655864,26.466490,-19.494526,-17.512909,0.767105,-0.413312,0.266806
8160675864,24.090050,-18.572815,-19.132488,0.803034,-0.407014,0.296352
8160695864,23.992636,-16.413080,-20.418522,0.823144,-0.363633,0.314770
8160715865,16.802423,-14.063192,-21.179062,0.835103,-0.323260,0.320472
8160735866,7.331182,-11.643991,-23.160589,0.865536,-0.319287,0.325552
8160755867,-1.772860,-7.269783,-25.904991,0.898095,-0.334364,0.323922
8160775867,-8.837465,-2.335297,-28.273684,0.918267,-0.355280,0.308849
8160795868,-13.359721,2.758699,-27.622570,0.925886,-0.375831,0.294282
8160815868,-18.178226,7.915742,-25.085760,0.893036,-0.382107,0.289851
8160835869,-22.659811,11.706956,-22.551895,0.878753,-0.387951,0.285966
8160855869,-25.708771,15.247766,-20.524998,0.867280,-0.391535,0.266203
8160875868,-26.574654,17.580484,-19.528503,0.862611,-0.398252,0.240992
8160895868,-24.715700,18.792908,-20.028851,0.873100,-0.393664,0.215031
8160915868,-23.999004,20.603020,-22.213739,0.876940,-0.387788,0.192996
8160935869,-25.381516,20.612068,-25.991932,0.854989,-0.393949,0.168241
8160955869,-26.291649,17.109230,-28.798851,0.827635,-0.400115,0.147901
8160975869,-25.997768,11.587469,-30.523008,0.835030,-0.413267,0.122820
8160995870,-24.134098,7.321703,-31.758474,0.861515,-0.407881,0.112787
8161015870,-21.236841,3.891242,-33.108837,0.875430,-0.386968,0.120998
8161055871,-16.548153,-6.243829,-35.493301,0.858684,-0.363993,0.145287
8161075873,-19.341061,-12.913932,-36.795387,0.864330,-0.374649,0.152258
8161095874,-23.501837,-16.856930,-37.852814,0.883996,-0.381554,0.156302
8161115874,-25.518515,-17.520702,-37.521420,0.922841,-0.385141,0.160123
8161135874,-25.737537,-15.488285,-36.762100,0.951515,-0.383432,0.163213
8161155874,-25.164362,-13.760218,-35.389473,0.957672,-0.378226,0.180344
8161175875,-26.962452,-11.797439,-34.166664,0.942235,-0.359874,0.188481
8161195874,-28.638464,-9.681259,-34.305386,0.932497,-0.341456,0.177884
8161215874,-29.029242,-5.325427,-32.491909,0.961263,-0.357258,0.170754
8161235875,-25.241117,2.024563,-30.323530,0.959201,-0.369116,0.171280
8161255875,-21.779221,6.543394,-28.839960,0.964367,-0.367381,0.166745
8161275876,-17.295628,9.299034,-27.132683,0.998253,-0.340539,0.161474
8161295876,-9.670972,11.827011,-26.563427,0.998079,-0.309183,0.148038
8161315876,-4.456830,14.294830,-25.633316,0.962866,-0.297812,0.153620
8161335877,-1.369481,15.338557,-23.972698,0.953019,-0.286845,0.149430
8161355877,-0.279503,15.116417,-23.535908,0.949858,-0.270430,0.142031
8161375878,-0.781655,13.804022,-24.029219,0.953695,-0.266657,0.138181
8161395879,-1.214386,10.858756,-23.094372,0.989004,-0.271308,0.125929
8161415880,-0.370949,9.950297,-21.194273,1.000054,-0.251949,0.135685
8161435880,0.410367,8.937191,-20.509308,0.979831,-0.231690,0.155603
8161455880,-0.090996,6.014210,-19.741432,0.958858,-0.203681,0.163353
8161495881,-5.765425,2.427950,-15.550019,0.962493,-0.177420,0.161618
8161515882,-8.064461,1.646861,-14.388475,0.964590,-0.190074,0.163475
8161535880,-7.843139,1.749597,-15.111889,0.958857,-0.210224,0.169839
8161555881,-5.764264,1.229997,-17.353237,0.968351,-0.209942,0.178231
8161575881,-3.937748,0.595743,-19.805689,1.010388,-0.181318,0.182501
8161595882,-6.941442,1.123309,-21.299030,1.027004,-0.160146,0.206516
8161615882,-11.300451,3.688683,-21.564323,1.021608,-0.186764,0.199756
8161635882,-11.691168,3.133748,-19.812178,0.980520,-0.234248,0.200254
8161655883,-6.998084,1.564565,-16.665176,0.959865,-0.237741,0.179667
8161675883,-1.376418,6.050627,-12.744338,0.971157,-0.194072,0.186042
8161695884,2.297925,12.022881,-11.762283,0.974157,-0.107303,0.199881
8161715884,7.626515,13.231179,-14.315082,0.943554,-0.056348,0.183284
8161735886,10.935096,9.553205,-14.541501,0.937767,-0.050672,0.158418
8161755886,7.343300,7.697864,-10.717016,0.971549,-0.056193,0.153005
8161775887,-0.727810,8.759976,-6.946091,0.967030,-0.062729,0.178692
8161795887,-9.555804,6.661222,-7.762575,0.946449,-0.075319,0.183239
8161815887,-12.722981,1.824522,-11.814625,0.956219,-0.096423,0.171348
8161835888,-9.423248,-0.217440,-14.389017,0.987826,-0.110155,0.166951
8161855888,-2.041542,0.791499,-12.694661,1.013610,-0.103329,0.180332
8161875887,1.392362,4.014940,-9.419248,1.013212,-0.081125,0.206714
8161895887,-1.489372,5.990909,-9.285852,0.997588,-0.046668,0.221899
8161915888,-8.617828,5.543138,-13.111724,0.965520,-0.037272,0.227543
8161935888,-14.279380,3.830979,-15.768267,0.958477,-0.063552,0.222859
8161955889,-16.299786,3.823304,-13.737578,0.991769,-0.109327,0.211583
8161975889,-15.496756,7.155528,-9.979481,1.013133,-0.121322,0.218185
8161995889,-13.032244,10.565816,-9.717423,0.988789,-0.092554,0.216768
8162015890,-9.944773,10.577738,-13.455256,0.962613,-0.077453,0.216820
8162035890,-7.718220,9.042089,-16.019442,0.962129,-0.077501,0.231867
8162055891,-6.381428,9.391751,-15.449585,0.979033,-0.073096,0.234341
8162075892,-5.451623,10.773163,-14.616567,0.979913,-0.056684,0.245408
8162095893,-6.061007,11.103968,-15.983165,0.969975,-0.029720,0.247266
8162115893,-8.632882,11.121444,-18.676857,0.944727,-0.026709,0.248790
8162135894,-12.183102,10.604997,-20.368153,0.922915,-0.034146,0.249414
8162155894,-14.190687,10.341641,-20.821346,0.928508,-0.041159,0.237720
8162175894,-15.280422,10.785221,-22.817005,0.934269,-0.037909,0.219302
8162195893,-13.894124,10.727282,-26.212379,0.916566,-0.036370,0.218006
8162215894,-4.659919,9.906615,-24.951355,0.953005,-0.118178,0.177305
8162235894,15.074846,13.159706,-21.841728,0.973403,-0.051287,0.219081
8162255895,12.361459,15.286161,-22.036556,0.970791,-0.017114,0.233671
8162275895,4.009576,12.283980,-23.352676,0.932211,0.012892,0.240575
