Timestamp (us),Gyroscope X (deg/s),Gyroscope Y (deg/s),Gyroscope Z (deg/s),Accelerometer X (g),Accelerometer Y (g),Accelerometer Z (g)
9145255364,1.191043,-0.662372,0.449472,0.289762,0.803010,-0.525410
9145257867,1.191043,-0.662372,0.449472,0.290536,0.807376,-0.525367
9145260369,1.251899,-0.601691,0.449224,0.289809,0.808111,-0.524640
9145262872,1.252140,-0.480128,0.387898,0.284699,0.803802,-0.526920
9145265375,1.252256,-0.419198,0.387546,0.283246,0.803818,-0.526936
9145267877,1.252265,-0.419495,0.326924,0.284779,0.811092,-0.526861
9145270381,1.252149,-0.480425,0.327276,0.286968,0.810341,-0.528302
9145272883,1.312898,-0.480970,0.266758,0.288324,0.805212,-0.524679
9145275386,1.373638,-0.481219,0.266862,0.285350,0.803777,-0.520347
9145277889,1.495242,-0.421083,0.206096,0.283137,0.802341,-0.518923
9145280391,1.555991,-0.421628,0.145577,0.283907,0.801614,-0.523298
9145282894,1.556233,-0.300065,0.084251,0.286845,0.804496,-0.523242
9145285397,1.677712,-0.300562,0.084459,0.283203,0.804537,-0.522553
9145287900,1.677828,-0.239632,0.084107,0.280369,0.808950,-0.524739
9145290402,1.799182,-0.300762,0.145289,0.280417,0.813324,-0.524704
9145292905,1.859815,-0.362237,0.085123,0.281176,0.816232,-0.524672
9145295408,1.920331,-0.484642,0.025308,0.282613,0.815484,-0.523933
9145297911,1.980964,-0.546117,-0.034858,0.285512,0.814722,-0.523906
9145300413,2.041820,-0.485436,-0.035106,0.288433,0.817600,-0.522392
9145302916,2.102667,-0.424458,0.025268,0.287028,0.821992,-0.522373
9145305419,2.224262,-0.364025,0.025125,0.285641,0.823477,-0.526754
9145307921,2.345876,-0.304186,-0.096264,0.283412,0.819856,-0.526078
9145310424,2.406634,-0.305028,-0.217404,0.282635,0.819853,-0.521709
9145312927,2.467517,-0.245237,-0.399519,0.283369,0.821301,-0.520960
9145315430,2.589015,-0.246327,-0.520555,0.281148,0.819136,-0.519543
9145317932,2.710485,-0.246528,-0.459725,0.275303,0.816287,-0.519630
9145320435,2.832062,-0.185501,-0.338625,0.276054,0.817739,-0.520340
9145322938,3.014388,-0.125020,-0.278043,0.278166,0.818426,-0.513745
9145325441,3.075253,-0.064636,-0.338913,0.275920,0.816983,-0.509405
9145327943,3.196741,-0.065430,-0.399327,0.275236,0.816273,-0.513795
9145330446,3.196741,-0.065430,-0.399327,0.275178,0.814079,-0.510895
9145332949,3.318096,-0.126560,-0.338145,0.276550,0.810408,-0.507261
9145335452,3.439450,-0.187690,-0.276963,0.276570,0.805320,-0.513866
9145337954,3.621543,-0.249068,-0.215677,0.276596,0.803871,-0.517525
9145340457,3.803780,-0.250407,-0.336610,0.276604,0.804600,-0.517519
9145342960,3.925251,-0.250608,-0.275779,0.278034,0.801669,-0.518256
9145345462,3.985991,-0.250856,-0.275676,0.275864,0.799514,-0.521215
9145347965,4.046953,-0.128948,-0.215653,0.275846,0.800238,-0.519021
9145350468,4.107702,-0.129494,-0.276171,0.275847,0.798784,-0.520492
9145352971,4.168451,-0.130039,-0.336690,0.274460,0.800269,-0.524873
9145355474,4.228940,-0.251554,-0.214637,0.273694,0.795905,-0.525645
9145357976,4.229056,-0.190624,-0.214989,0.272250,0.795197,-0.527126
9145360479,4.229163,-0.129397,-0.154719,0.272223,0.797373,-0.522732
9145362982,4.229163,-0.129397,-0.154719,0.272918,0.794448,-0.522747
9145365484,4.350508,-0.190231,-0.032915,0.273557,0.786421,-0.522803
9145367987,4.411247,-0.190479,-0.032811,0.273546,0.790055,-0.518397
9145370490,4.532727,-0.190976,-0.032603,0.272198,0.796640,-0.521279
9145372993,4.532843,-0.130046,-0.032955,0.272896,0.790080,-0.524970
9145375496,4.593583,-0.130295,-0.032851,0.272853,0.790798,-0.520588
9145377998,4.593574,-0.129998,0.027772,0.274322,0.792239,-0.520560
9145380501,4.654419,-0.069020,0.088146,0.272273,0.798838,-0.525638
9145383005,4.654536,-0.008090,0.087794,0.274373,0.792250,-0.524937
9145385508,4.715258,-0.007745,0.209143,0.273662,0.792989,-0.525668
9145388010,4.715132,-0.068378,0.270117,0.272249,0.796651,-0.525655
9145390513,4.714890,-0.189941,0.331442,0.267145,0.795979,-0.524988
9145393016,4.775514,-0.251119,0.331898,0.270728,0.795926,-0.520571
9145395519,4.775505,-0.250823,0.392520,0.270655,0.793001,-0.516947
9145398021,4.897082,-0.189796,0.513621,0.275009,0.788585,-0.520581
9145400524,4.957812,-0.189748,0.574347,0.275779,0.787859,-0.524956
9145403027,5.079390,-0.128722,0.695448,0.274375,0.788614,-0.528613
9145405530,5.140139,-0.129267,0.634929,0.277321,0.792952,-0.527817
9145408032,5.140139,-0.129267,0.634929,0.277304,0.793676,-0.525622
9145410535,5.079283,-0.189948,0.635177,0.277371,0.793690,-0.531458
9145413038,5.079148,-0.250285,0.756774,0.279617,0.796588,-0.534328
9145415541,5.139762,-0.311166,0.817852,0.280310,0.796573,-0.531403
9145418043,5.139539,-0.433323,0.757933,0.279615,0.799497,-0.531387
9145420546,5.200047,-0.555431,0.758741,0.283968,0.797263,-0.532815
9145423049,5.199796,-0.676697,0.880689,0.288281,0.792838,-0.532802
9145425552,5.260517,-0.676352,1.002037,0.288282,0.792111,-0.533538
9145428054,5.260633,-0.615422,1.001686,0.288340,0.792123,-0.538644
9145430557,5.321392,-0.616264,0.880545,0.292726,0.792078,-0.540784
9145433060,5.321410,-0.616858,0.759301,0.291940,0.792074,-0.535686
9145435563,5.321312,-0.678381,0.638408,0.289099,0.795758,-0.537877
9145438065,5.321312,-0.678381,0.638408,0.289768,0.792828,-0.535704
9145440568,5.382042,-0.678333,0.699134,0.294090,0.787678,-0.537156
9145443071,5.382033,-0.678036,0.759756,0.290516,0.787005,-0.543037
9145445573,5.442773,-0.678285,0.759860,0.286923,0.789238,-0.544518
9145448076,5.381694,-0.861122,0.700190,0.287640,0.789955,-0.543046
9145450579,5.381480,-0.983576,0.579649,0.290547,0.790649,-0.542278
9145453082,5.320625,-1.044257,0.579897,0.293453,0.791342,-0.541511
9145455585,5.320741,-0.983327,0.579545,0.297071,0.789115,-0.542218
9145458087,5.259992,-0.982782,0.640063,0.294190,0.788427,-0.545173
9145460590,5.259992,-0.982782,0.640063,0.286948,0.789244,-0.546707
9145463093,5.259992,-0.982782,0.640063,0.290565,0.789198,-0.545208
9145465596,5.260117,-0.922149,0.579089,0.294224,0.788434,-0.548091
9145468098,5.199493,-0.860970,0.578633,0.290575,0.786291,-0.548878
9145470601,5.199610,-0.800041,0.578281,0.288373,0.780493,-0.552596
9145473104,5.138647,-0.921949,0.518259,0.288340,0.779758,-0.550414
9145475607,5.138424,-1.044105,0.458340,0.289074,0.781933,-0.548929
9145478109,5.077453,-1.165716,0.458940,0.284060,0.785645,-0.551874
9145480612,5.016462,-1.286734,0.580784,0.285507,0.783444,-0.553334
9145483115,4.894857,-1.346870,0.641550,0.289169,0.777590,-0.561364
9145485617,4.834243,-1.285988,0.580472,0.286958,0.773244,-0.562882
9145488134,4.712996,-1.163632,0.579561,0.286950,0.773242,-0.562153
9145490622,4.591749,-1.041275,0.578649,0.289881,0.773941,-0.563574
9145493124,4.531009,-1.041026,0.578545,0.289173,0.771771,-0.567247
9145495627,4.409530,-1.040529,0.578337,0.289134,0.766672,-0.568746
9145498130,4.348915,-0.979648,0.517259,0.287698,0.766692,-0.570221
9145500632,4.227552,-0.918221,0.516700,0.287019,0.771075,-0.570194
9145503135,4.106073,-0.917724,0.516492,0.287777,0.773983,-0.570163
9145505638,3.923961,-0.855752,0.576450,0.284903,0.774751,-0.572377
9145508141,3.741742,-0.855006,0.576138,0.284185,0.774761,-0.573115
9145510644,3.559416,-0.915487,0.515556,0.285647,0.774746,-0.573828
9145513146,3.377099,-0.976265,0.394352,0.284184,0.776943,-0.570909
9145515649,3.255406,-1.098221,0.273603,0.284927,0.776938,-0.572360
9145518151,3.133936,-1.098021,0.212773,0.284241,0.779864,-0.573074
9145520654,3.073196,-1.097772,0.212669,0.282036,0.779157,-0.571645
9145523157,2.951717,-1.097275,0.212461,0.282028,0.777701,-0.572386
9145525660,2.830479,-0.975215,0.150927,0.280575,0.777718,-0.572402
9145528163,2.769962,-0.852810,0.210742,0.280608,0.778452,-0.574585
9145530666,2.648599,-0.791383,0.210182,0.282045,0.778432,-0.573110
9145533168,2.466255,-0.851271,0.270844,0.280591,0.779176,-0.572391
9145535671,2.344427,-1.033563,0.271692,0.279154,0.779923,-0.573130
9145538173,2.162208,-1.032818,0.271380,0.279210,0.784299,-0.573825
9145540676,1.979873,-1.093002,0.271420,0.277080,0.785063,-0.577490
9145543179,1.858510,-1.031575,0.270860,0.274825,0.783618,-0.572420
9145545682,1.797886,-0.970397,0.270404,0.273371,0.784362,-0.571701
9145548185,1.737263,-0.909219,0.269948,0.274891,0.785814,-0.576050
9145550687,1.615784,-0.908721,0.269740,0.274891,0.785086,-0.576785
9145553190,1.555169,-0.847840,0.208662,0.271192,0.782933,-0.573195
9145555693,1.494653,-0.725435,0.268477,0.274098,0.784353,-0.571693
9145558195,1.373280,-0.663711,0.328539,0.276318,0.786519,-0.573110
9145560698,1.252033,-0.541355,0.327628,0.272646,0.782188,-0.573914
9145563201,1.130447,-0.602084,0.267150,0.271160,0.779289,-0.573954
9145565704,1.069698,-0.601539,0.327668,0.271136,0.778556,-0.572501
9145568207,1.008842,-0.662220,0.327916,0.273367,0.777815,-0.577588
9145570709,0.826730,-0.600248,0.387874,0.276953,0.773398,-0.577583
9145573212,0.705260,-0.600048,0.327044,0.272643,0.773460,-0.582008
9145575715,0.583656,-0.660184,0.387810,0.276226,0.773407,-0.577591
9145578217,0.522693,-0.782092,0.327788,0.280521,0.769705,-0.575384
9145580720,0.401204,-0.781298,0.388202,0.281306,0.771164,-0.579012
9145583223,0.219102,-0.719622,0.387538,0.276914,0.767571,-0.579818
9145585726,-0.023634,-0.596472,0.447041,0.274751,0.766873,-0.582036
9145588228,-0.144881,-0.474115,0.446129,0.276272,0.766870,-0.587856
9145590731,-0.326859,-0.351807,0.384492,0.279189,0.763929,-0.591494
9145593234,-0.508952,-0.290428,0.323206,0.282790,0.762425,-0.590007
9145595737,-0.752027,-0.350364,0.323142,0.282716,0.759500,-0.586383
9145598240,-0.994986,-0.349370,0.322726,0.282748,0.762416,-0.586360
9145600742,-1.177205,-0.348624,0.322414,0.279884,0.761732,-0.590774
9145603245,-1.359308,-0.286949,0.321750,0.287202,0.760931,-0.595806
9145605748,-1.602016,-0.164689,0.199386,0.293015,0.761591,-0.595007
9145608250,-1.784216,-0.164537,0.077830,0.296657,0.762277,-0.594961
9145610753,-2.027050,-0.102910,0.016440,0.297423,0.766641,-0.594188
9145613256,-2.209036,0.019696,0.015425,0.297431,0.767371,-0.594182
9145615759,-2.451753,0.142253,-0.046317,0.288685,0.766739,-0.592826
9145618261,-2.694577,0.203583,-0.168329,0.283557,0.766062,-0.589970
9145620764,-2.998276,0.204826,-0.168849,0.284266,0.766777,-0.587768
9145623267,-3.241351,0.144890,-0.168913,0.287099,0.764546,-0.583376
9145625770,-3.484193,0.206814,-0.169681,0.288618,0.766725,-0.586990
9145628272,-3.666403,0.207263,-0.230615,0.284300,0.766785,-0.590685
9145630775,-3.848497,0.268641,-0.291901,0.285710,0.768213,-0.585552
9145633278,-3.969860,0.330068,-0.292461,0.285023,0.771867,-0.585531
9145635780,-4.152185,0.269587,-0.353043,0.283563,0.769700,-0.587023
9145638283,-4.273539,0.330717,-0.414225,0.284984,0.766767,-0.587030
9145640786,-4.455517,0.453026,-0.475863,0.284990,0.771132,-0.583348
9145643289,-4.637146,0.758124,-0.538556,0.285700,0.771120,-0.581881
9145645791,-4.819017,0.941659,-0.539923,0.282091,0.771895,-0.583374
9145648295,-4.940371,1.002789,-0.601105,0.288612,0.775452,-0.578167
9145650798,-5.001217,0.941811,-0.661480,0.288598,0.771085,-0.581120
9145653301,-5.183534,0.881033,-0.782684,0.284964,0.771854,-0.580425
9145655804,-5.426483,0.881730,-0.843722,0.283442,0.774039,-0.572399
9145658307,-5.669442,0.882725,-0.844138,0.282755,0.778420,-0.571643
9145660809,-5.790805,0.944151,-0.844698,0.283457,0.776224,-0.571652
9145663312,-5.973015,0.944600,-0.905632,0.283476,0.774046,-0.575317
9145665815,-6.033504,1.066115,-1.027684,0.285647,0.774019,-0.574564
9145668318,-6.215607,1.127790,-1.028348,0.283443,0.772584,-0.573870
9145670820,-6.337077,1.127990,-1.089178,0.280528,0.772616,-0.573173
9145673323,-6.458333,1.250644,-1.029467,0.279844,0.771906,-0.577563
9145675826,-6.579455,1.433634,-1.091353,0.277597,0.769736,-0.573957
9145678329,-6.761549,1.495012,-1.152639,0.279841,0.775543,-0.573887
9145680831,-6.882787,1.617072,-1.214173,0.282038,0.775521,-0.575321
9145683334,-7.004140,1.678202,-1.275355,0.281204,0.771870,-0.569523
9145685836,-7.125513,1.739926,-1.215292,0.278322,0.773363,-0.570273
9145688340,-7.368587,1.679990,-1.215356,0.279091,0.773364,-0.573912
9145690842,-7.611672,1.620351,-1.154798,0.279040,0.774080,-0.568800
9145693345,-7.733142,1.620551,-1.215628,0.279823,0.776993,-0.570957
9145695848,-7.854496,1.681682,-1.276810,0.282026,0.780610,-0.569445
9145698351,-7.975859,1.743109,-1.277370,0.284197,0.782037,-0.567221
9145700853,-8.097222,1.804535,-1.277930,0.283441,0.776220,-0.570194
9145703356,-8.279325,1.866211,-1.278593,0.286372,0.777647,-0.570879
9145705859,-8.400901,1.805184,-1.399694,0.289945,0.780501,-0.562792
9145708362,-8.522372,1.805385,-1.460524,0.281941,0.782046,-0.560680
9145710872,-8.643968,1.744952,-1.460380,0.277615,0.782104,-0.563646
9145713367,-8.765348,1.806972,-1.339695,0.274739,0.785781,-0.562920
9145715870,-8.825856,1.929081,-1.340503,0.276892,0.788660,-0.557766
9145718372,-8.886247,2.112119,-1.341663,0.280484,0.787881,-0.554814
9145720875,-8.886237,2.111822,-1.402285,0.283397,0.792213,-0.551100
9145723378,-8.946969,2.111773,-1.463011,0.279736,0.794431,-0.546746
9145725880,-9.007717,2.112319,-1.402493,0.276061,0.794465,-0.543139
9145728383,-9.129081,2.173746,-1.403052,0.276748,0.790084,-0.543895
9145730886,-9.189830,2.174291,-1.342534,0.278896,0.787870,-0.543159
9145733389,-9.189830,2.174291,-1.342534,0.278193,0.790792,-0.542415
9145735892,-9.189713,2.235221,-1.342886,0.278176,0.790062,-0.541691
9145738395,-9.128848,2.295605,-1.403756,0.277440,0.791523,-0.539499
9145740897,-9.128830,2.295012,-1.525001,0.276703,0.794438,-0.535837
9145743400,-9.189677,2.234034,-1.585375,0.279625,0.796590,-0.535058
9145745903,-9.189802,2.173401,-1.524401,0.277389,0.792239,-0.534387
9145748405,-9.250667,2.113016,-1.463531,0.278811,0.789306,-0.534395
9145750908,-9.189820,2.173994,-1.403156,0.283178,0.791439,-0.532870
9145753421,-9.189713,2.235221,-1.342886,0.283912,0.793614,-0.531386
9145755912,-9.250346,2.296696,-1.282720,0.280997,0.792192,-0.532159
9145758415,-9.371817,2.296896,-1.343550,0.278066,0.790766,-0.531473
9145760917,-9.371807,2.296599,-1.404172,0.278801,0.790759,-0.532195
9145763420,-9.371923,2.235670,-1.403820,0.278810,0.790761,-0.532924
9145765923,-9.371923,2.235670,-1.403820,0.280989,0.791463,-0.532165
9145768426,-9.311184,2.235421,-1.403716,0.279546,0.789300,-0.535116
9145770929,-9.311193,2.235718,-1.343094,0.278126,0.790051,-0.537314
9145773431,-9.371817,2.296896,-1.343550,0.281096,0.796577,-0.536501
9145775934,-9.432440,2.358075,-1.344006,0.284001,0.798725,-0.534263
9145778437,-9.492948,2.480183,-1.344813,0.282515,0.796553,-0.533567
9145780939,-9.492831,2.541113,-1.345165,0.283276,0.796551,-0.536476
9145783442,-9.431975,2.601794,-1.345413,0.281062,0.795842,-0.534318
9145785945,-9.432092,2.540864,-1.345061,0.274474,0.792271,-0.533690
9145788448,-9.553678,2.480134,-1.405539,0.270115,0.790140,-0.535944
9145790950,-9.614525,2.419156,-1.465914,0.271585,0.790127,-0.537387
9145793453,-9.675388,2.358772,-1.405044,0.275994,0.792996,-0.538774
9145795956,-9.796762,2.420496,-1.344981,0.281839,0.797299,-0.537216
9145798458,-9.796664,2.482019,-1.224089,0.288369,0.800130,-0.533473
9145800961,-9.796432,2.603878,-1.224792,0.290613,0.805937,-0.533403
9145803464,-9.796298,2.664215,-1.346389,0.287706,0.805244,-0.534170
9145805967,-9.796280,2.663621,-1.467633,0.281077,0.799482,-0.532101
9145808470,-9.796262,2.663028,-1.588878,0.281062,0.796570,-0.533583
9145810972,-9.796262,2.663028,-1.588878,0.282539,0.799467,-0.532814
9145813475,-9.917508,2.785385,-1.589789,0.283255,0.802366,-0.529136
9145815978,-9.978140,2.846860,-1.529623,0.284698,0.805256,-0.525449
9145818481,-9.978140,2.846860,-1.529623,0.286886,0.806687,-0.524684
9145820983,-9.978024,2.907789,-1.529975,0.285399,0.805970,-0.522517
9145823486,-9.978131,2.846563,-1.590245,0.281071,0.808936,-0.522542
9145825989,-10.038871,2.846812,-1.590349,0.280295,0.807480,-0.519644
9145828491,-10.039104,2.724952,-1.589645,0.282450,0.805994,-0.518902
9145830994,-9.978480,2.663773,-1.589189,0.283218,0.807449,-0.521071
9145833497,-9.917741,2.663525,-1.589085,0.279575,0.808944,-0.518911
9145836000,-9.856992,2.662979,-1.649604,0.281020,0.808926,-0.518166
9145838502,-9.856875,2.723909,-1.649956,0.281012,0.808924,-0.517436
9145841005,-9.856777,2.785433,-1.529063,0.278848,0.810407,-0.517449
9145843508,-9.795824,2.907637,-1.408418,0.282489,0.811821,-0.516667
9145846011,-9.856573,2.908183,-1.347900,0.289003,0.812467,-0.513672
9145848513,-9.735094,2.907686,-1.347692,0.285395,0.813242,-0.515165
9145851016,-9.735085,2.907389,-1.408314,0.282461,0.815452,-0.510803
9145853519,-9.674558,2.784687,-1.528751,0.279514,0.813295,-0.509394
9145856022,-9.674674,2.723758,-1.528399,0.275897,0.812614,-0.511628
9145858524,-9.674915,2.602194,-1.467073,0.278795,0.813306,-0.510131
9145861027,-9.613972,2.724696,-1.285806,0.280240,0.813287,-0.509386
9145863530,-9.492493,2.724199,-1.285598,0.280959,0.812549,-0.509383
9145866033,-9.431870,2.663021,-1.285143,0.279537,0.816210,-0.508641
9145868535,-9.371469,2.479686,-1.344605,0.280249,0.812561,-0.510850
9145871038,-9.432440,2.358075,-1.344006,0.280209,0.809644,-0.510144
9145873541,-9.432663,2.235918,-1.403924,0.280322,0.817668,-0.512268
9145876044,-9.432663,2.235918,-1.403924,0.279554,0.816213,-0.510100
9145878546,-9.432440,2.358075,-1.344006,0.274467,0.816272,-0.510156
9145881049,-9.371487,2.480279,-1.223361,0.275960,0.819173,-0.510846
9145883552,-9.310640,2.541257,-1.162987,0.279537,0.815482,-0.509376
9145886055,-9.250026,2.480376,-1.101908,0.275880,0.813338,-0.509434
9145888557,-9.189615,2.296744,-1.221993,0.274367,0.814069,-0.503608
9145891060,-9.129224,2.113706,-1.220834,0.278753,0.814024,-0.505749
9145893563,-9.068708,1.991301,-1.280649,0.282454,0.813996,-0.511544
9145896066,-9.068727,1.991895,-1.159404,0.288257,0.816836,-0.507809
9145898568,-9.129359,2.053370,-1.099238,0.278056,0.819857,-0.502792
9145901071,-9.068745,1.992488,-1.038160,0.280215,0.813282,-0.507197
9145903574,-8.947392,1.931358,-0.976978,0.281621,0.808890,-0.507216
9145906076,-8.886642,1.930813,-1.037496,0.279423,0.809639,-0.505046
9145908579,-8.886525,1.991743,-1.037848,0.277324,0.814046,-0.507953
9145911082,-8.947141,2.052624,-1.098926,0.288904,0.810264,-0.507124
9145913586,-9.007880,2.052873,-1.099030,0.283823,0.813961,-0.504234
9145916089,-9.068727,1.991895,-1.159404,0.280172,0.814727,-0.502080
9145918591,-9.007880,2.052873,-1.099030,0.284549,0.815407,-0.502755
9145921094,-8.947131,2.052327,-1.159548,0.287415,0.812456,-0.502017
9145923597,-8.947141,2.052624,-1.098926,0.281609,0.813252,-0.502075
9145926100,-8.886507,1.991149,-1.159092,0.281626,0.813256,-0.503534
9145928602,-8.886507,1.991149,-1.159092,0.277250,0.811848,-0.503594
9145931105,-8.886400,2.052376,-1.098822,0.279503,0.816930,-0.504988
9145933608,-8.947141,2.052624,-1.098926,0.284550,0.813953,-0.504226
9145936111,-8.947149,2.052921,-1.038303,0.283790,0.812500,-0.502786
9145938613,-8.886400,2.052376,-1.098822,0.280849,0.813253,-0.499165
9145941116,-8.886274,2.113009,-1.159796,0.280806,0.813972,-0.494783
9145943619,-8.825177,2.295253,-1.221370,0.280120,0.816898,-0.495497
9145946121,-8.825070,2.356480,-1.161099,0.284499,0.813942,-0.499849
9145948624,-8.764225,2.417458,-1.100725,0.284479,0.819029,-0.493243
9145951127,-8.642968,2.294804,-1.160436,0.285915,0.819009,-0.491768
9145953630,-8.643075,2.233577,-1.220706,0.285224,0.816843,-0.496900
9145956132,-8.582559,2.111173,-1.280521,0.285885,0.814638,-0.493262
9145958635,-8.521944,2.050291,-1.219443,0.285174,0.815377,-0.493994
9145961138,-8.400464,2.049794,-1.219235,0.291062,0.817508,-0.498289
9145963641,-8.400126,2.232880,-1.159668,0.295438,0.820370,-0.496758
9145966143,-8.339252,2.292968,-1.281160,0.291076,0.822602,-0.494601
9145968646,-8.339126,2.353601,-1.342134,0.290375,0.821889,-0.497532
9145971149,-8.278368,2.352759,-1.463275,0.288163,0.818998,-0.497580
9145973652,-8.217513,2.413440,-1.463523,0.291052,0.821142,-0.493883
9145976159,-8.095908,2.473577,-1.524289,0.289532,0.819690,-0.489534
9145978657,-8.096025,2.412647,-1.523937,0.288126,0.824081,-0.489515
9145981160,-8.096140,2.351717,-1.523585,0.291752,0.823310,-0.489481
9145983663,-8.157005,2.291332,-1.462715,0.286697,0.824831,-0.490984
9145986165,-8.096373,2.229857,-1.522882,0.282337,0.824881,-0.491032
9145988668,-7.975000,2.168133,-1.582944,0.283025,0.820501,-0.491789
9145991171,-7.914251,2.167588,-1.643462,0.287358,0.823354,-0.486611
9145993674,-7.792781,2.167388,-1.582632,0.291809,0.825504,-0.492381
9145996176,-7.792675,2.228615,-1.522362,0.285972,0.822657,-0.493198
9145998679,-7.671195,2.228118,-1.522154,0.278622,0.821270,-0.487454
9146001182,-7.671070,2.288751,-1.583128,0.279338,0.824896,-0.483041
9146003685,-7.610196,2.348839,-1.704620,0.277965,0.830748,-0.484469
9146006187,-7.609945,2.470104,-1.826568,0.277941,0.828561,-0.484486
9146008690,-7.549089,2.530786,-1.826816,0.276454,0.828571,-0.481585
9146011193,-7.427735,2.469656,-1.765634,0.275791,0.832957,-0.483017
9146013696,-7.306390,2.408822,-1.643830,0.277203,0.832931,-0.479354
9146016198,-7.185055,2.348286,-1.461403,0.274981,0.832221,-0.476466
9146018707,-7.185171,2.287356,-1.461052,0.272132,0.833721,-0.480133
9146021202,-7.124547,2.226177,-1.460596,0.270025,0.838126,-0.482311
9146023705,-7.124547,2.226177,-1.460596,0.274393,0.839532,-0.481521
9146026208,-7.003087,2.226274,-1.339144,0.279456,0.836558,-0.482218
9146028710,-6.760128,2.225280,-1.338728,0.277277,0.835856,-0.482977
9146031213,-6.577900,2.224238,-1.399038,0.275774,0.834408,-0.480087
9146033716,-6.395662,2.222899,-1.519971,0.275013,0.835137,-0.476442
9146036219,-6.334797,2.283283,-1.580841,0.272120,0.838810,-0.474257
9146038722,-6.213086,2.404646,-1.581337,0.270708,0.841018,-0.475714
9146041241,-6.152239,2.465624,-1.520962,0.269948,0.839565,-0.474275
9146043727,-6.091518,2.465969,-1.399614,0.264126,0.839630,-0.473610
9146046230,-6.091884,2.283773,-1.277314,0.264100,0.840352,-0.470686
9146048732,-5.970879,2.039853,-1.215076,0.271310,0.838074,-0.467706
9146051235,-5.910371,1.917745,-1.214269,0.271343,0.839535,-0.469153
9146053738,-5.728259,1.855773,-1.274227,0.272821,0.839524,-0.471325
9146056241,-5.606799,1.855870,-1.152775,0.277182,0.838746,-0.472013
9146058743,-5.546059,1.855621,-1.152671,0.279395,0.840909,-0.472700
9146061246,-5.424571,1.854827,-1.213085,0.281608,0.840891,-0.475594
9146063749,-5.181709,1.792310,-1.333562,0.282377,0.840892,-0.479233
9146066252,-5.059988,1.913376,-1.394680,0.288183,0.840822,-0.478440
9146068754,-4.938277,2.034738,-1.395176,0.290957,0.837851,-0.469678
9146071257,-4.877073,2.278209,-1.396479,0.288712,0.833499,-0.468278
9146073760,-4.755593,2.277712,-1.396271,0.285837,0.836448,-0.468287
9146076263,-4.634096,2.276622,-1.517308,0.287249,0.835695,-0.465359
9146078765,-4.452109,2.154016,-1.516292,0.285738,0.832791,-0.463210
9146081268,-4.330755,2.092886,-1.455110,0.281370,0.832112,-0.463264
9146083771,-4.270266,1.971372,-1.333058,0.282806,0.832092,-0.461789
9146086274,-4.148796,1.971171,-1.272228,0.293657,0.831227,-0.458027
9146088776,-4.027317,1.970674,-1.272020,0.297316,0.831918,-0.459440
9146091279,-3.844973,2.030562,-1.332682,0.288564,0.827648,-0.461030
9146093782,-3.723377,2.090995,-1.332826,0.284916,0.824778,-0.462552
9146096285,-3.723252,2.151628,-1.393800,0.282082,0.829191,-0.464738
9146098787,-3.601531,2.272693,-1.454918,0.284293,0.832809,-0.463955
9146101290,-3.479569,2.515322,-1.577362,0.282080,0.831373,-0.462532
9146103793,-3.297234,2.575507,-1.577402,0.278415,0.828499,-0.462595
9146106295,-3.175764,2.575306,-1.516572,0.279134,0.827762,-0.462593
9146108798,-3.115391,2.392862,-1.394168,0.284254,0.827710,-0.465455
9146111301,-2.994144,2.270505,-1.393256,0.279127,0.825578,-0.464070
9146113804,-2.872772,2.208781,-1.453319,0.279159,0.827767,-0.464782
9146116306,-2.751283,2.207988,-1.513733,0.277722,0.827788,-0.466256
9146118809,-2.569064,2.207242,-1.513421,0.279886,0.827031,-0.465509
9146121312,-2.508101,2.329150,-1.453399,0.283512,0.826260,-0.465475
9146123815,-2.447245,2.389831,-1.453647,0.283471,0.824797,-0.463298
9146126317,-2.447139,2.451058,-1.393376,0.279767,0.816096,-0.465596
9146128820,-2.386273,2.511442,-1.454246,0.285605,0.817488,-0.466250
9146131323,-2.204036,2.510103,-1.575179,0.284199,0.821879,-0.466231
9146133826,-2.143403,2.448628,-1.635345,0.280697,0.826314,-0.473530
9146136328,-2.082896,2.326520,-1.634538,0.280696,0.828495,-0.471325
9146138831,-2.022175,2.326865,-1.513189,0.277697,0.828509,-0.463333
9146141334,-1.839840,2.387049,-1.513229,0.274700,0.824160,-0.459753
9146143836,-1.778993,2.448027,-1.452855,0.274701,0.822705,-0.461223
9146146339,-1.778877,2.508957,-1.453207,0.275460,0.824886,-0.461927
9146148842,-1.718272,2.448372,-1.331506,0.276266,0.831441,-0.462596
9146151345,-1.596677,2.508806,-1.331650,0.276977,0.830701,-0.461865
9146153847,-1.475304,2.447082,-1.391713,0.282839,0.833554,-0.463236
9146156350,-1.293076,2.446039,-1.452023,0.278839,0.826972,-0.437798
9146158853,-1.110732,2.505927,-1.512686,0.270759,0.840301,-0.480826
9146161356,-0.928290,2.627338,-1.452455,0.271626,0.821976,-0.447402
9146163858,-0.867434,2.688019,-1.452703,0.295962,0.833411,-0.466739
9146166361,-0.745955,2.687522,-1.452495,0.267747,0.859224,-0.453718
9146168864,-0.563968,2.564917,-1.451479,0.276412,0.853292,-0.454398
9146171367,-0.442855,2.382224,-1.328972,0.292319,0.835633,-0.463844
9146173869,-0.261012,2.199579,-1.145738,0.275652,0.852566,-0.452223
9146176372,-0.139793,2.078113,-0.962959,0.273305,0.838009,-0.451634
9146178876,-0.018304,2.077319,-1.023373,0.284072,0.822580,-0.454554
9146181379,0.042686,2.198336,-1.145218,0.282675,0.827700,-0.454529
9146183882,0.164425,2.318809,-1.327580,0.298237,0.843588,-0.465174
9146186384,0.286146,2.439874,-1.388698,0.289552,0.840788,-0.471129
9146188887,0.407983,2.621870,-1.450168,0.275790,0.835866,-0.480076
9146191390,0.468829,2.682848,-1.389794,0.282983,0.832857,-0.476372
9146193893,0.590300,2.682648,-1.328963,0.278479,0.832877,-0.464019
9146196395,0.711537,2.560588,-1.267430,0.269008,0.831527,-0.463406
9146198898,0.772036,2.438776,-1.206000,0.282890,0.832837,-0.468348
9146201401,0.832427,2.255738,-1.204840,0.285127,0.836460,-0.469754
9146203904,0.892925,2.133927,-1.143410,0.284443,0.835751,-0.474144
9146206407,1.014163,2.011867,-1.081877,0.282976,0.829946,-0.478583
9146208909,1.075010,2.072845,-1.021502,0.274240,0.827862,-0.479426
9146211412,1.135875,2.133230,-1.082372,0.289478,0.824770,-0.480011
9146213915,1.196749,2.193318,-1.203865,0.290131,0.821837,-0.476379
9146216418,1.196999,2.314584,-1.325813,0.285242,0.827757,-0.488059
9146218920,1.196999,2.314584,-1.325813,0.293264,0.836398,-0.482066
9146221423,1.196874,2.253951,-1.264839,0.291061,0.832054,-0.484313
9146223926,1.257488,2.193069,-1.203761,0.282345,0.826338,-0.490291
9146226429,1.318228,2.192821,-1.203657,0.285961,0.827019,-0.488057
9146228931,1.378977,2.192276,-1.264175,0.285216,0.828479,-0.485136
9146231434,1.257632,2.253109,-1.385979,0.288843,0.825526,-0.487307
9146233936,1.257525,2.191882,-1.446250,0.290348,0.824065,-0.493138
9146236439,1.196660,2.131498,-1.385379,0.280247,0.829290,-0.494669
9146238942,1.196535,2.070865,-1.324405,0.284638,0.833610,-0.493127
9146241445,1.135805,2.070816,-1.385132,0.288357,0.831404,-0.502587
9146243955,1.075199,2.131401,-1.506832,0.288439,0.834331,-0.506940
9146246450,1.136073,2.191489,-1.628324,0.294887,0.834962,-0.498109
9146248953,1.136324,2.312755,-1.750272,0.291955,0.834264,-0.496688
9146251456,1.136459,2.373091,-1.871869,0.291296,0.834286,-0.502531
9146253958,1.075719,2.373340,-1.871973,0.289074,0.834303,-0.498908
9146256461,1.075719,2.373340,-1.871973,0.281756,0.834376,-0.494612
9146258964,1.015095,2.434518,-1.872429,0.285358,0.831418,-0.494595
9146261467,0.954472,2.495697,-1.872884,0.283153,0.829983,-0.493901
9146263969,0.832983,2.496490,-1.812470,0.283176,0.833625,-0.492413
9146266472,0.772118,2.436106,-1.751600,0.285362,0.837238,-0.489442
9146268975,0.771993,2.375473,-1.690626,0.283853,0.832879,-0.488764
9146271477,0.832742,2.374928,-1.751144,0.282368,0.828525,-0.490274
9146273980,0.832626,2.313998,-1.750792,0.277289,0.829313,-0.490324
9146276483,0.832742,2.374928,-1.751144,0.271533,0.831575,-0.493289
9146278986,0.893366,2.313749,-1.750688,0.272970,0.830827,-0.492549
9146281489,0.953980,2.252867,-1.689610,0.274357,0.829341,-0.488168
9146283991,0.893356,2.314046,-1.690066,0.273606,0.828617,-0.486723
9146286510,0.832858,2.435857,-1.751496,0.273573,0.827156,-0.485276
9146288995,0.893616,2.435015,-1.872636,0.271402,0.826456,-0.486764
9146291498,0.954365,2.434470,-1.933155,0.269965,0.827203,-0.487504
9146294001,1.014863,2.312659,-1.871725,0.272131,0.822811,-0.490433
9146296504,0.953864,2.191938,-1.689258,0.272081,0.821346,-0.487527
9146299006,0.893106,2.192780,-1.568118,0.272022,0.821333,-0.482421
9146301509,0.771724,2.254800,-1.447433,0.272799,0.821335,-0.486789
9146304012,0.710994,2.254752,-1.508159,0.269903,0.817735,-0.491227
9146306515,0.650379,2.315634,-1.569237,0.271342,0.814805,-0.492693
9146309017,0.650156,2.193477,-1.629156,0.273515,0.813324,-0.493410
9146311520,0.589273,2.133686,-1.447041,0.275704,0.811845,-0.495586
9146314023,0.589138,2.073350,-1.325445,0.277942,0.814014,-0.498462
9146316525,0.467641,2.074440,-1.204409,0.277255,0.816941,-0.499176
9146319028,0.346161,2.074937,-1.204616,0.277190,0.813290,-0.497017
9146321531,0.224450,1.953575,-1.204121,0.274250,0.812590,-0.494867
9146324034,0.163585,1.893190,-1.143251,0.273580,0.816974,-0.495569
9146326536,0.163450,1.832854,-1.021654,0.272184,0.818458,-0.499221
9146329039,0.102818,1.894329,-0.961488,0.271441,0.817736,-0.498505
9146331542,0.102943,1.954962,-1.022462,0.270689,0.817739,-0.496325
9146334045,0.042203,1.955211,-1.022566,0.272894,0.818446,-0.497754
9146336547,-0.079392,1.894778,-1.022422,0.276478,0.816211,-0.495543
9146339050,-0.201113,1.773712,-0.961304,0.274992,0.815494,-0.493377
9146341553,-0.261871,1.774554,-0.840163,0.275784,0.819136,-0.495528
9146344056,-0.262015,1.714514,-0.657945,0.276592,0.822782,-0.499138
9146346559,-0.322647,1.775989,-0.597778,0.274419,0.824990,-0.497686
9146349061,-0.383378,1.775941,-0.658505,0.275830,0.825692,-0.493287
9146351564,-0.443876,1.897753,-0.719935,0.278018,0.825668,-0.493992
9146354067,-0.504732,1.837071,-0.719687,0.278793,0.829307,-0.494685
9146356570,-0.565713,1.715757,-0.658465,0.278122,0.834419,-0.494652
9146359072,-0.626685,1.594146,-0.657865,0.277436,0.837345,-0.495366
9146361575,-0.626694,1.594442,-0.597243,0.275982,0.837362,-0.495382
9146364077,-0.566312,1.411701,-0.535461,0.278123,0.833691,-0.495387
9146366580,-0.566544,1.289842,-0.534757,0.275776,0.830772,-0.483764
9146369083,-0.566795,1.168575,-0.412809,0.275007,0.831499,-0.479389
9146371586,-0.566795,1.168575,-0.412809,0.276419,0.830018,-0.477197
9146374089,-0.627428,1.230051,-0.352643,0.277107,0.824910,-0.478688
9146376592,-0.627195,1.351910,-0.353346,0.274966,0.829308,-0.477948
9146379094,-0.626972,1.474067,-0.293428,0.276427,0.830020,-0.477926
9146381597,-0.505609,1.412640,-0.292868,0.280797,0.829244,-0.479343
9146384099,-0.505957,1.229850,-0.291813,0.277171,0.829288,-0.480112
9146386602,-0.445459,1.108039,-0.230383,0.274290,0.828600,-0.483068
9146389105,-0.445701,0.986476,-0.169057,0.276444,0.830751,-0.478650
9146391608,-0.385319,0.803735,-0.107275,0.275745,0.826401,-0.485257
9146394111,-0.446300,0.682420,-0.046053,0.275736,0.827127,-0.483793
9146396613,-0.567904,0.622284,0.014713,0.280798,0.826335,-0.482284
9146399116,-0.567913,0.622581,0.075335,0.278646,0.823457,-0.487437
9146401619,-0.446425,0.621787,0.014921,0.277878,0.822002,-0.485268
9146404121,-0.385801,0.560609,0.015377,0.277887,0.821276,-0.486733
9146406624,-0.386052,0.439343,0.137325,0.278639,0.819819,-0.490384
9146409127,-0.447042,0.318325,0.259169,0.282273,0.820504,-0.489609
9146411630,-0.507791,0.318870,0.319687,0.285904,0.823370,-0.486627
9146414132,-0.568656,0.258486,0.380557,0.285955,0.823381,-0.491004
9146416635,-0.568870,0.136032,0.260017,0.283082,0.822695,-0.494689
9146419138,-0.569102,0.014173,0.260720,0.284576,0.824869,-0.496114
9146421641,-0.629958,-0.046509,0.260968,0.286813,0.828492,-0.497520
9146424144,-0.690814,-0.107190,0.261216,0.286691,0.821920,-0.493196
9146426646,-0.690939,-0.167823,0.322190,0.284387,0.818282,-0.485955
9146429149,-0.690948,-0.167526,0.382812,0.280762,0.817599,-0.487460
9146431651,-0.751688,-0.167278,0.382708,0.285113,0.818274,-0.485947
9146434154,-0.873167,-0.166781,0.382500,0.288871,0.821167,-0.493907
9146436657,-0.933782,-0.105899,0.321422,0.293287,0.826220,-0.493818
9146439160,-0.994521,-0.105651,0.321318,0.289627,0.828439,-0.489464
9146441663,-0.994744,-0.227807,0.261400,0.290370,0.829161,-0.490180
9146444165,-0.933995,-0.228352,0.200882,0.294764,0.829845,-0.492314
9146446668,-0.933986,-0.228649,0.140259,0.288160,0.823361,-0.493168
9146449172,-0.994824,-0.289924,0.019263,0.293243,0.829847,-0.486495
9146451675,-1.055805,-0.411238,0.080485,0.302747,0.833386,-0.487820
9146454178,-1.055930,-0.471871,0.141459,0.298104,0.827558,-0.468950
9146456681,-0.995209,-0.471526,0.262807,0.298870,0.818830,-0.480682
9146459183,-0.995083,-0.410893,0.201833,0.283632,0.822649,-0.479363
9146461686,-1.055698,-0.350012,0.140755,0.296064,0.818885,-0.489468
9146464188,-1.055912,-0.472465,0.020214,0.291574,0.824000,-0.473428
9146466691,-1.116902,-0.593482,0.142059,0.271385,0.812632,-0.498546
9146469194,-1.117018,-0.654412,0.142410,0.280014,0.824876,-0.478656
9146471697,-1.178115,-0.836657,0.203984,0.299811,0.826141,-0.492287
9146474200,-1.178464,-1.019446,0.205040,0.279946,0.824862,-0.472821
9146476702,-1.178464,-1.019446,0.205040,0.289935,0.835050,-0.509836
9146479205,-1.117492,-0.897835,0.204440,0.270113,0.844691,-0.483717
9146481708,-1.056394,-0.715591,0.142866,0.296958,0.833459,-0.490073
9146484211,-0.995539,-0.654909,0.142618,0.281425,0.825578,-0.474258
9146486713,-0.995413,-0.594276,0.081644,0.280308,0.826394,-0.502716
9146489216,-1.056153,-0.594028,0.081540,0.253260,0.825217,-0.490624
9146491719,-1.177748,-0.654461,0.081684,0.267644,0.822835,-0.479539
9146494222,-1.238720,-0.776072,0.082284,0.277838,0.831449,-0.472792
9146496724,-1.178213,-0.898180,0.083092,0.277533,0.855550,-0.486467
9146499227,-1.117715,-1.019992,0.144522,0.272335,0.845402,-0.486605
9146501730,-1.057226,-1.141506,0.266574,0.279283,0.831430,-0.472047
9146504232,-0.996611,-1.202388,0.327652,0.284359,0.821913,-0.480090
9146506735,-0.996611,-1.202388,0.327652,0.278039,0.832946,-0.488828
9146509238,-0.996388,-1.080231,0.387570,0.267130,0.832344,-0.488954
9146511740,-0.935532,-1.019550,0.387322,0.277971,0.834386,-0.481522
9146514243,-0.874793,-1.019799,0.387426,0.282434,0.844541,-0.480663
9146516746,-0.813803,-0.898781,0.265582,0.283330,0.856206,-0.484209
9146519249,-0.874426,-0.837602,0.265126,0.280310,0.848215,-0.482117
9146521752,-0.813705,-0.837257,0.386475,0.275031,0.833686,-0.479372
9146524254,-0.753323,-1.019999,0.448256,0.270596,0.831539,-0.475061
9146526757,-0.632201,-1.202989,0.510142,0.267041,0.839599,-0.474307
9146529260,-0.632559,-1.385481,0.571820,0.265669,0.844724,-0.476471
9146531762,-0.632809,-1.506747,0.693768,0.266385,0.847623,-0.472792
9146534265,-0.572329,-1.627965,0.876442,0.270003,0.845395,-0.473499
9146536768,-0.511733,-1.688254,1.058765,0.272920,0.843181,-0.476402
9146539271,-0.390263,-1.688454,1.119595,0.272833,0.834435,-0.477202
9146541774,-0.268793,-1.688654,1.180425,0.266924,0.825754,-0.477336
9146544276,-0.268900,-1.749881,1.120155,0.263341,0.825080,-0.482488
9146546779,-0.329756,-1.810562,1.120403,0.265625,0.834532,-0.482388
9146549282,-0.390621,-1.870947,1.181273,0.269345,0.843236,-0.481548
9146551784,-0.390746,-1.931580,1.242247,0.269346,0.842509,-0.482284
9146554308,-0.269401,-1.992413,1.364051,0.267920,0.839622,-0.487429
9146556788,-0.208778,-2.053591,1.364507,0.269994,0.834483,-0.483069
9146559291,-0.208778,-2.053591,1.364507,0.273489,0.826411,-0.478717
9146561794,-0.208796,-2.052998,1.485751,0.274962,0.822761,-0.483836
9146564297,-0.209163,-2.235194,1.608051,0.272881,0.825717,-0.489672
9146566799,-0.209511,-2.417984,1.609107,0.271427,0.826461,-0.488953
9146569302,-0.209744,-2.539843,1.609810,0.276505,0.827127,-0.487432
9146571805,-0.209530,-2.417390,1.730351,0.283070,0.827784,-0.488813
9146574308,-0.209307,-2.295233,1.790270,0.280834,0.823433,-0.488142
9146576811,-0.330438,-2.111947,1.789006,0.277830,0.816900,-0.486039
9146579313,-0.330312,-2.051314,1.728032,0.278551,0.813981,-0.488242
9146581816,-0.391159,-2.112292,1.667658,0.277897,0.817642,-0.491139
9146584319,-0.452131,-2.233903,1.668258,0.278697,0.822013,-0.493284
9146586821,-0.452247,-2.294833,1.668609,0.281619,0.824892,-0.491770
9146589324,-0.573726,-2.294336,1.668402,0.287383,0.823359,-0.488800
9146591827,-0.634484,-2.293494,1.789542,0.291640,0.813103,-0.489563
9146594330,-0.695358,-2.353582,1.911034,0.290148,0.808748,-0.490343
9146596832,-0.756098,-2.353333,1.910931,0.287249,0.809511,-0.490369
9146599335,-0.816694,-2.293045,1.728608,0.288035,0.808060,-0.496938
9146601838,-0.816559,-2.232709,1.607012,0.288878,0.810986,-0.504201
9146604341,-0.937681,-2.049719,1.545126,0.290396,0.816074,-0.504873
9146606843,-0.937449,-1.927859,1.544422,0.294730,0.817473,-0.501166
9146609346,-1.058705,-1.805206,1.604133,0.296917,0.819631,-0.499666
9146611849,-1.180185,-1.804709,1.603925,0.294699,0.813102,-0.502660
9146614351,-1.301780,-1.865142,1.604069,0.291001,0.808766,-0.501276
9146616854,-1.423482,-1.986801,1.543943,0.293947,0.812378,-0.501215
9146619357,-1.545060,-2.047827,1.422842,0.296879,0.813804,-0.501901
9146621860,-1.666548,-2.047033,1.483256,0.292508,0.816034,-0.499014
9146624363,-1.788036,-2.046239,1.543671,0.293266,0.819669,-0.498247
9146626865,-1.848544,-1.924132,1.542863,0.296835,0.815249,-0.496783
9146629368,-1.909149,-1.863546,1.421163,0.296785,0.814511,-0.493142
9146631871,-1.908889,-1.742577,1.238592,0.297504,0.813774,-0.493140
9146634374,-1.969369,-1.621359,1.055918,0.294616,0.811629,-0.496836
9146636876,-2.029984,-1.560478,0.994840,0.292466,0.816025,-0.495367
9146639379,-2.030100,-1.621408,0.995192,0.292472,0.819664,-0.492420
9146641882,-2.091071,-1.743019,0.995791,0.296766,0.818144,-0.488007
9146644384,-2.091197,-1.803652,1.056766,0.300423,0.821743,-0.486479
9146646887,-2.151937,-1.803403,1.056661,0.301092,0.819541,-0.483570
9146649390,-2.212435,-1.681592,0.995232,0.298200,0.821760,-0.482855
9146651893,-2.273156,-1.681937,0.873883,0.296052,0.825429,-0.482121
9146654395,-2.273147,-1.682234,0.813261,0.294597,0.826900,-0.480667
9146656898,-2.273147,-1.682234,0.813261,0.293860,0.830543,-0.476269
9146659401,-2.212282,-1.621849,0.752391,0.291711,0.834212,-0.475534
9146661904,-2.151542,-1.622097,0.752495,0.290984,0.834220,-0.475542
9146664406,-2.090570,-1.500486,0.751895,0.290893,0.832746,-0.468989
9146666909,-1.968975,-1.440054,0.751751,0.287249,0.834968,-0.466094
9146669412,-1.908003,-1.318442,0.751152,0.283597,0.837189,-0.462469
9146671915,-1.847254,-1.318988,0.690633,0.279211,0.837961,-0.459594
9146674417,-1.786630,-1.380166,0.691089,0.278543,0.839437,-0.463238
9146676920,-1.786756,-1.440799,0.752063,0.274914,0.843844,-0.459596
9146679423,-1.665393,-1.502226,0.752623,0.274144,0.846025,-0.453751
9146681925,-1.543904,-1.503020,0.692209,0.274096,0.843106,-0.452315
9146684428,-1.361801,-1.564695,0.692872,0.277028,0.843077,-0.454471
9146686931,-1.179591,-1.565144,0.753806,0.277819,0.848174,-0.455152
9146689434,-0.997382,-1.565593,0.814741,0.273426,0.846036,-0.454488
9146691936,-0.815163,-1.566338,0.815052,0.267596,0.844645,-0.454564
9146694439,-0.693925,-1.688398,0.876586,0.273473,0.851864,-0.452983
9146696942,-0.572562,-1.749825,0.877146,0.279352,0.853993,-0.456548
9146699445,-0.451217,-1.810659,0.998950,0.283615,0.848830,-0.452894
9146701947,-0.269114,-1.872334,0.999614,0.279273,0.845975,-0.457342
9146704450,-0.026155,-1.873328,1.000030,0.274237,0.845318,-0.462510
9146706953,0.156314,-1.752807,0.878394,0.272801,0.845338,-0.463984
9146709456,0.217170,-1.692126,0.878146,0.277111,0.844550,-0.460295
9146711958,0.277919,-1.692671,0.817627,0.276400,0.846016,-0.460291
9146714461,0.277919,-1.692671,0.817627,0.280729,0.842322,-0.461002
9146716965,0.399407,-1.693465,0.757213,0.281376,0.835023,-0.461052
9146719468,0.581626,-1.694211,0.757525,0.280807,0.839429,-0.470508
9146721971,0.763595,-1.816222,0.879785,0.274291,0.840238,-0.472033
9146724473,0.884949,-1.877352,0.940967,0.269171,0.839562,-0.469907
9146726976,0.945456,-1.999461,0.941775,0.273578,0.846068,-0.467618
9146729479,1.006089,-2.060936,0.881608,0.274362,0.847526,-0.471245
9146731982,1.066935,-1.999958,0.941983,0.276471,0.840212,-0.472009
9146734484,1.128139,-1.756487,0.940679,0.276505,0.840947,-0.474191
9146736987,1.249967,-1.574194,0.939831,0.276433,0.834385,-0.474244
9146739490,1.310814,-1.513216,1.000206,0.274253,0.834411,-0.474268
9146741993,1.310805,-1.512920,1.060828,0.274243,0.836591,-0.471333
9146744495,1.371535,-1.512871,1.121554,0.274349,0.841705,-0.475669
9146746998,1.432266,-1.512823,1.182280,0.275038,0.835142,-0.478631
9146749501,1.553754,-1.513617,1.121866,0.279347,0.835808,-0.473471
9146752004,1.675252,-1.514707,1.000830,0.277868,0.837274,-0.469828
9146754506,1.735884,-1.576183,0.940663,0.273511,0.832234,-0.475023
9146757009,1.735884,-1.576183,0.940663,0.272059,0.830069,-0.477245
9146759512,1.796731,-1.515204,1.001037,0.272733,0.832959,-0.469919
9146762015,1.857587,-1.454523,1.000790,0.279363,0.837266,-0.473459
9146764517,1.979182,-1.394090,1.000646,0.283078,0.841605,-0.476302
9146767020,2.039912,-1.394042,1.061372,0.281521,0.833599,-0.474923
9146769523,2.039796,-1.454972,1.061724,0.283637,0.827741,-0.474946
9146772025,1.978950,-1.515950,1.001349,0.285091,0.826997,-0.475665
9146774528,1.918336,-1.455068,0.940271,0.281450,0.825583,-0.476446
9146777031,1.918586,-1.333802,0.818323,0.280087,0.829256,-0.480809
9146779534,1.979424,-1.272527,0.939320,0.276454,0.828571,-0.481585
9146782037,2.101010,-1.211798,0.999798,0.281509,0.825596,-0.481552
9146784539,2.100884,-1.272431,1.060772,0.285134,0.825552,-0.480782
9146787042,2.100662,-1.394587,1.000854,0.283581,0.823365,-0.474251
9146789545,2.100439,-1.516744,0.940935,0.282162,0.822662,-0.477920
9146792047,2.100448,-1.517041,0.880313,0.284352,0.820457,-0.480831
9146794550,2.100680,-1.395181,0.879609,0.284385,0.820464,-0.483749
9146797053,2.161643,-1.273273,0.939632,0.285161,0.822648,-0.485912
9146799556,2.161866,-1.151116,0.999550,0.284433,0.824838,-0.483714
9146802058,2.162089,-1.028960,1.059469,0.282932,0.820481,-0.483765
9146804561,2.101475,-0.968078,0.998391,0.283678,0.816113,-0.489627
9146807064,2.040753,-0.968423,0.877042,0.287321,0.815345,-0.491052
9146809567,1.980032,-0.968768,0.755694,0.286641,0.820455,-0.490290
9146812069,1.980148,-0.907839,0.755342,0.283807,0.824868,-0.492475
9146814572,1.919533,-0.846957,0.694264,0.283776,0.821952,-0.492499
9146817075,1.859026,-0.724849,0.693456,0.287408,0.824092,-0.490253
9146819578,1.919533,-0.846957,0.694264,0.289604,0.824797,-0.490952
9146822080,1.980282,-0.847502,0.633746,0.288790,0.817513,-0.490289
9146824586,1.980069,-0.969955,0.513205,0.287345,0.817532,-0.491035
9146827084,1.919454,-0.909074,0.452127,0.285974,0.820476,-0.495404
9146829587,1.798091,-0.847647,0.451567,0.288179,0.820456,-0.497568
9146832090,1.798207,-0.786717,0.451215,0.292531,0.819676,-0.497526
9146834593,1.737816,-0.603679,0.450056,0.290344,0.818245,-0.498291
9146837095,1.738057,-0.482116,0.388730,0.289641,0.819713,-0.499017
9146839598,1.677550,-0.360008,0.387922,0.289640,0.821168,-0.497546
9146842101,1.556196,-0.298878,0.326740,0.287427,0.819732,-0.496123
9146844604,1.495475,-0.299223,0.205392,0.285934,0.816831,-0.495433
9146847106,1.434753,-0.299568,0.084043,0.283004,0.813223,-0.496953
9146849609,1.434879,-0.238935,0.023069,0.282310,0.814693,-0.498408
9146852112,1.434879,-0.238935,0.023069,0.286753,0.817569,-0.502714
9146854615,1.374130,-0.238389,0.083588,0.288222,0.819737,-0.501951
9146857117,1.313497,-0.176914,0.143754,0.290327,0.818242,-0.496832
9146859620,1.131394,-0.115239,0.143090,0.289609,0.818252,-0.497570
9146862123,1.010040,-0.054109,0.081908,0.284612,0.821240,-0.502708
9146864626,0.888570,-0.053909,0.021078,0.284637,0.822699,-0.503426
9146867128,0.827947,0.007270,0.020622,0.286832,0.824859,-0.502655
9146869631,0.767323,0.068448,0.020167,0.286097,0.824866,-0.501934
9146872134,0.828304,0.189763,-0.041055,0.286021,0.825577,-0.494634
9146874637,0.767681,0.250941,-0.041511,0.284515,0.828492,-0.487332
9146877139,0.828313,0.189466,-0.101678,0.280162,0.830727,-0.485904
9146879642,0.827965,0.006676,-0.100622,0.281599,0.829252,-0.485899
9146882145,0.888482,-0.115729,-0.160437,0.288140,0.828448,-0.486562
9146884647,0.949114,-0.177204,-0.220603,0.290369,0.830616,-0.488709
9146887150,0.949472,0.005289,-0.282281,0.287534,0.836483,-0.489424
9146889653,0.949811,0.188375,-0.222714,0.281737,0.838009,-0.489477
9146892156,0.889401,0.372007,-0.102629,0.279448,0.835829,-0.482224
9146894658,0.889508,0.433233,-0.042359,0.274915,0.830024,-0.472836
9146897161,0.950239,0.433282,0.018367,0.274825,0.826369,-0.468489
9146899664,1.132119,0.249450,-0.040887,0.274120,0.830746,-0.466273
9146902167,1.192644,0.126748,-0.161324,0.274236,0.835134,-0.472074
9146904669,1.253402,0.125906,-0.282465,0.277218,0.835844,-0.477871
9146907172,1.253402,0.125906,-0.282465,0.276525,0.835860,-0.480797
9146909675,1.375105,0.247565,-0.222338,0.275806,0.836597,-0.480799
9146912178,1.435951,0.308544,-0.161964,0.279340,0.833624,-0.474947
9146914680,1.557431,0.308047,-0.161756,0.280739,0.827777,-0.475707
9146917183,1.557305,0.247413,-0.100782,0.279303,0.825616,-0.479388
9146919686,1.496575,0.247365,-0.161508,0.279352,0.829263,-0.480088
9146922189,1.435845,0.247317,-0.222234,0.280846,0.831437,-0.481513
9146924691,1.435854,0.247020,-0.282856,0.278660,0.826369,-0.485955
9146927194,1.496709,0.307702,-0.283104,0.278637,0.823455,-0.486708
9146929697,1.618054,0.246868,-0.161300,0.280132,0.824901,-0.488868
9146932199,1.678785,0.246916,-0.100574,0.282289,0.821235,-0.490332
9146934702,1.739399,0.186035,-0.039496,0.282305,0.821965,-0.491056
9146937205,1.678553,0.125057,-0.099870,0.283932,0.827077,-0.501211
9146939708,1.617938,0.185938,-0.160948,0.288286,0.824843,-0.502639
9146942211,1.557315,0.247117,-0.161404,0.289012,0.824834,-0.502631
9146944713,1.557672,0.429609,-0.223082,0.292605,0.822601,-0.501150
9146947216,1.497067,0.490194,-0.344782,0.288170,0.821181,-0.496103
9146949719,1.497192,0.550827,-0.405756,0.286765,0.824845,-0.496820
9146952223,1.436337,0.490146,-0.405508,0.291085,0.821149,-0.496801
9146954724,1.314732,0.430010,-0.344742,0.288913,0.821904,-0.496819
9146957227,1.254108,0.491188,-0.345198,0.285990,0.821207,-0.496127
9146959730,1.132870,0.613248,-0.406732,0.278756,0.822025,-0.498390
9146962232,1.133005,0.673585,-0.528328,0.281654,0.821990,-0.497629
9146964735,1.133005,0.673585,-0.528328,0.280167,0.822000,-0.494727
9146967238,1.193619,0.612703,-0.467250,0.282314,0.821240,-0.492520
9146969741,1.193503,0.551773,-0.466898,0.283065,0.823419,-0.492495
9146972243,1.193512,0.551476,-0.527520,0.283203,0.831449,-0.496807
9146974746,1.132773,0.551725,-0.527624,0.280952,0.823458,-0.498354
9146977249,1.132773,0.551725,-0.527624,0.277922,0.819102,-0.491857
9146979751,1.072140,0.613200,-0.467458,0.282295,0.825600,-0.486650
9146982254,1.072005,0.552864,-0.345862,0.278679,0.824191,-0.489619
9146984758,1.132745,0.552615,-0.345758,0.280069,0.818342,-0.489650
9146987261,1.071996,0.553161,-0.285239,0.277879,0.819093,-0.488209
9146989764,1.011150,0.492182,-0.345614,0.277913,0.819827,-0.490392
9146992267,0.889670,0.492679,-0.345822,0.284406,0.814650,-0.491090
9146994769,0.828931,0.492928,-0.345926,0.280786,0.819786,-0.487442
9146997272,0.828931,0.492928,-0.345926,0.286699,0.821922,-0.493925
9146999775,0.889670,0.492679,-0.345822,0.284480,0.817575,-0.494714
9147002278,0.889661,0.492976,-0.285199,0.285893,0.815367,-0.493256
9147004781,0.889777,0.553906,-0.285551,0.285164,0.817557,-0.491059
9147007283,0.950624,0.614884,-0.225177,0.280070,0.816160,-0.491856
9147009786,0.889884,0.615133,-0.225281,0.283696,0.815389,-0.491822
9147012289,0.889777,0.553906,-0.285551,0.287377,0.819721,-0.491746
9147014791,0.828931,0.492928,-0.345926,0.288112,0.820441,-0.491733
9147017294,0.828931,0.492928,-0.345926,0.289575,0.818245,-0.494652
9147019797,0.828815,0.431998,-0.345574,0.284514,0.816855,-0.498367
9147022299,0.768075,0.432247,-0.345678,0.283103,0.816880,-0.502030
9147024802,0.707335,0.432495,-0.345782,0.281640,0.817623,-0.500581
9147027305,0.646828,0.554603,-0.346589,0.279425,0.819823,-0.495482
9147029808,0.646953,0.615237,-0.407564,0.276580,0.827871,-0.493262
9147032311,0.647302,0.798026,-0.408619,0.275796,0.825685,-0.490369
9147034813,0.586794,0.920134,-0.409427,0.275101,0.828609,-0.490354
9147037316,0.586901,0.981361,-0.349156,0.272168,0.830092,-0.486727
9147039819,0.586785,0.920431,-0.348804,0.270053,0.833768,-0.488911
9147042321,0.647302,0.798026,-0.408619,0.272308,0.834486,-0.494716
9147044825,0.647186,0.737096,-0.408267,0.278062,0.836588,-0.487340
9147047327,0.647195,0.736799,-0.468889,0.283899,0.839435,-0.486523
9147049830,0.707809,0.675918,-0.407811,0.285339,0.834323,-0.490195
9147052333,0.768298,0.554403,-0.285759,0.282408,0.832897,-0.489509
9147054835,0.829019,0.554748,-0.164411,0.282391,0.832167,-0.488786
9147057338,0.829154,0.615084,-0.286007,0.280881,0.829262,-0.486637
9147059841,0.829521,0.797280,-0.408307,0.278660,0.826369,-0.485955
9147062343,0.890386,0.857665,-0.469177,0.279385,0.829270,-0.483006
9147064846,0.951241,0.918346,-0.469425,0.280804,0.831428,-0.477866
9147067349,1.011855,0.857465,-0.408347,0.277146,0.829283,-0.477924
9147069852,1.011837,0.858058,-0.287103,0.273481,0.825681,-0.478722
9147072354,1.072451,0.797177,-0.226025,0.275661,0.826383,-0.477963
9147074857,1.072451,0.797177,-0.226025,0.279351,0.829990,-0.479353
9147077360,1.193717,0.674226,-0.346357,0.281483,0.826318,-0.478628
9147079863,1.253983,0.430555,-0.284224,0.282920,0.826297,-0.477153
9147082365,1.314374,0.247517,-0.283064,0.287304,0.827706,-0.477823
9147084868,1.314249,0.186884,-0.222090,0.290229,0.825494,-0.481456
9147087373,1.375221,0.308495,-0.222690,0.286588,0.824080,-0.482237
9147089874,1.375444,0.430652,-0.162772,0.280726,0.820501,-0.481601
9147092375,1.375569,0.491285,-0.223746,0.278629,0.823453,-0.485978
9147094878,1.375685,0.552215,-0.224097,0.278637,0.824182,-0.485972
9147097380,1.436666,0.673529,-0.285319,0.280717,0.822681,-0.478666
9147099883,1.436899,0.795389,-0.286023,0.281441,0.826309,-0.474981
9147102386,1.497522,0.734210,-0.285567,0.277857,0.827089,-0.478663
9147104889,1.497281,0.612648,-0.224241,0.275729,0.825670,-0.484534
9147107391,1.496914,0.430451,-0.101941,0.277148,0.826374,-0.480865
9147109894,1.618277,0.369025,-0.101382,0.278575,0.828533,-0.476455
9147112397,1.678776,0.247213,-0.039952,0.278576,0.827079,-0.477925
9147114899,1.739167,0.064175,-0.038792,0.281532,0.829237,-0.480064
9147117402,1.739032,0.003839,0.082804,0.283637,0.827741,-0.474946
9147119905,1.799772,0.003590,0.082908,0.284298,0.825537,-0.471308
9147122408,1.921386,0.063430,-0.038480,0.286584,0.830626,-0.475620
9147124911,2.103962,0.245177,-0.099846,0.290276,0.831323,-0.479950
9147127413,2.225674,0.366539,-0.100342,0.290920,0.829115,-0.474854
9147129916,2.225683,0.366243,-0.160964,0.282834,0.829188,-0.466918
9147132419,2.225683,0.366243,-0.160964,0.277696,0.829964,-0.461862
9147134921,2.286190,0.244134,-0.160157,0.281343,0.834289,-0.458870
9147137424,2.468168,0.121826,-0.098519,0.284275,0.834988,-0.460291
9147139927,2.589522,0.060696,-0.037337,0.283582,0.835003,-0.463216
9147142430,2.771625,-0.000980,-0.036673,0.281384,0.836479,-0.460311
9147144932,2.893104,-0.001477,-0.036465,0.283579,0.840094,-0.458070
9147147435,3.014351,-0.123833,-0.035554,0.285106,0.842275,-0.462413
9147149938,3.257194,-0.185757,-0.034786,0.287253,0.841515,-0.460206
9147152441,3.439413,-0.186503,-0.034474,0.287253,0.841515,-0.460206
9147154943,3.621757,-0.126615,-0.095136,0.287940,0.838589,-0.459492
9147157446,3.743120,-0.188042,-0.094576,0.286420,0.837137,-0.455143
9147159949,3.925348,-0.189084,-0.154887,0.288617,0.836388,-0.457313
9147162451,4.168200,-0.251305,-0.214741,0.289311,0.835645,-0.455123
9147164954,4.350535,-0.191121,-0.214781,0.290747,0.836352,-0.452912
9147167457,4.472024,-0.191915,-0.275196,0.288581,0.840744,-0.449984
9147169960,4.593619,-0.131482,-0.275340,0.287095,0.838572,-0.449288
9147172463,4.836578,-0.132476,-0.274924,0.287888,0.840760,-0.452910
9147174965,5.079296,-0.255033,-0.213182,0.288623,0.840026,-0.454366
9147177468,5.261388,-0.316411,-0.151896,0.290763,0.837810,-0.452901
9147179971,5.382751,-0.377838,-0.151336,0.286411,0.838590,-0.452943
9147182474,5.564980,-0.378881,-0.211647,0.282785,0.839361,-0.452977
9147184976,5.807957,-0.380468,-0.332475,0.289349,0.841472,-0.452888
9147187479,6.050915,-0.381462,-0.332059,0.293726,0.841425,-0.454298
9147189981,6.293884,-0.382753,-0.392266,0.288654,0.844397,-0.452872
9147192484,6.476201,-0.321975,-0.271061,0.284222,0.839340,-0.451502
9147194987,6.658526,-0.261494,-0.210479,0.284850,0.834947,-0.447153
9147197490,6.840745,-0.262240,-0.210167,0.285625,0.837858,-0.448580
9147199993,7.083597,-0.324461,-0.270022,0.282073,0.842282,-0.451503
9147202495,7.326216,-0.508541,-0.329173,0.282081,0.843738,-0.450762
9147204998,7.569050,-0.570168,-0.267783,0.280643,0.845213,-0.450766
9147207501,7.811767,-0.692725,-0.206041,0.285029,0.845168,-0.452907
9147210003,8.054697,-0.692829,-0.023758,0.282148,0.843753,-0.456598
9147212506,8.297531,-0.754456,0.037631,0.285119,0.848097,-0.457989
9147215009,8.479751,-0.755202,0.037943,0.283640,0.849563,-0.454347
9147217512,8.661987,-0.756541,-0.082989,0.280024,0.848154,-0.457316
9147220014,8.904848,-0.819058,-0.203466,0.275639,0.847472,-0.455911
9147222517,9.147806,-0.820052,-0.203050,0.279199,0.843050,-0.453718
9147225020,9.330152,-0.760165,-0.263712,0.277128,0.844553,-0.461754
9147227523,9.633965,-0.700477,-0.263544,0.277077,0.844542,-0.457377
9147230025,9.816184,-0.701223,-0.263233,0.277076,0.845997,-0.455907
9147232528,10.059018,-0.762850,-0.201843,0.271304,0.846801,-0.458883
9147235031,10.240995,-0.885159,-0.140205,0.270576,0.848991,-0.456685
9147237534,10.483829,-0.946786,-0.078815,0.270506,0.840975,-0.458208
9147240036,10.726893,-0.886553,-0.018129,0.268393,0.840287,-0.464803
9147242539,10.909104,-0.887002,0.042805,0.269134,0.830826,-0.475083
9147245042,11.030583,-0.887499,0.043013,0.274925,0.827117,-0.476506
9147247545,11.152187,-0.827363,-0.017753,0.275732,0.833672,-0.477175
9147250049,11.213044,-0.766682,-0.018001,0.277906,0.843828,-0.466858
9147252552,11.334496,-0.766288,0.164074,0.269921,0.854833,-0.457376
9147255054,11.577212,-0.888845,0.225816,0.258953,0.841853,-0.464166
9147257557,11.819823,-1.072629,0.227287,0.252195,0.827336,-0.459249
9147260060,12.123182,-1.256958,0.168240,0.252824,0.821488,-0.456370
9147262563,12.426756,-1.318833,0.229734,0.263880,0.828668,-0.462756
9147265065,12.548100,-1.379667,0.351538,0.273499,0.836596,-0.469882
9147267568,12.609063,-1.257759,0.411561,0.275742,0.830765,-0.480846
9147270071,12.670160,-1.075515,0.349987,0.275729,0.824943,-0.485269
9147272573,12.791987,-0.893222,0.349139,0.269127,0.816278,-0.488329
9147275076,12.974564,-0.711475,0.287773,0.266181,0.811939,-0.489125
9147277579,13.096159,-0.651042,0.287629,0.274181,0.815484,-0.486090
9147280082,13.278262,-0.712718,0.288293,0.282949,0.820485,-0.485224
9147282584,13.338993,-0.712669,0.349019,0.278574,0.816168,-0.488225
9147285087,13.460338,-0.773503,0.470824,0.271416,0.817003,-0.497052
9147287590,13.460203,-0.833839,0.592420,0.272080,0.809708,-0.498561
9147290093,13.521041,-0.772564,0.713416,0.278457,0.802323,-0.491253
9147292595,13.521156,-0.711634,0.713065,0.277216,0.798749,-0.513181
9147295098,13.521273,-0.650705,0.712713,0.277395,0.795877,-0.531440
9147297601,13.399910,-0.589278,0.712153,0.278603,0.784898,-0.520570
9147300103,13.339179,-0.589326,0.651427,0.284386,0.781187,-0.521265
9147302606,13.217710,-0.589126,0.590597,0.281775,0.792194,-0.536527
9147305109,13.035518,-0.589270,0.408418,0.279605,0.789312,-0.540222
9147307612,12.914039,-0.588773,0.408210,0.278763,0.784932,-0.534430
9147310115,12.853647,-0.405735,0.407051,0.284925,0.793667,-0.556178
9147312617,12.611251,-0.099498,0.526120,0.291433,0.801020,-0.609305
9147315120,12.368854,0.206738,0.645190,0.287997,0.772575,-0.590599
9147317623,12.065407,0.329247,0.522722,0.295758,0.735739,-0.479182
9147320126,11.883001,0.206649,0.220002,0.286778,0.765932,-0.554187
9147322628,11.700364,-0.037808,-0.082013,0.302485,0.791307,-0.568404
9147325131,11.517912,-0.158923,-0.081622,0.303200,0.784023,-0.574290
9147327634,11.335889,-0.035130,0.159852,0.283419,0.795854,-0.549612
9147330136,11.153972,0.149889,0.461596,0.295966,0.785569,-0.575817
9147332639,10.850382,0.212358,0.521346,0.278739,0.756560,-0.559457
9147335142,10.485980,0.212662,0.278233,0.297364,0.757011,-0.535172
9147337645,10.182471,0.272460,-0.207616,0.316078,0.771463,-0.568409
9147340148,9.878943,0.332852,-0.572221,0.296187,0.794344,-0.586688
9147342650,9.575727,0.577221,-0.695393,0.300473,0.792823,-0.581546
9147345153,9.393965,0.821982,-0.636490,0.288538,0.785619,-0.562038
9147347656,9.151559,1.128516,-0.456798,0.271043,0.778537,-0.564477
9147350158,8.969340,1.129261,-0.457110,0.282471,0.774723,-0.550519
9147352679,8.726043,0.947169,-0.517092,0.282387,0.773977,-0.543959
9147355165,8.603769,0.520564,-0.636082,0.286316,0.785636,-0.558415
9147357665,8.421086,0.277590,-0.634986,0.291595,0.801619,-0.559689
9147360168,8.238732,0.217999,-0.513702,0.276483,0.805465,-0.569311
9147362671,8.056593,0.280862,-0.271877,0.277016,0.793050,-0.564296
9147365174,7.935202,0.343179,-0.090570,0.283213,0.776899,-0.549764
9147367676,7.813741,0.343082,-0.212022,0.285493,0.778350,-0.557022
9147370179,7.570819,0.342889,-0.454927,0.298744,0.789144,-0.561167
9147372681,7.388628,0.342745,-0.637106,0.296704,0.792836,-0.569915
9147375185,7.206775,0.525686,-0.759717,0.289636,0.797327,-0.583090
9147377687,7.025137,0.831081,-0.761788,0.288879,0.792965,-0.584592
9147380190,6.782750,1.137021,-0.703341,0.275561,0.781429,-0.575347
9147382693,6.540014,1.260171,-0.643839,0.281813,0.771836,-0.559303
9147385195,6.236209,1.200187,-0.704629,0.289764,0.773916,-0.553362
9147387698,5.993046,1.078431,-0.886208,0.281916,0.782768,-0.557757
9147390201,5.810604,0.957021,-0.946438,0.279883,0.788644,-0.565029
9147392704,5.628366,0.958360,-0.825505,0.267623,0.787353,-0.574659
9147395206,5.385264,0.899314,-0.643703,0.261777,0.784504,-0.574747
9147397709,5.202892,0.840317,-0.401174,0.268887,0.780022,-0.565219
9147400212,5.020547,0.780429,-0.340512,0.271747,0.774887,-0.565957
9147402715,4.838328,0.781175,-0.340824,0.283480,0.779866,-0.570164
9147405218,4.595496,0.842802,-0.402214,0.285809,0.784236,-0.578859
9147407720,4.413402,0.904181,-0.463499,0.280075,0.779229,-0.590634
9147410223,4.170684,1.026738,-0.525241,0.277166,0.782172,-0.587726
9147412725,3.806604,1.210722,-0.587543,0.269765,0.780046,-0.578341
9147415228,3.503263,1.394457,-0.649740,0.273266,0.777066,-0.569571
9147417731,3.199690,1.456333,-0.711234,0.282589,0.774748,-0.560731
9147420234,3.017365,1.395851,-0.771816,0.279688,0.777692,-0.558551
9147422736,2.834806,1.213511,-0.831695,0.279108,0.785733,-0.563601
9147425239,2.652444,1.154217,-0.649788,0.280661,0.787192,-0.570868
9147427742,2.469974,1.033696,-0.528152,0.278473,0.787215,-0.570162
9147430245,2.287495,0.913473,-0.345894,0.284280,0.784237,-0.572310
9147432748,2.105044,0.792358,-0.345502,0.289415,0.788552,-0.572219
9147435250,1.983449,0.731925,-0.345358,0.296728,0.795751,-0.569162
9147437753,1.801248,0.732077,-0.466914,0.301857,0.795701,-0.572753
9147440256,1.619173,0.792863,-0.649445,0.300362,0.794254,-0.570593
9147442758,1.315734,0.915075,-0.832535,0.298917,0.794273,-0.571338
9147445261,1.012394,1.098810,-0.894732,0.294591,0.794331,-0.574304
9147447764,0.769676,1.221367,-0.956474,0.290156,0.791456,-0.570728
9147450267,0.709294,1.404108,-1.018256,0.293712,0.795034,-0.560447
9147452769,0.709304,1.403811,-1.078878,0.295945,0.804476,-0.555971
9147455272,0.587727,1.342785,-1.199978,0.295274,0.809587,-0.555938
9147457775,0.405294,1.221078,-1.320831,0.296644,0.808098,-0.550098
9147460278,0.283582,1.099715,-1.320335,0.287169,0.798746,-0.556843
9147462780,0.161978,1.039579,-1.259569,0.281357,0.796632,-0.559113
9147465283,0.101229,1.040124,-1.199051,0.285733,0.798039,-0.559053
9147467786,-0.020241,1.040324,-1.259881,0.287138,0.795103,-0.557602
9147470288,-0.202219,1.162633,-1.321519,0.284966,0.794403,-0.559090
9147472791,-0.323322,1.345029,-1.504649,0.288584,0.792902,-0.559062
9147475294,-0.505165,1.527674,-1.687883,0.282762,0.792241,-0.559132
9147477797,-0.687250,1.588756,-1.809791,0.276960,0.787220,-0.565072
9147480300,-0.747989,1.589004,-1.809895,0.268851,0.783651,-0.558625
9147482802,-0.808641,1.651073,-1.628484,0.268074,0.783649,-0.554256
9147485305,-0.930129,1.651867,-1.568070,0.273129,0.781401,-0.553488
9147487808,-1.173213,1.592228,-1.507512,0.273772,0.779193,-0.548392
9147490310,-1.416288,1.532292,-1.507576,0.273102,0.782850,-0.549829
9147492813,-1.598632,1.472404,-1.446914,0.265782,0.774195,-0.553627
9147495316,-1.720130,1.473495,-1.325877,0.265783,0.772740,-0.555097
9147497819,-1.902474,1.413607,-1.265215,0.266584,0.774930,-0.559448
9147500322,-2.145576,1.354562,-1.083412,0.267362,0.773478,-0.565287
9147502824,-2.327805,1.355604,-1.023102,0.268050,0.768369,-0.566779
9147505327,-2.510033,1.356647,-0.962791,0.273864,0.768302,-0.566715
9147507830,-2.692019,1.479252,-0.963807,0.274640,0.769759,-0.569613
9147510333,-2.934746,1.602106,-0.964927,0.267389,0.771301,-0.569681
9147512835,-3.116965,1.602851,-0.965238,0.272477,0.769060,-0.571831
9147515339,-3.360049,1.543212,-0.904680,0.270443,0.777118,-0.576897
9147517842,-3.664105,1.361962,-0.843522,0.274834,0.782165,-0.574620
9147520345,-3.907198,1.302620,-0.722342,0.272677,0.785105,-0.573891
9147522848,-4.150281,1.242981,-0.661784,0.276236,0.783592,-0.568757
9147525350,-4.393250,1.244272,-0.601577,0.282727,0.782778,-0.565043
9147527853,-4.514970,1.123206,-0.540459,0.279074,0.785725,-0.560683
9147530356,-4.697296,1.062725,-0.601041,0.277672,0.785026,-0.565811
9147532859,-4.879622,1.002244,-0.661624,0.279123,0.787918,-0.562854
9147535376,-5.122687,0.942011,-0.722310,0.282093,0.794444,-0.562040
9147537864,-5.426493,0.882027,-0.783100,0.284298,0.795878,-0.562734
9147540367,-5.608837,0.822140,-0.722438,0.285750,0.797316,-0.561247
9147542870,-5.730432,0.761707,-0.722294,0.284930,0.799486,-0.551026
9147545372,-5.851930,0.762797,-0.601257,0.282805,0.805342,-0.550274
9147547875,-5.973400,0.762998,-0.662088,0.282060,0.806802,-0.547352
9147550378,-6.094754,0.824128,-0.723270,0.279177,0.809750,-0.546632
9147552880,-6.216011,0.946781,-0.663559,0.279870,0.809007,-0.544441
9147555383,-6.276885,0.886693,-0.542067,0.284922,0.810395,-0.539997
9147557886,-6.276903,0.887287,-0.420822,0.285598,0.811103,-0.534877
9147560389,-6.277135,0.765427,-0.420118,0.289950,0.811051,-0.534099
9147562892,-6.277233,0.703904,-0.541011,0.286211,0.804524,-0.531274
9147565394,-6.398569,0.764440,-0.723437,0.287634,0.800137,-0.532752
9147567897,-6.519923,0.825571,-0.784619,0.291244,0.797908,-0.532729
9147570400,-6.580672,0.826116,-0.724101,0.285463,0.799437,-0.534241
9147572902,-6.702160,0.826910,-0.663687,0.286867,0.797227,-0.532054
9147575405,-6.823881,0.705844,-0.602569,0.287519,0.795021,-0.527687
9147577908,-6.945369,0.706638,-0.542155,0.288281,0.793565,-0.532067
9147580411,-7.006225,0.645956,-0.541907,0.283129,0.788519,-0.531435
9147582913,-7.006448,0.523800,-0.601825,0.276549,0.785677,-0.530801
9147585416,-7.067304,0.463118,-0.601577,0.275797,0.784953,-0.529356
9147587919,-7.128053,0.463664,-0.541059,0.273585,0.782062,-0.529403
9147590422,-7.310290,0.465003,-0.420127,0.272927,0.780631,-0.536717
9147592924,-7.492527,0.466342,-0.299194,0.272977,0.780641,-0.541094
9147595427,-7.674988,0.345524,-0.238180,0.272938,0.776996,-0.541123
9147597930,-7.857341,0.285934,-0.116895,0.275177,0.776983,-0.546205
9147600433,-7.978820,0.286431,-0.117103,0.275202,0.777716,-0.547658
9147602936,-8.100309,0.287225,-0.056689,0.274475,0.776997,-0.548401
9147605438,-8.221779,0.287425,-0.117519,0.273815,0.779202,-0.552039
9147607941,-8.464727,0.288122,-0.178557,0.272370,0.778493,-0.553519
9147610444,-8.707570,0.350046,-0.179325,0.273064,0.776296,-0.552799
9147612946,-8.950441,0.412860,0.001774,0.269430,0.777793,-0.551369
9147615449,-9.132803,0.353566,0.183681,0.266474,0.775634,-0.549230
9147617952,-9.436636,0.294473,0.304757,0.269397,0.776331,-0.549922
9147620455,-9.679710,0.234537,0.304693,0.275210,0.776990,-0.549122
9147622956,-9.862038,0.174056,0.244111,0.275929,0.776980,-0.548385
9147625459,-10.044247,0.174504,0.183177,0.275200,0.779898,-0.545452
9147627961,-10.165852,0.114368,0.243943,0.281029,0.782016,-0.544641
9147630464,-10.348079,0.115411,0.304253,0.281061,0.785659,-0.543882
9147632967,-10.469558,0.115908,0.304045,0.280357,0.789309,-0.542402
9147635469,-10.651671,0.177880,0.364004,0.278894,0.791506,-0.539483
9147637972,-10.772927,0.300533,0.423715,0.278182,0.794427,-0.538009
9147640475,-10.955155,0.301576,0.484025,0.283309,0.798013,-0.537924
9147642978,-11.137258,0.363251,0.483361,0.286973,0.802341,-0.536390
9147645481,-11.258835,0.302225,0.362261,0.284816,0.805281,-0.535661
9147647983,-11.380538,0.180565,0.302134,0.285484,0.805987,-0.529812
9147650486,-11.441278,0.180814,0.302030,0.284747,0.808176,-0.526885
9147652989,-11.502008,0.180766,0.241304,0.283293,0.808920,-0.526165
9147655492,-11.623255,0.303122,0.240392,0.283970,0.808174,-0.522516
9147657994,-11.744627,0.364846,0.300455,0.281054,0.808933,-0.521083
9147660497,-11.805367,0.365095,0.300351,0.281119,0.812583,-0.523243
9147663000,-11.805492,0.304461,0.361325,0.283993,0.811088,-0.521763
9147665502,-11.805716,0.182305,0.301406,0.283274,0.811825,-0.521765
9147668005,-11.927301,0.121575,0.240928,0.283342,0.811840,-0.527601
9147670508,-11.988139,0.060301,0.119932,0.286216,0.809617,-0.526857
9147673011,-12.048762,0.121479,0.119476,0.284085,0.812562,-0.528316
9147675513,-12.109280,0.243884,0.179290,0.286422,0.816934,-0.537740
9147678016,-12.169912,0.305359,0.239457,0.282572,0.814021,-0.521756
9147680519,-12.291168,0.428013,0.299167,0.283183,0.810351,-0.515212
9147683021,-12.412522,0.489143,0.237985,0.280326,0.810396,-0.519621
9147685524,-12.594500,0.611451,0.176348,0.279619,0.806771,-0.524764
9147688027,-12.655231,0.611403,0.115621,0.286111,0.803776,-0.523256
9147690530,-12.776816,0.550673,0.055143,0.278123,0.806779,-0.521133
9147693032,-12.837672,0.489992,0.055391,0.281896,0.813313,-0.526876
9147695535,-12.959162,0.490786,0.115805,0.288469,0.813971,-0.528986
9147698038,-13.080641,0.491283,0.115597,0.289924,0.811773,-0.531176
9147700541,-13.141505,0.430898,0.176468,0.286927,0.808151,-0.526861
9147703044,-13.263216,0.309536,0.176963,0.287033,0.813992,-0.530461
9147705546,-13.384687,0.309736,0.116133,0.285588,0.813283,-0.531942
9147708049,-13.506157,0.309936,0.055303,0.286900,0.811781,-0.520996
9147710552,-13.627386,0.431699,-0.066853,0.286141,0.809601,-0.520292
9147713054,-13.748750,0.493126,-0.067413,0.286148,0.811057,-0.519551
9147715557,-13.809363,0.554008,-0.128491,0.284726,0.814718,-0.518808
9147718060,-13.869871,0.676116,-0.129298,0.283269,0.819825,-0.513678
9147720563,-13.930611,0.676365,-0.129402,0.280320,0.819850,-0.510063
9147723065,-14.052099,0.677158,-0.068988,0.283979,0.820540,-0.511475
9147725568,-14.052349,0.555892,0.052960,0.281152,0.826410,-0.512920
9147728071,-14.113090,0.556141,0.052856,0.277469,0.824987,-0.510054
9147730574,-14.173811,0.555796,-0.068492,0.279595,0.817677,-0.512276
9147733076,-14.295280,0.555996,-0.129322,0.283177,0.819806,-0.505654
9147735579,-14.416750,0.556196,-0.190153,0.283892,0.824159,-0.500505
9147738082,-14.538239,0.556990,-0.129738,0.283140,0.824889,-0.497589
9147740585,-14.538230,0.556693,-0.190361,0.280994,0.824194,-0.501266
9147743087,-14.598969,0.556942,-0.190464,0.275815,0.822779,-0.494769
9147745590,-14.538221,0.556397,-0.250983,0.283073,0.823420,-0.493224
9147748093,-14.598853,0.617872,-0.190816,0.282354,0.824885,-0.492491
9147750596,-14.598863,0.618168,-0.130194,0.282326,0.828516,-0.486627
9147753098,-14.538114,0.617623,-0.190712,0.280822,0.829249,-0.481531
9147755601,-14.416750,0.556196,-0.190153,0.280046,0.827065,-0.479368
9147758104,-14.295136,0.616036,-0.311541,0.280012,0.827058,-0.476450
9147760607,-14.173532,0.676172,-0.372307,0.273434,0.832945,-0.467723
9147763109,-14.112793,0.675923,-0.372203,0.276276,0.829988,-0.464796
9147765612,-14.052303,0.554408,-0.250151,0.276308,0.832904,-0.464773
9147768115,-13.930833,0.554208,-0.189321,0.274855,0.832194,-0.465524
9147770618,-13.809247,0.614938,-0.128843,0.273376,0.831478,-0.464087
9147773120,-13.748285,0.736846,-0.068820,0.273475,0.835863,-0.468429
9147775623,-13.626814,0.736645,-0.007990,0.269807,0.836625,-0.464816
9147778126,-13.505576,0.614585,0.053544,0.272589,0.833656,-0.456783
9147780630,-13.444712,0.674970,-0.007326,0.269672,0.836597,-0.453145
9147783133,-13.323116,0.735403,-0.007470,0.266846,0.842466,-0.454589
9147785635,-13.201530,0.796132,0.053008,0.272620,0.838754,-0.454554
9147788138,-12.958938,0.612942,0.175724,0.271148,0.841676,-0.450170
9147790641,-12.777077,0.429704,0.237714,0.271131,0.841672,-0.448712
9147793144,-12.595098,0.307395,0.299351,0.270370,0.841674,-0.445802
9147795646,-12.473735,0.245969,0.299911,0.270466,0.850422,-0.445732
9147798149,-12.352149,0.306698,0.360389,0.273381,0.850390,-0.446429
9147800652,-12.230554,0.367131,0.360245,0.274066,0.850373,-0.442774
9147803155,-12.048344,0.366682,0.421180,0.274793,0.849637,-0.443501
9147805657,-11.805743,0.183195,0.483273,0.281323,0.852468,-0.439759
9147808160,-11.381040,-0.061967,0.546030,0.279870,0.851758,-0.440510
9147810663,-11.077689,-0.245999,0.547606,0.279092,0.853210,-0.434671
9147813165,-10.895702,-0.368604,0.548621,0.280563,0.852470,-0.436849
9147815668,-10.835088,-0.429486,0.609699,0.280564,0.851015,-0.438320
9147818171,-10.713734,-0.490616,0.670881,0.279738,0.847366,-0.433251
9147820674,-10.470784,-0.491313,0.731919,0.281918,0.848068,-0.432491
9147823176,-10.166970,-0.431626,0.732087,0.287779,0.852374,-0.432392
9147825679,-9.863156,-0.371939,0.732255,0.284922,0.853146,-0.436066
9147828182,-9.680937,-0.372684,0.732567,0.284972,0.855339,-0.438236
9147830685,-9.559690,-0.495041,0.733479,0.281998,0.853904,-0.433904
9147833187,-9.377829,-0.678279,0.795468,0.284874,0.850227,-0.434630
9147835690,-9.195967,-0.861518,0.857458,0.286359,0.852399,-0.435326
9147838193,-8.892268,-0.862760,0.857978,0.283452,0.853160,-0.434623
9147840696,-8.710050,-0.863506,0.858290,0.287019,0.851649,-0.430218
9147843205,-8.527715,-0.803322,0.858250,0.291403,0.853785,-0.430152
9147845701,-8.345495,-0.804067,0.858562,0.290002,0.852358,-0.436015
9147848204,-8.163268,-0.805109,0.798251,0.288489,0.852362,-0.430925
9147850707,-7.920300,-0.806400,0.738045,0.290662,0.850881,-0.431642
9147853209,-7.677457,-0.868324,0.738813,0.291438,0.852338,-0.434540
9147855712,-7.495471,-0.990929,0.739828,0.291446,0.853067,-0.434535
9147858215,-7.313251,-0.991675,0.740140,0.292859,0.850859,-0.433077
9147860717,-7.070177,-0.931739,0.740204,0.289878,0.847241,-0.430221
9147863220,-6.887842,-0.871555,0.740164,0.289839,0.842868,-0.430985
9147865723,-6.644892,-0.872252,0.801202,0.294890,0.846438,-0.424335
9147868226,-6.462682,-0.872701,0.862136,0.294938,0.850085,-0.425035
9147870728,-6.219724,-0.873695,0.862552,0.294244,0.851555,-0.426490
9147873231,-5.915891,-0.814601,0.741476,0.296417,0.850074,-0.427207
9147875734,-5.672798,-0.755259,0.620295,0.298596,0.852230,-0.424978
9147878237,-5.490561,-0.756598,0.499362,0.294267,0.855924,-0.424267
9147880739,-5.308555,-0.879797,0.379134,0.292822,0.855943,-0.425013
9147883242,-5.065838,-1.002354,0.440875,0.291393,0.856692,-0.426482
9147885754,-4.883726,-1.064326,0.380917,0.290690,0.858888,-0.426472
9147888246,-4.701275,-0.943212,0.380525,0.292078,0.856675,-0.422826
9147890749,-4.458209,-0.882979,0.441211,0.289065,0.851595,-0.418523
9147893252,-4.154521,-0.883925,0.502353,0.286909,0.852352,-0.420000
9147895755,-3.850938,-0.946098,0.503225,0.280401,0.854617,-0.420784
9147898257,-3.607980,-0.947092,0.503641,0.275974,0.853199,-0.416467
9147900760,-3.304388,-1.009561,0.443890,0.277453,0.853915,-0.417904
9147903263,-3.061430,-1.010555,0.444306,0.281158,0.859707,-0.418547
9147905765,-2.818587,-1.072479,0.445074,0.279738,0.860458,-0.420745
9147908268,-2.636377,-1.072928,0.506008,0.279707,0.856088,-0.422239
9147910771,-2.454274,-1.134603,0.506671,0.284011,0.852388,-0.420761
9147913274,-2.211209,-1.074371,0.567358,0.286206,0.854548,-0.419990
9147915776,-1.968251,-1.075365,0.567774,0.286940,0.857450,-0.417771
9147918279,-1.664427,-1.015974,0.507319,0.286957,0.856727,-0.419965
9147920782,-1.421584,-1.077898,0.508087,0.288411,0.855983,-0.420684
9147923285,-1.239249,-1.017714,0.508047,0.287659,0.856713,-0.417769
9147925787,-0.996397,-1.079935,0.448192,0.284736,0.854561,-0.418548
9147928290,-0.814062,-1.019750,0.448152,0.283284,0.853124,-0.420034
9147930793,-0.571095,-1.021041,0.387946,0.284728,0.854560,-0.417818
9147933295,-0.328029,-0.960809,0.448632,0.286907,0.855262,-0.417059
9147935798,-0.024331,-0.962051,0.449152,0.285470,0.856009,-0.417798
9147938301,0.279251,-1.024224,0.450024,0.283290,0.856035,-0.417823
9147940804,0.582950,-1.025466,0.450544,0.279651,0.852439,-0.420809
9147943306,0.765052,-1.087142,0.451207,0.277505,0.851744,-0.424487
9147945809,0.886532,-1.087639,0.451415,0.277513,0.851746,-0.425216
9147948312,1.068635,-1.149314,0.452079,0.278323,0.853937,-0.430297
9147950814,1.250844,-1.149763,0.513013,0.280488,0.850999,-0.431755
9147953317,1.494044,-1.029194,0.452103,0.279679,0.847353,-0.428145
9147955820,1.737128,-0.969555,0.391545,0.279687,0.848810,-0.427404
9147958323,1.919473,-0.909667,0.330882,0.278299,0.851750,-0.430314
9147960825,2.101567,-0.971046,0.392168,0.278332,0.851757,-0.433232
9147963328,2.283785,-0.971792,0.392480,0.283420,0.850971,-0.433911
9147965831,2.405381,-0.911359,0.392336,0.284198,0.849518,-0.439750
9147968334,2.587850,-0.790838,0.270700,0.284208,0.847338,-0.442685
9147970836,2.770176,-0.730357,0.331282,0.282068,0.851009,-0.442680
9147973339,2.891762,-0.669627,0.391761,0.280657,0.849580,-0.447814
9147975842,3.013233,-0.669828,0.452591,0.282071,0.845918,-0.447827
9147978345,3.134712,-0.670325,0.452799,0.281320,0.844467,-0.447117
9147980847,3.316949,-0.671664,0.331866,0.280627,0.844482,-0.450043
9147983350,3.438438,-0.672458,0.271452,0.285724,0.842243,-0.452922
9147985853,3.560168,-0.551689,0.149712,0.287187,0.839319,-0.456576
9147988356,3.621024,-0.491007,0.149464,0.277789,0.842349,-0.458116
9147990858,3.681995,-0.369396,0.148864,0.280736,0.844506,-0.459525
9147993361,3.742851,-0.308715,0.148616,0.284371,0.842282,-0.461691
9147995864,3.803591,-0.308963,0.148720,0.283627,0.843014,-0.459505
9147998367,3.803600,-0.309260,0.088098,0.288060,0.847343,-0.461610
9148000869,3.803474,-0.369893,0.149072,0.282199,0.842309,-0.462445
9148003372,3.864107,-0.431368,0.088905,0.280015,0.835787,-0.468357
9148005875,3.985721,-0.371529,-0.032483,0.280023,0.837243,-0.467616
9148008378,4.107335,-0.311690,-0.153871,0.280023,0.837243,-0.467616
9148010880,4.168200,-0.251305,-0.214741,0.279271,0.836519,-0.466171
9148013383,4.229046,-0.190327,-0.154367,0.279245,0.837241,-0.463247
9148015886,4.168414,-0.128852,-0.094201,0.285053,0.833535,-0.466130
9148018388,4.168637,-0.006695,-0.034282,0.282873,0.832833,-0.466889
9148020891,4.168753,0.054234,-0.034634,0.278480,0.832150,-0.464755
9148023394,4.108130,0.115413,-0.035090,0.279167,0.828496,-0.464776
9148025897,4.108023,0.054186,-0.095360,0.277748,0.827793,-0.468445
9148028400,4.168762,0.053938,-0.095256,0.280004,0.827056,-0.475721
9148030902,4.229627,0.114322,-0.156126,0.278492,0.826334,-0.471366
9148033405,4.229627,0.114322,-0.156126,0.283602,0.829189,-0.470557
9148035908,4.229743,0.175252,-0.156478,0.284307,0.824084,-0.473508
9148038410,4.229850,0.236479,-0.096208,0.281417,0.824122,-0.474999
9148040913,4.229841,0.236775,-0.035585,0.283575,0.819727,-0.477198
9148043416,4.169102,0.237024,-0.035689,0.284335,0.820453,-0.479372
9148045920,4.108362,0.237272,-0.035793,0.282286,0.825598,-0.485921
9148048423,4.047622,0.237521,-0.035897,0.280802,0.821244,-0.487430
9148050926,4.047854,0.359381,-0.036601,0.288094,0.821892,-0.488803
9148053428,3.987240,0.420262,-0.097679,0.287462,0.830649,-0.488741
9148055931,3.926518,0.419917,-0.219027,0.283837,0.830693,-0.489511
9148058434,3.865788,0.419869,-0.279754,0.288991,0.832103,-0.493820
9148060937,3.804941,0.358891,-0.340128,0.293262,0.826942,-0.490895
9148063439,3.683453,0.359685,-0.279714,0.294070,0.831315,-0.493769
9148065942,3.683578,0.420318,-0.340688,0.289071,0.837939,-0.495232
9148068445,3.623071,0.542426,-0.341495,0.289748,0.837193,-0.491583
9148070948,3.562573,0.664237,-0.402925,0.285355,0.835782,-0.490184
9148073450,3.380470,0.725913,-0.403589,0.283225,0.835818,-0.494584
9148075953,3.319856,0.786794,-0.464667,0.289094,0.841581,-0.493744
9148078456,3.319749,0.725568,-0.524937,0.286140,0.837240,-0.493811
9148080958,3.319651,0.664044,-0.645830,0.284702,0.837988,-0.494551
9148083461,3.319777,0.724678,-0.706804,0.284742,0.842360,-0.493786
9148085964,3.320009,0.846537,-0.707508,0.287674,0.842332,-0.495942
9148088467,3.320009,0.846537,-0.707508,0.286939,0.841611,-0.495956
9148090969,3.259278,0.846489,-0.768234,0.283139,0.839436,-0.483613
9148093472,3.137692,0.785760,-0.828712,0.279409,0.832184,-0.482253
9148095975,3.076962,0.785711,-0.889439,0.271436,0.838828,-0.477912
9148098477,3.016222,0.785960,-0.889542,0.274363,0.832980,-0.485221
9148100980,3.016088,0.725623,-0.767946,0.274360,0.837343,-0.480810
9148103483,2.955348,0.725872,-0.768050,0.274377,0.837347,-0.482268
9148105986,2.894483,0.665487,-0.707180,0.275858,0.833699,-0.488117
9148108490,2.833636,0.604509,-0.767554,0.271425,0.830097,-0.485276
9148110991,2.833627,0.604806,-0.706932,0.270747,0.832298,-0.487455
9148113494,2.833725,0.666329,-0.586039,0.271433,0.830099,-0.486006
9148115997,2.773199,0.789031,-0.465603,0.272854,0.828620,-0.484543
9148118500,2.773073,0.728398,-0.404629,0.274293,0.824964,-0.486744
9148121002,2.712334,0.728647,-0.404733,0.277215,0.826388,-0.486700
9148123505,2.711879,0.484630,-0.463947,0.274978,0.823492,-0.484559
9148126008,2.650790,0.302089,-0.462996,0.274211,0.820582,-0.483861
9148128510,2.589684,0.120142,-0.340800,0.272784,0.819150,-0.487536
9148131013,2.528926,0.120984,-0.219659,0.272784,0.819150,-0.487536
9148133516,2.528908,0.121577,-0.098415,0.271362,0.822083,-0.487529
9148136019,2.467927,0.000263,-0.037193,0.272824,0.822068,-0.488242
9148138521,2.406964,-0.121645,-0.097215,0.275028,0.824957,-0.487465
9148141024,2.346215,-0.121100,-0.036697,0.277200,0.824930,-0.486712
9148143527,2.285475,-0.120851,-0.036801,0.280091,0.822711,-0.487427
9148146030,2.224726,-0.120306,0.023717,0.280117,0.821262,-0.491086
9148148535,2.163880,-0.181284,-0.036657,0.275046,0.822779,-0.491130
9148151038,2.103131,-0.180739,0.023861,0.276456,0.824207,-0.485996
9148153537,2.042257,-0.240826,0.145353,0.280107,0.823442,-0.488150
9148156039,2.042238,-0.240233,0.266598,0.278687,0.824193,-0.490349
9148158542,1.981615,-0.179055,0.266142,0.278687,0.824920,-0.489614
9148161045,1.920857,-0.178212,0.387283,0.277894,0.822733,-0.485992
9148163547,1.799377,-0.177715,0.387075,0.277895,0.821278,-0.487462
9148166050,1.677889,-0.176922,0.447489,0.281537,0.820510,-0.488887
9148168553,1.677666,-0.299078,0.387570,0.279382,0.821268,-0.490364
9148171056,1.616801,-0.359463,0.448441,0.277177,0.821288,-0.488200
9148173558,1.616685,-0.420393,0.448792,0.278655,0.822004,-0.489637
9148176061,1.556052,-0.358917,0.508959,0.279424,0.822004,-0.493276
9148178564,1.556043,-0.358621,0.569581,0.280140,0.824903,-0.489598
9148181067,1.555936,-0.419847,0.509311,0.282278,0.825596,-0.485191
9148183569,1.555820,-0.480777,0.509663,0.282303,0.825602,-0.487379
9148186072,1.495206,-0.419895,0.448584,0.281634,0.827077,-0.491023
9148188575,1.373842,-0.358469,0.448025,0.283863,0.829971,-0.492434
9148191077,1.313344,-0.236657,0.386595,0.283904,0.831435,-0.494611
9148193580,1.252614,-0.236705,0.325869,0.285342,0.829960,-0.494607
9148196083,1.191767,-0.297683,0.265494,0.286748,0.824842,-0.495361
9148198586,1.130911,-0.358365,0.265742,0.283768,0.821223,-0.492504
9148201088,1.069930,-0.479679,0.326964,0.282297,0.821236,-0.491062
9148203591,1.069689,-0.601242,0.388290,0.283759,0.821948,-0.491040
9148206094,0.948210,-0.600745,0.388082,0.282338,0.824154,-0.491768
9148208597,0.826856,-0.539615,0.326900,0.280207,0.824918,-0.495433
9148211100,0.705502,-0.478485,0.265718,0.285221,0.821206,-0.492488
9148213602,0.705618,-0.417555,0.265366,0.284470,0.820482,-0.491043
9148216105,0.705734,-0.356625,0.265014,0.278681,0.820555,-0.493296
9148218608,0.705725,-0.356328,0.325637,0.277947,0.819107,-0.494045
9148221110,0.644860,-0.416713,0.386507,0.283040,0.821959,-0.491777
9148223614,0.584120,-0.416464,0.386403,0.286691,0.821920,-0.493196
9148226116,0.462757,-0.355038,0.385843,0.290318,0.818240,-0.496103
9148228619,0.280538,-0.354292,0.385531,0.288156,0.816087,-0.499791
9148231121,0.158942,-0.414725,0.385675,0.286761,0.818298,-0.502708
9148233624,0.098087,-0.475406,0.385923,0.291163,0.818984,-0.505571
9148236127,0.037347,-0.475158,0.385819,0.288925,0.816087,-0.503431
9148238630,-0.084123,-0.474957,0.324989,0.292593,0.816052,-0.506308
9148241132,-0.205719,-0.535390,0.325133,0.292627,0.815332,-0.509961
9148243635,-0.388026,-0.596465,0.143306,0.294823,0.816038,-0.510661
9148246138,-0.570120,-0.535086,0.082020,0.291919,0.811708,-0.515104
9148248641,-0.752097,-0.412778,0.020382,0.291936,0.811712,-0.516563
9148251143,-0.994824,-0.289924,0.019263,0.294867,0.813865,-0.516514
9148253646,-1.177043,-0.289178,0.018951,0.295604,0.810222,-0.520911
9148256149,-1.298406,-0.227751,0.018391,0.295605,0.808767,-0.522382
9148258652,-1.359029,-0.166573,0.017935,0.294166,0.812424,-0.520180
9148261154,-1.419644,-0.105691,-0.043143,0.290555,0.816835,-0.517997
9148263657,-1.540989,-0.044858,-0.164947,0.287598,0.816131,-0.514388
9148266160,-1.783813,0.016472,-0.286959,0.286162,0.815424,-0.516598
9148268663,-1.965665,0.199414,-0.409571,0.286912,0.818330,-0.515837
9148271165,-2.208489,0.260744,-0.531583,0.287681,0.818331,-0.519477
9148273668,-2.451350,0.323262,-0.411106,0.285540,0.822729,-0.518736
9148276171,-2.694327,0.324849,-0.290278,0.289182,0.823415,-0.518690
9148278674,-2.876420,0.386228,-0.351563,0.289181,0.824143,-0.517955
9148281176,-2.997765,0.447061,-0.473368,0.289084,0.817576,-0.515819
9148283679,-3.118976,0.568231,-0.716768,0.290538,0.817559,-0.515803
9148286182,-3.300846,0.751766,-0.718136,0.286899,0.824874,-0.508491
9148288685,-3.361354,0.873874,-0.718943,0.286849,0.824863,-0.504114
9148291187,-3.361112,0.995437,-0.780269,0.286925,0.824879,-0.510679
9148293690,-3.361085,0.994547,-0.962136,0.286189,0.825613,-0.509222
9148296193,-3.543294,0.994996,-1.023070,0.282496,0.826370,-0.503421
9148298695,-3.725397,1.056671,-1.023734,0.283844,0.820512,-0.499805
9148301198,-3.786030,1.118146,-0.963567,0.284578,0.822687,-0.498320
9148303701,-3.907509,1.118643,-0.963775,0.286065,0.822677,-0.501222
9148306204,-3.968249,1.118892,-0.963879,0.297683,0.823268,-0.499629
9148308707,-4.150459,1.119340,-1.024813,0.300558,0.821045,-0.498885
9148311211,-4.332552,1.180719,-1.086099,0.286009,0.818301,-0.500527
9148313713,-4.453915,1.242146,-1.086659,0.269964,0.815565,-0.498539
9148316216,-4.575153,1.364206,-1.148193,0.257714,0.823732,-0.500070
9148318719,-4.575028,1.424839,-1.209167,0.262194,0.833162,-0.501405
9148321222,-4.575037,1.425136,-1.148545,0.270855,0.834503,-0.494732
9148323724,-4.635786,1.425681,-1.088026,0.270773,0.830849,-0.491114
9148326227,-4.817907,1.487950,-0.967446,0.277839,0.816902,-0.486768
9148328730,-5.000028,1.550219,-0.846865,0.277100,0.808907,-0.493405
9148331233,-5.121507,1.550716,-0.847073,0.267795,0.811229,-0.503704
9148333735,-5.182247,1.550965,-0.847177,0.259928,0.823714,-0.502964
9148336238,-5.242978,1.550916,-0.907903,0.259149,0.826621,-0.495654
9148338741,-5.425197,1.551662,-0.908215,0.270115,0.829417,-0.498428
9148341243,-5.485472,1.795630,-0.909726,0.276008,0.837367,-0.497570
9148343746,-5.484891,2.100279,-0.911485,0.273747,0.830829,-0.496918
9148346249,-5.484543,2.283068,-0.912541,0.259730,0.817126,-0.492075
9148348751,-5.605897,2.344198,-0.973723,0.255338,0.813533,-0.492881
9148351254,-5.788340,2.222787,-1.033953,0.258416,0.822264,-0.499344
9148353757,-6.031655,2.041289,-0.972691,0.268749,0.836726,-0.499115
9148356260,-6.153501,1.859590,-0.850599,0.273826,0.838847,-0.496124
9148358763,-6.274999,1.860681,-0.729563,0.283901,0.835798,-0.490200
9148361266,-6.275008,1.860977,-0.668940,0.287382,0.824086,-0.488064
9148363768,-6.214125,1.920768,-0.851055,0.282900,0.818292,-0.483053
9148366271,-6.274730,1.981353,-0.972755,0.279292,0.817612,-0.486017
9148368774,-6.395950,2.102820,-1.155534,0.275063,0.822782,-0.492589
9148371276,-6.517080,2.286106,-1.156797,0.281046,0.834388,-0.496079
9148373779,-6.577579,2.407917,-1.218227,0.288335,0.839400,-0.493040
9148376282,-6.698603,2.652431,-1.159220,0.284562,0.833594,-0.486562
9148378784,-6.698255,2.835220,-1.160275,0.287388,0.829179,-0.483647
9148381288,-6.758762,2.957329,-1.161083,0.287290,0.824067,-0.480041
9148383790,-6.819376,3.018210,-1.222161,0.287290,0.823339,-0.480776
9148386293,-6.880223,2.957232,-1.282536,0.289552,0.827695,-0.483635
9148388796,-6.880446,2.835076,-1.342454,0.292523,0.832039,-0.485026
9148391298,-6.941301,2.774394,-1.342206,0.289680,0.837905,-0.485012
9148393801,-7.001925,2.835573,-1.342662,0.291778,0.834226,-0.481370
9148396304,-7.001559,3.017769,-1.464962,0.291667,0.824747,-0.480716
9148398807,-7.061941,3.200510,-1.526744,0.290869,0.817466,-0.481512
9148401309,-7.061574,3.382706,-1.649044,0.290908,0.821112,-0.481483
9148403812,-7.122072,3.504518,-1.710474,0.293210,0.829113,-0.484312
9148406315,-7.243426,3.565648,-1.771656,0.293290,0.834949,-0.485724
9148408818,-7.425520,3.627026,-1.832941,0.291141,0.838618,-0.484990
9148411320,-7.546874,3.688156,-1.894124,0.289664,0.836447,-0.485023
9148413845,-7.546767,3.749383,-1.833853,0.292465,0.830572,-0.481391
9148416329,-7.546748,3.748790,-1.955098,0.296066,0.829068,-0.479904
9148418827,-7.546730,3.748196,-2.076342,0.300483,0.832667,-0.481285
9148421330,-7.668075,3.809029,-2.198146,0.304868,0.834076,-0.481955
9148423832,-7.789429,3.870159,-2.259328,0.304850,0.834799,-0.479761
9148426335,-7.910667,3.992219,-2.320862,0.301903,0.832643,-0.478351
9148428838,-7.971058,4.175257,-2.322021,0.297495,0.827592,-0.479170
9148431341,-7.970826,4.297117,-2.322725,0.296776,0.829784,-0.477701
9148433843,-7.970593,4.418977,-2.323429,0.296740,0.832686,-0.471843
9148436346,-8.031429,4.357702,-2.444426,0.289414,0.832030,-0.467552
9148438849,-8.031411,4.357108,-2.565670,0.284402,0.834287,-0.471967
9148441352,-8.031509,4.295585,-2.686563,0.280090,0.837258,-0.473451
9148443855,-8.092143,4.357060,-2.626396,0.277157,0.838740,-0.469824
9148446357,-8.152669,4.479762,-2.505959,0.279287,0.837977,-0.466159
9148448860,-8.152678,4.480059,-2.445337,0.275628,0.838014,-0.464011
9148451363,-8.152785,4.418832,-2.505608,0.272011,0.838787,-0.464774
9148453865,-8.152901,4.357903,-2.505256,0.274200,0.837309,-0.466950
9148456368,-8.152776,4.418535,-2.566230,0.273499,0.837323,-0.469147
9148458871,-8.213274,4.540347,-2.627660,0.274257,0.840958,-0.468380
9148461374,-8.212916,4.722840,-2.689337,0.272851,0.845349,-0.468361
9148463876,-8.334153,4.844899,-2.750871,0.271380,0.846817,-0.465448
9148466379,-8.394554,5.028234,-2.691408,0.275659,0.843112,-0.461782
9148468882,-8.394554,5.028234,-2.691408,0.274890,0.843111,-0.458142
9148471385,-8.394438,5.089164,-2.691760,0.273469,0.845317,-0.458870
9148473887,-8.394554,5.028234,-2.691408,0.274170,0.844576,-0.457409
9148476390,-8.333931,4.967056,-2.690953,0.277778,0.845256,-0.454446
9148478893,-8.273201,4.967104,-2.630226,0.281387,0.845208,-0.452217
9148481396,-8.212470,4.967152,-2.569500,0.284978,0.845157,-0.448530
9148483898,-8.212247,5.089309,-2.509582,0.286415,0.845137,-0.447055
9148486401,-8.212237,5.089012,-2.570204,0.281346,0.843018,-0.450776
9148488904,-8.151363,5.149100,-2.691696,0.276332,0.847456,-0.452985
9148491407,-8.090731,5.087625,-2.751863,0.275595,0.849645,-0.450058
9148493909,-8.029990,5.087376,-2.751759,0.279213,0.848144,-0.450030
9148496412,-7.969136,5.148057,-2.752007,0.280650,0.848124,-0.448555
9148498915,-7.969028,5.209284,-2.691736,0.280664,0.852491,-0.445602
9148501417,-7.968913,5.270214,-2.692088,0.281349,0.851746,-0.442682
9148503920,-7.908164,5.269669,-2.752606,0.278452,0.848873,-0.446385
9148506423,-7.847406,5.268827,-2.873747,0.279878,0.851760,-0.441239
9148508926,-7.786541,5.329211,-2.934617,0.278398,0.853953,-0.436861
9148511428,-7.665061,5.328714,-2.934409,0.276170,0.850331,-0.436185
9148513931,-7.543591,5.328514,-2.873579,0.276946,0.851788,-0.439083
9148516434,-7.483093,5.206703,-2.812149,0.278357,0.852490,-0.434685
9148518937,-7.422479,5.145821,-2.751071,0.275444,0.849613,-0.436928
9148521439,-7.301009,5.145621,-2.690241,0.271835,0.850387,-0.438422
9148523942,-7.179297,5.266984,-2.690737,0.270420,0.856231,-0.436203
9148526445,-7.057827,5.266783,-2.629906,0.266811,0.856279,-0.438431
9148528948,-6.996971,5.327464,-2.630154,0.267530,0.855541,-0.438429
9148531450,-6.996874,5.388988,-2.509262,0.271866,0.854758,-0.436928
9148533953,-6.996883,5.389284,-2.448640,0.273311,0.854012,-0.436918
9148536456,-6.936259,5.328106,-2.448184,0.276291,0.858358,-0.439039
9148538959,-6.875751,5.205998,-2.447376,0.279875,0.856851,-0.436093
9148541461,-6.754630,5.023008,-2.385490,0.279151,0.852495,-0.440512
9148543964,-6.633258,4.961284,-2.445553,0.282817,0.854642,-0.441184
9148546467,-6.512011,4.838928,-2.444641,0.281372,0.854661,-0.441930
9148548970,-6.451271,4.838679,-2.444537,0.284272,0.853171,-0.442639
9148551472,-6.390666,4.778094,-2.322837,0.281345,0.856837,-0.437535
9148553975,-6.390791,4.717461,-2.261863,0.278489,0.857609,-0.441209
9148556478,-6.390898,4.656235,-2.322133,0.278441,0.852507,-0.441979
9148558981,-6.330265,4.594759,-2.382300,0.279126,0.851763,-0.439059
9148561483,-6.269526,4.594511,-2.382196,0.279960,0.856141,-0.444122
9148563986,-6.330284,4.595353,-2.261055,0.282825,0.855371,-0.441178
9148566489,-6.269437,4.656332,-2.200681,0.279108,0.853941,-0.435395
9148568991,-6.147957,4.655835,-2.200473,0.284229,0.853162,-0.438991
9148571494,-6.087343,4.594953,-2.139395,0.277638,0.853227,-0.434687
9148573997,-6.087459,4.534023,-2.139043,0.281353,0.857566,-0.437530
9148576501,-6.087701,4.412460,-2.077717,0.280662,0.854673,-0.443396
9148579004,-6.027078,4.351281,-2.077261,0.280629,0.854666,-0.440479
9148581507,-5.966338,4.351033,-2.077157,0.280562,0.853924,-0.435378
9148584009,-5.844984,4.289903,-2.015975,0.281297,0.853917,-0.436100
9148586512,-5.905839,4.229222,-2.015728,0.282091,0.853196,-0.442663
9148589015,-5.905732,4.290448,-1.955457,0.285656,0.856049,-0.433846
9148591517,-5.966472,4.290697,-1.955561,0.284872,0.853136,-0.431689
9148594020,-5.966365,4.351923,-1.895291,0.279091,0.853937,-0.433936
9148596523,-5.905616,4.351378,-1.955809,0.278365,0.853946,-0.433944
9148599026,-5.784147,4.351178,-1.894979,0.282693,0.851706,-0.433184
9148601528,-5.662783,4.289751,-1.894419,0.283450,0.856796,-0.430946
9148604031,-5.602034,4.289206,-1.954937,0.282674,0.854612,-0.428784
9148606534,-5.541401,4.227731,-2.015104,0.282688,0.858252,-0.426566
9148609037,-5.541634,4.105871,-2.014400,0.281990,0.853175,-0.433909
9148611540,-5.481145,3.984356,-1.892348,0.279711,0.849542,-0.428857
9148614042,-5.481270,3.923723,-1.831374,0.281040,0.846590,-0.420840
9148616545,-5.420647,3.862544,-1.830918,0.285245,0.862670,-0.454955
9148619048,-5.420772,3.801911,-1.769944,0.283831,0.843622,-0.413537
9148621550,-5.299543,3.680148,-1.647788,0.283390,0.845873,-0.436140
9148624053,-5.238920,3.618970,-1.647332,0.282789,0.858273,-0.435319
9148626556,-5.117672,3.496613,-1.646421,0.283383,0.855327,-0.426582
9148629058,-5.178277,3.557198,-1.768121,0.281843,0.845870,-0.428132
9148631561,-5.239026,3.557743,-1.707603,0.282007,0.853905,-0.434633
9148634064,-5.299775,3.558288,-1.647084,0.280570,0.854653,-0.435373
9148636567,-5.178421,3.497159,-1.585902,0.285533,0.850931,-0.428051
9148639070,-5.117797,3.435980,-1.585447,0.286230,0.843643,-0.432478
9148641572,-4.996435,3.374553,-1.584887,0.286327,0.850210,-0.434614
9148644075,-5.057425,3.253535,-1.463043,0.279731,0.845910,-0.433992
9148646578,-5.057774,3.070746,-1.461987,0.280499,0.847365,-0.436160
9148649081,-5.058015,2.949183,-1.400661,0.284908,0.849506,-0.438283
9148651583,-5.058131,2.888253,-1.400309,0.284882,0.850956,-0.434624
9148654086,-5.058149,2.888847,-1.279065,0.284907,0.850234,-0.437548
9148656589,-5.058149,2.888847,-1.279065,0.286482,0.858243,-0.440385
9148659091,-5.058033,2.949777,-1.279417,0.284964,0.854610,-0.438242
9148661594,-4.997293,2.949528,-1.279313,0.285725,0.853154,-0.442622
9148664097,-5.118996,2.827868,-1.339439,0.284264,0.851714,-0.443380
9148666600,-5.240805,2.644982,-1.459836,0.284246,0.853165,-0.440450
9148669102,-5.301651,2.584004,-1.520211,0.289315,0.854557,-0.437465
9148671605,-5.240921,2.584053,-1.459484,0.290834,0.857464,-0.440343
9148674108,-5.119460,2.584149,-1.338032,0.289380,0.858935,-0.438889
9148676611,-5.119479,2.584743,-1.216787,0.287075,0.856025,-0.430912
9148679134,-5.119469,2.584446,-1.277410,0.286309,0.851661,-0.431685
9148681615,-5.180316,2.523468,-1.337784,0.284163,0.851693,-0.434626
9148684117,-5.180432,2.462538,-1.337432,0.282716,0.854621,-0.432431
9148686620,-5.180441,2.462835,-1.276810,0.282700,0.853890,-0.431707
9148689123,-5.119701,2.462586,-1.276706,0.279769,0.852464,-0.431022
9148691626,-5.119585,2.523516,-1.277058,0.278346,0.856124,-0.430279
9148694129,-5.119469,2.584446,-1.277410,0.279781,0.859013,-0.425863
9148696632,-5.058730,2.584198,-1.277306,0.278963,0.856820,-0.420053
9148699134,-4.997990,2.583949,-1.277202,0.281226,0.858994,-0.425118
9148701637,-4.937482,2.461841,-1.276394,0.278311,0.859026,-0.424420
9148704140,-4.876868,2.400959,-1.215316,0.272398,0.856163,-0.418672
9148706642,-4.816370,2.279148,-1.153886,0.272423,0.856168,-0.420861
9148709145,-4.816514,2.219108,-0.971668,0.275371,0.858325,-0.422270
9148711648,-4.695150,2.157681,-0.971108,0.276120,0.861959,-0.420774
9148714151,-4.513039,2.095709,-1.031066,0.276104,0.861228,-0.420050
9148716653,-4.391657,2.033689,-1.151751,0.273908,0.859795,-0.420086
9148719156,-4.391773,1.972759,-1.151399,0.273939,0.863438,-0.419327
9148721658,-4.391898,1.912126,-1.090425,0.275352,0.861958,-0.417135
9148724161,-4.391908,1.912423,-1.029803,0.274657,0.864155,-0.417855
9148726664,-4.331302,1.851838,-0.908103,0.274738,0.868537,-0.420737
9148729167,-4.209726,1.912864,-0.787002,0.278357,0.866309,-0.421444
9148731669,-4.149111,1.851982,-0.725924,0.278365,0.867038,-0.421438
9148734172,-4.088372,1.851734,-0.725820,0.276911,0.867782,-0.420719
9148736675,-4.027874,1.729922,-0.664390,0.279768,0.866283,-0.417781
9148739178,-3.906626,1.607566,-0.663479,0.281949,0.865531,-0.418492
9148741681,-3.846021,1.546981,-0.541778,0.279067,0.865570,-0.420713
9148744183,-3.724658,1.485554,-0.541219,0.276918,0.869239,-0.419978
9148746686,-3.663918,1.485306,-0.541115,0.276167,0.867787,-0.419268
9148749189,-3.663668,1.606572,-0.663063,0.274004,0.867816,-0.420751
9148751692,-3.602919,1.606026,-0.723581,0.275439,0.870705,-0.416335
9148754194,-3.542189,1.606075,-0.662855,0.274639,0.866334,-0.414190
9148756697,-3.421076,1.423382,-0.540347,0.273914,0.863433,-0.417139
9148759199,-3.360587,1.301867,-0.418295,0.278985,0.861916,-0.417095
9148761703,-3.239233,1.240737,-0.357113,0.278248,0.864831,-0.413432
9148764205,-3.117986,1.118380,-0.356201,0.280421,0.863350,-0.414149
9148766708,-3.057594,0.935342,-0.355042,0.281900,0.862611,-0.417057
9148769211,-2.997078,0.812937,-0.414857,0.280487,0.864819,-0.418514
9148771713,-2.997078,0.812937,-0.414857,0.278978,0.860459,-0.417836
9148774216,-2.936222,0.873618,-0.415104,0.281159,0.858980,-0.419282
9148776719,-2.936106,0.934548,-0.415456,0.284115,0.860411,-0.422156
9148779222,-2.875491,0.873667,-0.354378,0.286312,0.861117,-0.422856
9148781725,-2.754263,0.751903,-0.232222,0.286997,0.860372,-0.419936
9148784227,-2.693648,0.691022,-0.171144,0.288434,0.859624,-0.419196
9148786730,-2.572401,0.568665,-0.170233,0.282587,0.858957,-0.417078
9148789232,-2.572392,0.568368,-0.230855,0.282595,0.858959,-0.417807
9148791735,-2.511769,0.507190,-0.230399,0.286154,0.857446,-0.412673
9148794238,-2.511894,0.446557,-0.169425,0.284007,0.858206,-0.414879
9148796741,-2.390665,0.324794,-0.047269,0.279672,0.858989,-0.416380
9148799244,-2.390781,0.263864,-0.046917,0.278860,0.859707,-0.408359
9148801746,-2.390898,0.202934,-0.046565,0.278853,0.858251,-0.409100
9148804249,-2.391014,0.142004,-0.046213,0.277465,0.860464,-0.412746
9148806752,-2.391139,0.081371,0.014761,0.278224,0.862644,-0.413450
9148809254,-2.330283,0.142052,0.014513,0.276003,0.861206,-0.411297
9148811757,-2.208822,0.142149,0.135965,0.273813,0.862684,-0.409121
9148814260,-2.026603,0.141403,0.136277,0.276067,0.866311,-0.411986
9148816763,-1.905249,0.080273,0.197459,0.273903,0.867067,-0.412733
9148819265,-1.783770,0.079776,0.197667,0.276074,0.867768,-0.411245
9148821768,-1.723137,0.018301,0.137501,0.278221,0.867735,-0.408303
9148824271,-1.601900,-0.103759,0.199034,0.278171,0.866997,-0.404661
9148826774,-1.541169,-0.103711,0.259761,0.277487,0.866287,-0.409052
9148829276,-1.480322,-0.042733,0.320135,0.279648,0.869895,-0.403893
9148831779,-1.419467,0.017949,0.319887,0.278170,0.867724,-0.403926
9148834282,-1.298103,-0.043478,0.320447,0.279674,0.868445,-0.407552
9148836785,-1.237712,-0.226516,0.321606,0.281030,0.862589,-0.404664
9148839288,-1.116572,-0.410099,0.262248,0.287570,0.863240,-0.403857
9148841791,-0.995218,-0.471230,0.323430,0.285439,0.865458,-0.406052
9148844294,-0.873622,-0.410797,0.323286,0.285498,0.866198,-0.410423
9148846797,-0.752152,-0.410997,0.384116,0.292046,0.866851,-0.410345
9148849300,-0.630798,-0.472127,0.445298,0.291320,0.865405,-0.411823
9148851802,-0.570300,-0.593939,0.506728,0.288374,0.861794,-0.411884
9148854305,-0.509793,-0.716047,0.507535,0.289900,0.866156,-0.414022
9148856808,-0.449151,-0.777819,0.386747,0.292765,0.865386,-0.411078
9148859311,-0.327751,-0.840433,0.144817,0.292023,0.863937,-0.411097
9148861813,-0.206262,-0.841226,0.084403,0.292055,0.865398,-0.412544
9148864316,-0.145541,-0.840881,0.205752,0.294220,0.862460,-0.414003
9148866819,-0.084820,-0.840536,0.327100,0.289852,0.861782,-0.414057
9148869321,-0.084820,-0.840536,0.327100,0.284765,0.861841,-0.414113
9148871824,-0.084811,-0.840833,0.266478,0.288440,0.863262,-0.416249
9148874327,-0.024187,-0.902012,0.266934,0.292826,0.862490,-0.419125
9148876830,0.036553,-0.902260,0.267038,0.288368,0.856701,-0.416302
9148879332,0.097301,-0.902805,0.206519,0.286931,0.857449,-0.417041
9148881835,0.279646,-0.842918,0.145857,0.285487,0.856740,-0.418522
9148884338,0.279762,-0.781988,0.145505,0.286288,0.858930,-0.422873
9148886841,0.279627,-0.842324,0.267101,0.283403,0.863332,-0.420682
9148889344,0.279618,-0.842028,0.327724,0.279801,0.867018,-0.419964
9148891846,0.401107,-0.842821,0.267309,0.279116,0.867762,-0.422883
9148894349,0.461981,-0.782734,0.145817,0.277663,0.867052,-0.423635
9148896852,0.461999,-0.783327,0.024573,0.275465,0.868528,-0.420729
9148899354,0.461999,-0.783327,0.024573,0.278331,0.866304,-0.419256
9148901857,0.522730,-0.783279,0.085299,0.279033,0.865563,-0.417795
9148904360,0.644075,-0.844112,0.207103,0.277498,0.862653,-0.413458
9148906863,0.643842,-0.965972,0.207807,0.275342,0.863411,-0.414935
9148909365,0.643726,-1.026902,0.208159,0.275333,0.864863,-0.412735
9148911868,0.643601,-1.087535,0.269133,0.275308,0.864131,-0.411282
9148914371,0.765062,-1.087438,0.390585,0.274590,0.864141,-0.412019
9148916874,0.886648,-1.026709,0.451063,0.274596,0.867052,-0.409808
9148919376,1.008262,-0.966869,0.329675,0.275365,0.867780,-0.412711
9148921879,1.129848,-0.906140,0.390153,0.276832,0.872130,-0.409743
9148924382,1.251327,-0.906637,0.390361,0.275369,0.873599,-0.407559
9148926885,1.312067,-0.906885,0.390465,0.278980,0.869916,-0.409007
9148929387,1.372700,-0.968361,0.330299,0.281134,0.870612,-0.406059
9148931890,1.433430,-0.968312,0.391025,0.277484,0.870651,-0.404640
9148934393,1.615649,-0.969058,0.391337,0.276741,0.869201,-0.404660
9148936896,1.797966,-0.908280,0.512541,0.275296,0.869947,-0.404670
9148939398,1.858812,-0.847302,0.572916,0.276748,0.871385,-0.403184
9148941901,1.980175,-0.908729,0.573475,0.275980,0.869930,-0.401015
9148944404,2.040799,-0.969907,0.573931,0.273100,0.868514,-0.404706
9148946910,2.222902,-1.031583,0.574595,0.276726,0.867016,-0.405407
9148949408,2.344488,-0.970853,0.635073,0.275248,0.865573,-0.404705
9148951911,2.526707,-0.971599,0.635385,0.273085,0.864874,-0.406923
9148954413,2.587214,-1.093707,0.636193,0.272383,0.865615,-0.408384
9148956916,2.708578,-1.155134,0.636752,0.270178,0.864908,-0.406955
9148959419,2.708578,-1.155134,0.636752,0.271560,0.858330,-0.406992
9148961922,2.769424,-1.094156,0.697127,0.272311,0.859781,-0.407702
9148964424,2.830155,-1.094108,0.757853,0.270889,0.863442,-0.406959
9148966927,3.012249,-1.155486,0.819139,0.270155,0.861994,-0.407708
9148969430,3.133486,-1.277546,0.880673,0.270114,0.859803,-0.406267
9148971933,3.254724,-1.399606,0.942207,0.273822,0.861959,-0.410586
9148974435,3.376310,-1.338876,1.002685,0.273078,0.862691,-0.408400
9148976938,3.437157,-1.277898,1.063059,0.271582,0.863426,-0.404033
9148979441,3.498004,-1.216920,1.123433,0.273085,0.864874,-0.406923
9148981943,3.558627,-1.278098,1.123889,0.273821,0.863413,-0.409115
9148984446,3.740623,-1.401001,1.064283,0.275953,0.860468,-0.407656
9148986949,3.861745,-1.583990,1.126168,0.278843,0.859704,-0.406900
9148989452,3.983099,-1.645121,1.187350,0.277447,0.861915,-0.409816
9148991955,4.104453,-1.706251,1.248532,0.276101,0.866318,-0.414903
9148994457,4.226039,-1.645521,1.309011,0.280536,0.867738,-0.419950
9148996960,4.287012,-1.523910,1.308411,0.281964,0.867716,-0.417745
9148999463,4.287021,-1.524207,1.247789,0.278173,0.864088,-0.407603
9149001965,4.347644,-1.585385,1.248245,0.278883,0.863349,-0.406871
9149004468,4.529738,-1.646764,1.309530,0.277529,0.865569,-0.413434
9149006971,4.651091,-1.707894,1.370712,0.284103,0.865500,-0.416280
9149009473,4.772562,-1.708094,1.431543,0.286233,0.866191,-0.411144
9149011976,4.893934,-1.769818,1.371480,0.284826,0.871310,-0.410390
9149014479,5.015297,-1.831245,1.372040,0.288535,0.872738,-0.415444
9149016982,5.136670,-1.892968,1.311977,0.290691,0.870526,-0.415437
9149019485,5.197302,-1.954443,1.251811,0.292880,0.870502,-0.416143
9149021987,5.318675,-2.016167,1.191748,0.291383,0.871965,-0.411041
9149024490,5.440029,-2.077297,1.252931,0.295729,0.869001,-0.412475
9149026993,5.561267,-2.199357,1.314464,0.297877,0.866060,-0.412474
9149029495,5.682746,-2.199854,1.314672,0.301476,0.867465,-0.408046
9149031998,5.804118,-2.261578,1.254610,0.299320,0.868950,-0.408788
9149034501,5.986239,-2.323846,1.134029,0.295728,0.870456,-0.411005
9149037004,6.046863,-2.385025,1.134485,0.297900,0.869701,-0.410986
9149039506,6.168110,-2.507382,1.135396,0.296472,0.869724,-0.413191
9149042009,6.289580,-2.507582,1.196227,0.297827,0.865322,-0.408833
9149044512,6.471567,-2.630187,1.197242,0.298571,0.863862,-0.411755
9149047015,6.653679,-2.692159,1.137284,0.298570,0.866044,-0.409549
9149049518,6.835800,-2.754428,1.016703,0.295662,0.868260,-0.407375
9149052020,6.957173,-2.816152,0.956640,0.293427,0.861727,-0.408910
9149054523,7.017903,-2.816104,1.017367,0.294916,0.858081,-0.415488
9149057026,7.139257,-2.877234,1.078549,0.289811,0.860318,-0.411880
9149059528,7.260611,-2.938364,1.139730,0.291901,0.856637,-0.407508
9149062031,7.382091,-2.938861,1.139938,0.294107,0.855163,-0.411143
9149064534,7.503589,-2.939951,1.018902,0.288302,0.854505,-0.412672
9149067037,7.564105,-3.062356,0.959087,0.288320,0.853781,-0.414866
9149069539,7.624728,-3.123535,0.959543,0.285440,0.851639,-0.419292
9149072042,7.685334,-3.184120,1.081243,0.284695,0.853825,-0.415636
9149074545,7.867417,-3.245202,1.203152,0.278106,0.849527,-0.415743
9149077047,7.988772,-3.306332,1.264334,0.278172,0.852450,-0.418637
9149079550,8.049261,-3.427846,1.386386,0.279675,0.853899,-0.421527
9149082053,8.109866,-3.488431,1.508086,0.276742,0.854654,-0.418636
9149084556,8.230988,-3.671421,1.569972,0.270913,0.853264,-0.418712
9149087059,8.352235,-3.793778,1.570883,0.268731,0.855471,-0.416530
9149089561,8.412984,-3.794323,1.510365,0.270209,0.856187,-0.417967
9149092064,8.473831,-3.733345,1.570739,0.269507,0.857655,-0.418693
9149094567,8.534561,-3.733297,1.631466,0.270978,0.856914,-0.420871
9149097070,8.656022,-3.733200,1.752918,0.270927,0.857631,-0.415759
9149099572,8.838116,-3.794579,1.814204,0.267333,0.860591,-0.416505
9149102075,8.898479,-3.976727,1.997230,0.268134,0.862780,-0.420856
9149104578,8.958978,-4.098537,2.058660,0.265319,0.864288,-0.427442
9149107082,9.019485,-4.220645,2.059467,0.265393,0.867213,-0.431065
9149109585,9.201472,-4.343251,2.060483,0.262901,0.867173,-0.404100
9149112087,9.444170,-4.465215,2.243469,0.260006,0.862845,-0.409274
9149114590,9.626139,-4.587226,2.365729,0.256422,0.864352,-0.412220
9149117093,9.747609,-4.587426,2.426559,0.265129,0.858429,-0.416547
9149119596,9.868972,-4.648853,2.427119,0.269494,0.864198,-0.411346
9149122098,10.051065,-4.710232,2.488405,0.266578,0.864958,-0.409913
9149124601,10.293782,-4.832789,2.550147,0.278322,0.867757,-0.417056
9149127104,10.415137,-4.893919,2.611329,0.274745,0.871448,-0.418526
9149129607,10.597115,-5.016228,2.672966,0.274027,0.871458,-0.419263
9149132109,10.718468,-5.077358,2.734149,0.273177,0.866349,-0.413477
9149134612,10.900553,-5.138440,2.856057,0.276901,0.869235,-0.418519
9149137115,11.022023,-5.138640,2.916887,0.279057,0.867750,-0.417777
9149139617,11.143609,-5.077911,2.977365,0.276869,0.867046,-0.417807
9149142120,11.325829,-5.078656,2.977677,0.268906,0.859145,-0.428172
9149144623,11.568777,-5.079354,3.038715,0.268801,0.851122,-0.426777
9149147125,11.811503,-5.202208,3.039835,0.273772,0.848856,-0.418714
9149149628,11.932634,-5.385494,3.041098,0.268880,0.859867,-0.425248
9149152131,12.053659,-5.630007,2.982091,0.273926,0.857617,-0.423751
9149154634,12.174664,-5.873927,3.044329,0.279889,0.861945,-0.432405
9149157137,12.235144,-5.995145,3.227003,0.272680,0.862042,-0.437591
9149159639,12.295722,-6.054839,3.530570,0.271751,0.849642,-0.431863
9149162142,12.356425,-6.053901,3.773163,0.273870,0.840148,-0.435561
9149164645,12.417049,-6.115079,3.773619,0.286913,0.833442,-0.438387
9149167150,12.477691,-6.176850,3.652830,0.292795,0.832662,-0.444894
9149169650,12.538699,-6.056427,3.409741,0.286516,0.844431,-0.456544
9149172153,12.538834,-5.996090,3.288145,0.289506,0.846597,-0.461600
9149174656,12.599806,-5.874479,3.287545,0.284453,0.845936,-0.465309
9149177159,12.539280,-5.751778,3.407982,0.275708,0.845304,-0.463952
9149179661,12.539262,-5.751184,3.529227,0.277756,0.840160,-0.457404
9149182164,12.478406,-5.811865,3.529474,0.284249,0.835710,-0.457367
9149184667,12.478173,-5.933725,3.530178,0.282034,0.837909,-0.452268
9149187170,12.538671,-6.055537,3.591608,0.281488,0.845230,-0.460971
9149189672,12.417068,-6.115672,3.652375,0.283042,0.845962,-0.468972
9149192175,12.416951,-6.176602,3.652726,0.282997,0.836497,-0.474154
9149194678,12.417068,-6.115672,3.652375,0.285147,0.832101,-0.475624
9149197181,12.417308,-5.994110,3.591048,0.285128,0.834279,-0.471959
9149199683,12.417657,-5.811320,3.589993,0.289529,0.837146,-0.472617
9149202186,12.357042,-5.750438,3.528915,0.296095,0.837075,-0.474733
9149204689,12.296553,-5.628924,3.406863,0.293286,0.842221,-0.478372
9149207191,12.296562,-5.629220,3.346241,0.286794,0.845217,-0.479880
9149209694,12.174976,-5.689950,3.285762,0.281634,0.840897,-0.477782
9149212212,12.114112,-5.750334,3.346632,0.279380,0.837997,-0.474183
9149214698,12.113996,-5.811264,3.346984,0.284417,0.837200,-0.470485
9149217201,12.113753,-5.932827,3.408310,0.291618,0.834192,-0.467511
9149219704,12.113531,-6.054984,3.348392,0.293799,0.832712,-0.468957
9149222207,12.052675,-6.115665,3.348639,0.293123,0.832731,-0.473342
9149224709,12.052917,-5.994102,3.287313,0.290268,0.831321,-0.479221
9149227212,12.053149,-5.872242,3.286610,0.293159,0.829102,-0.479936
9149229715,11.992758,-5.689204,3.285450,0.296019,0.823967,-0.480674
9149232217,11.871519,-5.567145,3.223917,0.295275,0.823972,-0.479223
9149234720,11.871645,-5.506512,3.162942,0.296025,0.826878,-0.478462
9149237223,11.871673,-5.507402,2.981076,0.291707,0.827665,-0.481422
9149239726,11.871574,-5.568925,2.860183,0.288817,0.826975,-0.483648
9149242228,11.810853,-5.569271,2.738835,0.291031,0.826229,-0.487277
9149244731,11.689384,-5.569070,2.678005,0.291040,0.826231,-0.488007
9149247234,11.567904,-5.568573,2.677797,0.293178,0.825470,-0.485071
9149249736,11.507154,-5.568028,2.738315,0.297546,0.826875,-0.484282
9149252239,11.385907,-5.445671,2.737403,0.296878,0.827623,-0.488660
9149254742,11.325410,-5.323859,2.675973,0.296929,0.826907,-0.493772
9149257245,11.264912,-5.202048,2.614543,0.296154,0.823268,-0.493080
9149259748,11.143673,-5.079988,2.553010,0.294703,0.820376,-0.496037
9149262250,10.961705,-4.957976,2.430750,0.293970,0.816747,-0.498992
9149264753,10.779495,-4.957527,2.369816,0.291799,0.814592,-0.501951
9149267256,10.658132,-4.896101,2.369256,0.291121,0.817520,-0.503395
9149269759,10.597508,-4.834922,2.368800,0.288230,0.819012,-0.503415
9149272262,10.476261,-4.712566,2.367888,0.280245,0.818379,-0.504968
9149274764,10.354897,-4.651138,2.367329,0.274392,0.814802,-0.505062
9149277267,10.233670,-4.529375,2.245173,0.273681,0.816268,-0.505058
9149279769,10.112191,-4.528878,2.244965,0.273705,0.817728,-0.505776
9149282272,9.929855,-4.589062,2.245005,0.273706,0.816274,-0.507246
9149284775,9.747859,-4.466160,2.304611,0.270800,0.815580,-0.508013
9149287278,9.626603,-4.343507,2.364322,0.269428,0.819978,-0.510912
9149289780,9.444732,-4.159972,2.362955,0.274546,0.823563,-0.510098
9149292283,9.323369,-4.098545,2.362395,0.276744,0.822087,-0.513003
9149294786,9.141392,-3.976237,2.300757,0.276802,0.824281,-0.515903
9149297289,9.080777,-3.915355,2.239679,0.284744,0.825632,-0.509968
9149299791,9.020163,-3.854474,2.178601,0.290540,0.827015,-0.506974
9149302294,8.959423,-3.854225,2.178497,0.287592,0.825585,-0.504830
9149304797,8.777098,-3.914706,2.117915,0.288261,0.823383,-0.501921
9149307300,8.594772,-3.975187,2.057332,0.288243,0.826288,-0.497521
9149309802,8.534166,-3.914603,1.935632,0.283859,0.822697,-0.499058
9149312305,8.473552,-3.853721,1.874554,0.280243,0.822016,-0.501292
9149314808,8.413045,-3.731613,1.873747,0.275872,0.824974,-0.497670
9149317311,8.291788,-3.608959,1.933457,0.276623,0.826425,-0.498379
9149319813,8.231165,-3.547781,1.933001,0.277418,0.826431,-0.504207
9149322316,8.231272,-3.486554,1.993272,0.276691,0.826439,-0.504215
9149324819,8.170657,-3.425673,1.932194,0.275924,0.822803,-0.504252
9149327321,8.049196,-3.425769,1.810741,0.277371,0.819875,-0.506447
9149329824,7.927717,-3.425272,1.810533,0.283954,0.819081,-0.510758
9149332327,7.867219,-3.303461,1.749104,0.278818,0.817674,-0.507908
9149334830,7.806712,-3.181352,1.748296,0.277414,0.818429,-0.511565
9149337333,7.746213,-3.059541,1.686866,0.277375,0.814784,-0.511594
9149339835,7.564111,-2.997866,1.686202,0.278820,0.814038,-0.511584
9149342338,7.442873,-2.875806,1.624668,0.276632,0.813334,-0.511614
9149344841,7.382258,-2.814924,1.563591,0.274461,0.812634,-0.513103
9149347343,7.200263,-2.692022,1.623197,0.282504,0.814734,-0.515185
9149349846,7.078908,-2.630892,1.562015,0.286138,0.813237,-0.516616
9149352349,6.957671,-2.508832,1.500481,0.281003,0.809649,-0.515972
9149354852,6.897172,-2.387021,1.439051,0.284645,0.810336,-0.515926
9149357354,6.715070,-2.325345,1.438388,0.288263,0.807381,-0.517368
9149359857,6.533092,-2.203037,1.376750,0.289653,0.801532,-0.517398
9149362360,6.350999,-2.141658,1.315464,0.291180,0.804440,-0.521006
9149364863,6.229644,-2.080528,1.254282,0.291950,0.802986,-0.526116
9149367365,6.108291,-2.019397,1.193100,0.287573,0.802306,-0.525440
9149369868,5.865708,-1.836504,1.009762,0.284699,0.803802,-0.526920
9149372372,5.683730,-1.714196,0.948124,0.291338,0.808838,-0.530454
9149374875,5.501762,-1.592184,0.825864,0.287713,0.808155,-0.531959
9149377378,5.258937,-1.530854,0.703852,0.291248,0.803727,-0.527577
9149379880,5.076844,-1.469475,0.642566,0.289814,0.800112,-0.532728
9149382383,4.834020,-1.408145,0.520554,0.289063,0.798660,-0.532018
9149384886,4.591419,-1.224658,0.458460,0.291297,0.805920,-0.529748
9149387389,4.409432,-1.102053,0.457445,0.289795,0.803017,-0.528328
9149389891,4.166812,-0.917972,0.516596,0.289705,0.798634,-0.524716
9149392394,3.984826,-0.795367,0.515580,0.291999,0.805179,-0.528287
9149394897,3.802848,-0.673059,0.453942,0.292033,0.805186,-0.531204
9149397400,3.681503,-0.612225,0.332138,0.291967,0.802263,-0.528310
9149399902,3.559926,-0.673252,0.211038,0.291222,0.805177,-0.523918
9149402405,3.438572,-0.612121,0.149856,0.289832,0.811026,-0.523887
9149404908,3.195739,-0.550494,0.088466,0.292044,0.813917,-0.523840
9149407411,3.074626,-0.367801,-0.034042,0.288426,0.816871,-0.522398
9149409913,2.953505,-0.184811,-0.095928,0.284039,0.817644,-0.519523
9149412416,2.893015,-0.063297,-0.217980,0.284725,0.816172,-0.517338
9149414919,2.710922,-0.001918,-0.279266,0.285502,0.816902,-0.520971
9149417421,2.467973,-0.001221,-0.340304,0.285477,0.816896,-0.518783
9149419924,2.285879,0.060158,-0.401590,0.279646,0.816960,-0.517388
9149422427,2.164882,0.303781,-0.524450,0.284006,0.817637,-0.516605
9149424930,2.104384,0.425592,-0.585880,0.286145,0.815421,-0.515139
9149427433,2.043761,0.486771,-0.586335,0.281775,0.817651,-0.512252
9149429935,2.043868,0.547997,-0.526065,0.285432,0.820524,-0.511459
9149432438,1.983244,0.609176,-0.526521,0.282484,0.819821,-0.508580
9149434942,1.922639,0.669760,-0.648221,0.280255,0.816927,-0.507168
9149437444,1.801401,0.791820,-0.709755,0.279578,0.817673,-0.510817
9149439946,1.679922,0.792317,-0.709963,0.277408,0.815518,-0.513777
9149442449,1.619298,0.853496,-0.710419,0.272245,0.814834,-0.508003
9149444952,1.558675,0.914674,-0.710874,0.270023,0.814851,-0.504380
9149447455,1.498051,0.975852,-0.711330,0.270041,0.813400,-0.507310
9149449957,1.437535,1.098257,-0.651516,0.273725,0.814095,-0.510911
9149452460,1.315930,1.038121,-0.590749,0.272237,0.814832,-0.507274
9149454963,1.255181,1.038667,-0.530231,0.273699,0.814817,-0.507987
9149457466,1.133827,1.099797,-0.591413,0.275914,0.813345,-0.512351
9149459968,1.073213,1.160678,-0.652491,0.274494,0.812642,-0.516020
9149462471,0.952100,1.343371,-0.774999,0.275989,0.814088,-0.518181
9149464974,0.830746,1.404501,-0.836181,0.276015,0.813366,-0.521105
9149467476,0.770132,1.465383,-0.897259,0.276700,0.811894,-0.518920
9149469979,0.648643,1.466177,-0.836845,0.278879,0.814778,-0.515955
9149472482,0.527164,1.466674,-0.837053,0.282545,0.816197,-0.517362
9149475005,0.284331,1.528301,-0.898443,0.281769,0.814741,-0.514464
9149477488,0.163200,1.711588,-0.899706,0.279548,0.812575,-0.513047
9149479989,0.041836,1.773015,-0.900266,0.280274,0.812567,-0.513039
9149482491,-0.018903,1.773263,-0.900370,0.281695,0.811088,-0.511575
9149484994,-0.079634,1.773215,-0.961096,0.283868,0.808879,-0.513028
9149487497,-0.201113,1.773712,-0.961304,0.288229,0.808101,-0.513715
9149490000,-0.261843,1.773664,-1.022030,0.288997,0.809556,-0.515883
9149492503,-0.383197,1.834794,-1.083212,0.291193,0.810989,-0.515848
9149495005,-0.443803,1.895378,-1.204912,0.292623,0.808785,-0.515849
9149497508,-0.504292,2.016893,-1.326964,0.294812,0.807307,-0.518025
9149500011,-0.625422,2.200180,-1.328228,0.294804,0.807305,-0.517295
9149502514,-0.685921,2.321991,-1.389658,0.291914,0.807343,-0.518786
9149505016,-0.807409,2.322785,-1.329243,0.290417,0.808805,-0.513685
9149507519,-0.929112,2.201126,-1.389370,0.292571,0.810956,-0.509267
9149510022,-1.111447,2.140941,-1.389330,0.291884,0.813883,-0.509981
9149512524,-1.232926,2.141438,-1.389538,0.291884,0.813883,-0.509981
9149515027,-1.415020,2.202817,-1.450824,0.291166,0.813893,-0.510718
9149517530,-1.475741,2.202472,-1.572172,0.289002,0.815376,-0.510731
9149520033,-1.596854,2.385165,-1.694680,0.291224,0.815360,-0.514354
9149522536,-1.596612,2.506728,-1.756006,0.289059,0.817571,-0.513631
9149525038,-1.596505,2.567955,-1.695736,0.288307,0.817574,-0.511451
9149527541,-1.657245,2.568203,-1.695840,0.288290,0.818297,-0.509257
9149530044,-1.717975,2.568155,-1.756566,0.284616,0.816149,-0.507855
9149532546,-1.839320,2.628988,-1.878370,0.283897,0.816886,-0.507857
9149535049,-1.960790,2.629189,-1.939200,0.285366,0.819055,-0.507094
9149537552,-2.021530,2.629437,-1.939304,0.284605,0.819056,-0.504185
9149540055,-2.082269,2.629685,-1.939408,0.285325,0.816864,-0.505653
9149542557,-2.264479,2.630134,-2.000342,0.284648,0.818338,-0.508567
9149545060,-2.385958,2.630631,-2.000550,0.284688,0.821256,-0.509273
9149547563,-2.507322,2.692058,-2.001110,0.283912,0.819799,-0.506375
9149550066,-2.567955,2.753533,-1.940943,0.283911,0.820526,-0.505640
9149552568,-2.628685,2.753485,-2.001670,0.283176,0.821260,-0.504183
9149555071,-2.628676,2.753188,-2.062292,0.287478,0.819742,-0.500500
9149557574,-2.749923,2.875545,-2.063203,0.284514,0.816855,-0.498367
9149560076,-2.749807,2.936475,-2.063555,0.276495,0.816942,-0.496267
9149562579,-2.810430,2.997653,-2.064011,0.278683,0.816919,-0.496972
9149565082,-2.810430,2.997653,-2.064011,0.275075,0.816966,-0.499201
9149567585,-2.810556,2.937020,-2.003037,0.272943,0.820638,-0.499925
9149570088,-2.810672,2.876090,-2.002685,0.276543,0.819862,-0.497702
9149572590,-2.810806,2.815754,-1.881089,0.277205,0.816930,-0.494800
9149575093,-2.810699,2.876981,-1.820819,0.280910,0.822722,-0.495443
9149577596,-2.810458,2.998544,-1.882144,0.279463,0.825650,-0.493247
9149580099,-2.871314,2.937862,-1.881897,0.280172,0.827092,-0.490310
9149582601,-2.871546,2.816003,-1.881193,0.277217,0.824206,-0.488906
9149585104,-2.932527,2.694688,-1.819971,0.275715,0.820576,-0.488222
9149587607,-2.932768,2.573125,-1.758645,0.279382,0.820541,-0.491099
9149590109,-2.993508,2.573374,-1.758749,0.277921,0.820556,-0.490386
9149592612,-2.993642,2.513037,-1.637153,0.278655,0.821277,-0.490372
9149595115,-3.115131,2.513831,-1.576738,0.277154,0.816919,-0.490423
9149597618,-3.175996,2.453447,-1.515868,0.272142,0.818449,-0.495574
9149600120,-3.236977,2.332132,-1.454646,0.270747,0.819933,-0.499225
9149602623,-3.176121,2.392813,-1.454894,0.268585,0.817053,-0.503649
9149605126,-3.175996,2.453447,-1.515868,0.274309,0.812602,-0.499973
9149607629,-3.236485,2.574961,-1.637920,0.277298,0.815495,-0.504294
9149610131,-3.357732,2.697318,-1.638832,0.275217,0.819178,-0.509395
9149612634,-3.479221,2.698112,-1.578418,0.272979,0.817737,-0.505784
9149615137,-3.600709,2.698906,-1.518003,0.270047,0.817765,-0.503627
9149617639,-3.722323,2.639066,-1.396615,0.277960,0.811109,-0.502862
9149620142,-3.783197,2.578979,-1.275123,0.278796,0.812578,-0.510866
9149622645,-3.904676,2.579476,-1.275331,0.277361,0.810417,-0.514547
9149625148,-3.965532,2.518795,-1.275083,0.280210,0.808189,-0.511615
9149627651,-4.087128,2.458361,-1.274939,0.286710,0.805922,-0.510101
9149630153,-4.269453,2.397880,-1.335521,0.285353,0.811779,-0.512988
9149632656,-4.451556,2.459556,-1.336185,0.281027,0.811109,-0.516689
9149635160,-4.572803,2.581913,-1.337096,0.282481,0.810365,-0.517409
9149637663,-4.694050,2.704269,-1.338008,0.286829,0.816131,-0.510749
9149640166,-4.754790,2.704518,-1.338112,0.291892,0.814612,-0.509975
9149642668,-4.937000,2.704967,-1.399046,0.285342,0.816140,-0.507847
9149645171,-4.997847,2.643988,-1.459420,0.278908,0.821330,-0.512255
9149647674,-5.180191,2.584101,-1.398758,0.282457,0.821998,-0.504186
9149650177,-5.301786,2.523668,-1.398614,0.279606,0.827135,-0.504177
9149652679,-5.423284,2.524759,-1.277578,0.278871,0.826414,-0.504191
9149655182,-5.544656,2.586482,-1.217515,0.277345,0.822051,-0.502053
9149657685,-5.605405,2.587028,-1.156997,0.278787,0.826396,-0.496896
9149660187,-5.605638,2.465168,-1.156293,0.270718,0.825746,-0.491155
9149662690,-5.605744,2.403941,-1.216564,0.264977,0.829466,-0.494108
9149665193,-5.605977,2.282081,-1.215860,0.269417,0.836705,-0.494001
9149667696,-5.606093,2.221152,-1.215508,0.270085,0.836684,-0.488887
9149670198,-5.667083,2.100134,-1.093664,0.267299,0.844745,-0.491773
9149672701,-5.727948,2.039750,-1.032794,0.269447,0.842530,-0.491037
9149675204,-5.727966,2.040343,-0.911549,0.271650,0.845420,-0.490260
9149677707,-5.728091,1.979710,-0.850575,0.271650,0.846874,-0.488790
9149680209,-5.667486,1.919125,-0.728875,0.272286,0.843937,-0.483699
9149682712,-5.606997,1.797611,-0.606823,0.275920,0.842440,-0.485129
9149685215,-5.607123,1.736977,-0.545849,0.278835,0.843135,-0.485091
9149687718,-5.546624,1.615166,-0.484419,0.278826,0.844588,-0.482891
