Timestamp (us),Gyroscope X (deg/s),Gyroscope Y (deg/s),Gyroscope Z (deg/s),Accelerometer X (g),Accelerometer Y (g),Accelerometer Z (g)
7488643023,1.353558,0.472402,-0.911953,0.868998,-0.002830,0.488756
7488663069,1.019528,-0.203567,-0.459274,0.868134,0.001876,0.494720
7488683114,1.498180,-1.138702,-0.096381,0.869406,-0.000205,0.486917
7488703159,2.121029,-1.701638,0.021268,0.874902,0.006499,0.479891
7488723203,1.647251,0.921060,0.129077,0.879014,0.000286,0.448926
7488743257,1.202392,2.038943,0.565674,0.882836,0.008883,0.460537
7488763293,0.215303,1.637196,1.091666,0.896407,0.005776,0.449918
7488783338,-0.739511,4.092886,0.738605,0.902505,0.000734,0.458654
7488803384,0.196762,5.733608,0.249923,0.893284,-0.006693,0.458921
7488823425,0.382321,6.334139,0.773595,0.891489,0.003512,0.466926
7488843470,0.705513,4.053702,0.887548,0.892340,0.000344,0.471784
7488863515,0.758891,3.886496,1.009189,0.900031,-0.003600,0.471782
7488883560,1.970122,5.808293,0.716209,0.887181,-0.007903,0.480464
7488903604,2.577935,5.465763,0.772819,0.873702,0.000076,0.484305
7488923649,1.824049,4.166832,1.076940,0.872625,0.005963,0.476783
7488943694,0.935360,4.388071,1.190201,0.873761,0.010747,0.485037
7488963739,-0.042545,5.635498,1.341267,0.866648,0.004012,0.484494
7488983783,-0.892370,5.271677,1.957590,0.862556,0.006975,0.494819
7489003828,-1.523494,4.588295,2.260189,0.862168,-0.007140,0.496207
7489023873,-1.295496,4.162541,2.441682,0.862768,-0.001340,0.505177
7489043919,-0.737352,5.066719,2.832700,0.863841,-0.004416,0.498200
7489063964,-1.421957,4.717711,2.906843,0.865962,-0.007874,0.503343
7489084008,-1.332209,4.253916,2.738991,0.862858,-0.020389,0.506155
7489104053,-0.207720,4.784793,2.295624,0.861398,-0.013697,0.508183
7489124098,-0.437696,3.454933,2.435774,0.859553,-0.009215,0.506402
7489144142,-0.319830,2.132149,2.078061,0.864687,-0.012825,0.509474
7489164187,-0.123107,2.443428,1.680108,0.861932,-0.014900,0.506831
7489184231,-0.564647,2.580523,1.462433,0.854484,-0.011925,0.511942
7489204276,-1.660066,1.920278,1.616203,0.852425,-0.015630,0.512139
7489224320,-1.966383,0.879211,1.535735,0.855349,-0.020566,0.516480
7489244365,-1.291246,0.475700,1.332864,0.856500,-0.024179,0.510874
7489264409,-1.002839,0.748958,1.071373,0.858376,-0.026004,0.514544
7489284454,-1.270465,-0.254067,1.150556,0.856494,-0.023694,0.514876
7489304499,-0.708099,0.117772,0.909725,0.855563,-0.031992,0.512752
7489324544,-0.017885,-0.802503,0.920540,0.861778,-0.025277,0.508645
7489344588,-0.251622,-0.102958,1.096892,0.862082,-0.023939,0.505268
7489364633,-0.731673,-0.079873,0.803437,0.863782,-0.018736,0.509699
7489384678,-1.013115,-0.208831,0.828572,0.866483,-0.022091,0.505194
7489404724,-0.778549,-0.277557,0.567816,0.862150,-0.032058,0.504607
7489424768,-0.307462,-0.171611,0.442211,0.859949,-0.031616,0.510778
7489444813,0.004509,-0.232642,0.538915,0.862891,-0.030026,0.509876
7489464858,1.074989,-0.279340,0.165073,0.861281,-0.029319,0.503486
7489484907,0.695701,0.739362,-0.099622,0.861522,-0.024089,0.508543
7489524992,-0.004826,1.750514,-0.864655,0.863028,-0.021021,0.507254
7489545040,0.656556,1.696742,-0.854439,0.850767,-0.021567,0.519733
7489565080,0.684150,-0.583331,-0.502053,0.854200,-0.013404,0.508583
7489585125,0.122067,-0.544789,-0.383505,0.862573,-0.013974,0.510106
7489605170,0.944147,0.229721,-0.497197,0.860133,-0.018482,0.511946
7489625215,0.996406,0.548722,-0.901669,0.855049,-0.011034,0.510208
7489645260,0.212541,0.108562,-0.895243,0.851118,-0.012453,0.507551
7489665304,-0.206037,-0.339471,-0.792572,0.852723,-0.013619,0.513490
7489685348,-0.131644,-0.932455,-0.937329,0.861893,-0.009935,0.512434
7489705393,-0.571402,-0.263216,-0.942208,0.864698,-0.011154,0.513649
7489725438,-0.055468,-0.499357,-1.105925,0.858833,-0.015040,0.506263
7489745483,-0.085096,-0.643621,-0.831303,0.856257,-0.009035,0.511749
7489765527,-0.042304,-2.034619,-0.906499,0.862244,-0.012263,0.506447
7489785573,0.028928,-0.810901,-0.755836,0.867419,-0.013803,0.505952
7489805618,0.113323,-0.294148,-0.802681,0.865112,-0.009298,0.506444
7489825663,-0.327280,-0.248130,-0.730782,0.864441,-0.006033,0.502679
7489865752,0.083372,-0.712015,-0.482088,0.863178,-0.010824,0.505714
7489885797,0.107422,-0.157158,-0.421851,0.866261,-0.007562,0.496787
7489905842,-0.158245,-0.164477,-0.305533,0.866315,-0.008228,0.505624
7489925885,-0.613816,-0.323593,-0.073340,0.865824,-0.011623,0.501552
7489945930,-0.071989,0.496877,0.066477,0.863260,-0.012123,0.502812
7489965975,0.194674,0.572704,0.178635,0.864244,-0.007126,0.502414
7489986019,0.179950,0.390397,0.392233,0.866976,-0.007255,0.502799
7490006064,-0.418605,0.907894,0.685828,0.866693,-0.008455,0.500257
7490026109,-0.898512,0.292674,0.735799,0.863648,-0.010487,0.502892
7490046154,-1.028659,0.003916,0.638032,0.865040,-0.021257,0.503993
7490066199,-0.154046,0.960677,0.257125,0.862755,-0.028907,0.500488
7490086243,0.917608,0.952112,0.172734,0.860792,-0.031210,0.505683
7490106288,2.004997,1.186767,0.110847,0.863661,-0.030037,0.497409
7490126332,2.471310,2.782466,0.014343,0.858943,-0.015275,0.499256
7490146379,1.239209,1.924784,0.306478,0.860915,-0.008941,0.509233
7490166424,1.064042,1.803314,0.285081,0.866037,-0.015254,0.504133
7490186468,1.515554,3.923410,0.043447,0.858003,-0.019502,0.517766
7490206513,1.842984,3.300065,0.475769,0.852539,-0.013896,0.512672
7490226563,0.847675,2.335922,1.109012,0.856695,-0.017265,0.509270
7490246602,2.753681,1.140954,1.080292,0.862272,-0.024621,0.499630
7490266647,3.978840,1.930329,0.993969,0.867273,-0.022974,0.510761
7490286699,5.692837,2.757545,1.482853,0.868673,-0.018009,0.494342
7490306735,6.427114,3.692117,2.192459,0.848468,0.004888,0.529786
7490326780,5.767359,-0.236725,2.521201,0.840964,-0.005898,0.548120
7490346825,6.827733,-1.993497,2.309037,0.858864,-0.014429,0.527654
7490366869,8.077365,-0.512432,2.328529,0.857696,-0.000465,0.527348
7490386914,9.225110,-1.090984,2.533588,0.854383,0.012116,0.508010
7490406959,7.172027,-2.327896,3.038070,0.855929,0.013702,0.516111
7490427004,8.252897,-0.892457,2.685603,0.848837,0.012101,0.532096
7490447048,7.426494,1.122278,2.324356,0.842324,0.016678,0.508703
7490467093,3.376585,1.354027,2.835140,0.841513,0.018929,0.515689
7490487138,1.049263,1.363532,2.601572,0.858071,-0.000800,0.494577
7490507182,-0.323088,5.362264,1.671263,0.883691,-0.000016,0.467172
7490527228,-2.616466,8.715741,0.763862,0.879845,-0.010134,0.484526
7490547273,-3.393598,9.552114,-0.068983,0.875507,-0.035679,0.473051
7490567318,-4.391472,11.118154,-1.319831,0.861042,-0.056427,0.486136
7490587362,-4.259419,7.613409,-2.894517,0.896606,-0.032624,0.472816
7490607407,-3.490253,13.737734,-5.488807,0.906673,-0.048816,0.473296
7490627452,-1.035008,18.089819,-7.690579,0.868864,-0.067857,0.497486
7490647497,3.159973,14.361553,-8.359155,0.850762,-0.082754,0.505215
7490667540,6.178065,10.216538,-8.424086,0.875281,-0.074212,0.514337
7490687585,11.611023,10.827012,-9.510024,0.890221,-0.074966,0.541675
7490727674,23.451576,14.867443,-10.648335,0.847266,-0.041982,0.525885
7490747719,26.942719,10.007906,-9.931532,0.853976,-0.016103,0.538011
7490767764,32.715172,11.105016,-9.946356,0.835349,-0.007120,0.531428
7490787808,34.971088,12.213180,-9.035268,0.806021,0.055992,0.549630
7490807853,29.159683,9.224729,-6.367191,0.797812,0.170170,0.575486
7490827898,18.949114,4.544024,-6.132114,0.802390,0.247685,0.600645
7490847943,7.057966,-1.428012,-7.368498,0.814743,0.255955,0.622426
7490867987,-3.119341,-4.490709,-9.154055,0.825861,0.202358,0.583983
7490888034,-9.996426,-5.746708,-9.648656,0.802338,0.115356,0.569143
7490908078,-11.962693,-5.455909,-9.039628,0.825708,0.111541,0.568981
7490928123,-16.363832,-1.981038,-14.463871,0.827446,0.106483,0.516502
7490948168,-20.206467,5.415778,-18.852394,0.798882,0.134512,0.538459
7490968219,-25.273914,-1.223694,-20.711838,0.750490,0.199108,0.596023
7490988257,-38.930069,-12.987523,-25.464104,0.818447,0.277940,0.531774
7491008302,-55.690773,-12.724577,-30.676273,0.827874,0.225429,0.513794
7491028353,-64.842499,-17.096191,-34.037823,0.828344,0.161224,0.536542
7491048390,-75.083405,-20.068871,-38.588417,0.862848,0.210490,0.512261
7491068434,-88.863800,-22.408276,-44.544712,0.866893,0.237565,0.507879
7491088479,-105.315063,-25.033508,-48.971840,0.885278,0.256815,0.459874
7491108524,-125.636475,-24.281454,-55.101833,0.920647,0.263673,0.460440
7491128569,-147.991898,-22.783421,-62.656799,0.919799,0.242605,0.432384
7491148613,-167.436493,-18.673048,-69.741371,0.919924,0.248573,0.363323
7491168658,-188.225876,-15.123742,-76.319908,0.913018,0.250868,0.338763
7491188703,-207.031784,-19.085913,-83.516006,0.907472,0.238535,0.336366
7491208747,-221.820435,-25.422104,-88.790382,0.961316,0.154940,0.285008
7491228792,-231.452347,-28.844460,-94.914589,0.997101,0.075068,0.282105
7491248837,-237.613586,-31.112513,-96.609795,1.033309,-0.005702,0.256997
7491268883,-245.058624,-19.226288,-96.815353,1.029062,-0.047332,0.202683
7491288928,-247.081482,-11.032824,-100.875763,1.060135,-0.024933,0.162574
7491308973,-247.349533,-9.207248,-98.269974,1.137902,0.010617,0.058876
7491329018,-256.923645,1.944563,-96.226364,1.226862,-0.020861,-0.024522
7491349062,-265.050598,30.385992,-95.771927,1.189238,-0.235870,-0.019471
7491369107,-249.718124,52.247055,-96.870064,1.041097,-0.456090,0.119197
7491409195,-210.668839,52.926918,-98.808029,0.913332,-0.469413,0.280433
7491429240,-185.005859,51.765327,-97.304810,0.832956,-0.446156,0.379257
7491449284,-157.968018,41.755310,-95.879951,0.849659,-0.326002,0.450768
7491469329,-149.184265,42.781494,-95.704491,0.908257,-0.226511,0.412409
7491489374,-140.697906,50.327824,-98.877335,0.902852,-0.178752,0.462232
7491509418,-131.031586,50.880386,-102.296402,0.840619,-0.136248,0.474719
7491529463,-122.549530,41.979156,-104.707077,0.820657,-0.124869,0.468834
7491549508,-121.119781,27.558969,-105.671936,0.842241,-0.170680,0.469461
7491569552,-113.053802,19.617624,-104.012146,0.861578,-0.243253,0.483676
7491589598,-100.512375,22.054218,-104.011566,0.860211,-0.209632,0.490763
7491629688,-107.172829,15.408948,-104.929359,0.883069,-0.054530,0.504035
7491649733,-110.703217,11.260794,-107.640968,0.874936,-0.056993,0.499535
7491669778,-111.166725,8.759336,-110.362389,0.879250,-0.034408,0.505116
7491689823,-111.800537,7.687188,-112.573441,0.857233,-0.076213,0.477804
7491709871,-109.779907,3.071715,-112.805496,0.864332,-0.026168,0.504210
7491729912,-110.262970,-1.213319,-109.834229,0.824109,-0.093343,0.498644
7491749957,-100.550156,-7.316565,-107.838379,0.849125,-0.051679,0.500122
7491770000,-102.413750,-4.659394,-101.373894,0.903749,0.008043,0.500938
7491790045,-99.507683,-2.154002,-102.099426,0.867127,-0.041917,0.500628
7491810089,-90.588715,-0.618087,-100.599899,0.848172,0.033932,0.523990
7491830134,-91.390862,-1.247671,-99.313278,0.847170,0.168421,0.524511
7491850178,-102.723953,-1.671620,-100.414436,0.847914,0.177463,0.503229
7491870223,-112.020348,-17.154751,-102.499741,0.855323,0.146349,0.527302
7491890268,-117.501778,-24.667261,-102.846764,0.892941,0.151331,0.500223
7491910313,-122.619316,-20.405676,-101.127907,0.883561,0.118327,0.493234
7491930357,-131.595413,-20.016745,-98.591125,0.856900,0.151697,0.513886
7491950402,-140.308212,-20.053020,-94.593246,0.844439,0.158778,0.509185
7491970447,-137.821182,-24.296230,-94.311188,0.857342,0.140513,0.468733
7491990493,-140.280304,-26.453543,-96.172012,0.895963,0.202088,0.465684
7492010538,-145.395126,-32.697132,-96.690651,0.944115,0.206580,0.505603
7492030582,-158.151154,-25.106989,-93.964096,0.944566,0.099230,0.399879
7492050627,-154.689713,-1.917806,-88.535004,0.858899,0.092458,0.395304
7492070672,-155.622299,-4.840537,-82.483780,0.773822,0.164624,0.415482
7492090717,-166.870377,-14.905796,-74.617355,0.813173,0.157568,0.278532
7492110761,-176.559830,-18.194931,-71.964973,0.926596,0.144325,0.320895
7492130806,-181.145828,-31.738968,-79.840042,1.046264,0.076114,0.614768
7492170894,-159.037369,18.142683,-91.865059,0.904902,-0.111804,0.433288
7492190939,-168.669098,-2.077167,-97.881973,0.863524,0.149708,0.429553
7492210984,-181.066788,-20.169819,-94.562515,0.910981,0.195898,0.360142
7492231028,-189.053604,-23.347385,-94.064026,0.995884,0.101769,0.353254
7492251073,-195.095322,-14.139419,-97.812698,1.003109,0.035152,0.334191
7492271118,-195.649689,-0.382777,-100.244080,0.936685,-0.016709,0.324483
7492291162,-197.545502,-0.783314,-98.774063,0.901819,-0.038659,0.355729
7492311207,-200.698593,-12.187428,-94.769981,0.925996,-0.030046,0.386426
7492331252,-199.928238,-10.087760,-89.140327,0.977897,-0.014342,0.358725
7492351297,-201.537933,8.754628,-91.636986,1.077877,0.078287,0.289496
7492391387,-214.722260,27.596336,-100.947067,1.021791,-0.180401,0.230040
7492411432,-216.708023,15.675365,-111.570961,1.079732,-0.301956,0.295107
7492431477,-197.635483,28.622551,-118.509712,1.094006,-0.368282,0.380430
7492451522,-167.960815,51.092949,-123.009491,0.977087,-0.346596,0.413721
7492471566,-147.849289,54.440426,-128.027313,0.841165,-0.291382,0.467718
7492511654,-107.204338,32.491020,-131.342651,0.807767,-0.300238,0.497410
7492531699,-92.016449,44.552505,-137.763229,0.840416,-0.240062,0.502706
7492551744,-86.428345,53.635265,-144.084518,0.835374,-0.199156,0.551222
7492571788,-84.133568,43.963531,-147.764984,0.794160,-0.201916,0.600745
7492591833,-78.720848,35.027218,-149.588348,0.765574,-0.190366,0.613187
7492611878,-74.589828,32.507786,-149.663345,0.789292,-0.078531,0.620813
7492631923,-73.345009,32.923515,-152.393005,0.695432,-0.144936,0.660644
7492651968,-57.643154,27.605175,-151.281830,0.671725,-0.151731,0.605081
7492672012,-45.232964,31.835020,-152.660843,0.701412,-0.075887,0.552686
7492692057,-47.464512,37.102631,-156.214081,0.724802,0.012934,0.616674
7492712102,-86.282997,31.659178,-149.283386,0.747766,-0.080178,0.885190
7492732148,-97.891678,33.833721,-136.169159,0.814034,-0.113664,0.905070
7492752192,-56.802299,74.700928,-128.759781,0.631808,0.234194,0.500181
7492772237,-43.627270,71.918129,-105.645218,0.458704,0.393644,0.419484
7492792282,-88.786430,31.981247,-114.098450,0.324782,0.246706,0.146767
7492812326,-139.975845,7.555005,-156.231049,0.977825,-0.105450,0.855123
7492832371,-91.872276,23.754944,-175.737122,0.713823,-0.541266,1.120457
7492852416,-38.843887,66.669693,-172.603653,0.468886,0.143022,0.903161
7492872459,-95.806778,9.678635,-166.026031,0.417517,0.501075,0.778104
7492892504,-117.047104,-11.522966,-163.374817,0.701875,0.421949,0.913395
7492912549,-101.086319,14.680792,-157.297791,0.591762,0.300783,0.861423
7492932593,-124.254616,-1.414011,-160.258911,0.371794,0.420054,0.975733
7492952638,-141.683136,-29.475618,-159.565475,0.535477,0.421676,1.072056
7492972683,-140.936203,-32.542061,-165.586761,0.568524,0.340796,1.150444
7492992728,-134.388687,-52.623837,-171.529770,0.512438,0.207498,1.108435
7493012772,-131.140640,-82.056274,-170.963089,0.623202,0.128847,1.064462
7493032817,-129.257874,-81.692574,-169.857986,0.672939,0.200900,0.995765
7493052862,-137.964935,-57.386608,-172.015900,0.513753,0.614826,0.634564
7493072906,-157.298203,-30.830742,-160.640564,0.821481,0.953873,0.090386
7493092953,-204.349106,-25.985397,-158.273148,1.244829,0.806639,-0.215586
7493112997,-246.290619,-55.967789,-149.116470,0.973839,-0.621462,0.432354
7493133042,-160.633881,-61.859776,-89.445992,1.028875,-1.600118,0.861187
7493153087,-16.097446,66.205879,-78.935455,0.872568,-0.397719,0.915581
7493173132,-13.463476,70.614159,-74.167908,0.467006,0.049747,0.734848
7493193176,-40.793884,-0.175040,-67.789177,0.439222,0.114120,0.816691
7493213221,-66.146477,-26.063410,-66.663742,0.794120,0.003626,0.645390
7493233286,-45.805756,26.724443,-59.159893,0.793108,0.045436,0.663519
7493253309,-48.508804,29.862505,-49.764011,0.657466,0.110613,0.646331
7493273354,-55.994125,-1.153564,-41.998055,0.619196,0.032962,0.808752
7493293399,-29.673906,-1.284947,-30.124733,0.704381,0.023934,0.921160
7493313443,9.183211,17.126627,-17.176609,0.703723,0.117072,0.915015
7493333488,33.294067,6.333339,-5.382923,0.634971,0.236785,0.887850
7493353533,55.204964,-20.249210,13.245696,0.597731,0.266378,1.006602
7493373578,77.603317,-45.179482,39.289238,0.642559,0.143818,1.006849
7493393622,110.957947,-39.999580,61.068336,0.651361,0.094465,0.970447
7493413667,133.363739,-43.529148,80.814102,0.484318,0.124569,1.067580
7493433712,155.817352,-68.543709,105.440308,0.440222,0.078725,1.028669
7493453757,177.160080,-106.699791,128.144775,0.509549,-0.192417,1.169619
7493473803,204.754013,-104.086739,143.761566,0.449702,-0.373496,1.093471
7493493848,215.186905,-58.107243,170.104034,0.343199,-0.001237,0.915361
7493513892,197.498627,-43.629578,199.960190,0.424799,0.237157,0.406052
7493533937,259.295746,-61.323727,200.912521,0.687178,0.147449,-0.406686
7493553981,308.900879,-32.954048,186.548630,1.221973,-0.205102,-0.396866
7493574026,121.980995,-17.572412,177.705399,1.289181,0.221854,0.320719
7493594071,50.971962,5.214479,109.198898,1.501669,1.622456,0.509005
7493614114,99.950661,59.571209,43.719349,1.429278,1.892900,0.127954
7493634159,38.365192,104.091103,49.543201,0.648986,0.781442,-0.006504
7493654203,-62.533325,40.600586,37.509529,0.493880,0.285387,0.423457
7493674248,-124.610672,-32.395203,56.315552,0.636362,-0.006186,0.626019
7493694293,-83.199066,9.719111,31.983452,0.997323,-0.000540,0.416202
7493714338,-76.143005,72.173721,-5.710753,0.828621,0.110582,0.368075
7493734383,-128.680359,50.930679,-20.044497,0.637876,0.115137,0.551191
7493754427,-190.141693,12.670061,-33.768070,0.709001,0.205732,0.857055
7493774472,-208.298950,1.576505,-60.846153,0.836294,0.087123,0.768192
7493794517,-189.177399,24.586494,-85.667328,0.849515,-0.204544,0.353530
7493814561,-169.961227,22.198471,-119.378609,0.709680,-0.470199,0.542344
7493834607,-150.266556,0.908427,-150.150269,0.650461,-0.575992,0.264644
7493854652,-94.373360,77.516541,-159.534164,0.742641,-0.802094,-0.123034
7493874697,-30.813669,34.553852,-146.816467,0.655143,-1.494368,0.492222
7493894742,34.319466,1.313964,-110.922295,0.505670,-0.835185,1.143213
7493914787,92.486908,91.229080,-52.624805,0.616713,-0.051941,1.175707
7493934831,101.416985,21.648045,-28.127047,0.515747,0.307933,1.374118
7493974920,178.031601,-55.189880,-4.926060,0.543228,0.212599,1.334044
7493994964,179.338623,-109.909180,27.074404,0.766288,-0.057489,1.460358
7494015009,202.489761,-104.676743,44.695911,1.000137,-0.500932,1.063673
7494035054,211.267456,-11.104781,94.706635,0.929637,-0.346145,0.064852
7494055098,222.541855,83.162788,175.079300,0.500801,-0.336196,-0.315196
7494075143,176.413834,63.421539,166.058273,0.638572,0.546306,-0.105517
7494095187,-2.251606,23.654556,93.301628,0.899629,1.828533,-0.211156
7494115232,-167.244370,23.372492,28.325829,1.163171,2.837664,0.532920
7494135277,-222.042801,-48.916206,61.557758,0.962545,0.642228,0.813969
7494155322,-180.181641,-17.868191,38.794418,1.168346,-0.213878,0.253511
7494175366,-172.375519,56.886539,-9.460884,0.885913,-0.281846,0.454583
7494195411,-203.269165,-1.423549,-46.300468,0.712811,0.212653,0.525623
7494215457,-251.782623,-29.684654,-58.730995,0.926621,-0.088571,0.075086
7494235502,-241.844223,-1.906508,-95.553650,0.839245,-0.367051,0.050161
7494255546,-173.301697,25.889561,-165.767151,0.812268,-0.390636,-0.026683
7494275591,-102.167480,44.146973,-213.692764,0.846851,-0.736909,-0.183992
7494295636,-50.776215,38.994320,-198.182541,0.721272,-1.561422,0.095758
7494315681,-11.488600,-28.952669,-132.681229,0.552112,-2.097640,0.890854
7494335726,111.337021,17.622093,-20.634329,0.445280,-0.192663,2.105909
7494355769,142.265228,-0.014608,31.711456,0.753817,0.204839,1.540679
7494375814,144.998474,-70.710709,-1.237500,0.579328,0.528523,1.512970
7494395858,113.706413,-111.704178,16.639441,0.444015,0.597373,1.212059
7494415903,92.331703,-121.326111,44.306854,0.606455,0.296481,0.638779
7494435948,152.261398,-142.190216,57.503838,1.029681,-0.554200,-0.194362
7494455992,185.752640,-51.103458,87.954094,1.311758,-0.442100,-0.570516
7494476037,80.081505,61.187500,84.010971,1.545116,0.595549,-0.091471
7494496082,-57.856525,97.569588,50.409004,1.276627,1.655878,0.404023
7494516127,-49.469353,80.981262,24.793379,0.882760,1.561405,0.391638
7494536171,-45.931973,95.432762,20.417782,0.848492,0.523950,-0.152052
7494556216,-66.988014,82.300102,33.641781,0.629156,-0.163375,-0.180484
7494576262,-46.878307,68.226738,28.510918,0.819899,-0.575651,0.096536
7494596307,-42.789928,87.475479,44.718815,0.863129,-0.816226,0.325174
7494616351,-54.228962,100.784584,57.120342,0.733966,-0.562418,0.234733
7494636396,-31.021402,113.003479,44.314949,0.645081,0.232707,0.674003
7494656441,-35.589062,83.476089,-28.872025,0.628458,-0.001671,0.666438
7494676486,25.281151,90.005493,-29.375374,0.298651,-0.542313,1.061440
7494716577,5.379401,5.508069,15.667923,0.531857,0.064340,1.633356
7494736619,-32.373184,-15.250015,26.337887,0.427656,0.682972,1.377935
7494756663,-37.602097,-35.526764,20.561531,0.703706,0.634253,1.114412
7494776708,-22.959652,-30.877243,10.228737,0.319404,-0.066207,1.422022
7494796752,42.850521,-81.290337,6.587374,-0.287807,-0.404725,1.397347
7494816797,18.840378,-136.091553,10.731461,-0.270724,-0.504927,1.055334
7494836842,-1.539392,-238.948761,28.918428,0.618505,-0.167051,-0.031036
7494856887,-145.723175,-146.670105,19.392942,1.462037,0.958215,-0.311849
7494876931,-221.498474,-101.604576,28.143839,2.385763,1.229154,-0.265366
7494896976,-279.347778,-7.229350,-20.975061,1.623077,-0.575094,0.661502
7494917021,-9.426563,87.805428,-120.328659,0.549396,-1.916501,1.460097
7494937066,81.256042,95.266289,-138.720688,0.233398,-1.160973,0.275166
7494957111,95.311867,68.922920,-76.706810,-0.025767,-0.487386,0.211812
7494977156,98.780052,-67.375252,-25.074381,0.226611,-0.043277,0.535929
7494997201,28.304941,-136.748932,-13.117187,0.756417,-0.159656,0.592473
7495017246,68.049171,-94.186920,-42.274551,1.399189,-0.311216,1.358914
7495037290,60.933430,38.749722,-37.988010,1.137880,-0.142342,0.775385
7495057335,16.131359,53.190239,9.224838,0.052759,-0.082011,0.517862
7495077380,13.738758,-36.212692,-3.219626,-0.493803,-0.033358,0.666332
7495097423,17.056105,-203.211060,-38.276085,-0.040862,-0.271365,0.788507
7495117468,-49.940216,-282.833984,-44.208397,0.876552,-0.392799,0.860670
7495137513,-98.452812,-165.456497,-2.496266,1.400769,-0.074822,0.810798
7495157557,-111.372002,-27.148420,2.545810,1.257875,0.761452,0.429387
7495177602,-80.133461,0.995253,-93.017578,0.928674,1.244510,0.185459
7495197647,-146.418304,-18.772900,-200.228622,1.008933,0.483467,-0.311058
7495217691,-270.532898,-81.383942,-227.908310,1.403418,-0.751078,-0.371368
7495237736,-398.916718,-156.252960,-208.904480,1.377993,-1.395837,0.198700
7495257781,-123.534920,-96.737663,-183.105377,1.039032,-1.464482,0.741510
7495277826,60.420822,143.127792,-212.435089,0.871185,-0.282765,0.410690
7495297870,42.624084,147.644150,-226.206299,0.226603,-0.165625,-0.115851
7495317916,20.709373,9.736541,-218.944763,-0.083774,0.057695,0.116937
7495337961,-78.720123,-131.133499,-187.515121,0.460979,0.275345,0.491583
7495358006,-144.144104,-89.005196,-166.354416,1.398458,0.772079,0.775931
7495378051,-68.117203,105.131172,-173.756409,1.503488,0.908611,0.323444
7495398095,-102.012642,77.205849,-188.904800,1.035901,1.162583,0.347886
7495418140,-227.805222,-35.491543,-198.004211,0.616496,0.716596,0.398942
7495438185,-270.715973,-111.048164,-158.034332,1.229774,0.688383,0.878998
7495458248,-185.777847,-24.556488,-139.622559,1.287872,0.304776,0.726084
7495478273,-178.377411,-33.574108,-132.540054,0.705817,-0.148679,0.956919
7495498317,-140.117783,-63.281956,-85.769951,0.975841,0.708128,0.288378
7495518362,-164.769684,23.313211,-98.278702,1.034165,0.749253,0.246857
7495538407,-260.025513,-60.905128,-117.969566,0.837550,0.060094,0.739745
7495558452,-230.609940,-64.077278,-84.435440,0.984569,-0.960880,1.230417
7495578497,-36.829590,6.486791,-52.177895,0.963976,-1.104872,1.157436
7495598542,22.285662,69.299255,-39.404217,0.455190,0.022743,1.284165
7495618586,-23.116640,12.583499,-23.834461,0.168660,0.375099,0.994650
7495638631,-46.840538,-36.634373,-43.002220,0.231918,0.231837,0.756119
7495658675,-36.909298,-55.292686,-71.431252,0.686525,0.243030,0.699531
7495678720,-42.965458,-56.785896,-73.851746,0.788337,0.351059,0.808545
7495698766,-67.016876,-77.753258,-62.829529,0.867188,0.321780,1.156698
7495718811,-71.658737,-87.757195,-41.186607,1.146010,0.214635,1.188753
7495738856,-88.221611,-56.740932,-27.177935,0.909367,-0.138529,1.192216
7495758900,-93.983177,-51.133801,24.330147,0.534467,-0.364290,0.879513
7495778945,-36.447163,-63.307281,39.662777,0.284083,-0.023269,1.060964
7495798990,-59.023293,-98.486618,39.632961,0.520427,0.130207,0.889441
7495819034,-117.198242,-94.675980,52.158012,0.866487,0.296680,0.612635
7495839078,-158.390244,-107.037285,18.149862,0.739049,0.669485,0.654332
7495859122,-178.384613,-123.106804,-23.772732,0.783883,0.710628,0.499726
7495879167,-204.579376,-158.321472,-41.654907,0.795461,0.066531,0.422641
7495899212,-194.215134,-125.927773,-22.825911,0.952951,-0.307324,0.185882
7495919256,-185.917130,-72.836655,10.474120,1.108839,-0.430846,-0.143453
7495939301,-248.684769,-68.808533,-9.175978,1.184509,-1.019154,-0.064207
7495959346,-228.367523,-25.907217,-31.015892,0.690695,-1.627716,0.268702
7495979391,-8.305901,-7.573020,-28.004751,0.624545,-1.491534,0.355135
7495999435,52.658260,-35.208321,-27.394718,0.813172,-0.397152,0.908769
7496019480,-147.230865,-13.721419,-56.827972,1.204617,0.059910,0.843761
7496039525,-128.079208,16.080265,-88.969360,1.196289,-0.662811,0.231928
7496059571,-115.232452,79.090599,-113.658356,1.059104,-0.467440,0.024827
7496079616,-134.880951,70.163025,-144.056244,0.801682,-0.426348,0.017691
7496099660,-146.885178,21.272552,-156.396744,0.755388,-0.399483,0.219068
7496119705,-133.861649,-0.020546,-156.179352,0.941358,-0.454708,0.529706
7496139750,-32.088264,71.948013,-152.052963,0.981052,-0.885370,0.562594
7496159795,3.047069,120.124725,-144.437241,0.722411,-0.604818,0.861385
7496179840,-10.393205,97.292038,-103.219528,0.413222,0.131280,1.041604
7496199886,17.566315,60.571255,-70.602417,0.562200,0.399036,0.909833
7496219927,37.993908,14.625706,-46.893185,0.431130,0.401502,1.091673
7496239972,55.018875,-31.448385,-28.208673,0.365945,0.035514,1.514843
7496260017,85.127441,-75.035973,1.046402,0.577707,-0.266766,1.553846
7496280062,86.389931,-49.508095,30.815361,0.727980,-0.243050,1.213604
7496300106,72.737366,-24.641659,65.308372,0.390736,-0.132583,1.054270
7496320151,117.352737,-46.923141,108.480217,0.167822,-0.197468,0.561354
7496340196,149.799377,-61.065933,124.700333,0.606855,-0.456357,-0.410483
7496360241,111.572243,-12.584106,95.403839,1.240740,0.208660,-0.063552
7496380285,-81.165970,17.375875,59.058895,1.386295,1.309913,0.819383
7496400330,-91.313225,-24.151302,-4.177788,1.374955,1.642858,0.408399
7496420376,-146.429825,46.899567,-43.247055,1.135961,1.361115,-0.126454
7496440421,-254.401398,4.172886,-37.952599,0.648099,0.362040,0.337549
7496460466,-272.314270,-90.412956,-44.727047,0.838074,-0.360770,0.384690
7496480511,-254.530807,-15.760342,-64.353004,1.095420,-0.467220,0.154829
7496500555,-240.568924,54.212975,-118.936081,1.162251,-0.103456,-0.082125
7496520600,-213.184830,72.256950,-167.752594,1.024140,-0.201403,-0.195676
7496540644,-147.139191,101.082573,-201.402969,0.691368,-0.901825,-0.152721
7496560689,-60.568951,62.955055,-175.846588,0.680843,-1.781560,0.467558
7496580733,13.519094,55.472183,-126.660072,0.349290,-1.907932,0.747507
7496600777,136.928192,139.053604,-32.837509,-0.072899,0.023805,1.570549
7496620822,100.274384,32.069874,6.192286,0.442840,0.564851,1.263030
7496640867,113.773247,-31.245132,-4.341744,0.781296,0.576821,1.587702
7496660912,173.163010,-10.235302,-5.243583,0.570329,0.429399,1.378157
7496680956,156.672043,-62.419430,35.545330,0.545120,0.514489,1.205287
7496701001,151.031845,-126.459259,66.472748,0.962180,0.202385,1.018624
7496721046,178.913391,-76.102959,106.755936,1.435254,-0.078880,0.386907
7496741091,224.306961,48.421532,148.167938,0.906207,-0.347303,-0.079797
7496781180,55.611206,63.880451,143.344498,0.858011,1.587497,0.380771
7496801226,-93.033112,13.659479,37.113674,0.956200,3.141467,0.399890
7496821271,-196.638367,39.210403,18.312469,0.789709,1.726406,0.298825
7496841315,-252.770355,-40.206818,34.206882,0.624496,0.264397,0.413750
7496861360,-262.382751,-82.247177,13.789023,0.582760,-0.651299,0.462975
7496881408,-224.320862,-17.424534,-22.583395,0.742601,-0.392771,0.200528
7496901450,-240.551300,38.416306,-56.900742,0.908034,-0.041512,0.026672
7496921495,-232.388123,31.010021,-115.754326,1.001228,-0.080576,-0.301178
7496941546,-174.324921,75.409843,-180.669434,0.785328,-0.590892,-0.415171
7496961582,-55.006611,43.297756,-203.090805,0.715991,-1.589374,0.140016
7496981627,50.313622,-92.417625,-130.413437,1.188838,-2.411274,0.695429
7497001672,186.711029,69.345970,-25.428343,0.697982,-1.016839,1.557184
7497021717,211.799744,59.281208,53.062958,-0.010202,0.512907,2.124618
7497041761,168.562973,-70.574463,59.436642,0.469141,1.058807,1.281815
7497061806,99.614098,-114.044136,42.537636,0.340158,1.026786,1.313913
7497081851,109.032990,-161.297989,42.974808,0.673465,0.155197,0.404174
7497101896,176.253723,-127.089058,49.740639,1.173903,-0.510358,-0.462525
7497121941,158.652252,-8.706820,86.521950,1.561453,-0.409040,-0.524626
7497141985,-22.725330,95.913010,84.781609,1.609648,1.119533,0.273678
7497162030,-53.050190,127.386993,42.481876,1.150031,1.862465,0.920529
7497182076,-0.334518,149.424896,-0.491318,0.812086,1.100333,0.202641
7497202121,-53.839283,120.646492,10.230819,0.568238,0.305383,-0.020554
7497222166,-93.057976,47.938194,36.121548,0.444995,-0.329806,-0.165888
7497242210,-90.026100,65.658676,49.146927,0.889121,-0.725078,-0.012071
7497262255,-64.567268,152.031509,60.891739,0.933400,-0.419394,0.242201
7497282300,-64.137405,178.729782,55.172337,0.434187,0.205272,0.491237
7497302344,-60.956734,122.817329,6.870341,-0.009116,0.339885,0.399940
7497322388,-29.831083,100.185356,-28.192993,0.597969,-0.129109,0.880949
7497342433,40.762680,87.414520,-31.525705,0.702300,-0.951341,1.383781
7497362477,69.738297,122.579697,-0.119475,0.017284,-0.765524,1.291570
7497382522,-19.833580,6.263590,24.705362,0.231971,0.789726,1.651216
7497402567,-26.765862,-12.875470,10.317082,0.767438,1.011029,1.331185
7497422611,13.560428,10.621921,11.341736,0.080183,0.419210,1.436935
7497442656,24.669058,-86.664551,4.324473,-0.244481,-0.275161,1.451221
7497462701,58.566921,-165.136093,31.153240,0.004341,-0.741871,1.170282
7497482745,105.256409,-161.696747,61.638493,0.641451,-0.393045,0.192690
7497502790,160.295013,-93.292542,61.357521,1.612672,0.318358,-0.672468
7497522835,-39.896473,-19.290707,35.160427,1.685317,0.915173,0.071159
7497542881,-90.221069,57.937523,17.654066,-0.312473,-0.317487,2.309897
7497562926,67.897820,-66.343582,12.384417,0.357590,0.313539,1.405510
7497582970,-6.775151,-16.936470,-6.889715,0.782844,0.521160,0.719789
7497603015,-63.291058,-45.661415,-18.245218,0.377289,0.158292,1.422322
7497623060,-33.905125,-83.165176,0.024063,0.611657,-0.227902,0.863383
7497643104,-14.948401,-40.589806,-5.608615,0.531419,-0.203303,0.783749
7497663149,-24.323242,-51.751488,1.566450,0.409539,-0.065103,0.919923
7497683196,-39.407768,-71.346794,4.801279,0.426993,-0.033691,0.875089
7497703237,-44.909687,-84.251236,-2.328391,0.540850,0.098511,0.860444
7497723282,-46.069321,-93.239098,-13.037563,0.623634,0.110874,0.737855
7497743327,-39.326435,-100.748878,-17.622667,0.684174,0.038656,0.610065
7497763372,-31.078732,-99.259140,-18.677691,0.690981,0.000639,0.648940
7497783416,-24.415682,-107.573906,-21.882507,0.636613,0.012629,0.631237
7497803461,-22.098839,-107.725418,-16.354010,0.694249,0.068197,0.555996
7497823506,-27.776493,-113.001671,-13.402920,0.736610,0.041427,0.472310
7497843550,-19.997829,-109.232437,-16.932447,0.787918,0.086750,0.391919
7497863595,-19.660856,-95.698524,-22.768204,0.870113,0.053826,0.421561
7497883640,-12.058408,-82.815323,-25.032743,0.954972,-0.099984,0.419171
7497903684,-15.405383,-69.562988,-21.865637,0.838034,-0.356978,0.442198
7497923731,5.257602,-58.150623,-7.742929,0.623443,-0.445193,0.431071
7497943775,36.121925,-49.133350,7.111368,0.584548,-0.125400,0.423504
7497963820,40.497929,-71.234650,18.846125,0.657971,0.157598,0.301343
7497983865,31.509895,-97.057159,28.805145,0.795662,0.191133,0.119346
7498003910,10.093813,-111.630539,32.038059,0.982252,0.108967,0.061662
7498023954,1.502951,-106.773994,31.779366,1.103862,0.041808,0.040616
7498043999,2.880647,-74.043167,22.512102,1.131407,0.011196,0.012391
7498064042,-3.586651,-33.958057,8.010937,1.142134,-0.033999,-0.037505
7498084087,-14.127097,-36.604980,0.514049,1.068172,-0.080456,0.053474
7498104132,-18.430492,-71.397858,-0.837065,1.048135,-0.140245,0.152331
7498124177,-7.979615,-81.858627,-2.583328,1.065962,-0.209145,0.141832
7498144221,11.246799,-67.245369,-5.852821,1.077826,-0.056217,0.021661
7498164266,-4.045752,-35.162258,-0.158837,1.112510,0.037810,-0.115156
7498184311,-24.733421,-34.484241,-2.613938,1.097763,0.085865,-0.106465
7498204356,-46.249889,-40.258911,-5.993634,1.047956,0.129661,-0.041183
7498224400,-65.013359,-35.562572,-10.189023,1.065158,-0.031469,-0.123943
7498244445,-75.086411,-30.378447,-28.461546,1.091625,-0.131586,-0.096703
7498264490,-75.115097,-36.737324,-38.922859,1.115517,-0.233963,0.040702
7498284536,-59.297775,-35.179352,-42.725243,1.077839,-0.319098,0.127895
7498304580,-31.796356,-5.414052,-38.454212,0.946472,-0.295339,0.128196
7498324625,-14.252307,6.528237,-35.027031,0.904498,-0.093701,0.101369
7498344670,-17.340714,-6.706847,-29.132370,0.967852,0.082699,0.030363
7498364715,-31.745743,-4.716591,-25.511770,0.980716,0.104979,0.011609
7498384760,-36.834023,6.643249,-25.498735,1.003732,0.024666,0.009526
7498404804,-40.588570,13.342301,-26.390478,1.072951,-0.016626,-0.072569
7498424857,-42.933277,17.334368,-27.107632,1.116061,0.011911,-0.058833
7498444892,-54.468391,16.617319,-21.228607,1.196149,0.042432,0.028175
7498464937,-64.283730,13.184303,-17.630451,1.232646,-0.062133,0.091215
7498484982,-53.779613,22.218662,-20.728756,1.159759,-0.169553,0.088018
7498505026,-42.954193,32.401333,-21.857473,1.077463,-0.093866,0.109098
7498525071,-49.117714,27.999481,-19.139648,1.031424,-0.031106,0.107151
7498545116,-56.073723,26.728909,-18.391851,0.970371,-0.051359,0.154853
7498565161,-51.353909,31.526358,-23.079737,0.975413,-0.072911,0.135129
7498585206,-48.010376,38.551491,-28.879063,0.987324,-0.081807,0.189916
7498605250,-47.675251,43.488857,-35.072353,0.878394,-0.114307,0.247657
7498625295,-37.694862,39.904846,-41.872448,0.815525,-0.114487,0.268868
7498645340,-36.642303,28.987598,-45.732670,0.921277,-0.036591,0.266540
7498665386,-42.538429,28.504080,-50.532242,0.965166,-0.001851,0.320108
7498685430,-42.448593,33.297039,-57.180618,0.939253,0.100457,0.357039
7498705475,-54.212925,30.066067,-64.355217,0.943813,0.140243,0.333983
7498725520,-74.921730,22.868982,-68.585388,0.999448,0.155096,0.359942
7498745564,-93.212097,24.092350,-70.663239,0.990251,0.206788,0.416259
7498765609,-107.674988,25.509480,-73.966682,0.933464,0.208430,0.424754
7498785654,-115.015945,18.119631,-75.541351,0.912696,0.170245,0.421457
7498805697,-130.675842,11.470797,-67.895737,0.874480,0.195907,0.486609
7498825742,-133.407730,5.978745,-65.919312,0.887537,0.130471,0.416230
7498845787,-131.391388,0.033833,-64.649277,0.890833,0.036905,0.393992
7498865832,-131.500381,-10.809325,-58.132164,0.878536,0.022221,0.468043
7498885876,-125.354012,-12.476631,-52.471615,0.896062,-0.011171,0.425565
7498905921,-110.600998,-11.376779,-46.064507,0.927020,-0.025471,0.428458
7498925966,-99.827431,-16.088043,-39.705193,0.948492,-0.017121,0.392401
7498946010,-85.247971,-15.960565,-32.488297,0.973915,-0.000335,0.383617
7498966055,-77.832001,-19.690119,-29.844751,0.931229,-0.030988,0.455666
7498986100,-64.438179,-22.489008,-25.114799,0.882091,-0.037312,0.487680
7499006144,-54.805576,-22.618021,-23.085882,0.913649,0.065282,0.481874
7499026191,-54.471420,-22.527164,-23.225660,0.939789,0.111493,0.409030
7499046236,-54.795769,-21.430517,-19.087475,0.926276,0.077002,0.376986
7499066280,-50.723633,-24.951845,-16.182322,0.934666,0.098738,0.386974
7499086325,-54.659008,-31.461399,-14.309986,0.971673,0.103200,0.462501
7499106369,-50.896313,-32.748970,-13.872901,1.023195,0.114706,0.420811
7499126414,-48.721432,-23.676617,-16.092224,0.970681,0.037140,0.365166
7499146459,-45.411053,-25.724146,-16.275652,0.892323,0.015050,0.400557
7499166531,-44.368530,-35.597008,-13.295558,0.944910,0.112529,0.436645
7499186547,-46.688919,-33.329765,-12.792339,1.011395,0.123297,0.386967
7499206592,-45.872746,-27.524477,-14.868645,0.971986,0.054123,0.346371
7499226637,-51.227760,-28.812908,-16.944256,0.917640,0.040679,0.379044
7499246681,-51.890121,-31.798874,-15.755517,0.954540,0.073154,0.357376
7499266726,-56.972610,-27.438879,-14.859803,0.985655,0.124111,0.345620
7499286771,-62.883507,-26.756979,-14.121862,0.970190,0.108835,0.381960
7499306815,-63.486343,-25.053633,-13.524625,0.932593,0.069234,0.362347
7499326860,-62.121399,-25.039135,-12.468542,0.954971,0.038471,0.352841
7499346905,-65.048187,-26.785259,-13.556723,0.983171,0.042849,0.361113
7499366949,-66.649384,-25.781345,-15.244275,0.954374,0.038245,0.395811
7499386994,-62.982117,-27.533770,-17.678120,0.944765,0.036601,0.400580
7499407040,-60.388775,-28.471498,-19.015079,0.961466,0.046512,0.381228
7499427085,-60.608028,-25.249165,-20.235373,0.947838,0.047562,0.372288
7499447130,-60.666088,-22.490330,-20.831764,0.937531,0.088074,0.355763
7499467175,-64.277924,-22.753241,-20.841915,0.939125,0.144836,0.366687
7499487220,-70.748825,-26.715372,-21.184708,0.959644,0.096080,0.373886
7499507264,-69.777611,-27.287268,-23.416155,0.968624,0.045628,0.362259
7499527309,-63.932365,-19.244169,-25.609314,0.957186,0.029329,0.303859
7499547352,-63.243111,-12.822073,-25.376888,0.924364,0.107377,0.312717
7499567397,-67.834435,-14.155453,-24.540501,0.932097,0.159730,0.294314
7499587442,-72.184555,-18.468117,-22.827047,0.997550,0.171547,0.286501
7499607486,-74.120750,-17.418379,-24.664440,1.023026,0.126470,0.270671
7499627531,-73.979706,-11.239972,-26.522612,1.022359,0.110794,0.295014
7499647576,-73.516769,-10.586951,-27.052439,1.021193,0.124215,0.320296
7499667620,-75.193710,-7.802962,-25.533792,1.018493,0.145015,0.316736
7499687665,-77.883102,-5.338313,-26.193531,0.999901,0.136965,0.337242
7499707710,-79.216766,-5.709889,-26.845745,0.989101,0.127370,0.337061
7499727755,-81.883415,-2.590846,-25.837870,0.973260,0.121097,0.331898
7499747799,-85.548958,-4.244395,-25.313011,0.944931,0.114479,0.353870
7499767845,-88.687912,-5.358628,-24.518442,0.941303,0.086922,0.368000
7499787890,-88.977325,-4.347763,-25.134262,0.934769,0.056370,0.365565
7499807935,-88.060303,-2.303855,-24.884203,0.909310,0.036652,0.372279
7499827980,-87.013519,-3.960737,-22.727066,0.924731,0.032442,0.376614
7499868069,-80.324028,-0.285984,-18.751753,0.947687,0.024534,0.402066
7499888114,-77.780563,1.035445,-16.304174,0.952998,0.025902,0.400546
7499908178,-74.807732,0.661441,-14.094452,0.944214,0.021997,0.422183
7499928202,-73.893326,0.349336,-13.400285,0.937808,0.011560,0.440431
7499948247,-72.060211,-2.327914,-13.891762,0.936794,-0.012391,0.479588
7499968291,-68.713669,-1.707524,-13.841824,0.930315,-0.029532,0.490972
7499988336,-66.872086,0.152856,-14.284328,0.895637,-0.023926,0.500961
7500008381,-65.720192,-3.769691,-13.382872,0.864192,-0.020897,0.514181
7500028425,-63.844975,-6.514885,-12.769955,0.852451,-0.013429,0.514033
