Timestamp (us),Gyroscope X (deg/s),Gyroscope Y (deg/s),Gyroscope Z (deg/s),Accelerometer X (g),Accelerometer Y (g),Accelerometer Z (g)
3682016768,-101.814758,-7.989671,-24.510071,0.920784,0.058750,0.275400
3682036813,-101.722824,-3.659106,-28.392582,0.928082,0.042467,0.257834
3682056858,-103.791824,-1.887764,-31.509512,0.945030,0.090182,0.272404
3682076902,-114.437538,-1.384849,-32.228291,0.950310,0.108694,0.271470
3682096947,-123.815971,-2.408922,-28.856691,0.925385,0.050027,0.251288
3682116992,-124.291023,-4.415097,-28.858770,0.912652,0.011308,0.241317
3682137036,-124.173889,-12.229361,-30.292141,0.972809,-0.008770,0.237006
3682157082,-130.293335,-16.739618,-31.909359,1.006383,-0.009176,0.225237
3682177127,-135.358200,-9.659798,-33.682758,1.026600,-0.017552,0.193315
3682197172,-131.893005,-6.074432,-31.846231,1.039315,-0.053434,0.162020
3682217217,-126.331894,-0.197153,-33.745674,1.009628,-0.057629,0.163386
3682237261,-123.866837,5.529713,-38.020996,1.015384,-0.046941,0.178180
3682257306,-123.308456,3.940529,-38.366604,1.027261,-0.015825,0.193943
3682277351,-126.067009,4.345809,-38.231560,1.022635,-0.015806,0.186989
3682297400,-128.299301,9.455548,-37.914543,1.010821,-0.041229,0.176916
3682317439,-122.513527,16.504280,-37.287537,0.990760,-0.044828,0.192276
3682337483,-117.841759,12.723049,-36.512245,0.968979,-0.009413,0.178259
3682357528,-127.590759,-5.989766,-38.111065,0.923428,0.065083,0.161470
3682377573,-142.968109,-23.708321,-36.803196,0.920775,0.161572,0.110671
3682397617,-158.578537,-43.248337,-29.953316,1.016543,0.140578,0.053730
3682417662,-187.977280,-54.471210,-28.254589,1.155604,-0.063029,0.009903
3682437707,-166.018494,19.605841,-35.280884,1.365994,-0.447929,-0.032180
3682457752,-112.511284,97.241142,-46.811066,1.048836,-0.468337,0.180992
3682477796,-117.134140,70.271042,-61.918148,0.743204,-0.343859,0.371020
3682497841,-108.410789,23.361998,-56.630726,0.692803,-0.218635,0.499903
3682517885,-102.931587,-25.365952,-45.900108,0.758614,-0.059949,0.380078
3682537932,-101.879158,-37.921913,-43.024212,0.891661,0.079631,0.241146
3682557976,-96.832870,-30.673405,-39.032059,1.018525,0.119295,0.164995
3682578021,-87.833115,-10.448222,-39.249691,1.070603,0.052122,0.111576
3682598066,-88.416275,15.071070,-48.883640,1.061833,-0.020362,0.080154
3682618111,-86.586967,33.854904,-56.655613,1.051428,-0.090712,0.113070
3682638155,-78.251755,42.297256,-62.014595,0.970767,-0.145225,0.210713
3682658200,-70.079742,21.864231,-68.442070,0.916979,-0.183846,0.355127
3682678244,-73.103523,-8.467931,-69.319641,0.909687,-0.151778,0.412167
3682698288,-72.910393,-21.577003,-64.234940,0.932226,-0.107900,0.286874
3682718333,-61.378967,-26.343304,-60.479229,0.981570,-0.081855,0.221649
3682738377,-58.461098,-17.061268,-51.383659,1.018624,-0.049389,0.236765
3682758422,-54.316574,-10.350263,-44.359612,1.006078,-0.006179,0.248062
3682778467,-51.376778,-15.732325,-40.438408,1.014668,0.016856,0.286628
3682798511,-50.176075,-17.439611,-31.783998,1.004699,0.014922,0.288483
3682818556,-50.900890,-19.740004,-27.365273,0.945370,0.009584,0.234651
3682838600,-49.225471,-21.970341,-31.543217,0.901070,0.033966,0.174037
3682858645,-45.450855,-27.151724,-36.084908,0.874225,0.112338,0.139598
3682878690,-48.660122,-30.963781,-34.494946,0.885514,0.242104,0.180217
3682898734,-74.033424,-26.673744,-25.330109,0.939085,0.333064,0.249689
3682918779,-96.444061,-26.757801,-18.690271,0.930566,0.294489,0.205424
3682938825,-113.903618,-28.065384,-19.004650,0.958653,0.299038,0.249475
3682958870,-133.684814,-20.947945,-16.109509,1.001403,0.265849,0.186603
3682978915,-117.656410,-23.908209,-10.241620,1.032856,0.280531,0.164224
3682998960,-127.535583,-21.806717,-4.103698,1.038619,0.297370,0.147375
3683019008,-139.065079,-33.709820,6.608240,1.004440,0.176821,0.123356
3683039049,-145.087616,-49.313210,13.777039,1.031508,-0.050306,0.024551
3683059093,-126.824219,-29.189503,8.536580,1.024761,-0.214272,-0.021124
3683079138,-122.003281,-19.663055,-9.778063,0.907061,-0.138483,0.041304
3683099182,-120.638229,-41.027889,-22.391848,1.026420,0.079505,0.112848
3683119227,-125.367920,-48.146008,-23.171627,1.269393,0.198676,0.051638
3683139271,-135.003342,-16.381060,-21.139410,1.275681,0.089674,-0.118853
3683159316,-143.772827,23.411251,-15.175141,1.113181,-0.023547,-0.114007
3683179360,-152.156693,43.232155,-18.161682,0.942229,-0.018929,0.093380
3683199405,-159.790466,29.037346,-25.479479,0.866311,0.034981,0.216930
3683219450,-159.535828,-3.639760,-28.794971,0.907567,0.065358,0.191670
3683239495,-161.731049,-11.085606,-26.706543,1.008432,0.071852,0.089108
3683259539,-165.160828,6.088910,-23.207302,1.033789,0.072898,0.059513
3683279584,-172.697311,23.302124,-26.022654,0.997942,0.048016,0.099334
3683299629,-178.531265,29.605568,-31.720461,0.961616,0.012857,0.129040
3683319675,-177.226715,27.397646,-37.464951,0.932324,0.015087,0.149657
3683339719,-174.535995,19.299549,-39.748180,0.963266,0.033485,0.160929
3683359764,-176.967926,7.719005,-37.943523,0.968062,0.029888,0.127399
3683379809,-178.180786,-3.629411,-41.542183,0.964049,0.073258,0.065556
3683399853,-184.692322,-18.970299,-43.108067,0.987138,0.177827,0.038095
3683419898,-193.929504,-29.205826,-38.159481,1.031565,0.165767,0.000735
3683439943,-208.155457,-34.622505,-25.894104,1.195756,-0.097200,-0.042965
3683459988,-164.713089,31.471565,-13.635680,1.282788,-0.406442,0.035426
3683480031,-160.422577,58.094353,-27.703793,0.986638,-0.404632,0.162987
3683500075,-136.888885,41.815918,-45.025238,0.767847,-0.385481,0.289603
3683520120,-111.330193,-1.130823,-52.867462,0.720360,-0.267668,0.358206
3683540165,-103.355927,-42.126732,-49.469223,0.813790,-0.136848,0.199300
3683560210,-105.645935,-50.605488,-45.824963,0.919556,-0.047262,0.074511
3683580254,-111.233536,-37.025101,-44.233212,1.021382,0.047003,0.033416
3683600299,-115.414177,-13.512110,-43.293957,1.072476,0.121367,0.034541
3683620344,-117.264755,4.748350,-38.886036,1.089175,0.115553,0.059293
3683640388,-117.230301,14.433594,-34.484463,1.062621,0.028678,0.080756
3683660433,-112.848236,18.928785,-35.885986,1.031433,-0.046502,0.121117
3683680478,-105.674309,16.130674,-41.339714,1.021436,-0.075068,0.184010
3683700522,-94.397171,1.783986,-45.854084,1.028779,-0.090537,0.240821
3683720568,-91.936142,-11.435863,-46.104244,1.024981,-0.088569,0.240322
3683740613,-93.653923,-18.837605,-46.434513,0.999624,-0.069627,0.160225
3683760658,-86.126984,-24.082531,-49.854553,0.993863,-0.027323,0.098652
3683780702,-83.065369,-20.458899,-48.205425,1.031632,0.026639,0.100030
3683800747,-85.527504,-10.215308,-40.836964,1.045673,0.049606,0.115421
3683820792,-90.171028,-5.762944,-36.524082,1.023423,0.044465,0.152447
3683840836,-95.459518,-4.777739,-36.194969,0.985774,0.030698,0.150009
3683860881,-93.108078,-7.570163,-38.274918,0.939559,0.022688,0.144275
3683880924,-94.995766,-11.505104,-36.969231,0.925727,0.007853,0.156861
3683900969,-92.061340,-16.720617,-34.533710,0.950634,0.013696,0.146615
3683921014,-88.895058,-22.689995,-34.742798,0.988878,0.038244,0.153429
3683941059,-101.066818,-22.176111,-30.924616,1.021985,0.046419,0.154878
3683961103,-104.238533,-16.089790,-24.224808,1.048077,0.036797,0.076486
3683981148,-83.189713,-12.266330,-16.939112,1.047596,0.053132,0.015075
3684001193,-65.509125,-6.926875,-8.440572,0.966795,0.086163,0.090689
3684021237,-79.754173,-4.800835,-6.794467,0.972253,0.231157,0.282729
3684041282,-112.223877,-4.177165,-0.649546,1.035144,0.271174,0.261189
3684061327,-112.908180,-12.184185,7.156788,1.001615,0.125932,0.152617
3684081371,-122.367485,-12.448853,8.897971,0.967129,0.041962,0.131025
3684101416,-135.188614,-15.957382,7.833990,0.978388,-0.034027,0.147758
3684121462,-132.242859,-15.888025,-1.262051,0.994870,-0.129260,0.098863
3684141507,-110.517166,-10.911465,-14.407290,0.977742,-0.159717,0.075227
3684161551,-96.495773,-13.334049,-16.744665,1.026492,-0.077440,0.131625
3684181596,-98.575111,-14.782322,-13.055333,1.067995,0.066398,0.163790
3684201641,-111.089203,-6.190374,-13.157967,1.053311,0.082825,0.098268
3684221686,-114.396278,7.362510,-17.617363,0.982900,0.029183,0.073705
3684241731,-119.702682,6.933985,-17.324869,0.984537,0.029897,0.162662
3684261785,-126.850525,3.837798,-20.154472,0.985694,0.045558,0.212434
3684281818,-128.906708,1.967998,-24.151783,0.968159,0.051301,0.163731
3684301863,-132.874054,0.019522,-20.881746,0.961138,0.028506,0.148846
3684321908,-140.411987,2.625385,-21.070202,0.945195,0.015878,0.147104
3684341952,-147.473328,2.964233,-24.795055,0.938988,0.036742,0.157539
3684361997,-152.534729,-1.988440,-27.875069,0.962351,0.084086,0.159412
3684382042,-158.465622,-7.600904,-29.363184,1.018821,0.124747,0.125439
3684402087,-165.828156,-8.468799,-29.747774,1.060069,0.135384,0.043530
3684422131,-173.825302,-5.469550,-34.915447,1.050840,0.161976,-0.029593
3684442176,-187.325897,3.304944,-36.618149,1.047089,0.087823,-0.041936
3684462221,-195.494858,11.616942,-25.577795,1.135826,-0.203699,-0.018215
3684482265,-154.971832,55.779076,-10.762214,1.158491,-0.504081,0.105246
3684502311,-139.501923,55.023006,-22.825596,0.885435,-0.485871,0.266436
3684522356,-121.951073,13.243282,-53.713814,0.764562,-0.359025,0.322774
3684542401,-101.205887,-22.576401,-59.232758,0.896753,-0.137871,0.329653
3684562445,-106.176720,-25.213718,-51.627190,1.009437,-0.039002,0.191910
3684582490,-102.954147,-7.505424,-48.400387,0.994732,-0.022269,0.105809
3684602535,-94.716080,4.869525,-47.225849,1.018144,0.021052,0.131388
3684622579,-92.786407,17.874170,-43.855179,1.026857,0.019804,0.165695
3684642624,-95.984047,31.397818,-45.519474,0.934605,0.003720,0.183454
3684662668,-103.335236,25.004045,-46.264603,0.908925,-0.044628,0.189128
3684682712,-98.529724,13.539687,-42.626213,0.963532,-0.073520,0.227458
3684702757,-83.368942,9.164841,-40.308079,1.020651,-0.040499,0.297525
3684722802,-66.114525,7.479491,-36.530586,0.978071,-0.034151,0.330483
3684742846,-54.930088,0.478792,-32.983414,0.895609,-0.048566,0.372245
3684762891,-57.751442,-20.730515,-29.003073,0.901256,-0.039341,0.386231
3684782936,-61.478958,-37.061523,-29.728500,0.952748,-0.005588,0.282173
3684802980,-66.233414,-38.912807,-31.549162,0.950591,0.063388,0.210027
3684823025,-90.342827,-47.349857,-27.775738,0.913321,0.164493,0.258631
3684843070,-118.874260,-69.347069,-16.779150,0.942681,0.266932,0.114240
3684863114,-113.466125,-95.463577,-7.593021,1.176812,0.579559,-0.052786
3684883159,-143.503326,-62.723965,-6.959432,1.279412,0.614718,-0.284309
3684903205,-144.524643,64.293213,-4.610978,1.252005,0.037126,-0.159927
3684923250,-123.823853,115.812553,22.165604,1.180835,-0.423309,0.401548
3684943295,-125.216110,72.198158,32.822178,0.844020,-0.589711,0.581822
3684963339,-82.910767,22.968264,-4.511030,0.604422,-0.544265,0.295274
3684983384,-2.427305,-28.386890,-29.656181,0.748391,-0.387392,0.237490
3685003429,53.902386,-63.071930,-12.860782,0.967243,-0.136924,0.379415
3685023474,-8.030350,-32.773281,8.390987,1.119001,0.202647,0.437992
3685043518,-33.231308,16.292238,17.397898,0.997498,-0.061145,0.093677
3685063562,4.946728,53.582863,26.653740,0.854150,-0.222905,0.333048
3685083606,11.835417,36.326626,17.117224,0.674349,-0.161524,0.567762
3685103651,21.154104,-14.972709,13.148000,0.708584,-0.146812,0.417485
3685123696,32.187729,-30.392881,21.054338,0.900593,-0.133674,0.287948
3685143740,26.804539,-9.950826,19.133617,1.007940,-0.078139,0.285451
3685163785,15.980636,1.245517,16.410109,0.962201,-0.036637,0.294425
3685183830,11.275581,-0.840934,15.693943,0.961522,-0.011263,0.334635
3685203874,12.176706,-9.425071,10.880386,0.987228,-0.012823,0.298509
3685223919,11.218759,-14.367228,5.270102,1.020502,-0.044273,0.242108
3685243964,6.528970,-0.470175,2.900775,1.013275,-0.061476,0.230999
3685264009,7.339687,4.742647,1.670703,0.961885,-0.039878,0.236819
3685284053,14.232862,-6.178547,0.249266,0.935275,-0.011220,0.248952
3685304099,14.750845,-15.200753,0.840433,0.984415,-0.008242,0.258300
3685324144,11.288357,-14.399344,1.605198,1.007990,-0.017884,0.197096
3685344189,11.183552,-4.944938,-0.497969,1.017280,-0.023075,0.204400
3685364233,2.892403,-0.672498,2.357476,1.010726,-0.013384,0.244787
3685384278,-0.047761,-5.433417,7.184047,1.019119,-0.012331,0.218800
3685404323,4.735655,-5.444096,9.516671,1.015713,-0.036362,0.179370
3685424368,7.047197,4.261535,12.925624,0.968394,-0.053468,0.136556
3685444427,18.808928,-2.822412,18.373026,0.962401,-0.072853,0.128843
3685464456,33.429626,-18.364336,15.990131,1.069317,-0.129730,0.187542
3685484500,39.206833,5.463002,8.335486,1.044403,-0.099063,0.191295
3685504545,33.752754,23.926373,0.733933,0.858772,0.020440,0.257782
3685524589,11.508065,2.509169,-4.697567,0.868120,0.136195,0.386179
3685544634,-16.070543,-23.574665,-3.059691,0.995583,0.114056,0.274761
3685564679,-14.508009,-4.961860,-2.952139,1.050796,0.029138,0.132106
3685584723,-14.469625,17.133101,-3.460893,0.970106,0.023835,0.201847
3685604768,-21.053076,9.065954,-5.436875,0.953553,-0.000665,0.308815
3685624813,-23.969992,-1.413920,-7.728183,0.989022,-0.036851,0.257568
3685644858,-24.504507,2.097929,-8.024518,1.012967,-0.060002,0.219968
3685664903,-21.718485,7.705829,-5.826639,0.971489,-0.052185,0.256656
3685684949,-17.938646,7.489041,-7.386692,0.897032,-0.011515,0.292558
3685704993,-17.389023,-4.011239,-7.280996,0.938939,-0.022550,0.278024
3685725038,-20.888168,-9.510154,-5.138700,1.000586,-0.046704,0.217765
3685745083,-18.585363,1.652569,-6.713423,1.014687,-0.037703,0.180830
3685765127,-15.940742,12.676378,-12.290243,0.990084,0.006318,0.203685
3685785172,-22.861441,11.715216,-16.388243,0.978630,0.035272,0.237595
3685805217,-32.105896,8.326483,-14.630518,0.973065,0.010315,0.241858
3685825261,-33.444206,9.591755,-9.311501,0.968144,-0.046756,0.244023
3685845305,-30.001688,6.709459,-6.341178,0.947507,-0.085672,0.253389
3685865349,-24.761003,-0.523286,-6.245010,0.956967,-0.102092,0.271529
3685885394,-17.155445,-3.494055,-6.087202,0.980682,-0.101085,0.270783
3685905439,-8.849559,1.334004,-3.450955,0.971775,-0.091516,0.277013
3685925483,-1.880837,2.058938,-0.602499,0.944346,-0.083782,0.281027
3685945528,0.387846,-0.831199,-0.411467,0.931700,-0.061858,0.286126
3685965573,1.868287,-2.056174,-0.375950,0.925368,-0.038396,0.290074
3685985617,-0.941228,-4.539123,-0.260642,0.928747,-0.011998,0.291519
3686005662,-13.214115,-6.428527,0.117119,0.937750,0.001496,0.272628
3686025707,-15.906100,-10.263796,1.794555,0.944923,-0.049719,0.252618
3686045751,-9.961793,-9.607037,3.195834,0.962826,-0.094542,0.268687
3686065796,0.187930,-7.807223,2.339247,0.978201,-0.105335,0.257963
3686085843,7.109942,-3.564917,1.223221,0.985014,-0.067594,0.234121
3686105887,9.493070,0.059084,2.389977,0.989057,-0.032813,0.236321
3686125932,6.637443,3.307602,3.620110,0.977590,-0.010233,0.246157
3686145977,6.545414,3.619149,3.262461,0.978910,-0.010922,0.229420
3686166021,6.353582,-0.074934,2.574159,1.007854,-0.011962,0.208791
3686186066,4.327925,4.684330,1.419591,1.033316,-0.019284,0.194653
3686206111,2.949594,12.217718,1.217343,1.017006,-0.038939,0.191145
3686226155,3.216894,12.164436,1.558167,1.012905,-0.060282,0.181276
3686246199,4.211137,12.276461,-0.940745,1.042261,-0.071657,0.157003
3686266243,6.971645,19.865616,-4.389700,1.073442,-0.072820,0.148955
3686306333,12.109301,32.523685,-4.943866,1.029040,-0.059688,0.183392
3686326377,12.800566,32.355839,-5.017572,1.040461,-0.045662,0.179991
3686346422,14.361296,38.267712,-5.286531,1.044906,-0.027010,0.184058
3686366467,16.734068,48.170013,-3.858991,1.028564,-0.018898,0.200259
3686386511,16.151152,54.790493,-4.378826,0.999130,-0.009603,0.239390
3686406556,13.056777,57.825180,-5.843538,0.985650,-0.001784,0.271275
3686426601,10.249516,59.180016,-6.973657,0.986356,-0.009066,0.274344
3686446645,7.677296,63.385124,-7.643558,0.987322,0.001696,0.276903
3686466690,7.434196,71.594131,-7.535181,0.958445,0.015834,0.306165
3686486736,4.737060,78.984772,-6.599674,0.931745,0.013082,0.348966
3686506781,1.269022,80.294655,-7.534228,0.902131,0.018418,0.369919
3686526826,-0.091238,80.690155,-9.550640,0.894984,0.033076,0.390048
3686546870,-3.126406,86.582748,-10.812814,0.890013,0.045206,0.430518
3686566915,-8.624033,96.847931,-11.953587,0.849571,0.041298,0.461756
3686586960,-12.206318,104.877251,-12.169878,0.802961,0.027950,0.498399
3686607004,-13.535185,106.490486,-10.523279,0.772261,0.011908,0.535817
3686627049,-14.790852,108.034935,-9.585681,0.745975,-0.003825,0.562158
3686647092,-15.311530,116.115463,-8.438966,0.707759,-0.012731,0.587718
3686667137,-9.335814,121.955750,-7.263758,0.666313,-0.018385,0.639904
3686687181,-3.960027,119.610680,-5.977175,0.632264,-0.023128,0.719813
3686707226,-1.019951,113.300659,-3.533042,0.586433,-0.013504,0.757820
3686727271,4.440870,109.275398,-3.068298,0.536627,0.003139,0.787454
3686747316,10.178716,107.498688,-4.801872,0.484938,0.026899,0.839140
3686767361,10.321157,99.228752,-5.358900,0.443478,0.037501,0.882725
3686787405,7.710847,85.625702,-5.501246,0.402363,0.039357,0.865293
3686807450,6.786319,74.665421,-7.441697,0.401718,0.044964,0.920323
3686827495,7.051122,69.214714,-9.160309,0.390844,0.048684,0.945615
3686847539,9.838487,68.315292,-9.477943,0.340350,0.051067,0.956152
3686867584,10.149964,61.687710,-8.361795,0.295266,0.042223,0.963452
3686887630,9.351020,44.823318,-6.442769,0.308627,0.037323,0.981617
3686907675,14.000467,36.595818,-5.404077,0.314050,0.043420,0.966129
3686927720,17.054333,37.755543,-6.601805,0.293470,0.067926,0.983985
3686947764,13.759408,32.246933,-8.719694,0.260965,0.101974,1.010689
3686967818,6.108499,23.413742,-9.140254,0.258483,0.101876,1.017045
3686987853,1.260234,17.254467,-7.581216,0.258546,0.074624,1.018180
3687007898,4.747029,12.524505,-6.072201,0.260129,0.054248,1.002609
3687027943,11.892139,6.096057,-5.381931,0.270144,0.070154,0.991535
3687047986,11.770549,1.658321,-3.243681,0.278009,0.100109,1.002453
3687068031,7.754234,-2.517034,0.211676,0.266603,0.114090,0.983408
3687088076,7.420566,-8.444807,1.278781,0.296414,0.116698,0.964667
3687108120,7.452584,-10.284515,0.587010,0.335826,0.131377,0.933241
3687128165,4.599658,-7.446928,0.728094,0.345490,0.149799,0.928971
3687148209,1.102957,-6.676336,0.510390,0.325274,0.156004,0.950714
3687168254,-1.624305,-10.679331,0.992182,0.333511,0.133005,0.951693
3687188299,-0.232793,-11.166846,1.279088,0.340873,0.126935,0.959626
3687208343,0.352781,-12.823927,2.114177,0.332282,0.139695,0.966560
3687228388,-2.433439,-16.378305,2.870257,0.322826,0.133596,0.960805
3687248433,-3.803523,-19.454926,3.927377,0.328992,0.118081,0.958702
3687268478,-1.620910,-24.100660,4.318804,0.347183,0.133546,0.954064
3687288524,-3.094390,-25.536337,3.394408,0.358417,0.158371,0.943380
3687308568,-9.144464,-26.594774,4.355991,0.345391,0.163925,0.965636
3687328613,-13.118668,-31.637772,5.313044,0.324203,0.139675,0.984710
3687348658,-13.322201,-39.352234,5.474264,0.324123,0.112712,0.975099
3687368711,-13.234252,-47.081833,6.318911,0.359681,0.089694,0.954608
3687388747,-11.610482,-50.244823,6.987479,0.391513,0.084627,0.925202
3687408792,-11.121418,-49.781410,7.417535,0.397653,0.094134,0.928719
3687428836,-13.877569,-52.439171,7.654491,0.396738,0.105410,0.922975
3687448880,-18.452639,-56.638180,8.143019,0.405853,0.101782,0.906774
3687468925,-23.824364,-60.783119,9.033753,0.422835,0.079576,0.884412
3687488969,-27.552946,-65.354904,10.377010,0.440265,0.045656,0.869341
3687509014,-28.066864,-70.225983,11.520681,0.466282,0.009578,0.838510
3687529059,-23.463032,-76.523285,11.636085,0.506383,-0.013194,0.823513
3687549103,-18.443409,-81.065849,10.291546,0.541115,-0.018809,0.824997
3687569148,-16.673048,-85.057899,9.923687,0.567614,-0.018244,0.806886
3687589192,-16.938210,-92.247177,11.616160,0.601599,-0.025149,0.779877
3687609237,-16.560125,-100.478416,13.022812,0.647347,-0.041171,0.739374
3687629282,-15.266088,-105.329353,11.768074,0.689505,-0.050204,0.712443
3687649327,-13.043254,-107.004524,9.322379,0.701717,-0.040948,0.669028
3687669371,-13.141191,-112.006310,7.964185,0.700473,-0.033069,0.609137
3687689418,-16.935230,-124.810173,8.043471,0.717589,-0.032773,0.559823
3687709462,-16.613838,-138.560501,7.193139,0.758045,-0.040273,0.502002
3687729507,-15.586237,-144.954742,4.593467,0.797426,-0.044971,0.451071
3687749551,-20.004240,-143.128143,1.517348,0.832664,-0.046401,0.427304
3687769596,-24.198740,-137.744141,-0.474431,0.856662,-0.050793,0.399383
3687789641,-23.628651,-133.033218,-2.761126,0.873822,-0.057520,0.362145
3687809685,-20.501522,-127.222359,-4.916101,0.900209,-0.070069,0.320651
3687829741,-19.011835,-122.222618,-5.435057,0.924097,-0.084848,0.280888
3687849774,-16.455486,-113.506706,-5.142929,0.944826,-0.095031,0.252081
3687869818,-9.790006,-99.474564,-6.441464,0.976431,-0.097823,0.246781
3687889863,0.173571,-82.123749,-7.730333,0.985175,-0.077482,0.253687
3687909908,6.247673,-68.622833,-8.345804,0.938364,-0.050096,0.250024
3687929952,4.618132,-62.305134,-8.049789,0.878835,-0.031984,0.248620
3687949997,0.051446,-62.862309,-5.111677,0.859277,-0.039846,0.230424
3687970042,-0.649317,-66.896049,-1.529510,0.873837,-0.065590,0.180304
3687990086,4.119494,-69.156868,0.043525,0.902226,-0.073666,0.131323
3688010131,8.335732,-67.207039,0.237904,0.926921,-0.072554,0.109462
3688030176,7.782026,-61.535721,1.851866,0.918970,-0.064918,0.064911
3688050221,9.207923,-60.418503,4.407244,0.905389,-0.058750,0.007676
3688070267,9.456536,-67.099442,5.013499,0.929017,-0.060226,-0.033747
3688090311,2.392505,-76.040253,3.034410,0.956463,-0.065789,-0.090221
3688110356,-3.968267,-80.572868,1.937101,0.998383,-0.078317,-0.172025
3688130400,-5.914662,-80.905563,2.074232,1.052216,-0.094262,-0.260360
3688150446,-4.290729,-74.622002,0.257922,1.099926,-0.091214,-0.344708
3688170490,3.112554,-58.304050,-4.042422,1.117974,-0.068255,-0.384734
3688190535,7.544482,-36.988995,-6.397280,1.088233,-0.048752,-0.346691
3688210580,2.535408,-26.053490,-3.352368,1.047293,-0.050952,-0.294804
3688230623,-3.567409,-28.258385,0.277107,1.040681,-0.075717,-0.303934
3688250667,-3.939978,-30.926235,-0.448870,1.060687,-0.095396,-0.348602
3688270712,5.364556,-25.409904,-3.420377,1.084943,-0.085862,-0.366621
3688290757,13.951696,-13.970918,-3.961747,1.077579,-0.058522,-0.307995
3688310801,10.787868,-6.138587,-2.009848,1.034818,-0.027662,-0.251932
3688330846,4.104292,-7.340253,0.366113,1.011412,-0.019170,-0.248258
3688350891,-0.964486,-9.235371,1.869481,1.021596,-0.045199,-0.271185
3688370936,-0.851946,-3.192599,2.571406,1.025730,-0.075266,-0.272819
3688390981,4.011170,3.598242,2.611501,1.000121,-0.082174,-0.247547
3688411025,7.202865,4.005661,2.030509,0.979602,-0.074413,-0.237928
3688431070,8.576734,1.769188,0.521285,0.981920,-0.062061,-0.252216
3688451114,7.908192,3.198447,-0.031076,0.990209,-0.050640,-0.256620
3688471161,4.823005,7.769224,0.178715,0.999479,-0.054182,-0.235765
3688491205,1.392749,11.580046,-0.019518,0.988507,-0.052894,-0.219195
3688511250,-0.657842,12.683935,0.018015,0.957181,-0.055277,-0.210208
3688531295,-2.389635,11.834530,0.854872,0.948651,-0.069572,-0.200229
3688551339,0.769598,8.296926,-0.369696,0.972883,-0.078841,-0.208898
3688571384,4.816042,4.225447,-3.939379,0.989499,-0.055616,-0.227905
3688591429,4.051777,7.744897,-4.675822,0.985436,-0.037231,-0.215341
3688611473,-2.613976,10.882585,-3.690631,0.966513,-0.054820,-0.190843
3688631517,-3.215932,7.751236,-4.536304,0.961759,-0.071619,-0.204031
3688651562,3.485023,5.844233,-6.848512,0.988089,-0.063855,-0.222931
3688671606,5.995861,8.965503,-7.838238,1.013650,-0.039738,-0.213657
3688691651,3.155511,11.248938,-6.127357,0.997937,-0.018289,-0.192462
3688711695,-1.757973,9.794813,-3.985661,0.959253,-0.009454,-0.198007
3688731740,-5.962595,5.921993,-4.201165,0.953150,-0.013606,-0.217410
3688751785,-3.602531,2.347879,-3.644509,0.988238,-0.014897,-0.222424
3688771829,-4.164559,0.471466,-2.594719,1.041548,-0.010732,-0.229261
3688791874,-10.436317,8.496646,-0.314441,1.064155,-0.019730,-0.241677
3688811919,-10.229109,20.134449,2.598393,1.027966,-0.039220,-0.213193
3688831963,-6.107542,19.127916,3.306719,0.983191,-0.049893,-0.168547
3688852008,-1.505051,12.876052,3.048793,0.985376,-0.052345,-0.150119
3688872054,2.141302,10.022904,3.632997,1.014378,-0.046079,-0.156514
3688892099,0.829407,12.829391,5.171680,1.031337,-0.028060,-0.163459
3688912144,1.137175,17.322399,7.968605,1.013234,-0.011990,-0.159809
3688932188,3.758303,19.457951,12.448903,0.992205,-0.002894,-0.155849
3688952240,9.783875,18.809122,17.842779,0.987466,0.008152,-0.163623
3688972278,18.780058,18.675119,24.439941,1.001693,0.005300,-0.150385
3688992323,25.754385,20.907125,32.025509,1.027561,-0.023293,-0.130112
3689012370,34.125004,25.759287,37.670464,1.007426,-0.015583,-0.126772
3689052456,43.874977,24.987343,46.860283,0.990786,0.033985,-0.089611
3689072500,34.285831,21.010376,58.197411,1.006540,0.026920,-0.088345
3689092545,31.852627,27.423841,67.009132,0.999084,0.013573,-0.096210
3689112589,34.837311,38.292030,70.937485,0.973287,-0.001774,-0.078427
3689132634,34.967525,40.407269,76.160637,0.939967,-0.004878,-0.047507
3689152679,32.102123,36.635815,84.170151,0.917532,-0.011893,-0.017842
3689172723,26.013733,35.367298,91.135437,0.913493,-0.029025,-0.000067
3689192768,18.458353,37.322987,98.642220,0.929614,-0.082908,0.020070
3689212813,13.430467,41.442627,105.998062,0.925554,-0.158740,0.039421
3689232857,11.231504,45.025272,107.809448,0.907133,-0.226082,0.055684
3689252902,9.911287,48.848156,104.684830,0.889524,-0.264783,0.088196
3689272948,5.499613,55.676567,102.868568,0.882648,-0.304163,0.124707
3689292993,-7.478701,56.022987,104.598083,0.839228,-0.350244,0.129777
3689313037,-23.248138,56.190235,108.169907,0.801644,-0.417802,0.152093
3689333082,-37.419228,58.057594,109.396690,0.769926,-0.478793,0.136887
3689353127,-47.978729,51.376934,106.809944,0.743599,-0.533801,0.115481
3689373172,-58.123569,49.712677,104.893295,0.724638,-0.613066,0.133477
3689393216,-63.536945,58.251968,102.747894,0.701737,-0.705641,0.155833
3689413260,-61.934929,58.103249,96.267822,0.659974,-0.772907,0.147070
3689433304,-57.055111,43.312435,89.083191,0.616892,-0.838099,0.132453
3689453349,-45.553898,30.180927,82.935646,0.562416,-0.864449,0.120164
3689473394,-26.884781,22.521969,73.772072,0.525194,-0.840526,0.123792
3689493439,-13.669364,15.741313,63.529583,0.520869,-0.790446,0.131541
3689513483,-18.563034,15.796331,58.180916,0.538494,-0.761221,0.137255
3689533528,-36.153893,23.648176,58.925446,0.549060,-0.773379,0.141985
3689553572,-50.024120,34.347694,61.055763,0.522604,-0.814685,0.136670
3689573617,-51.910973,39.479420,60.234982,0.474459,-0.865625,0.115707
3689593662,-40.287735,37.096516,57.016998,0.443443,-0.914556,0.105506
3689613707,-19.509993,29.269775,50.625706,0.448887,-0.955199,0.131555
3689633751,-6.278298,23.265232,42.286942,0.475120,-0.998516,0.171345
3689653798,-12.072157,23.000605,34.294308,0.470159,-1.024343,0.182447
3689673842,-16.550112,21.117216,29.233784,0.425895,-0.990061,0.154345
3689693887,-1.688894,10.894994,25.571758,0.421360,-0.963482,0.151817
3689713932,11.456442,2.171544,21.807201,0.462273,-0.961333,0.193159
3689733976,7.350320,1.009661,16.217478,0.499729,-0.946691,0.202689
3689754021,-8.290737,7.108855,10.739803,0.493000,-0.899084,0.153720
3689774065,-19.238756,14.969028,8.965068,0.448815,-0.867414,0.117811
3689794110,-18.641502,16.535318,11.320680,0.426510,-0.892934,0.110302
3689814153,-17.399948,17.751266,13.336477,0.416828,-0.951110,0.113898
3689834198,-15.603486,23.055019,13.371017,0.395641,-1.015250,0.125926
3689854243,-6.567558,22.042797,10.872458,0.367223,-1.071061,0.127818
3689874288,7.503659,14.146646,6.277243,0.350220,-1.103741,0.112031
3689894332,22.952227,6.195362,0.041203,0.348909,-1.088263,0.106522
3689914377,35.165527,1.127331,-6.652709,0.358295,-1.012560,0.130639
3689934422,36.739548,-0.076450,-10.000454,0.391263,-0.960334,0.171692
3689954466,28.099188,2.537960,-10.203320,0.430995,-0.967854,0.197354
3689974511,22.555794,7.033672,-12.610539,0.446622,-0.992775,0.187386
3689994556,25.589493,10.890495,-16.400885,0.427020,-1.029237,0.197832
3690014600,30.372608,10.412640,-21.899424,0.409946,-1.034366,0.184457
3690034645,31.516880,11.777237,-27.524172,0.431955,-1.002432,0.170698
3690054691,35.405300,4.070142,-36.901966,0.390192,-1.036023,0.254340
3690074736,35.768875,0.024270,-41.304306,0.387757,-1.003341,0.192779
3690094780,37.863682,-8.447804,-48.153587,0.477652,-0.979670,0.147900
3690114825,55.672287,-5.327128,-54.867664,0.535044,-0.945639,0.194471
3690134870,60.234207,0.010198,-59.349159,0.508511,-0.870939,0.244828
3690154914,47.014812,3.707371,-60.637825,0.466358,-0.826055,0.287487
3690174959,34.120770,1.492013,-59.508404,0.453714,-0.837903,0.311983
3690195016,30.791004,-6.084039,-61.799290,0.471588,-0.833446,0.272291
3690215047,34.282829,-11.561719,-66.589935,0.510124,-0.794230,0.253311
3690235092,37.360107,-9.490952,-70.058952,0.540142,-0.768441,0.301116
3690255136,33.963638,-4.031665,-72.155960,0.556394,-0.750132,0.344967
3690275181,26.217909,-4.345759,-75.600693,0.553967,-0.729430,0.340954
3690295226,20.707996,-10.727558,-79.971031,0.568217,-0.704952,0.326380
3690315271,18.698513,-15.249338,-82.412056,0.600763,-0.690166,0.333051
3690335316,17.439421,-14.496492,-83.987724,0.634123,-0.674720,0.344457
3690355360,16.933582,-13.729932,-87.412796,0.645811,-0.649993,0.333777
3690375405,17.698429,-16.346825,-90.943466,0.656707,-0.623716,0.321531
3690395449,18.585133,-21.334703,-93.284363,0.688582,-0.594880,0.315790
3690415494,22.021900,-24.987881,-97.436378,0.713219,-0.554308,0.316727
3690435540,25.123495,-25.175674,-103.417496,0.739912,-0.511814,0.310472
3690455585,23.670605,-27.342941,-108.561882,0.764254,-0.472437,0.284468
3690475629,18.625050,-28.859877,-111.119606,0.764937,-0.414958,0.241936
3690495674,17.352383,-27.514099,-112.550972,0.779370,-0.359992,0.220465
3690515719,22.030756,-28.104750,-115.557426,0.828845,-0.314827,0.227282
3690535764,28.801847,-28.956245,-119.920486,0.871699,-0.268785,0.228125
3690555808,31.516953,-25.152256,-123.495033,0.890842,-0.222373,0.206123
3690575853,30.011450,-18.068653,-126.926025,0.897500,-0.173697,0.193843
3690595896,30.417149,-12.051128,-131.079178,0.907645,-0.122304,0.186118
3690615941,34.557396,-10.803044,-136.521088,0.907052,-0.060259,0.192066
3690635986,36.615829,-8.822597,-139.966995,0.884789,-0.011235,0.218083
3690656031,36.456364,-5.104698,-137.706650,0.843496,0.026478,0.216651
3690676075,41.111122,-9.736321,-135.002975,0.800498,0.050285,0.230161
3690696120,48.781525,-18.286177,-135.107040,0.791452,0.072729,0.251487
3690716165,55.080227,-26.061020,-138.416229,0.812991,0.110240,0.238771
3690736210,58.006802,-33.961723,-140.747162,0.829424,0.183551,0.186755
3690756254,64.663101,-33.001930,-140.189636,0.862501,0.285723,0.188702
3690776299,57.112122,-23.689840,-135.051514,0.887309,0.410619,0.226911
3690796343,36.551598,-11.597899,-125.572914,0.891160,0.449617,0.194296
3690816388,38.999290,-1.668497,-114.478363,0.856664,0.335906,0.157290
3690836434,47.692215,2.377342,-109.657890,0.822314,0.280229,0.190366
3690856479,53.424797,-5.487718,-111.850380,0.769932,0.364360,0.243187
3690876524,53.292671,-17.953094,-112.622261,0.741664,0.502765,0.237013
3690896568,47.477852,-28.854362,-111.051331,0.721302,0.586707,0.166977
3690916613,45.312660,-35.722748,-109.336975,0.700299,0.638761,0.098384
3690956702,42.408264,-27.932526,-99.144028,0.730162,0.718833,0.038398
3690976747,39.342949,-16.684744,-90.933868,0.697803,0.708247,0.020495
3690996790,41.956924,-6.226366,-86.331886,0.639718,0.702708,0.004184
3691016835,47.746449,0.548342,-86.580750,0.620238,0.766104,-0.006041
3691036880,51.426167,6.138966,-87.269424,0.628054,0.875032,-0.054864
3691056924,53.489395,10.516378,-84.622978,0.645621,0.991583,-0.125893
3691076969,36.491131,21.525770,-75.528702,0.641109,1.067154,-0.173620
3691097014,13.663618,29.009581,-58.219589,0.596016,1.053270,-0.157355
3691117058,-3.150131,18.680010,-40.368370,0.537347,0.972641,-0.070353
3691137103,-17.188503,-9.367607,-35.876553,0.524402,0.915490,0.017154
3691157148,-21.421423,-30.372023,-35.313812,0.561786,0.932255,0.030217
3691177193,-14.807132,-24.895229,-29.991188,0.602650,0.931456,0.017048
3691197237,0.316919,-4.704351,-27.132246,0.610112,0.899250,-0.008489
3691217282,14.545850,12.962852,-26.526688,0.586591,0.893057,-0.005878
3691237328,23.853840,21.173252,-21.905329,0.537006,0.934565,0.008530
3691257373,24.396521,24.345530,-14.690343,0.483968,0.956020,0.016251
3691277418,17.890171,23.084095,-9.672134,0.447596,0.955370,0.014898
3691297462,9.713934,13.776130,-2.081388,0.453433,0.909943,0.010855
3691317507,4.397978,0.217118,5.979019,0.489048,0.915731,0.015073
3691337552,-2.306709,-1.188604,10.892226,0.516298,0.937944,0.029292
3691357596,-3.614536,7.144670,14.840652,0.504862,0.883592,0.028473
3691377641,2.852437,10.734886,16.326569,0.504123,0.867497,0.045171
3691397684,5.892163,9.761217,20.418066,0.519130,0.884315,0.044504
3691417729,1.547727,8.544735,28.124149,0.532144,0.884889,0.024838
3691437774,-2.753070,6.984225,31.487795,0.552020,0.930342,-0.002250
3691457818,-6.517773,5.831362,29.696978,0.578187,1.007057,-0.004969
3691477863,-12.669501,8.985253,33.885513,0.563779,0.998276,-0.013559
3691497908,-15.552047,11.090351,44.556004,0.543319,0.943031,-0.017805
3691517952,-17.419764,5.005425,48.141441,0.557591,0.918879,-0.000021
3691537997,-24.216066,-3.182219,48.224140,0.597980,0.907442,0.002371
3691558042,-29.190386,-6.177999,53.095119,0.624515,0.868434,-0.004123
3691578087,-28.872271,-2.260404,60.874870,0.634905,0.826526,0.008681
3691598132,-23.963860,5.064092,64.563271,0.650409,0.819155,0.029886
3691618176,-16.834938,11.032300,65.043877,0.666231,0.826602,0.046055
3691638222,-10.850825,15.109711,67.272003,0.655682,0.809357,0.047304
3691658267,-10.277191,15.460977,71.990623,0.651869,0.791367,0.047880
3691678312,-17.168781,9.243791,76.048943,0.671994,0.778524,0.053322
3691698356,-26.390379,0.512008,78.382919,0.694963,0.734534,0.056494
3691718401,-32.144852,-5.455782,81.457138,0.727211,0.682366,0.057433
3691738446,-32.507397,-6.419366,84.538628,0.760307,0.638103,0.056401
3691758490,-29.148035,-1.693982,85.986351,0.792952,0.593554,0.052728
3691778535,-24.429342,6.716486,87.252563,0.809978,0.541341,0.053739
3691798578,-21.466774,12.695885,87.719391,0.824884,0.513799,0.058081
3691818623,-24.277458,14.590754,87.426788,0.836050,0.506313,0.067056
3691838668,-33.199585,14.408899,88.440048,0.848514,0.488349,0.079586
3691858712,-42.971466,12.130647,90.916885,0.859996,0.440329,0.094087
3691878757,-50.457253,11.506737,91.988098,0.869745,0.372161,0.105100
3691898802,-51.626373,15.391066,90.576393,0.873889,0.311413,0.134311
3691918847,-49.993946,21.097191,89.270988,0.875038,0.250963,0.160948
3691938891,-45.091747,22.756962,88.058617,0.869176,0.207865,0.177194
3691958936,-41.438492,22.343023,87.292023,0.877701,0.179412,0.205988
3691978981,-40.386395,24.881443,88.835686,0.894242,0.116046,0.251790
3691999025,-38.055656,27.298237,92.792282,0.910942,0.024001,0.290819
3692019070,-34.464195,30.039644,94.247734,0.904538,-0.043965,0.308723
3692039116,-27.537783,38.027901,90.499809,0.880156,-0.077644,0.315833
3692059161,-13.687515,50.023109,86.230309,0.852903,-0.077668,0.344222
3692079206,-1.692067,57.521317,84.180962,0.820503,-0.056414,0.366845
3692099250,-2.822646,49.356670,78.704559,0.769890,-0.041629,0.327477
3692119295,-15.253749,28.217772,68.733231,0.784919,-0.027074,0.366616
3692139339,-22.965796,10.376119,64.565842,0.906988,-0.028058,0.382447
3692159384,-26.661982,11.025083,63.930767,1.002530,-0.039529,0.268250
3692179429,-37.554611,21.894691,61.284279,1.034076,-0.092290,0.286396
3692199472,-55.564541,32.542339,58.456398,1.022860,-0.202394,0.366978
3692219517,-59.299667,33.994926,53.204185,0.964329,-0.312191,0.367275
3692239562,-35.978802,31.447779,45.279984,0.879102,-0.434360,0.366386
3692259606,-2.752227,20.157082,33.379906,0.821837,-0.494564,0.419271
3692279651,30.163593,-1.281569,18.612097,0.807991,-0.421630,0.428400
3692299695,47.134670,-17.306829,10.772175,0.858859,-0.285067,0.407160
3692319740,41.187351,-18.580366,6.880320,0.922144,-0.165913,0.387064
3692339785,18.551708,-7.343076,4.917743,0.958569,-0.083846,0.364256
3692359830,-11.158720,5.347245,9.133144,0.967503,-0.085401,0.356868
3692379874,-38.080021,11.362160,14.262904,0.939819,-0.203916,0.362742
3692399919,-43.080708,13.067994,11.960816,0.903948,-0.326016,0.347647
3692419964,-20.671591,12.695034,3.150207,0.878255,-0.378385,0.339424
3692440010,8.759645,8.705219,-6.670728,0.871496,-0.325572,0.379454
3692460055,17.148083,3.665008,-9.564284,0.884839,-0.237418,0.418792
3692480099,8.152582,1.529674,-8.914306,0.901832,-0.182677,0.421924
3692500144,-0.971611,1.020715,-8.897195,0.912570,-0.178118,0.419051
3692520189,-2.325928,1.074956,-9.191595,0.916777,-0.198395,0.409963
3692540233,3.128606,1.487691,-10.506062,0.899828,-0.199461,0.403930
3692560278,9.305848,-1.140668,-12.242200,0.893650,-0.176312,0.415347
3692580339,9.446694,-4.151341,-13.741238,0.907302,-0.140262,0.411235
3692600366,4.187296,-2.907951,-13.884929,0.915150,-0.107840,0.410205
3692620411,-0.899147,0.791359,-11.716305,0.899588,-0.094799,0.403793
3692640455,-4.318502,-0.839261,-10.439145,0.880033,-0.111851,0.400695
3692660500,-6.791428,-5.968527,-12.502748,0.891692,-0.133137,0.393490
3692680545,-5.562834,-6.494284,-13.052570,0.913562,-0.136855,0.378658
3692700590,-0.171357,-3.937027,-11.991673,0.914872,-0.116492,0.373310
3692720634,3.891949,-5.878788,-12.158120,0.915985,-0.080126,0.386857
3692740679,-1.096164,-9.066166,-10.814133,0.928181,-0.067206,0.420890
3692760723,-9.523378,-10.424415,-5.057369,0.919605,-0.092295,0.425860
3692780768,-8.033821,-15.076393,-2.984596,0.894503,-0.170279,0.431783
3692800813,5.345619,-24.285671,-4.937336,0.904749,-0.236031,0.412371
3692820859,26.967442,-32.049633,-5.331941,0.914545,-0.270215,0.445592
3692840904,53.359825,-28.977434,-1.987074,0.886245,-0.246409,0.451561
3692860949,82.232170,-31.971249,4.643236,0.883350,-0.218088,0.428727
3692880993,95.717720,-41.685299,12.814876,0.922214,-0.218749,0.442947
3692901038,100.295197,-44.285355,20.202457,0.937792,-0.247322,0.432189
3692921083,122.053276,-37.902264,24.844364,0.923791,-0.286843,0.359486
3692941128,148.372162,-32.640274,29.802801,0.925445,-0.294907,0.319596
3692961172,160.880310,-37.839241,36.690174,0.935972,-0.274362,0.283177
3692981216,166.351562,-44.704433,43.244545,0.941618,-0.233962,0.208956
3693001260,171.413925,-43.924435,46.579895,0.967388,-0.180855,0.168373
3693021305,176.820648,-35.863674,48.999153,1.007952,-0.131479,0.159158
3693041350,174.703415,-27.084469,45.830254,1.041766,-0.138689,0.127508
3693061394,169.842392,-23.116602,37.201767,1.036542,-0.138472,0.108986
3693081439,162.397491,-22.665638,28.543093,1.004735,-0.079708,0.113367
3693101484,151.861069,-24.781054,19.857218,0.996827,-0.004945,0.098034
3693121528,137.726273,-30.237217,12.169616,0.998432,0.043784,0.070057
3693141573,116.940987,-33.269108,7.821815,0.988847,0.069938,0.048830
3693161618,92.622948,-31.919691,4.037857,0.966761,0.050639,0.057296
3693181663,76.098907,-34.118027,2.254436,0.963870,0.007298,0.083853
3693201707,69.039696,-38.117985,1.169597,0.963332,-0.027422,0.097337
3693221753,65.753181,-35.493729,-0.643695,0.992065,-0.043414,0.076101
3693241798,66.148499,-26.069445,-1.173680,1.023397,-0.049781,0.054987
3693261843,73.772850,-13.929285,0.668577,1.025666,-0.048382,0.063915
3693281888,82.764610,-1.615657,2.142127,1.008922,-0.026568,0.095569
3693301932,88.223618,5.029727,1.012191,0.999232,0.019166,0.108778
3693321977,85.935898,6.314227,-3.405332,0.986967,0.080180,0.111826
3693342022,72.778816,5.260315,-6.015572,0.975577,0.136177,0.103815
3693362066,59.410625,1.515827,-8.873053,0.979994,0.201896,0.098753
3693382110,46.804996,-1.667617,-13.390082,1.001153,0.227556,0.123004
3693402154,33.885201,-3.581140,-17.166925,1.004315,0.158063,0.163752
3693422199,26.346573,-6.257603,-17.007559,0.982264,-0.005022,0.232765
3693442244,27.880775,-5.037864,-6.034892,0.968650,-0.121950,0.235087
3693462289,53.701462,-6.687460,9.150037,1.000575,-0.077552,0.112954
3693482333,80.286385,3.952623,7.526762,1.054525,0.075697,0.085954
3693502378,69.161209,28.909649,-5.027433,1.052080,0.244295,0.147729
3693522422,37.112762,43.202217,-8.604374,0.933941,0.274414,0.172383
3693542467,18.867346,27.448284,-4.724242,0.846405,0.251581,0.224465
3693562512,-5.913192,-2.391867,-1.222548,0.878636,0.239084,0.264772
3693582557,-25.413548,-23.867764,3.274460,0.939241,0.165021,0.221760
3693602601,-34.733917,-24.231094,5.608899,0.977768,0.078779,0.188521
3693622647,-32.863895,-17.461084,4.293050,0.977379,0.016417,0.174648
3693642692,-25.855320,-12.475595,-0.397324,0.977379,-0.000113,0.158123
3693662737,-17.850437,-8.335323,-6.587723,0.976257,0.026132,0.141783
3693682782,-18.024862,-5.319196,-9.910814,0.960442,0.043463,0.148080
3693702832,-22.144104,-9.123493,-9.700414,0.950447,0.067021,0.157645
3693722871,-27.409063,-15.061861,-7.864133,0.965366,0.113386,0.145445
3693762962,-46.057343,-14.352288,-3.866966,0.944609,0.197805,0.115189
3693783003,-62.472019,-20.700357,-4.893092,0.935863,0.219054,0.123144
3693803048,-84.472076,-35.358452,-5.228600,0.963799,0.260475,0.122369
3693823093,-111.999512,-48.521481,-4.327069,0.994756,0.292614,0.105031
3693843137,-134.827026,-55.258701,-4.145678,1.011794,0.281154,0.056177
3693863182,-133.569427,-40.681732,-4.313849,1.048451,0.220902,-0.017532
3693883227,-120.092163,-17.246075,-6.206783,1.044506,0.223422,-0.055183
3693903272,-127.952110,-13.350215,-11.711560,1.008606,0.239260,-0.044833
3693923316,-145.951797,-10.873045,-13.929950,0.997220,0.206337,0.005339
3693943361,-156.370682,-9.030342,-9.638890,1.010823,0.154766,0.024801
3693963406,-162.957489,-7.623159,-3.068456,1.017909,0.137403,-0.016338
3693983451,-169.876663,0.617013,2.789564,1.024023,0.098294,-0.078700
3694003495,-164.677078,12.039213,9.092558,1.013359,0.004414,-0.097760
3694023541,-142.969406,14.514968,12.359632,0.993939,-0.089765,-0.088111
3694043586,-114.410881,10.185042,5.120694,0.972846,-0.140115,-0.072463
3694063631,-104.501541,4.107388,-3.169678,0.957289,-0.126588,-0.049745
3694083675,-101.343979,-4.400195,-2.454487,0.997499,-0.085311,-0.070095
3694103720,-85.345772,-18.961964,-2.944296,1.047852,-0.011588,-0.096010
3694123765,-96.057693,-32.217518,-6.468324,1.093602,0.096005,-0.099659
3694143809,-153.690430,-27.151014,-5.871251,1.138739,0.239956,-0.006924
3694163853,-205.494446,-2.255825,2.493994,1.148493,0.213900,-0.009551
3694183897,-195.081009,-7.129795,18.158161,1.071960,0.104842,-0.019862
3694203942,-203.072693,-11.297112,31.814415,1.019036,0.027461,-0.088622
3694223987,-218.464493,9.372662,26.915281,1.033967,-0.043351,-0.142100
3694264076,-192.464996,34.437950,-11.536368,1.077507,-0.067721,-0.156603
3694284121,-172.141235,34.789337,-19.272732,1.076563,-0.036923,-0.123269
3694304166,-179.442719,40.649277,-16.837763,1.057826,-0.042491,-0.075106
3694324210,-196.124252,41.616146,-11.591282,1.029823,-0.067345,-0.065364
3694344255,-201.738144,33.875393,-12.676048,1.004438,-0.098679,-0.076216
3694364300,-197.443359,30.760883,-17.368427,1.009157,-0.173111,-0.059543
3694384344,-185.889496,35.204567,-18.124006,1.023665,-0.225692,-0.014118
3694404391,-169.701508,37.175941,-14.631296,0.985379,-0.237074,0.021750
3694424435,-151.479950,35.915489,-10.648314,0.917070,-0.224192,0.035256
3694444480,-132.687866,31.369995,-8.990180,0.877720,-0.207179,0.074615
3694464525,-116.124878,24.629225,-8.661318,0.873499,-0.182417,0.136290
3694484569,-109.208946,17.690809,-10.010512,0.908223,-0.153633,0.179279
3694504614,-106.345963,7.807381,-10.122156,0.955885,-0.098078,0.144299
3694524659,-101.912888,1.480318,-8.916000,1.023369,-0.040931,0.130936
3694544704,-106.187393,10.157023,-7.542992,1.072159,-0.002215,0.152096
3694564748,-114.289497,27.769115,-3.368406,1.044700,-0.010727,0.178641
3694584792,-127.636734,34.244720,4.353721,0.981388,-0.082067,0.192151
3694604836,-137.416382,28.654169,10.368641,0.914653,-0.198398,0.192169
3694624881,-132.061600,23.945118,11.261469,0.875575,-0.310754,0.169139
3694644926,-110.475304,20.497744,9.453671,0.888765,-0.426607,0.173834
3694664970,-70.047401,19.938068,8.763318,0.874815,-0.509430,0.176691
3694685015,-17.482849,18.751801,7.066310,0.829080,-0.528641,0.198822
3694705060,30.581484,7.004108,4.606250,0.828791,-0.470367,0.263436
3694725104,62.970848,-12.696326,0.483592,0.873794,-0.325091,0.262383
3694745149,76.056694,-23.298332,-6.021321,0.913791,-0.171162,0.212332
3694765194,67.830795,-21.763786,-6.675823,0.971312,-0.075977,0.206412
3694785239,42.839531,-14.252750,-0.549041,0.993065,-0.051024,0.184970
3694805285,25.192007,-8.815063,6.429973,0.970817,-0.062317,0.165872
3694825330,23.566311,-11.222405,7.922662,0.977926,-0.104198,0.150519
3694845374,25.879612,-18.158096,3.805222,1.035254,-0.128934,0.126651
3694865419,29.461126,-18.944721,2.346266,1.093485,-0.124115,0.094443
3694885464,31.421354,-11.573683,2.469015,1.092245,-0.085043,0.086554
3694905508,28.384869,-2.684519,5.409318,1.060898,-0.044945,0.120136
3694925553,12.598749,-2.099486,8.394279,1.028580,-0.046863,0.128292
3694945598,-3.614759,-3.483333,9.898809,0.995524,-0.092127,0.116679
3694965641,-5.334673,-0.729390,12.126316,0.983417,-0.165251,0.128120
3694985686,-0.800110,-0.414653,10.849470,0.966151,-0.220744,0.121441
3695005731,6.502636,-0.962708,6.200165,0.941788,-0.250163,0.112766
3695025775,14.246281,-1.031511,3.299233,0.927947,-0.260008,0.121942
3695045820,22.789698,-3.676009,4.013297,0.925584,-0.271219,0.154975
3695085909,35.948235,-10.788707,-1.047997,0.937187,-0.260868,0.135491
3695105954,43.113987,-15.638624,-5.669330,0.947406,-0.243508,0.124315
3695125999,49.828217,-18.753218,-5.915940,0.987166,-0.245091,0.138912
3695146043,53.496796,-15.874968,-4.240291,1.020195,-0.250650,0.132007
3695166088,57.762260,-10.931629,-6.525065,1.027311,-0.239923,0.092366
3695186133,64.121857,-5.823422,-9.999270,1.003362,-0.229950,0.073080
3695206179,72.961082,-0.434258,-9.325544,0.964587,-0.236866,0.082687
3695226224,86.882492,-1.434069,-8.654270,0.946267,-0.236463,0.112868
3695246268,105.110176,-10.875782,-11.108679,0.984352,-0.234478,0.125785
3695266313,119.133301,-15.373606,-13.992623,1.033332,-0.208098,0.118368
3695286358,119.931641,-6.921440,-12.041214,1.065419,-0.120586,0.108138
3695326447,103.125420,13.811709,2.885627,1.022672,0.088488,0.099272
3695346504,91.470276,5.182537,8.986364,1.005036,-0.018717,0.176688
3695366536,85.894043,8.608323,10.442882,0.962711,-0.185401,0.185402
3695386580,118.750160,16.736074,11.729799,0.952715,-0.276630,0.168784
3695406625,160.780090,16.386631,8.375798,0.949025,-0.217205,0.134033
3695426669,173.172028,15.362493,2.735636,0.962601,-0.083517,0.104532
3695446714,149.339340,19.054548,3.486246,0.936127,0.034370,0.101363
3695466759,130.831497,30.087538,11.456944,0.896044,0.073914,0.128512
3695486803,128.435333,35.306908,18.593489,0.912903,0.105566,0.127919
3695506848,118.854347,28.801714,19.320652,0.952678,0.189705,0.121142
3695546938,69.472855,23.385361,15.544799,0.901632,0.299013,0.266448
3695566982,48.077831,2.812500,13.214251,0.970018,0.278395,0.280046
3695587028,23.893488,-19.408640,7.920275,1.057547,0.247841,0.220302
3695607073,2.081972,-16.336685,2.683231,1.113843,0.196748,0.230604
3695627118,-8.675400,4.171817,2.982487,1.088214,0.122307,0.246235
3695647162,-4.278822,9.290941,3.096304,1.025888,0.041663,0.223503
3695667207,10.002263,17.447056,-1.995650,1.016508,-0.065558,0.227961
3695687252,30.219748,32.916672,-8.953187,0.966767,-0.075322,0.262002
3695707297,30.942455,25.738997,-13.378174,0.904723,-0.017060,0.285559
3695747384,26.790543,9.118457,0.351834,0.916615,0.022732,0.278489
3695767429,28.877487,2.361542,4.577994,0.933114,0.021341,0.271611
3695787474,28.541433,-5.588759,3.993860,0.954070,0.055577,0.283772
3695807519,21.512636,-7.581695,3.942979,0.984162,0.088681,0.284538
3695827564,15.869986,-4.278098,3.990737,0.986065,0.078717,0.272252
3695847608,12.723893,-3.972147,2.231888,0.972219,0.069257,0.284338
3695867653,6.528225,-5.320259,1.038883,0.965634,0.075983,0.292975
3695887697,0.632379,-7.747302,1.231130,0.959200,0.073829,0.271823
3695907742,-2.284039,-11.985596,2.065037,0.976270,0.056784,0.244866
3695927787,-3.647496,-12.281084,1.534871,0.994377,0.049346,0.249703
3695947831,-7.597732,-9.208177,-1.088914,0.995718,0.044113,0.234916
3695967876,-10.855523,-4.076452,-4.542730,0.988181,0.036746,0.221811
3695987922,-12.698277,-0.792410,-6.870524,0.973146,0.037724,0.224971
3696007967,-12.959828,-1.263687,-7.447063,0.968147,0.048577,0.240322
3696028011,-14.841366,-2.485943,-7.820015,0.970051,0.044167,0.252117
3696048056,-16.095518,-1.572937,-8.176941,0.955297,0.028145,0.262521
3696068101,-12.005228,-0.747272,-6.578766,0.941948,0.027886,0.274626
3696108190,-10.663571,-4.061197,-4.056645,0.943782,0.047539,0.273111
3696128235,-11.244303,-3.923358,-2.894343,0.960677,0.036321,0.269685
3696148278,-11.059278,-2.547786,-2.881825,0.966512,0.016238,0.265432
3696168323,-10.414792,-2.047012,-3.580505,0.971572,0.011739,0.258951
3696188368,-9.710635,-1.523629,-4.592013,0.971719,0.015376,0.257921
3696208413,-7.379563,-1.814758,-5.234312,0.967431,0.019947,0.250932
3696228457,-5.830672,-2.690232,-5.359634,0.966442,0.026879,0.249320
3696248502,-7.046054,-3.433764,-4.724912,0.966179,0.033051,0.244988
3696268547,-7.556607,-4.656909,-4.445582,0.965211,0.035529,0.245325
3696288591,-8.293977,-6.320454,-3.623199,0.974764,0.034383,0.245313
3696308636,-7.666500,-6.016554,-2.706483,0.986415,0.025411,0.239008
3696328681,-6.116638,-3.205473,-2.347727,0.987082,0.020646,0.237049
3696348726,-5.098890,-0.789074,-1.778824,0.974174,0.017398,0.240168
3696368770,-3.970695,-1.412818,-0.697468,0.967368,0.014257,0.245607
3696388816,-1.827130,-2.357001,-0.354951,0.972781,0.015409,0.239628
3696408861,0.077773,-0.716751,-0.035902,0.978760,0.018108,0.234460
3696428906,2.267664,1.691192,0.882082,0.972986,0.016199,0.235891
3696448951,4.398934,1.993609,1.391118,0.963510,0.024227,0.242128
3696468995,4.794259,1.096577,1.815559,0.968650,0.034402,0.247909
3696489040,3.945525,1.204025,2.492375,0.970951,0.035256,0.244641
3696509085,4.341290,1.728068,2.351716,0.963569,0.036311,0.249221
3696529129,3.647146,0.793712,2.197937,0.962620,0.041853,0.257090
3696549173,1.455907,0.065901,2.116388,0.969282,0.045027,0.268493
3696569218,0.294690,2.377254,1.536497,0.975609,0.047854,0.269062
3696589262,-0.048500,2.871363,1.020617,0.975900,0.040298,0.258656
3696609307,-1.037110,-2.364461,1.467390,0.982829,0.030883,0.244491
3696629352,-4.687483,-5.530238,2.709680,1.004344,0.019377,0.248567
3696649397,-5.093554,-3.173651,2.756275,1.011414,0.008834,0.242514
3696669441,-0.198603,0.911168,2.471098,0.972906,0.004731,0.238261
3696689486,1.764568,0.148863,1.275930,0.954082,0.021642,0.243355
3696709530,-1.826492,-3.967925,0.583618,0.972187,0.040368,0.223121
3696729575,-3.815232,-1.791601,2.371871,0.975597,0.026336,0.206054
3696749620,-1.435611,3.032638,2.044333,0.957015,0.004745,0.220118
3696769665,1.184325,3.584749,0.987636,0.949352,0.006670,0.230789
3696789711,1.585351,2.360727,1.069519,0.953648,0.018112,0.220893
3696809755,0.811702,2.255225,1.601213,0.967924,0.022373,0.221964
3696829800,0.768074,3.425753,1.562350,0.976254,0.026683,0.230001
3696849845,-0.134614,4.771807,1.453724,0.973406,0.029038,0.247168
3696869890,-0.342429,3.852200,1.227638,0.972475,0.035481,0.253663
3696889934,-1.461561,2.120402,1.656862,0.980479,0.034831,0.256003
3696930024,-1.159206,2.736356,2.895743,0.959570,0.000131,0.255318
3696950067,0.960986,0.879340,1.532805,0.968143,0.014539,0.260815
3696970112,-0.428167,0.812403,2.130128,0.975783,0.018202,0.253830
3696990157,-0.607675,1.907172,2.381873,0.965856,0.007930,0.262492
3697010201,1.441931,1.585870,1.711288,0.958469,0.001484,0.263493
3697030246,1.835134,0.703787,1.571978,0.961134,0.008621,0.259993
3697050291,0.724245,-0.070462,1.710739,0.964699,0.007976,0.253925
3697070335,0.995402,-0.154587,1.084039,0.963653,0.012120,0.257525
3697090380,-0.578423,-0.176031,1.080889,0.965201,0.020647,0.267389
3697110424,-4.135084,-1.707799,2.191405,0.970483,0.011652,0.257305
3697130469,-1.861946,-2.439282,2.517492,0.973742,0.001220,0.246217
3697150514,0.051667,-0.283073,0.885702,0.974686,0.017942,0.253460
3697170559,-3.070689,0.130254,1.313021,0.975803,0.026608,0.256401
3697190605,-4.110650,-1.373269,2.457542,0.968157,0.006427,0.248682
3697210650,-1.320534,-1.193313,2.344560,0.967528,-0.003801,0.257502
3697230694,0.333079,-0.617662,1.074318,0.967100,0.002145,0.246889
3697250739,0.141984,-0.784797,0.885484,0.964455,0.014292,0.244402
3697270793,-1.402490,-1.307930,0.844492,0.961952,0.011792,0.246499
3697290828,-0.750197,-1.795016,0.672349,0.970402,-0.003488,0.243773
3697310873,0.709251,-1.066800,0.249083,0.973051,0.003214,0.243100
3697330918,0.686633,-0.261259,-0.086710,0.975488,0.014111,0.242208
3697350961,-0.468734,-0.108250,-0.093233,0.970771,0.015734,0.242616
3697371006,-1.258393,-0.145441,0.194733,0.966929,0.009067,0.245647
3697391050,-3.032469,-1.633635,0.217361,0.969835,0.015144,0.247348
3697411095,-9.336647,-2.007419,2.003021,0.986592,0.047578,0.253758
3697431140,-17.973415,-1.397839,5.694973,0.994784,0.063254,0.269985
3697451184,-20.574772,-2.581188,5.944586,0.993889,0.005233,0.262810
3697491274,-10.564301,1.517375,-4.618817,0.997101,0.014762,0.213317
3697511319,-15.283658,5.997525,-6.247657,0.954229,0.011829,0.210661
3697531363,-16.440428,11.479107,-5.185027,0.920160,-0.049849,0.271557
3697551408,-5.124837,2.637750,-4.242575,0.927554,-0.097460,0.283749
3697571453,8.381643,-9.164076,-7.527040,0.970726,-0.061420,0.226318
3697591499,8.040333,-7.725664,-4.013748,0.954099,0.003164,0.184693
3697611544,2.262807,-5.560676,-0.908943,0.925420,0.026445,0.192941
3697631588,-1.701158,-11.098209,-1.018063,0.957060,0.034660,0.196837
3697651633,-0.864352,-11.076976,-2.890981,1.003202,0.035848,0.166846
3697671678,-2.475548,-4.562224,-3.859929,1.008837,0.040012,0.161846
3697691722,-6.813058,-0.050905,-3.061490,0.992034,0.030410,0.185929
3697711767,-9.477592,-1.986785,-3.069704,0.969086,0.014426,0.222220
3697731824,-8.820891,-8.669282,-5.102505,0.966909,0.001768,0.219668
3697751855,-7.249209,-13.931231,-7.120811,0.984535,0.007510,0.205729
3697771900,-8.721186,-14.811999,-7.916232,1.009831,0.029823,0.204455
3697791944,-13.214875,-11.228119,-7.755656,1.016428,0.036585,0.195252
3697811989,-12.129892,-7.725254,-8.018690,1.007310,0.020017,0.179753
3697832034,-9.200750,-5.934161,-8.332336,0.996116,0.027190,0.177791
3697852079,-10.942651,-1.325933,-6.776824,0.946820,0.027664,0.204012
3697872123,-11.298754,-5.649342,-4.385479,0.946540,0.047112,0.207492
3697892168,-16.438107,-13.123259,-2.769640,1.008728,0.046083,0.194207
3697912213,-21.101999,-7.988472,-2.129272,1.061134,0.018505,0.157944
3697932258,-18.713655,9.415026,-2.202129,1.021702,0.001801,0.186655
3697952302,-13.406861,15.552285,-1.136348,0.975856,-0.008884,0.252689
3697972348,-8.945829,8.091750,-2.024366,0.960256,-0.026151,0.265646
3697992393,-3.334867,8.132513,-2.014096,0.958133,-0.024667,0.252143
3698012438,1.699659,10.873401,1.052976,0.955753,-0.013328,0.277070
3698032483,1.731133,7.346638,1.025596,0.954300,0.001048,0.282676
3698052527,3.517597,7.208290,1.042503,0.956703,-0.002718,0.283726
3698072572,10.039940,10.449155,3.259684,0.966799,-0.006474,0.302040
3698092617,12.909898,14.809874,4.140134,0.958956,0.006703,0.305242
3698112662,10.561894,13.838471,2.940127,0.930594,0.016902,0.270263
3698132705,8.156972,7.995685,3.101219,0.937601,0.011287,0.277280
3698152749,9.708907,5.555163,4.523868,0.963558,0.000429,0.291853
3698172794,14.516321,8.066589,3.966590,0.966881,0.006190,0.276079
3698192839,14.674942,9.365768,3.072805,0.951450,0.022623,0.272462
3698212884,11.125781,10.121298,3.061211,0.940112,0.025426,0.296119
3698232928,11.016478,9.216765,2.742936,0.931852,0.013301,0.316644
3698252973,13.628801,5.413724,1.774215,0.943819,0.000949,0.310187
3698273018,16.901871,3.723467,1.605970,0.965515,-0.002128,0.295348
3698293062,19.074112,5.044472,2.403224,0.974930,0.009578,0.282119
3698313107,19.452057,6.807766,2.977650,0.972150,0.034475,0.265141
3698333152,17.139446,8.520288,3.793683,0.959249,0.063118,0.265812
3698353197,11.399096,8.761685,5.604912,0.943346,0.055766,0.275134
3698373242,5.913449,5.543944,6.084257,0.935748,0.028553,0.278308
3698393287,4.375081,2.831202,4.704468,0.948148,0.014457,0.271140
3698413332,5.179106,3.795366,3.752723,0.960749,0.023132,0.273892
3698433377,3.548805,4.883947,4.358420,0.956591,0.026790,0.279385
3698453421,0.883901,4.400343,5.552527,0.949107,0.014827,0.286257
3698473466,0.202868,3.655704,4.758532,0.956886,0.004695,0.288128
3698493511,0.432710,3.464838,3.317092,0.977846,0.002495,0.279467
3698513556,0.160361,5.668959,2.616213,0.990051,0.001573,0.278108
3698533599,1.464356,9.118267,1.993490,0.984193,-0.000070,0.278351
3698553644,4.102231,10.772550,1.126070,0.969667,0.005203,0.283938
3698573688,5.346715,9.570544,1.079574,0.960800,0.018163,0.292688
3698613778,3.574425,7.369149,3.906395,0.957084,0.030464,0.284183
3698633822,1.576880,7.469895,4.378713,0.961823,0.031051,0.286945
3698653867,0.090706,8.748290,4.807906,0.953340,0.030161,0.284978
3698673912,-0.884388,9.258938,6.049063,0.948249,0.026370,0.292256
3698693956,-2.737113,8.128558,7.207081,0.947416,0.017418,0.313173
3698714001,-5.225789,6.040662,7.532868,0.942829,-0.000924,0.326310
3698734046,-2.571665,3.408288,6.996963,0.940722,-0.025004,0.307829
3698754091,1.183832,2.157868,5.529493,0.940072,-0.029531,0.348377
3698774137,1.452505,1.267952,4.636934,0.914368,-0.034947,0.352968
3698794181,5.259191,-7.263546,4.128242,0.928498,-0.034915,0.323846
3698814226,7.455471,-10.884501,1.631262,0.962472,-0.023848,0.323547
3698834271,6.872670,-6.780199,0.351976,0.975115,-0.008890,0.312955
3698854315,5.954463,-5.175802,0.037531,0.956613,0.009597,0.309663
3698874360,1.582891,-7.589423,-0.795155,0.941041,0.025958,0.321068
3698894405,-6.925991,-11.587840,-1.236562,0.941760,0.021827,0.306085
3698914449,-10.431732,-13.249107,-0.667213,0.948633,-0.019101,0.283347
3698934493,-7.916496,-13.084252,-1.082805,0.960201,-0.049122,0.265926
3698954538,-3.510300,-11.697834,-2.641558,0.977807,-0.072059,0.244666
3698974582,1.240581,-7.864516,-4.700457,0.976454,-0.070374,0.247829
3698994627,7.155445,-6.031563,-7.596783,0.978942,-0.035838,0.250749
3699014671,4.566174,-7.504956,-10.021010,0.988191,0.008490,0.235155
3699034716,-6.573723,-5.730773,-7.362293,0.981416,-0.000989,0.259128
3699054761,-7.284414,-5.340338,-2.519594,0.979006,-0.041994,0.231863
3699074806,4.724121,-2.935563,-6.674491,1.005027,-0.008171,0.197723
3699094851,5.145777,7.346908,-8.683439,1.014953,0.077409,0.239698
3699114895,-3.346977,14.038256,-2.034824,0.979799,0.100659,0.305530
3699134940,-11.573906,9.305263,4.028327,0.941816,0.022309,0.347324
3699154985,-10.493103,1.095694,4.286824,0.946129,-0.062571,0.330576
3699175031,4.950995,0.579360,1.296802,0.951952,-0.088845,0.302611
3699195076,23.726913,4.179950,-1.196995,0.945096,-0.037549,0.309330
3699215120,27.379351,3.332769,-1.970791,0.930760,0.042419,0.331873
3699235165,16.959347,-1.932474,-0.552719,0.932299,0.085296,0.326523
3699255210,4.395280,-6.594652,2.549628,0.950129,0.055502,0.290481
3699275254,-2.372992,-6.261361,3.911553,0.969842,0.001142,0.239907
3699295299,2.111997,-2.526576,1.953825,0.987431,-0.006969,0.176371
3699315344,7.811058,1.874697,-2.939269,1.023162,0.061158,0.165691
3699335387,0.472695,11.396649,-3.950950,1.009935,0.149362,0.219948
3699355432,-18.214802,28.084723,4.046252,0.934009,0.105406,0.337295
3699375477,-27.329796,18.809338,14.661010,0.907660,-0.003118,0.340820
3699395521,-21.711950,-0.618367,7.848404,0.946129,-0.063160,0.299808
3699415566,-12.224758,7.585193,-2.341570,0.991619,-0.071184,0.318142
3699435611,4.308278,16.988489,-1.646827,0.955120,-0.041418,0.349404
3699455656,8.999046,11.535001,-1.068173,0.915983,0.001798,0.381993
3699475700,-1.319635,1.967099,-0.926684,0.923712,0.026868,0.385302
3699495745,-9.665208,-1.733764,1.441527,0.929864,0.006958,0.368031
3699535834,-1.479592,0.812146,-0.452031,0.911424,-0.037947,0.348146
3699555879,2.756684,0.336628,-1.817264,0.906427,-0.018952,0.342308
3699575925,3.473383,-2.005158,-2.155750,0.910518,0.004463,0.336135
3699595970,1.257568,-3.576653,-2.297259,0.926474,0.015646,0.327146
3699616014,-0.602945,-4.091525,-1.482587,0.942110,0.009094,0.310926
3699636059,0.459768,-2.526336,-0.677057,0.947535,-0.026586,0.279850
3699656104,2.940348,1.332087,-1.979597,0.923257,-0.062773,0.243281
3699676148,6.324609,4.983531,-5.452466,0.950721,0.014934,0.266785
3699696193,7.213630,2.293539,-2.302765,1.031087,0.125406,0.366518
3699716237,-2.811370,4.311407,3.516385,1.032697,0.103954,0.366069
3699736281,-19.165056,0.850946,1.153860,0.980948,0.003996,0.341752
3699756326,-27.370348,1.155070,2.503976,0.913949,-0.090880,0.320468
3699776370,-14.678724,-9.648039,4.367165,0.936731,-0.140110,0.217068
3699796415,6.460185,-17.605625,-4.944579,1.019356,-0.065892,0.162797
