Timestamp (us),Gyroscope X (deg/s),Gyroscope Y (deg/s),Gyroscope Z (deg/s),Accelerometer X (g),Accelerometer Y (g),Accelerometer Z (g)
860298228,-3.127013,-14.497673,0.863110,1.013777,0.011296,-0.134080
860318280,-3.381344,-14.176690,1.460831,1.013417,-0.006800,-0.141507
860338331,-2.938765,-18.986708,1.499987,1.021151,-0.030613,-0.111367
860358383,-0.020186,-22.586403,4.285268,1.017748,-0.049945,-0.096625
860378433,0.683624,-23.434258,7.531736,1.005026,-0.054622,-0.116929
860398484,-1.838536,-22.615662,9.924747,1.012586,-0.018220,-0.165011
860418535,-3.368482,-23.300589,11.238804,0.993698,0.005815,-0.158607
860438586,-4.567882,-36.071106,11.086177,0.923930,0.023217,-0.131674
860458637,-5.094545,-39.280308,11.961421,0.922465,0.011886,-0.187083
860478689,-6.441509,-39.106281,14.454769,0.980174,-0.031542,-0.227888
860498740,-4.433044,-49.045334,25.318645,0.930803,-0.052344,-0.271076
860518791,-4.990654,-54.919647,34.539936,0.789925,0.043471,-0.252008
860538842,-11.423892,-49.619568,36.547508,0.855980,0.209377,-0.172572
860558893,-16.971298,-35.318813,34.757011,0.926119,0.219685,-0.167741
860578944,-15.800879,-18.221447,28.884628,0.873612,0.070713,-0.234007
860598995,-6.956288,4.141233,18.163614,0.881077,-0.093106,-0.305857
860619047,4.679311,3.361319,20.852758,0.930407,-0.187246,-0.276061
860639098,1.535028,-22.785992,27.469440,0.991827,-0.184239,-0.195501
860659149,1.074313,-34.307682,24.758142,1.025586,-0.135620,-0.193552
860679201,5.298753,-29.484428,18.404034,1.007774,-0.048504,-0.262123
860699252,2.513537,-31.626165,16.350914,0.975107,-0.054011,-0.363172
860719303,-4.649882,-36.578308,11.398690,1.026438,-0.100100,-0.340917
860739355,-14.771636,-41.413990,11.100582,1.032920,-0.061455,-0.237528
860759405,-31.506397,-42.008102,19.665133,0.954297,-0.056932,-0.233139
860779457,-47.248672,-41.197052,27.315018,0.960456,-0.048831,-0.245822
860799508,-59.894218,-36.332153,30.554052,0.965923,-0.071998,-0.233791
860819559,-70.376663,-37.451550,36.033585,0.905470,-0.069257,-0.248975
860839610,-77.408165,-37.063423,43.431774,0.861712,-0.107775,-0.261018
860859661,-83.193573,-35.529015,43.549778,1.000729,-0.124898,-0.266287
860879712,-86.171295,-36.605625,43.251373,1.089268,-0.210687,-0.319742
860899763,-82.472557,-33.430851,43.254295,1.084215,-0.208670,-0.298535
860919815,-79.164703,-30.045645,40.929886,1.029745,-0.128494,-0.300031
860939866,-74.797485,-28.538729,35.822529,0.985826,-0.062967,-0.336545
860959915,-68.789566,-33.468925,32.722462,0.909309,-0.062624,-0.300647
860979966,-64.981056,-43.775597,28.057690,0.866936,-0.105999,-0.220013
861000018,-65.405098,-54.405182,27.116781,0.881788,-0.206244,-0.230835
861020069,-64.827026,-59.926628,26.165499,0.915675,-0.151179,-0.331477
861040120,-60.153366,-64.395157,23.018833,0.937347,-0.108978,-0.363713
861060171,-55.173058,-68.061005,20.430140,0.884885,-0.078848,-0.402696
861080222,-47.020538,-73.212517,18.527559,0.877222,-0.063104,-0.425290
861100273,-38.220211,-77.551872,14.734796,0.891127,-0.073924,-0.427974
861120324,-36.397949,-77.866028,11.203445,0.913797,-0.016554,-0.467013
861140375,-31.414011,-77.240776,13.677864,0.922428,-0.002585,-0.546637
861160427,-22.487423,-72.941101,12.091080,0.915799,-0.052298,-0.604093
861180478,-12.533483,-69.012711,8.360369,0.909576,-0.067268,-0.608054
861200529,-8.977303,-67.024841,6.904693,0.881452,-0.067699,-0.646783
861220580,-3.898779,-62.579060,9.578124,0.896450,-0.097770,-0.655326
861240631,0.285620,-51.981777,13.519095,0.926105,-0.123441,-0.631462
861260682,0.641691,-36.896511,20.409313,0.942428,-0.055227,-0.743923
861280733,-0.500528,-23.297413,26.736755,0.944076,-0.046121,-0.889705
861300785,2.739405,1.448738,24.134140,0.984045,-0.164735,-0.899137
861320836,12.261773,26.432236,8.189536,0.953158,-0.250772,-0.874912
861340887,18.773184,40.402786,-5.427217,0.907656,-0.100874,-0.683658
861360938,7.002054,49.966915,-19.856071,0.791292,-0.019234,-0.547102
861380990,-20.866833,70.378540,-32.224876,0.728139,-0.224019,-0.620068
861401041,-33.071350,104.198746,-31.768719,0.751158,-0.479492,-1.044287
861421093,-3.611340,120.670517,-28.986107,0.688291,-0.653327,-1.228125
861441144,63.735252,124.920197,-38.831505,0.629581,-0.992635,-0.903247
861461195,119.341797,91.719383,-22.282650,0.729461,-0.883430,-0.625060
861481246,125.230019,74.379364,3.884547,0.843983,-0.178169,-0.684942
861501297,106.481895,70.336182,11.749264,0.827012,0.176966,-0.984092
861521348,75.595894,94.874702,-7.559870,0.731499,0.321078,-0.936451
861541400,38.520950,115.516220,-22.071089,0.734187,0.354281,-0.416502
861561450,37.548729,132.852325,-24.002489,0.821081,0.140925,-0.265639
861581502,42.019321,129.257462,-26.841352,0.751785,0.066990,-0.195929
861601553,35.006489,90.500549,-36.542835,0.769640,0.081818,-0.216514
861621604,34.114815,92.432877,-51.744991,0.883213,-0.076182,-0.227786
861641655,37.236301,125.242126,-56.512623,0.805862,-0.296353,-0.281589
861661706,36.093079,109.239914,-45.573696,0.609957,-0.386514,-0.253579
861681756,40.813213,52.223766,-26.848331,0.522536,-0.131109,-0.226708
861701807,41.486267,16.137575,-17.189888,0.557261,0.135519,-0.093948
861721858,24.762302,4.764684,-15.583578,0.666673,0.099170,-0.156007
861741909,8.572038,-5.354839,-10.821349,0.734777,-0.005413,-0.384252
861761960,6.033256,-31.808025,-11.161307,0.654881,-0.197106,-0.313527
861782011,17.952837,-64.347176,-12.826832,0.551176,-0.130913,-0.198151
861802062,28.285965,-83.361954,-9.915241,0.567216,-0.113702,-0.268127
861822113,24.100861,-87.864944,-16.545004,0.916096,-0.266574,-0.376763
861842165,20.351269,-93.104019,-22.376593,1.303928,-0.443633,-0.384233
861862216,19.767576,-124.498352,-18.577259,1.410341,-0.177775,-0.163343
861882267,4.757907,-146.283691,-6.234179,1.238286,0.143612,-0.179462
861902318,-13.755625,-130.518326,-6.721601,1.025095,0.431500,-0.315088
861922369,-30.461096,-119.254242,-2.987825,0.799438,0.353848,-0.412308
861942420,-46.142868,-129.714996,-5.871765,0.830822,0.084179,-0.328259
861962471,-55.844452,-126.656387,1.601523,0.900015,-0.150992,-0.335044
861982523,-54.349976,-123.451790,12.170181,0.810506,-0.104416,-0.438554
862002574,-44.744854,-124.699409,15.028385,0.750215,-0.036438,-0.498298
862022625,-28.810818,-113.699356,10.513316,0.829222,-0.062647,-0.526245
862042676,-18.319830,-89.194862,6.620568,0.882403,0.004999,-0.658797
862062727,-9.398241,-60.261971,3.531637,0.943848,0.114952,-0.775693
862082778,-9.047188,-39.311550,3.929218,1.054449,0.131491,-0.818089
862102831,-12.448422,-16.170454,2.880562,1.120385,0.052108,-0.922310
862122882,-9.965488,2.599394,-1.588360,1.159001,-0.017612,-1.052012
862142933,-6.784825,37.992943,-10.715236,1.103856,-0.018981,-1.037573
862162984,-7.305593,66.761795,-23.948521,1.050138,0.027900,-0.792927
862183035,-27.443523,71.130981,-33.687904,0.860448,0.088787,-0.283569
862203086,-52.672985,91.682297,-9.997435,0.748989,-0.194207,-0.334979
862223137,-21.683090,119.928093,11.433782,0.641864,-0.900646,-0.882957
862243188,46.944595,109.315155,-3.006749,0.921085,-0.739549,-1.302365
862263239,75.027496,65.366165,-4.494617,1.102935,0.021645,-1.196189
862283291,47.907135,64.086861,-8.270192,0.836268,0.233411,-0.958323
862303342,15.060265,79.080757,1.686288,0.793194,0.194491,-0.807128
862323393,-6.142140,94.982315,19.457047,0.895386,0.417221,-0.513334
862343444,-3.602431,111.794891,5.574205,1.065302,0.529229,-0.457714
862363495,10.695827,186.944351,-38.071709,0.883097,0.341602,-0.385490
862383545,7.247210,234.231430,-58.749683,0.527625,0.141592,-0.064782
862403596,-9.184780,198.262070,-42.961857,0.471365,-0.093676,-0.225141
862423647,-3.969244,131.057175,-22.450813,0.409581,-0.096133,-0.337248
862443698,13.107183,80.816193,-20.722404,0.492441,-0.022319,-0.123754
862463749,11.816688,62.896797,-19.849258,0.644520,0.045172,-0.129092
862483800,-4.534709,34.156990,-10.975648,0.624436,0.239391,-0.236817
862503851,-22.170761,6.008777,-12.835429,0.619594,0.107184,-0.262405
862523903,-13.100518,-21.683569,-17.032871,0.749839,-0.178615,-0.254539
862543954,8.636411,-32.116974,-13.480317,0.806828,-0.199806,-0.245710
862564005,20.179377,-44.621716,-11.197895,0.975814,-0.067453,-0.088268
862584056,23.823090,-64.579575,-4.051654,1.075871,0.001330,0.024433
862604107,18.371887,-81.007599,1.645607,0.994077,0.046470,-0.072643
862624158,20.652122,-82.919182,0.734342,0.876643,0.002471,-0.343712
862644209,36.762463,-80.101921,-0.198061,0.871539,-0.003668,-0.480731
862664261,35.895123,-106.367661,-2.631042,1.177486,0.190143,-0.188338
862684311,24.130161,-139.143799,-5.280302,1.209601,0.122106,-0.096439
862704363,22.577076,-137.230515,5.922928,1.059639,-0.029620,-0.239161
862724414,27.172983,-129.218933,14.715619,0.847164,-0.167291,-0.393305
862744465,35.053860,-136.406052,6.946456,0.819382,-0.228589,-0.444415
862764516,45.990021,-135.542755,6.105967,0.924845,-0.172622,-0.454313
862784567,51.497414,-123.639549,5.115653,0.993529,-0.135469,-0.510150
862804620,42.623226,-104.192749,-0.609732,1.056408,-0.103181,-0.568607
862824671,30.376692,-66.898544,-5.372275,1.139844,-0.072197,-0.696340
862844722,22.626682,-39.509449,-4.865202,0.748188,-0.096469,-0.713468
862864774,19.928059,-15.889857,-1.815537,0.598285,-0.127341,-0.740076
862884825,25.317116,7.048774,4.030278,0.625368,-0.261154,-0.736608
862904876,46.388718,8.871933,-9.132874,0.619149,-0.162579,-0.735884
862924927,35.702023,49.421593,-28.890781,0.971508,0.326786,-0.980985
862944978,-7.005877,90.597229,-15.095165,1.271884,0.120411,-0.953564
862965029,-37.693413,110.743416,0.617970,1.114254,-0.120942,-1.034229
862985080,-36.272366,105.989929,-6.998158,0.738951,-0.221557,-0.972470
863005131,-12.501168,84.682137,-21.575605,0.760209,-0.214379,-0.745736
863025182,-1.060015,84.399551,-36.031708,1.016598,-0.156232,-0.593723
863045233,-1.819627,103.068909,-31.457453,1.207878,-0.023412,-0.553824
863065284,-16.609507,107.460350,-19.265284,1.012233,0.147648,-0.576277
863085334,-18.969767,107.773186,-28.549761,0.705128,0.294859,-0.654956
863105385,-10.696184,93.585815,-45.207790,0.653294,0.262162,-0.614229
863125436,-8.378124,70.316475,-54.882538,0.779951,-0.037419,-0.469629
863145487,-7.657360,83.748772,-50.442333,0.787578,-0.375434,-0.466571
863165539,-13.309218,83.342064,-33.333244,0.729617,-0.470707,-0.391263
863185590,-3.179450,67.154381,-18.971939,0.814767,-0.273835,-0.194537
863205641,15.394532,72.408669,-23.627295,0.882990,-0.168451,-0.097118
863225692,24.857254,83.895134,-34.553570,0.704521,-0.177170,-0.222613
863245743,29.769207,58.029320,-32.556263,0.445451,-0.165379,-0.356550
863265794,39.236019,23.100996,-22.965523,0.479129,-0.133097,-0.270345
863285845,47.208347,15.898552,-18.881174,0.761254,-0.213893,-0.162347
863305896,55.761055,10.341485,-21.699553,0.926364,-0.197280,-0.156824
863325947,66.413239,-8.354355,-25.087286,0.954427,-0.022663,-0.117021
863345999,75.452515,-27.096207,-31.672615,0.902123,0.124037,-0.194342
863366050,88.076172,-53.858482,-40.118721,0.767627,0.185449,-0.282620
863386101,93.534744,-80.747925,-44.469250,0.650146,0.203856,-0.343740
863406152,101.447006,-109.289185,-43.668827,0.729410,0.243600,-0.308466
863426203,108.953133,-117.051514,-55.558826,0.931953,0.216770,-0.290542
863446254,115.669052,-125.696609,-57.395813,0.928209,0.011687,-0.342544
863466305,122.090363,-148.311172,-56.645607,0.860851,-0.099977,-0.460061
863486356,124.099777,-170.755951,-48.512539,0.707319,0.011633,-0.420816
863506408,119.757797,-179.493164,-45.093113,0.724144,0.031911,-0.377488
863526460,110.591476,-165.920563,-38.262562,0.800186,-0.085735,-0.522548
863546511,102.090408,-162.260727,-22.219963,0.912550,-0.157336,-0.712780
863566562,85.374557,-138.711533,-14.625353,1.036839,-0.086952,-0.861855
863586614,68.357864,-101.252136,-14.756053,1.050544,-0.100661,-0.984656
863606665,59.880798,-51.186543,-18.290659,1.045381,-0.193033,-1.084051
863626716,60.286163,-18.638390,-17.137270,0.880169,-0.279845,-0.959433
863646767,66.737511,-11.498750,-8.887910,0.786395,-0.279088,-0.872585
863666818,83.551590,2.052492,-14.253343,0.747111,-0.169861,-1.254934
863686869,88.496414,31.508453,-28.923330,0.832700,0.078761,-1.469784
863706921,61.793312,85.415375,-26.848785,1.031048,0.145353,-1.404984
863726972,26.438778,139.234802,-8.104779,0.917532,0.182610,-1.265621
863747023,10.395505,163.572678,-0.141752,0.671450,0.363304,-0.915917
863767074,-12.210268,165.998901,-8.448734,0.577861,0.426520,-0.596217
863787125,-27.618095,181.759155,-29.703569,0.585537,0.477530,-0.562671
863807174,-57.566158,181.082581,-48.046989,0.742719,0.322065,-0.440699
863827226,-91.135445,153.408005,-35.411854,0.901674,-0.437478,-0.630363
863847277,-71.687866,151.153183,-4.003695,0.886930,-0.865484,-0.716308
863867328,-32.474682,139.086670,8.923540,0.898094,-0.494992,-0.457497
863887379,-7.889620,143.298767,-4.658338,0.893677,-0.114400,-0.220726
863907431,11.406638,125.138969,-13.833690,0.939825,0.041786,-0.099785
863927482,28.216532,115.721336,-11.427332,0.931078,0.000448,-0.111092
863947533,19.426294,115.285568,-5.238322,0.846447,-0.035920,-0.118997
863967584,-3.293868,109.710297,-3.824205,0.762506,0.057089,-0.184651
863987635,-13.678602,85.675797,2.242047,0.540918,0.164625,-0.197736
864007686,-7.464492,44.674038,6.799689,0.419353,-0.011759,-0.257904
864027737,-1.508413,15.966368,4.925996,0.587420,-0.109622,0.015620
864047788,1.631588,4.392246,2.206038,0.716968,-0.154812,0.037874
864067840,17.910486,-14.308796,4.167098,0.636674,-0.147314,-0.125193
864087891,36.550846,-46.563244,2.157185,0.666484,-0.039967,-0.209656
864107942,48.196899,-73.654144,1.556773,0.795744,0.114679,-0.222617
864127993,52.778183,-81.603958,2.620879,0.888012,0.191735,-0.293654
864148044,54.781864,-67.869202,-4.028422,1.105453,0.138278,-0.393466
864168095,62.828472,-66.862915,-9.271768,1.347212,0.209823,-0.287336
864188146,63.460766,-90.352310,-11.207050,1.295742,0.177997,-0.044852
864208197,59.525059,-101.320435,-16.420095,1.186470,0.069879,-0.027926
864228250,55.089745,-88.836639,-14.968505,1.086965,-0.038277,-0.168523
864248301,59.905842,-68.734932,-5.762814,0.988739,-0.169251,-0.329387
864268352,63.067631,-67.690826,-0.007511,0.888466,-0.214250,-0.277319
864288403,56.110092,-83.182106,6.513155,0.928252,-0.132245,-0.215911
864308454,48.732971,-72.902153,16.628540,1.039470,-0.113037,-0.255971
864328506,49.282551,-43.569214,24.197176,1.076082,-0.079868,-0.452860
864348557,61.747475,-33.350067,23.422440,1.029934,0.020513,-0.453167
864368608,65.225792,-46.426220,19.335749,0.973116,-0.023068,-0.474242
864388659,61.452408,-39.339699,16.584225,0.817994,-0.099643,-0.691851
864408710,52.136337,-11.669215,12.801188,0.736817,-0.106625,-0.914740
864428762,37.935837,4.120059,10.440170,0.754889,-0.056144,-0.990267
864448813,26.819925,11.091574,12.686148,0.824661,0.056749,-0.818671
864468864,13.448984,33.274834,15.729341,0.918024,0.200959,-0.659085
864488915,-2.156577,72.382462,8.286353,0.972798,0.261989,-0.624595
864508969,-14.943879,98.943977,0.809821,0.907990,0.120466,-0.586881
864529015,-28.001564,104.776642,-3.336237,0.814625,-0.032056,-0.462083
864549067,-49.089390,85.642548,2.383403,0.810927,-0.059954,-0.314917
864569118,-87.247414,71.473915,9.016542,1.007451,-0.226354,-0.584615
864589169,-96.246269,82.408524,9.110857,1.088965,-0.453273,-0.722191
864609220,-82.218948,92.500572,28.579405,1.279969,-0.608481,-0.491557
864629271,-52.558517,99.942429,44.989716,1.273626,-0.493809,-0.151203
864649322,-31.320259,105.022614,37.666233,1.149443,-0.338824,0.007443
864669374,-33.919353,118.980240,32.601780,1.094419,-0.137318,-0.099978
864689425,-44.617157,124.639542,40.581829,0.967964,-0.056287,-0.138803
864709476,-40.968155,126.976517,43.801132,0.918472,-0.091130,-0.185465
864729527,-21.914513,113.795181,39.391033,0.902616,-0.117587,-0.126742
864749578,-2.596613,97.381821,30.247549,0.933500,-0.212584,-0.122424
864769629,-5.247544,77.930443,24.388763,0.879827,-0.347912,-0.027718
864789680,-6.275758,50.574539,33.373501,0.923287,-0.279365,0.160109
864809731,-9.272030,55.672485,49.045425,0.976623,-0.157865,0.191982
864829783,1.860017,53.159863,55.560516,0.788736,-0.246835,-0.106331
864849834,12.585838,12.357799,54.636299,0.663016,-0.413658,-0.209082
864869885,7.504391,7.101728,54.678925,0.785232,-0.224443,-0.281750
864889936,0.157204,18.857203,53.223728,0.910121,0.060225,-0.236081
864909987,-13.619603,32.515316,41.183994,0.980087,0.103015,-0.093755
864930038,-31.217739,41.027512,33.286289,1.004625,0.145019,0.147231
864950091,-44.089668,38.894314,28.614351,0.968127,0.301784,0.027735
864970142,-39.399132,25.417019,12.697865,0.819618,0.174729,-0.079727
864990193,-36.520786,19.937838,-6.701550,0.727001,0.029454,-0.148229
865010244,-42.828812,12.419847,-13.706708,0.729481,-0.015086,-0.066990
865030295,-53.243748,11.205803,-7.658450,0.790672,-0.087905,-0.002822
865050346,-74.418114,13.556892,1.829718,0.782542,-0.061900,0.095702
865070397,-89.401749,0.139806,8.505206,0.934558,0.060516,-0.066048
865090448,-88.632179,-10.208216,1.651322,1.024324,0.101349,0.012277
865110510,-105.735931,-16.088621,-7.743070,1.092356,0.000311,0.058825
865130551,-112.426559,-25.572855,-7.169941,1.093971,-0.065703,-0.028194
865150602,-108.237091,-31.776619,-8.104979,1.075698,-0.011687,-0.079480
865170653,-109.897125,-33.187786,-11.040171,0.976284,0.063788,-0.187393
865190704,-122.432999,-50.745678,-15.787918,0.842544,0.069452,-0.190134
865210755,-137.490112,-69.538109,-17.476206,0.856931,0.056833,-0.134174
865230807,-146.820862,-68.863380,-16.383894,0.970598,0.008077,-0.200422
865250856,-136.221146,-80.194801,-13.665610,0.920409,-0.046178,-0.289489
865270907,-127.524536,-90.244789,-10.428126,0.841291,-0.011959,-0.324346
865290958,-146.974091,-101.135452,-6.586730,0.907731,0.071065,-0.284847
865311010,-165.853943,-96.382195,5.825413,1.095105,0.082499,-0.295556
865331061,-177.372208,-89.419792,10.640829,1.135009,0.062595,-0.327761
865351114,-181.748459,-93.333786,12.088271,1.194429,0.082362,-0.365286
865371163,-188.142502,-96.997063,19.234930,1.162272,0.186597,-0.499230
865391214,-194.071503,-94.540474,26.049603,1.095099,0.283445,-0.565810
865411265,-202.123810,-87.869629,36.382294,1.075141,0.279916,-0.580906
865431316,-210.485718,-73.858795,49.236328,1.019775,0.278086,-0.637172
865451367,-212.034241,-51.613338,54.685280,0.994237,0.300737,-0.739860
865471419,-194.698853,-27.319244,53.655701,0.954132,0.330069,-0.709129
865491470,-183.059357,-0.713224,51.953209,0.967216,0.342668,-0.630203
865511521,-183.919373,22.394657,51.426727,0.903460,0.359737,-0.493435
865531572,-210.947052,54.701374,49.975811,0.997348,0.282411,-0.514868
865551623,-220.521622,67.570312,65.979469,0.953380,-0.219047,-0.944077
865571674,-187.609253,44.050808,61.926037,0.814685,-0.352108,-0.887717
865591725,-136.944687,19.469790,50.556355,0.886291,-0.064874,-0.742756
865611777,-87.229202,14.514814,41.582535,1.045748,0.153810,-0.480409
865631828,-67.222847,17.960306,39.926601,1.079349,0.225615,-0.291871
865651879,-59.469749,41.702087,45.480827,1.061670,0.263050,-0.327330
865691982,-50.338062,59.387810,59.528706,0.905747,0.389436,-0.245375
865712034,-54.852280,51.879932,59.450050,0.828289,0.374203,-0.212121
865732085,-56.840412,46.242939,62.077332,0.869402,0.322720,-0.248133
865752136,-61.037460,25.909603,67.181290,0.813947,0.273454,-0.234686
865772187,-63.606468,-4.001437,73.484840,0.772184,0.131129,-0.193073
865792238,-45.408218,-32.354759,78.949661,0.823315,0.042471,-0.193321
865812290,-15.883962,-1.807621,58.969616,1.019679,0.240598,-0.462149
865832341,1.379910,46.939716,29.328606,1.119990,0.547534,-0.527065
865852392,-11.585386,57.839520,20.845047,0.920953,0.530299,-0.436846
865872443,-32.115650,32.139717,23.775322,0.776751,0.440906,-0.318139
865892494,-60.478058,20.312704,23.234852,0.714740,0.199613,-0.396491
865912545,-80.079590,5.292621,26.112843,0.647599,-0.059569,-0.275363
865932596,-92.256126,-8.259676,33.712444,0.679415,-0.267302,-0.187029
865952646,-99.985573,-22.207458,41.402802,0.776019,-0.345544,-0.158265
865972697,-116.991341,-28.817879,66.426933,1.022271,0.141014,-0.341556
865992748,-118.516144,-6.428678,80.151604,0.801025,0.228585,-0.698133
866012799,-78.751472,-17.995874,61.116459,0.774980,-0.165995,-0.770185
866032850,-30.074970,-33.239525,46.933819,0.911837,-0.508046,-0.649196
866052902,-1.617363,-50.151924,57.410782,0.958415,-0.447438,-0.445077
866072953,13.202621,-51.472240,54.204239,0.759999,-0.100606,-0.424778
866093004,21.589073,-40.547543,39.604485,0.740102,-0.037287,-0.390298
866113055,13.633149,-36.241867,28.837891,0.995203,0.052964,-0.267839
866133106,-10.120477,-11.174798,29.252462,1.140582,0.104003,-0.272671
866153157,-27.252134,9.620387,35.166599,1.066875,-0.036599,-0.443520
866173209,-28.933123,19.043041,37.105247,0.937802,-0.295833,-0.565674
866193260,-29.282784,20.880142,42.237576,0.891245,-0.389172,-0.586099
866213311,-30.152376,11.659596,46.066708,0.945836,-0.338076,-0.515414
866233362,-26.896160,15.906767,38.456818,1.081196,-0.360376,-0.500836
866253413,-18.937527,26.775753,33.467518,1.010999,-0.363842,-0.452579
866273464,-8.345769,34.412479,32.035389,0.885419,-0.477922,-0.341270
866293515,1.915627,51.454224,22.385693,0.999649,-0.498616,-0.408566
866313566,20.390543,59.003239,7.377192,0.983901,-0.445198,-0.470370
866333617,40.861595,44.714027,-4.396333,0.844035,-0.374097,-0.502631
866353668,55.773544,20.147675,-4.127428,0.745446,-0.378215,-0.540636
866373720,58.062199,-12.153735,9.299303,0.734214,-0.249030,-0.539757
866393772,47.660797,-21.604168,14.239096,0.763229,-0.002704,-0.402622
866413823,35.209641,-14.700050,0.054594,0.695778,0.054593,-0.324239
866433874,18.499611,-16.197542,-8.157564,0.687156,-0.060159,-0.335787
866453925,2.408396,-8.908821,-10.617470,0.707711,-0.087893,-0.500276
866473977,-13.234296,-5.046161,-15.081730,0.633036,-0.043399,-0.567211
866494028,-37.994728,-16.103737,-17.717909,0.631188,-0.161601,-0.426258
866514079,-71.375954,-30.495504,-9.297038,0.848698,-0.294375,-0.296032
866534130,-89.836349,-35.901871,4.779442,1.144781,-0.162788,-0.327083
866554181,-96.347855,-32.580757,14.441028,1.112284,-0.024235,-0.373360
866574232,-110.633301,-25.348549,14.375634,0.898531,0.026905,-0.481711
866594283,-129.962265,-18.036688,12.917205,0.914927,0.034691,-0.607560
866614335,-147.425476,-10.445133,16.527481,1.009689,0.020184,-0.607356
866634386,-160.434158,8.096260,21.932575,1.056079,0.016448,-0.634431
866654437,-169.629623,33.921749,25.173965,1.037730,0.005936,-0.687153
866674487,-169.111237,50.711887,27.791304,0.975374,-0.033238,-0.621068
866694538,-159.737854,51.825691,27.359756,0.894006,-0.013847,-0.529168
866714589,-158.061844,50.401154,23.665548,0.842111,0.173371,-0.478989
866734640,-172.628662,48.700325,23.077774,0.999385,0.117810,-0.500225
866754691,-182.018936,52.906303,31.585316,1.146280,-0.206307,-0.576410
866814845,-111.273468,44.096542,57.473042,0.907052,-0.048415,-0.342543
866834896,-106.499023,51.688721,59.802261,0.954514,0.167418,-0.288811
866854947,-114.897156,63.285057,55.884819,0.942681,0.342859,-0.255208
866874998,-128.205368,70.827866,51.119061,0.862922,0.315940,-0.321353
866895049,-136.582504,75.519180,46.528137,0.744343,0.195824,-0.296992
866915100,-138.652176,71.972168,47.200451,0.714330,0.106452,-0.264633
866935152,-134.837646,59.014744,48.319981,0.767270,0.045337,-0.245101
866955202,-129.038300,46.836021,45.684544,0.864331,0.094003,-0.217620
866975254,-119.926254,35.728470,43.339836,0.919352,0.162496,-0.182305
866995305,-117.873634,8.772958,40.461048,0.860034,0.112428,-0.224680
867015356,-118.043823,-10.315645,34.183296,0.812568,0.104517,-0.179483
867035407,-126.564224,-15.549309,36.515896,0.856287,0.161404,-0.185466
867055458,-127.029770,-19.947100,36.652477,0.852050,0.046664,-0.260693
867075509,-113.603203,-29.643452,32.118656,0.799794,-0.134525,-0.369118
867095560,-102.541946,-42.748856,21.587296,0.775652,-0.194495,-0.295524
867115613,-103.026825,-48.928421,14.924120,0.932532,-0.185181,-0.188639
867135664,-111.344803,-47.907398,24.086472,1.388424,-0.147252,-0.141131
867155715,-117.410156,-48.966805,40.455215,1.451396,-0.066275,-0.053282
867175766,-119.069359,-54.178165,41.625759,1.008936,0.005803,-0.129870
867195817,-118.515091,-55.306808,35.467758,0.808360,-0.008603,-0.198289
867215869,-117.416168,-53.911724,31.657928,0.837368,-0.103824,-0.215794
867235920,-110.745346,-60.327652,28.229279,0.847302,-0.098833,-0.217781
867255971,-96.479546,-65.089096,19.282360,0.853391,-0.029502,-0.218177
867276022,-83.963219,-64.274834,7.883999,0.895716,0.045850,-0.228837
867296073,-78.303482,-66.111305,0.968758,0.914664,0.147589,-0.245967
867316124,-74.092621,-64.842865,-2.076249,0.914567,0.153039,-0.309922
867336175,-67.119583,-63.153229,-2.607461,0.933946,0.134356,-0.387184
867356226,-59.012161,-71.163628,0.827834,0.922025,0.103720,-0.437718
867376278,-50.256004,-81.356293,7.840110,0.949328,0.072250,-0.476241
867396329,-39.731266,-81.229973,14.513050,0.958226,0.085036,-0.492140
867416378,-31.822306,-86.387367,21.508274,0.957445,0.172850,-0.527061
867436430,-25.109205,-72.410744,24.201344,1.041826,0.212382,-0.571363
867456481,-15.195515,-30.888216,25.275005,1.162955,0.122909,-0.646085
867476532,-3.687786,7.326518,22.660973,1.143724,0.071735,-0.823581
867496583,-5.962741,27.086618,16.439566,1.030311,0.136479,-0.808593
867516634,-11.617915,29.380850,17.722065,1.005608,0.081220,-0.812491
867536686,-10.795325,52.704704,19.589199,0.889516,-0.020770,-0.817223
867556737,-15.590331,72.686157,10.169591,0.736807,-0.031349,-0.981685
867576788,-14.747361,67.275131,9.596784,0.742325,-0.189036,-0.973368
867596839,8.292920,67.351295,9.823400,0.786003,-0.358409,-0.719439
867616890,32.252403,73.822601,13.150191,0.894399,-0.296924,-0.501531
867636941,42.754662,96.720245,22.821732,0.980395,-0.187654,-0.529634
867657007,43.041897,119.975052,34.701096,0.869534,-0.084718,-0.595866
867677044,41.529308,129.640060,38.768536,0.722561,0.017573,-0.644352
867697095,46.560375,122.298935,38.382805,0.672655,-0.025191,-0.538785
867717146,47.284019,108.235229,41.826385,0.683336,-0.083436,-0.278924
867737197,40.998848,90.713440,54.280560,0.794258,0.077406,-0.121678
867757248,46.983356,69.955437,52.553776,0.920786,0.337115,-0.234120
867777299,44.700001,65.345497,19.920315,1.053444,0.467049,-0.394459
867797350,16.876089,89.014755,-16.310707,1.242375,0.511385,-0.391815
867817401,-3.227164,84.267250,-30.717644,1.253976,0.448556,-0.224414
867837452,-4.631144,54.460903,-36.639713,1.056086,0.326262,-0.168417
867857505,2.147622,74.167099,-49.920116,0.870640,0.063114,0.043439
867877556,-13.029634,75.599648,-38.225410,0.711922,-0.262649,-0.011809
867897607,-28.061995,49.400356,-14.384992,0.572268,-0.310955,-0.269262
867917658,-27.713438,16.371700,0.090821,0.501306,-0.206643,-0.206535
867937709,-25.337843,-5.858759,4.532071,0.633939,-0.003034,-0.041723
867957761,-31.911488,-18.884792,7.936736,0.706376,0.093207,-0.083131
867977812,-40.422825,-43.452831,11.738063,0.745184,0.019818,-0.119451
867997863,-47.564034,-63.160702,17.947430,0.788050,-0.036944,-0.156389
868017914,-50.187721,-74.378815,21.041325,0.810717,-0.096269,-0.229885
868037965,-52.273548,-83.933434,18.937714,0.754018,-0.092527,-0.232693
868058016,-52.846252,-89.125389,20.850542,0.908057,-0.184515,-0.259438
868078068,-56.866589,-86.647820,25.413523,1.157382,-0.453252,-0.201029
868098118,-58.810322,-105.119019,35.717026,1.267860,-0.339546,-0.099953
868118169,-59.328655,-124.864258,44.766308,0.998989,-0.100460,-0.215051
868138244,-58.617413,-139.616684,36.586147,0.843868,0.030649,-0.318641
868158270,-59.288490,-133.520859,19.270195,0.910471,0.204799,-0.336816
868178322,-70.911621,-125.243469,20.860060,0.985344,0.066595,-0.381127
868198373,-75.831802,-125.883461,29.162949,0.935757,-0.038054,-0.423347
868218424,-71.547256,-124.676071,27.186758,0.867886,-0.092562,-0.450826
868238475,-64.671600,-120.670067,24.502754,0.856992,-0.052409,-0.494266
868258526,-56.764797,-104.144096,25.731462,0.880729,0.022929,-0.522144
868278577,-50.161430,-91.449951,26.223515,0.948976,0.069327,-0.585907
868298628,-47.062790,-90.970367,28.024567,0.938845,0.026636,-0.609115
868318680,-47.016048,-90.537735,26.764954,0.906415,-0.014764,-0.608320
868338731,-46.313972,-80.512131,24.357948,0.884381,0.051041,-0.692579
868358782,-44.559765,-77.701340,26.431860,0.811951,0.095931,-0.738418
868378833,-40.483513,-74.381577,27.358786,0.826483,0.029073,-0.835606
868398884,-37.990211,-65.598801,23.454802,0.858416,-0.012358,-0.974771
868418935,-29.831419,-42.860569,21.183273,0.902037,-0.057477,-0.959762
868438987,-25.814075,-3.186558,21.765156,0.893282,0.009662,-0.837271
868459038,-42.871792,23.133823,17.777271,0.829353,0.159510,-0.659507
868479089,-77.845978,43.964634,17.778370,0.779845,0.008230,-0.862961
868499140,-85.269035,74.738838,11.839128,0.751141,-0.443792,-1.121407
868519191,-43.050186,94.425186,-4.000142,0.815213,-0.574636,-1.208687
868539242,34.656952,98.699905,-34.941490,0.765108,-0.648934,-1.084397
868559293,100.759003,83.901985,-56.657677,0.851771,-0.717880,-0.981830
868579346,119.507545,64.149933,-30.244141,0.882879,-0.195736,-0.904039
868599397,78.477715,68.300362,-5.059201,0.949870,0.442459,-1.002290
868619448,42.059345,105.773689,6.230756,0.940679,0.540192,-1.053927
868639499,29.972374,141.480133,-1.262376,0.694693,0.404712,-0.889148
868659550,23.090128,159.427856,-17.972782,0.624736,0.199212,-0.532179
868679601,12.068672,166.475204,-23.018055,0.762951,0.164543,-0.423100
868699653,14.756878,183.961380,-33.788319,0.625395,0.149148,-0.417444
868719704,34.381695,183.365997,-50.936741,0.479468,0.132796,-0.305320
868739764,31.362654,174.093964,-51.813206,0.471246,-0.036861,-0.140004
868759806,19.604187,143.962509,-32.485027,0.559876,-0.119349,-0.101886
868779857,13.726151,114.849098,-16.709364,0.678720,-0.115679,-0.175247
868799908,3.170830,101.150406,-14.710673,0.716160,0.030350,-0.243290
868819959,-11.163518,71.419327,-9.798146,0.675926,0.041238,-0.212528
868840010,-20.922915,21.933249,-11.003578,0.727866,-0.237385,-0.224658
868860060,-9.623829,-13.258265,-14.872802,0.673490,-0.315905,-0.147429
868880111,4.929117,-26.111528,-13.188972,0.639464,-0.230196,-0.139937
868900162,21.950497,-43.400501,-15.583363,0.747491,-0.086999,-0.226351
868920213,32.168251,-55.926655,-18.901255,0.850871,0.019764,-0.248211
868940265,22.999777,-65.683281,-19.220634,0.991751,0.055764,-0.255718
868960316,13.150579,-88.607460,-13.400925,1.081300,0.053930,-0.181263
868980367,9.898972,-102.125984,-13.269835,1.139179,0.133023,-0.110152
869000418,21.446520,-106.078163,-23.484272,1.077655,0.097276,-0.109901
869020469,36.032536,-110.879906,-35.523376,1.067990,-0.132528,-0.212645
869040520,45.533428,-112.197823,-30.474577,1.016170,-0.315153,-0.332684
869060571,63.516193,-115.768250,-27.831091,0.846932,-0.347437,-0.372591
869080622,74.865356,-136.262039,-35.328247,0.679157,-0.217995,-0.323111
869100674,76.315651,-149.556915,-40.686741,0.786637,-0.041855,-0.348199
869120725,69.567398,-150.688919,-39.846790,0.852578,0.025956,-0.464667
869140776,64.233147,-151.792740,-32.428902,0.845282,-0.007188,-0.494236
869160827,59.141834,-146.714752,-24.926291,0.891946,-0.130874,-0.554730
869180878,53.738247,-127.721512,-14.773409,0.942949,-0.229280,-0.652657
869200929,41.763626,-104.308212,-3.564826,0.733807,-0.137001,-0.743911
869220981,22.824356,-87.167374,-1.002519,0.743044,-0.098662,-0.892431
869241032,20.165049,-74.396973,1.910201,0.703571,-0.175479,-1.087405
869261083,36.556587,-61.720303,2.724781,0.732868,-0.216621,-1.103626
869281134,55.288670,-13.247962,3.619828,0.843621,-0.140026,-1.139626
869301187,53.698704,38.594574,0.243423,0.937659,0.111488,-1.133327
869321238,31.142088,72.974030,-3.391360,0.944455,0.224501,-1.167124
869341289,3.650118,106.803932,-10.781684,0.754937,0.251315,-1.105159
869361340,-15.416758,129.563614,-13.922914,0.598573,0.377083,-1.041014
869381391,-27.893705,141.051865,-15.117710,0.694445,0.286376,-0.834521
869401442,-43.585876,137.857025,-31.054913,0.959218,0.004817,-0.683425
869421493,-47.655460,140.126175,-36.556049,1.025082,-0.508787,-0.776259
869441544,-24.873428,136.895447,-21.213085,0.837914,-0.644481,-0.769745
869461596,-0.576961,135.509018,-12.296382,0.772223,-0.395599,-0.636310
869481647,5.634372,144.055740,-8.174739,0.838407,-0.133842,-0.486820
869501698,4.029004,149.224823,-6.661039,0.829933,-0.051683,-0.419850
869521749,3.132308,153.755585,-7.168969,0.771929,-0.060530,-0.349360
869541800,2.518992,143.609390,-3.518630,0.743656,-0.022488,-0.257480
869561851,1.560204,136.295319,-4.235829,0.767193,0.035305,-0.164644
869581901,-12.848518,129.516418,-12.044066,0.801104,0.013218,-0.106618
869601952,-15.733057,112.201843,-11.119393,0.728209,0.027957,-0.151475
869642054,-17.022938,47.089378,1.277232,0.511054,-0.071304,-0.101970
869662105,-11.964321,23.521452,3.941096,0.649599,-0.110079,-0.109173
869682157,3.751540,5.727830,-4.855315,0.697778,-0.023925,-0.159724
869702208,11.045728,-25.381386,-13.299737,0.713965,0.137540,-0.186835
869722259,11.938049,-48.407146,-16.616077,0.757256,0.197956,-0.168232
869742310,17.982096,-58.862514,-17.105116,0.855546,0.084992,-0.191858
869762361,38.719032,-66.670425,-23.489691,1.018419,-0.109439,-0.165822
869782412,56.499489,-75.783051,-35.037586,1.120675,-0.092335,-0.122489
869802463,58.161629,-97.768173,-31.877773,1.058026,0.161521,-0.106149
869822514,58.804962,-104.143684,-29.900660,1.026616,0.183648,-0.155342
869842565,63.757614,-114.929016,-28.622282,1.004365,-0.014529,-0.210827
869862617,72.271118,-130.708145,-19.999088,0.958595,-0.121368,-0.203189
869882668,73.386902,-142.971954,-15.659950,0.931673,-0.066493,-0.148121
869902719,69.609848,-145.841934,-15.406212,0.840770,-0.002097,-0.224945
869922770,69.487625,-144.653198,-14.584160,0.786059,-0.000374,-0.363679
869942821,68.485497,-147.669373,-12.708992,0.762137,-0.045976,-0.474473
869962872,67.127899,-149.823853,-7.471611,0.824991,-0.169396,-0.544307
869982924,64.593941,-148.136612,-2.171267,0.880489,-0.209049,-0.536456
870002975,58.025272,-130.049377,3.991031,0.955493,-0.173063,-0.643403
870023027,49.041737,-110.255791,7.571450,0.820501,-0.141625,-0.865210
870043078,46.626270,-104.712685,6.651299,0.690145,-0.091106,-0.985414
870063129,52.530510,-92.191216,12.957252,0.726261,-0.135608,-1.136692
870083181,66.657990,-59.088482,22.766674,0.741912,-0.169050,-1.146010
870103232,76.385445,-19.743994,20.566216,0.809748,-0.204044,-1.068054
870123283,61.790630,23.813322,11.030906,0.835011,-0.054005,-0.973637
870143334,23.400200,61.234894,7.815606,0.824793,0.062318,-1.014863
870163386,-22.134857,101.692101,9.404985,0.823974,0.185082,-1.154071
870183443,-47.389805,151.112381,7.606479,0.833944,0.150674,-1.204861
870203487,-46.854168,168.896393,-16.230177,0.753827,-0.080235,-1.061340
870223538,-23.139315,154.607803,-49.203182,0.871736,-0.392524,-0.895479
870243590,-1.686130,146.247803,-54.797897,0.902621,-0.586912,-0.794946
870263641,10.593966,145.635315,-45.523441,0.797751,-0.508336,-0.766970
870283692,10.250828,140.812607,-35.904167,0.766328,-0.264407,-0.629327
870303742,2.627914,125.163292,-24.888397,0.818577,-0.101049,-0.433083
870323793,-6.199297,121.942444,-13.702825,0.802681,-0.086564,-0.325665
870343844,-9.743292,137.433136,-9.488009,0.730176,-0.111464,-0.308441
870363895,-13.504817,157.811569,-16.036922,0.691278,-0.076818,-0.159794
870383946,-18.545862,152.973907,-20.687122,0.766802,-0.027848,-0.082119
870403997,-21.538990,137.549469,-19.685556,0.864259,0.009207,-0.194009
870444100,-13.119884,74.860481,-19.419437,0.559393,-0.132288,-0.168358
870464151,-0.225088,41.204178,-16.291553,0.581767,-0.300394,-0.122265
870484202,15.521765,19.820568,-9.417479,0.700121,-0.282026,-0.088375
870504253,22.713083,-0.576518,-4.559810,0.717880,-0.051541,-0.060380
870524304,23.385292,-28.876499,-9.722324,0.668813,0.160857,-0.163068
870544355,32.672554,-51.338928,-22.646088,0.657036,0.195486,-0.224172
870564407,39.481876,-76.507111,-28.715860,0.769609,0.179674,-0.229008
870584458,41.209942,-98.241631,-28.004940,0.920495,0.108044,-0.210113
870604509,41.874153,-105.905319,-31.654558,0.991424,0.029394,-0.186888
870624560,48.638123,-111.447655,-37.488781,1.007593,0.030474,-0.177334
870644611,58.455643,-111.011955,-43.549309,1.035285,-0.014099,-0.306768
870664662,70.973938,-123.693176,-35.385349,0.943416,-0.099049,-0.330884
870684713,72.462242,-134.420349,-24.958158,0.951082,-0.093331,-0.319717
870704765,67.661484,-132.545471,-17.664404,1.011220,-0.014225,-0.369375
870724816,68.146935,-128.961716,-12.106388,1.072880,-0.034442,-0.426961
870744868,66.533165,-114.147858,-11.262552,1.131024,-0.073438,-0.481991
870764919,58.082226,-94.841263,-9.605697,1.112059,-0.050573,-0.570639
870784971,52.854546,-72.136833,-6.999151,1.088368,-0.060619,-0.692022
870805022,49.413837,-50.237404,-5.080142,1.054449,-0.099940,-0.749246
870825073,45.162014,-24.699982,0.312936,1.069559,-0.128573,-0.637565
870845124,40.961868,-6.465093,-0.218323,0.867865,-0.107930,-0.579523
870865175,37.359905,20.014463,2.230644,0.647182,-0.115544,-0.735867
870885227,48.273804,38.170906,6.067422,0.422379,-0.060376,-0.936227
870905277,51.011257,32.474632,0.462505,0.513379,0.011785,-1.006307
870925329,43.226166,42.018032,-6.979874,0.882975,0.260288,-0.883687
870945379,18.178192,71.700928,-18.388771,1.009080,0.331908,-0.799099
870965431,-14.719145,90.119339,-31.021788,0.861798,0.173419,-0.695882
870985482,-37.349586,92.440659,-29.513649,0.725729,-0.020206,-0.637258
871005533,-38.573017,87.001839,-16.776989,0.806469,-0.291166,-0.543029
871025583,-24.704245,82.426895,-1.896166,1.038226,-0.402398,-0.459120
871045634,-11.107095,85.913094,2.293382,1.190328,-0.246352,-0.434673
871065685,-7.017952,94.866585,-3.870279,1.184975,-0.037071,-0.450220
871085736,-6.999806,100.832497,-13.652540,1.054251,0.012194,-0.460533
871105787,-6.642032,93.074127,-16.354355,0.936759,-0.042240,-0.436742
871125839,1.317408,85.127373,-14.700285,0.881926,-0.053196,-0.361752
