Timestamp (us),Gyroscope X (deg/s),Gyroscope Y (deg/s),Gyroscope Z (deg/s),Accelerometer X (g),Accelerometer Y (g),Accelerometer Z (g)
7535327764,4.703400,2.670433,-1.033747,0.873736,0.237136,0.402195
7535347725,7.545917,3.135145,0.098185,0.876779,0.235329,0.398911
7535367686,9.262903,2.361347,-0.008826,0.871941,0.256491,0.400479
7535387649,8.075130,1.176975,-0.898942,0.883499,0.274730,0.400210
7535407610,5.838961,1.107548,-1.156679,0.885620,0.276151,0.399406
7535427571,3.691177,1.313410,-0.526574,0.875799,0.274225,0.397528
7535447532,1.327327,0.363265,-0.267336,0.867229,0.263497,0.397546
7535467493,-0.381847,-0.825286,-0.286387,0.859660,0.247708,0.400307
7535487454,-1.293747,-2.168016,-0.074890,0.874663,0.241602,0.403687
7535507415,-1.242595,-2.677692,-0.066370,0.884043,0.233795,0.404807
7535527376,-1.476074,-3.040327,0.753057,0.883725,0.235304,0.408327
7535547337,-1.183444,-2.871820,1.808700,0.888220,0.227965,0.413174
7535567298,-0.117503,-2.608877,1.895313,0.888163,0.214899,0.414753
7535587259,2.285335,-3.133916,1.782608,0.899833,0.212017,0.412374
7535607218,4.362288,-2.508072,2.410868,0.895560,0.212616,0.406822
7535627179,4.731571,-2.218162,3.451405,0.868910,0.215626,0.401093
7535647140,4.340822,-3.499889,4.567672,0.856742,0.216650,0.394115
7535667102,2.664041,-5.371712,5.179671,0.873194,0.214054,0.383622
7535687062,-0.020519,-5.726073,6.218668,0.890215,0.212394,0.394070
7535707023,-4.578187,-4.755840,8.721841,0.899831,0.210849,0.400919
7535726985,-6.106693,-1.193438,11.701693,0.875915,0.155795,0.417227
7535746945,-5.120203,-1.485766,15.371076,0.863866,0.152165,0.427811
7535766906,-0.627058,0.661865,16.452822,0.884103,0.143837,0.438335
7535786867,-0.570577,4.688001,14.329546,0.879529,0.153514,0.450386
7535806829,-1.483547,6.276409,12.381266,0.889265,0.138687,0.431684
7535826790,4.154854,6.746772,9.439323,0.886529,0.112955,0.423041
7535846751,12.078286,6.545114,8.729637,0.893858,0.119014,0.407413
7535866712,18.241623,7.851035,9.894054,0.871750,0.162072,0.408397
7535886673,15.980406,6.181902,12.036880,0.860169,0.238972,0.424955
7535906634,10.263836,6.467813,12.768913,0.888754,0.234008,0.422738
7535926595,3.464130,8.042544,13.563745,0.899611,0.222021,0.431238
7535946557,1.456275,9.241302,12.758429,0.909020,0.204060,0.446730
7535966518,2.011408,10.429038,10.549971,0.888442,0.205292,0.441779
7535986479,5.862579,10.458604,8.688068,0.876891,0.191642,0.438786
7536006441,11.262829,9.852270,6.953668,0.862583,0.179142,0.437908
7536026401,14.857903,9.401518,4.089834,0.850585,0.209055,0.442298
7536046362,16.476295,7.298863,1.054971,0.844427,0.213304,0.442571
7536066323,16.608236,5.092114,-3.153418,0.842364,0.222038,0.429186
7536086284,17.400648,1.096924,-6.954712,0.832368,0.247303,0.409283
7536106245,18.556993,-2.018471,-11.355683,0.865965,0.267097,0.387994
7536126206,16.455978,0.976887,-15.161808,0.947437,0.283081,0.382487
7536146167,12.183167,9.074129,-15.377766,1.009399,0.296321,0.393151
7536166142,6.190203,15.815887,-11.681245,0.965692,0.324336,0.419391
7536186088,-1.863646,15.423325,-7.927747,0.883068,0.363852,0.421235
7536206049,-10.160186,11.195611,-9.443959,0.847836,0.346441,0.405393
7536226010,-14.482305,7.869165,-14.044865,0.833313,0.234146,0.405327
7536245971,-9.582071,5.087906,-16.529018,0.828172,0.147791,0.414206
7536265931,1.565656,0.955709,-15.309646,0.836154,0.149316,0.406040
7536285892,9.671265,-4.135847,-11.935910,0.838136,0.216938,0.406881
7536305853,9.588919,-6.217791,-7.409781,0.832117,0.281883,0.405434
7536325814,2.437182,-5.887973,-2.273109,0.823022,0.287569,0.402442
7536345776,-5.601593,-6.196715,1.586565,0.837089,0.251425,0.396098
7536365736,-8.484283,-6.752633,4.181038,0.863013,0.222449,0.403514
7536385697,-7.505276,-6.758865,6.407980,0.886582,0.227398,0.429180
7536405658,-6.255082,-6.680943,9.311150,0.897011,0.237936,0.448595
7536425620,-4.519635,-6.744323,10.796915,0.895312,0.239267,0.463841
7536445580,-3.260397,-6.235329,8.758764,0.892536,0.243173,0.474107
7536465541,-2.872013,-5.142155,4.652543,0.890920,0.240500,0.476671
7536485502,-1.537929,-3.222540,0.806251,0.881357,0.229603,0.470664
7536505465,-0.353164,-0.210869,-1.023383,0.875947,0.218327,0.466560
7536525426,-0.220305,2.450299,-1.087636,0.873077,0.204755,0.456349
7536545387,-0.094056,4.040195,-0.656999,0.863300,0.194644,0.441765
7536565348,0.028415,4.549930,-0.361369,0.869567,0.187203,0.422242
7536585309,-0.754653,3.877462,0.562957,0.881250,0.180357,0.422295
7536605270,-2.180832,3.208807,2.357933,0.885150,0.184363,0.425488
7536625231,-4.126215,2.710219,4.697378,0.878660,0.198394,0.429328
7536645192,-5.040706,2.267651,6.281204,0.883351,0.207101,0.431366
7536665153,-6.210015,3.085486,6.465854,0.900485,0.212409,0.433505
7536685114,-6.508713,4.805743,6.758282,0.897138,0.213800,0.432966
7536705075,-6.549284,5.865989,8.259266,0.890614,0.218307,0.444428
7536725052,-8.625530,6.466434,8.570263,0.874082,0.221833,0.443885
7536744996,-12.333904,5.230070,8.074134,0.867740,0.215432,0.449246
7536764957,-14.733027,5.105857,6.791370,0.893707,0.192754,0.452189
7536784918,-16.194733,8.791548,6.910051,0.893511,0.144597,0.453429
7536804879,-13.200285,9.864522,11.980481,0.874444,0.103252,0.459676
7536824840,-4.930582,7.944131,15.570113,0.846173,0.116528,0.458575
7536844801,0.324208,8.630448,13.514544,0.841118,0.152696,0.454248
7536864762,-2.655211,11.534451,12.035602,0.852812,0.145736,0.459038
7536884723,-8.729321,11.993319,11.233132,0.838548,0.104902,0.472467
7536904684,-8.574122,12.727110,9.555289,0.873135,0.094922,0.473447
7536924644,-3.666214,13.485093,8.545805,0.883653,0.097693,0.477693
7536944606,-2.212466,10.188137,8.851522,0.853283,0.117044,0.480279
7536964567,-6.212785,9.212132,12.543395,0.826360,0.133976,0.487795
7536984528,-11.318186,6.202884,13.138173,0.796605,0.130360,0.511622
7537004489,-12.822956,4.710250,9.735376,0.753910,0.079998,0.537161
7537024450,-10.527502,1.725109,7.614798,0.724795,0.016756,0.549410
7537044411,-4.120412,-0.756344,5.340088,0.728712,0.005281,0.532004
7537064373,0.148031,-2.315633,0.658679,0.745684,0.022601,0.528753
7537084334,4.395747,-7.061246,-3.987679,0.768789,0.067290,0.511598
7537104295,11.616670,-7.346743,-5.898690,0.842618,0.166242,0.486563
7537124256,17.357582,-4.971927,-14.611091,0.922538,0.342846,0.554525
7537144217,18.801798,-6.202447,-30.413218,1.060081,0.545997,0.638680
7537164178,17.483372,10.320883,-48.618912,1.148604,0.413302,0.640656
7537184139,26.012527,22.984875,-45.535938,1.093590,0.110362,0.597713
7537204100,47.521580,28.803514,-44.972656,0.998223,0.047484,0.525601
7537244022,45.897449,39.750660,-49.487320,0.799775,0.277468,0.447439
7537263983,30.072947,31.399372,-37.406834,0.829841,0.304966,0.390991
7537283944,32.799721,34.834774,-41.622673,0.938911,0.399828,0.347363
7537303904,35.759666,33.041706,-54.922039,0.819737,0.536554,0.307151
7537323865,37.485626,18.573156,-69.223526,0.725594,0.667484,0.286251
7537343826,29.470200,7.122239,-77.095520,0.769737,0.703154,0.263984
7537363787,15.823887,-5.671790,-81.113533,0.828010,0.706769,0.222923
7537383747,5.000907,-15.891438,-86.256882,0.863113,0.786430,0.237560
7537403708,-17.452856,-26.576521,-99.255058,0.759545,0.921532,0.221701
7537423669,-46.497513,-40.200142,-112.885376,0.765215,0.980975,0.187958
7537443630,-66.544922,-48.509991,-120.839783,0.823548,0.892236,0.140852
7537463591,-76.420242,-54.534912,-129.826508,0.812436,0.814764,0.125071
7537483552,-79.419724,-64.584656,-140.135391,0.812357,0.798979,0.120957
7537503513,-87.672989,-79.187218,-153.733490,0.838429,0.828490,0.081249
7537523474,-96.061478,-91.489288,-165.658188,0.876727,0.813153,0.047872
7537543435,-106.004036,-102.277061,-175.829559,0.790386,0.830261,0.025247
7537563396,-130.118378,-121.194359,-185.754807,0.832578,0.788335,-0.027110
7537583357,-148.817795,-128.058121,-191.012680,0.993476,0.711909,-0.079639
7537603318,-161.591324,-136.608627,-197.424820,1.064611,0.672126,-0.108006
7537623279,-170.857224,-144.752991,-196.767807,1.069547,0.552493,-0.104955
7537643242,-170.237289,-151.092758,-198.205841,1.050332,0.495851,-0.081978
7537663203,-169.167740,-156.901840,-195.977524,1.095268,0.501282,-0.026788
7537683164,-167.859650,-156.251389,-191.913834,1.123366,0.501839,-0.018541
7537703125,-165.044739,-158.123398,-191.818268,1.081106,0.470725,0.024448
7537723086,-165.056000,-168.337540,-188.440933,1.144618,0.496756,0.096670
7537743047,-178.557236,-168.161926,-179.317810,1.290196,0.456711,0.152994
7537763008,-192.081589,-165.341568,-171.117004,1.234586,0.370249,0.299271
7537782969,-203.443878,-167.988647,-163.022339,1.193830,0.296360,0.408280
7537802930,-213.564911,-163.380386,-160.360855,1.172362,0.137524,0.509199
7537822891,-200.808929,-152.714142,-168.250397,1.045892,0.007073,0.549721
7537842852,-173.210953,-143.245209,-173.151993,0.952312,-0.110961,0.579897
7537862811,-140.937485,-134.205948,-157.492966,0.845826,-0.172511,0.590881
7537882772,-105.934013,-119.158569,-126.093475,0.747305,-0.147759,0.560258
7537902733,-73.287811,-103.156189,-92.502251,0.665091,-0.014305,0.546274
7537922694,-56.657738,-93.441711,-64.730095,0.623717,0.158036,0.535134
7537942655,-55.965149,-89.860733,-41.524738,0.632916,0.299659,0.510400
7537962616,-60.232094,-90.164490,-25.471601,0.647327,0.381913,0.494929
7537982578,-63.475182,-97.066940,-17.912951,0.663476,0.462022,0.483258
7538002538,-69.298569,-110.848022,-16.310234,0.659154,0.536876,0.445710
7538022499,-76.016777,-128.116943,-18.492376,0.716686,0.590983,0.400804
7538042461,-89.158691,-144.437637,-24.469101,0.795849,0.638959,0.393274
7538062422,-112.419609,-159.323700,-32.735466,0.850292,0.673047,0.413202
7538082383,-143.659988,-163.969498,-44.086861,0.888291,0.659329,0.453189
7538102344,-170.695862,-161.284576,-56.520599,0.953538,0.545794,0.474549
7538122305,-176.017120,-149.676651,-67.317314,1.003999,0.396149,0.477743
7538142266,-162.553101,-137.968246,-77.702988,0.988396,0.297774,0.490178
7538162227,-137.018585,-126.389359,-80.413643,1.021874,0.282481,0.456439
7538182188,-118.387985,-113.869621,-80.059616,1.010114,0.301952,0.468015
7538202149,-113.239655,-104.992073,-78.158516,1.001692,0.328531,0.458228
7538222111,-117.947792,-95.136192,-78.120506,0.994030,0.342814,0.428714
7538242072,-125.326813,-88.898201,-81.288635,0.990730,0.345307,0.404117
7538262033,-132.020813,-87.871124,-84.143143,0.998583,0.343831,0.358390
7538281994,-136.186539,-87.158684,-84.393242,1.001187,0.325838,0.323310
7538301955,-136.935394,-86.514893,-83.121666,0.975402,0.283113,0.311152
7538321916,-134.130493,-85.867409,-81.921822,0.996414,0.246359,0.286642
7538341877,-130.508728,-83.363930,-82.998878,1.003233,0.229446,0.272383
7538361838,-128.660767,-84.454605,-85.412170,0.924877,0.249177,0.285739
7538381799,-127.787842,-86.982475,-85.534531,0.905212,0.255919,0.272793
7538401760,-127.428528,-87.968040,-83.444778,0.960219,0.258698,0.246893
7538421721,-130.690704,-86.335762,-82.448601,1.006739,0.255729,0.257083
7538441681,-133.221008,-88.230515,-83.243431,0.969276,0.274823,0.280670
7538461641,-135.825043,-92.298248,-83.154884,0.967564,0.277117,0.280874
7538481603,-136.176758,-92.940567,-81.682739,1.003893,0.259262,0.260433
7538501564,-133.111115,-89.239731,-78.202194,1.007996,0.240381,0.271381
7538521525,-131.449310,-85.630905,-77.314125,0.983889,0.249214,0.280264
7538541486,-129.327667,-84.281013,-75.829208,1.009286,0.268135,0.280511
7538561446,-128.781448,-82.125946,-73.546204,1.038050,0.269988,0.265983
7538581408,-128.788788,-81.082291,-72.675003,0.997545,0.268388,0.258437
7538601368,-129.028442,-81.183121,-70.262215,0.979100,0.254544,0.237290
7538621330,-129.764740,-81.197647,-67.327530,0.999658,0.237384,0.234579
7538641291,-131.165695,-78.785271,-64.975456,1.015773,0.259834,0.258274
7538661252,-134.373978,-77.648659,-64.562752,0.997918,0.270382,0.264512
7538681213,-133.180878,-75.418678,-65.579117,1.011193,0.248816,0.253726
7538701174,-128.436722,-71.328201,-66.085632,1.025049,0.222872,0.254770
7538721135,-123.143463,-69.606056,-67.307793,1.002463,0.239617,0.258725
7538741096,-119.620941,-70.858963,-68.326439,0.970773,0.268483,0.258400
7538761057,-119.368835,-72.022484,-67.914032,0.976121,0.281222,0.250640
7538781019,-123.260757,-71.475090,-66.614746,0.957288,0.289193,0.253989
7538800980,-127.912895,-73.123962,-65.754868,0.930550,0.294115,0.254602
7538820941,-130.206192,-75.332329,-67.072121,0.923054,0.281480,0.249298
7538840902,-130.710159,-78.320679,-67.684067,0.906211,0.275099,0.267306
7538860863,-130.120010,-80.565208,-67.276520,0.876039,0.265679,0.285575
7538880824,-127.810623,-81.573212,-65.681198,0.899961,0.248867,0.277911
7538900785,-123.036285,-78.649216,-63.833149,0.912413,0.244084,0.276670
7538920746,-119.163620,-76.421570,-61.766949,0.894794,0.266966,0.281163
7538940707,-117.078896,-75.662933,-59.385708,0.907312,0.269570,0.269147
7538960668,-113.181572,-75.101295,-57.544621,0.931861,0.277287,0.248527
7538980629,-110.146278,-74.733978,-55.387337,0.948071,0.311347,0.245716
7539000590,-110.743958,-74.463554,-54.228531,0.950224,0.332558,0.243132
7539020550,-112.511940,-75.443756,-52.844048,0.971090,0.321779,0.241870
7539040511,-111.435486,-75.986328,-52.445030,0.993613,0.318402,0.238241
7539060472,-110.174141,-76.355286,-52.387188,1.006870,0.309774,0.235711
7539080433,-105.310822,-75.247177,-53.321445,0.968559,0.300229,0.239627
7539100394,-98.720932,-74.418549,-54.348248,0.933129,0.322186,0.230331
7539120355,-94.939011,-76.282097,-56.063354,0.933437,0.368352,0.204902
7539160277,-101.443436,-77.232811,-58.868736,0.935986,0.423853,0.197757
7539180238,-114.165726,-76.548775,-56.597031,0.915897,0.387648,0.219017
7539200199,-121.904556,-76.817566,-55.073967,0.905278,0.339853,0.250202
7539220160,-122.436729,-77.665115,-57.601727,0.946676,0.325478,0.266222
7539240121,-115.517342,-78.361458,-63.839088,0.959244,0.331511,0.302323
7539260082,-103.742027,-81.185158,-68.933983,0.926531,0.335536,0.305755
7539280043,-86.863487,-81.259384,-67.694153,0.930547,0.333183,0.309327
7539300004,-67.984482,-83.628677,-70.018890,0.928258,0.440363,0.277115
7539319965,-61.753948,-83.546448,-79.690102,0.941914,0.574257,0.242936
7539339926,-65.289963,-84.071083,-88.990448,0.952661,0.608178,0.201782
7539359888,-64.251907,-85.418388,-99.253471,0.940342,0.610711,0.161083
7539379849,-58.498047,-85.490730,-114.663620,0.871926,0.649318,0.129510
7539399810,-54.202377,-81.214417,-136.816879,0.894533,0.669729,0.117752
7539419771,-48.974060,-69.961800,-148.686279,0.986079,0.504922,0.095267
7539439732,-44.842194,-65.348885,-136.248047,0.901857,0.281015,0.171332
7539459693,-39.513950,-81.111290,-103.967079,0.697907,0.192792,0.185246
7539479654,-32.245918,-84.220810,-76.980820,0.619107,0.281331,0.154395
7539499615,-37.228016,-80.398102,-52.253925,0.654799,0.309089,0.175721
7539519576,-57.555290,-83.553413,-27.574902,0.861692,0.271555,0.291863
7539539537,-60.330730,-72.271400,-26.265198,0.929394,0.402572,0.466253
7539559499,-18.933544,-57.357727,-92.330353,0.903637,0.946072,0.392133
7539579458,3.058975,-49.343071,-140.819122,0.894065,0.932503,0.396095
7539599419,30.572365,-53.872501,-99.556465,0.886542,0.307528,0.258037
7539619380,81.284828,-48.481705,-72.621483,0.690220,0.403397,0.272262
7539639341,78.351936,-48.519047,-76.919136,0.484820,0.816958,0.254709
7539659302,42.004837,-60.478088,-76.194138,0.535717,0.987561,0.208592
7539679263,14.351810,-67.467453,-63.676647,0.624217,0.853511,0.167517
7539699224,17.750658,-65.924774,-55.091686,0.610153,0.712419,0.113021
7539719185,21.185696,-58.721519,-52.738384,0.570179,0.717208,0.126324
7539739146,18.039843,-50.225315,-49.437313,0.583882,0.787905,0.146817
7539759107,15.342428,-46.589359,-42.014042,0.596006,0.868588,0.109293
7539779068,11.924705,-44.095036,-36.170036,0.606324,0.936732,0.101991
7539799029,3.457582,-39.733696,-32.660282,0.578658,0.890552,0.113350
7539818990,2.559632,-39.045956,-28.687426,0.575855,0.845186,0.092278
7539838951,5.458924,-38.263863,-24.702162,0.546968,0.888486,0.073919
7539858912,7.989125,-37.285015,-18.024172,0.470885,0.924704,0.047526
7539878873,11.705462,-38.242195,-7.871007,0.431072,0.964644,-0.021882
7539898834,7.084422,-38.926468,3.726544,0.410237,1.011594,-0.089599
7539918797,-9.065621,-42.069660,18.424097,0.410674,1.060956,-0.126460
7539938758,-28.165880,-44.176678,36.927826,0.397050,1.073863,-0.148685
7539958719,-47.749836,-47.830200,53.330002,0.409385,1.007815,-0.149836
7539978680,-67.662773,-57.361813,73.230995,0.491378,0.920233,-0.113386
7539998641,-95.036545,-64.234245,91.365395,0.514109,0.916250,-0.015195
7540018602,-127.656143,-62.313450,109.696999,0.543539,0.904268,0.031709
7540038563,-134.643570,-50.974716,143.710648,0.503477,0.794028,0.029775
7540058524,-137.735977,-45.019276,188.135132,0.584877,0.835841,0.081214
7540078485,-161.257782,-20.417713,222.279236,0.825035,0.721512,0.060173
7540118407,-244.682861,50.838985,244.012589,1.080103,0.573938,0.344005
7540138367,-256.353058,54.787285,203.653168,1.061531,0.401760,0.678678
7540158328,-210.163818,56.316494,107.622925,0.600688,0.421565,0.905205
7540178289,-131.094315,31.724541,7.983602,0.413525,0.427397,0.860608
7540198250,-47.037399,40.086128,-68.017105,0.528170,0.407822,0.435496
7540218211,-11.774760,42.748947,-109.578026,0.657541,0.422901,0.227724
7540238172,6.741956,1.666432,-107.019234,0.595966,0.487397,0.106339
7540258133,0.631741,-35.380577,-88.276154,0.334740,0.652963,0.097834
7540278093,-27.124474,-51.366173,-94.544540,0.241048,0.792327,0.212851
7540298055,-77.272789,-65.546989,-116.197456,0.526489,0.862131,0.315016
7540318016,-110.328468,-74.579315,-137.194427,0.821035,0.662191,0.364944
7540337977,-91.334694,-76.549667,-152.664230,0.751368,0.446576,0.359276
7540357937,-40.507141,-81.600540,-166.999680,0.644745,0.394795,0.373103
7540377898,7.777795,-87.633209,-166.914581,0.783436,0.410341,0.409267
7540397860,33.522072,-89.970352,-146.243530,0.837729,0.408981,0.429317
7540417821,42.243534,-91.723358,-123.079559,0.722145,0.418040,0.413753
7540437782,35.632984,-90.531441,-100.676483,0.626179,0.387912,0.417677
7540457743,26.976789,-89.229401,-68.414093,0.565019,0.301636,0.410957
7540477705,36.900928,-86.743744,-23.190069,0.554046,0.248909,0.340591
7540497666,49.828701,-86.229912,25.712513,0.641711,0.280798,0.376645
7540517627,66.855583,-77.452560,30.681189,0.676324,0.595604,0.420932
7540537588,123.111130,-59.454227,-32.167091,0.743706,1.476911,0.302009
7540557549,96.139633,-51.976311,-66.146530,0.973290,1.852328,0.445769
7540577510,-4.888288,-28.191545,-9.269011,0.938151,0.957476,0.338488
7540597471,-23.271034,-2.497047,1.818632,0.529025,0.526309,0.221215
7540617432,-17.558210,-2.114223,0.835137,0.414358,0.597148,0.272498
7540637393,-20.319523,-5.376702,7.775198,0.490208,0.775406,0.214237
7540657354,-40.027931,-1.585964,4.691408,0.629306,0.727193,0.266843
7540677315,-48.151291,-7.604658,5.318658,0.467869,0.349223,0.332723
7540697275,-4.235924,-29.550648,26.708984,0.279336,0.323151,0.063246
7540717236,32.457497,-38.019398,63.681896,0.356065,0.659635,0.127893
7540737197,23.402185,-35.129868,98.118759,0.536223,0.917182,0.182617
7540797080,-89.563179,23.348145,207.431290,0.982601,0.582045,0.406738
7540817041,-72.820778,24.901770,234.995926,1.298581,0.650391,0.555291
7540837002,-65.764427,47.307343,239.357239,1.632980,0.806276,0.642192
7540856963,-77.060326,109.481606,227.266098,1.516257,0.557289,0.670902
7540876924,-112.312119,165.052094,224.888397,1.456752,0.411369,0.782750
7540896885,-123.191261,168.167465,213.911438,1.384552,0.376416,0.473117
7540916846,-35.176853,130.307739,190.018280,1.054242,0.403931,0.025322
7540936807,91.435944,78.047394,127.052155,0.776383,1.168044,-0.153105
7540956768,87.131790,58.422798,-9.633211,0.302586,1.673616,0.007585
7540976729,20.164972,40.065292,-81.235847,0.116090,1.273998,0.204217
7540996690,-69.778053,8.679049,-103.351265,0.498574,0.638557,0.198602
7541016651,-107.772957,-6.944987,-119.998398,0.970169,0.285516,0.216768
7541036613,-74.788963,-1.208145,-122.956497,1.049965,0.112313,0.277071
7541056574,-36.961815,-8.790760,-108.574829,0.809223,0.190119,0.454598
7541076535,-11.648560,-6.659732,-112.903809,0.699630,0.393312,0.559445
7541096496,-17.139210,7.348690,-147.846588,0.695610,0.565342,0.590792
7541116457,-28.509722,6.186754,-165.019318,0.831887,0.583450,0.576604
7541136418,-32.822422,-2.125695,-164.444366,0.897750,0.443440,0.584476
7541156379,-27.980087,-8.358492,-174.004471,0.830734,0.377298,0.557923
7541176340,-14.798018,-15.274132,-180.879700,0.721617,0.434676,0.481950
7541196301,10.147376,-31.565294,-176.021957,0.611999,0.513889,0.388126
7541216262,37.765079,-50.094574,-171.827469,0.559659,0.595121,0.404777
7541236224,46.781502,-68.284561,-164.613678,0.603836,0.674121,0.399193
7541256199,37.951469,-73.552261,-158.517914,0.602399,0.643601,0.424618
7541276144,16.637655,-80.316803,-152.673676,0.626836,0.589133,0.446903
7541296105,1.270920,-78.370483,-143.362045,0.609119,0.461239,0.422174
7541316066,6.440594,-76.156181,-127.038620,0.540573,0.260341,0.379405
7541336027,30.843861,-72.587997,-99.026688,0.481876,0.125304,0.377990
7541355988,60.480988,-69.709068,-61.350288,0.368339,0.219741,0.352871
7541375949,75.549019,-72.467201,-17.505470,0.300687,0.423848,0.357028
7541395910,60.682251,-71.648270,18.015745,0.483961,0.447589,0.394695
7541415871,42.294556,-59.759155,27.886930,0.588916,0.651632,0.603995
7541435832,33.201649,-38.329956,20.311338,0.553813,0.828350,0.535985
7541455793,81.216362,-10.399287,4.801672,0.608668,0.791429,0.349735
7541475754,161.741714,3.570985,19.208742,0.641333,0.968433,0.150104
7541495716,171.099808,4.757058,33.855095,0.482786,1.268074,0.033560
7541515676,100.020500,-2.205221,25.001453,0.319480,1.475557,0.014327
7541535637,-13.891392,-3.077182,26.865194,0.491012,1.453637,0.047973
7541555598,-107.710167,1.521329,24.112085,0.529912,1.353358,0.018457
7541575559,-161.586899,-7.959597,26.695576,0.383041,1.009629,0.005549
7541595522,-174.244446,-12.259300,50.399857,0.308864,0.634055,0.104408
7541615483,-159.210190,-19.387218,69.357819,0.305348,0.518017,0.223076
7541635444,-132.506302,-24.223364,89.276833,0.427363,0.442708,0.312874
7541655405,-91.800880,-12.413036,112.169525,0.526418,0.337449,0.321150
7541675366,-79.174026,2.341289,136.277985,0.689125,0.506675,0.340941
7541695327,-105.160698,32.037312,154.825272,0.771927,0.807266,0.485511
7541715288,-158.423706,54.168877,157.803741,0.717840,0.757479,0.604626
7541735249,-191.193024,54.986946,149.550797,0.711997,0.494943,0.742771
7541755210,-144.990112,22.291828,120.199150,0.879410,0.409701,0.769639
7541775171,-51.603954,12.385829,66.189987,0.949716,0.741002,0.823417
7541795132,-0.390160,13.379586,29.253113,0.683456,0.871483,0.736808
7541815093,37.674965,19.623310,-4.615809,0.444544,0.714385,0.553605
7541835052,58.000034,20.152880,-37.836590,0.410953,0.712775,0.475521
7541855013,19.183119,9.559933,-64.974930,0.534566,0.987642,0.468551
7541874974,-56.637600,-2.268601,-84.644295,0.642979,1.130873,0.474932
7541894935,-114.880180,-12.684394,-99.984840,0.661020,0.915019,0.446653
7541914896,-119.034668,-18.386791,-113.438484,0.660589,0.601891,0.423272
7541934857,-71.375671,-19.146088,-131.593094,0.614252,0.426502,0.406263
7541954818,-8.551558,-29.247139,-149.797470,0.507843,0.488079,0.383178
7541974779,28.239975,-49.931011,-158.630859,0.463204,0.700388,0.355297
7541994740,23.019297,-70.991417,-160.536758,0.453866,0.868266,0.353742
7542014701,-5.398001,-88.425423,-158.274658,0.487970,0.895421,0.338897
7542034662,-34.712601,-100.926659,-155.074219,0.528848,0.833165,0.337571
7542054623,-53.720047,-113.688919,-148.082565,0.552494,0.741185,0.342698
7542074584,-53.828903,-123.684975,-134.778946,0.571886,0.619762,0.351599
7542094545,-42.194908,-127.867538,-120.086678,0.545436,0.518255,0.384740
7542114506,-23.226927,-128.609100,-107.082947,0.535331,0.457000,0.372172
7542134467,-10.481817,-130.834793,-85.673309,0.545924,0.430389,0.350127
7542154428,-6.922852,-135.311584,-52.466354,0.550394,0.305316,0.285328
7542174391,-13.534546,-142.702896,-17.429262,0.541110,0.153357,0.336638
7542194352,-16.553051,-149.814453,22.491692,0.537297,0.149194,0.366322
7542214313,-21.666109,-143.802322,42.843376,0.816953,0.443584,0.754917
7542234274,-33.339642,-89.970558,22.688307,0.794921,0.840570,0.746917
7542254235,-14.905518,-52.094078,8.629439,0.932284,0.708416,0.671103
7542274196,63.498325,-22.712706,36.485260,0.941013,0.426208,0.443495
7542294157,113.520660,-21.123257,47.827393,0.779053,0.663936,0.355040
7542314118,97.797852,-26.458218,43.616821,0.728182,0.973045,0.378092
7542334079,18.302589,-21.745337,48.598946,0.775721,1.009586,0.480172
7542354040,-49.285648,-8.483783,46.428062,0.795290,0.964197,0.460968
7542374001,-69.783836,-1.093452,24.499365,0.749903,0.846818,0.321186
7542393961,-66.514145,-0.529868,33.836712,0.629909,0.397209,0.297574
7542413921,-32.882416,-5.723339,60.996685,0.445805,0.082211,0.327131
7542433883,3.859667,-27.388247,82.188332,0.340660,0.080411,0.291175
7542453844,20.449228,-50.310936,96.401306,0.475472,0.202594,0.231910
7542473805,20.876446,-49.467159,111.944572,0.763478,0.479544,0.241397
7542493766,20.724657,-14.310947,144.913055,1.139106,0.737883,0.414158
7542513727,-24.114798,35.898762,172.884491,1.269190,0.839540,0.626689
7542533688,-70.962181,77.061905,169.207397,1.374785,0.663008,0.688977
7542553649,-109.319221,112.411713,147.268967,1.226099,0.390732,0.737334
7542573610,-85.873734,128.780426,102.977051,1.091014,0.233405,0.711572
7542593571,-20.282438,123.709351,53.065742,0.946076,0.420186,0.507794
7542613532,40.597504,93.480103,17.740538,0.745907,0.876970,0.397384
7542633493,69.138832,85.954819,-25.679169,0.786758,0.998325,0.227316
7542653454,90.135765,77.238945,-64.310341,0.799940,0.890155,0.168318
7542673415,80.112564,41.116306,-91.087692,0.735985,1.066271,0.262699
7542713337,-38.699635,-6.279831,-125.728806,0.597564,1.145705,0.219702
7542733299,-48.385601,-6.809314,-154.675674,0.448499,0.886217,0.172410
7542753260,-17.314316,-18.824200,-172.860703,0.414947,0.617366,0.144782
7542793182,33.344730,-68.888649,-168.671982,0.530723,0.703736,0.196667
7542813143,6.934464,-84.764793,-156.281311,0.537168,0.757118,0.271310
7542833104,-34.341660,-102.103691,-142.343796,0.560315,0.672709,0.321471
7542853065,-63.264732,-111.246216,-128.552261,0.643752,0.546118,0.364231
7542873026,-59.622807,-123.246773,-115.263596,0.599560,0.442351,0.329607
7542892987,-31.314419,-136.817780,-91.227936,0.589788,0.436623,0.278982
7542912948,-6.496096,-142.122650,-50.337322,0.581434,0.324261,0.247614
7542932910,8.285983,-152.720932,0.842048,0.599568,0.184804,0.234568
7542952869,9.200639,-143.350342,55.634197,0.793604,0.191985,0.496625
7542972830,-35.906166,-91.582550,75.200958,0.999499,0.486648,0.814291
7542992791,-42.526550,-46.251068,48.965813,0.824603,0.863255,0.678065
7543012752,-23.716036,-19.016500,53.024837,1.121219,0.575262,0.538517
7543032713,23.868330,8.915604,90.229790,0.856810,0.179348,0.429239
7543052674,47.929474,19.632807,102.846176,0.667308,0.325550,0.564879
7543072635,35.941235,33.582134,96.129791,1.038765,0.759977,0.523871
7543092596,-6.953478,35.279034,66.455109,0.994539,0.535532,0.560338
7543112557,3.582973,35.720230,90.691902,0.632897,-0.457110,0.422081
7543132518,80.381332,6.927937,121.733421,0.653090,-0.502741,0.125244
7543152479,157.018845,27.222927,155.061371,0.910703,0.077833,0.139036
7543172440,130.999542,61.916161,185.235657,1.122590,0.602651,0.286125
7543192401,49.490227,99.366829,193.873398,1.086341,0.579057,0.344126
7543212362,-15.431390,121.407738,193.770126,1.047717,0.271065,0.222069
7543232323,-45.856133,137.583038,190.662766,0.972830,-0.039666,0.285158
7543252284,-21.545198,116.718094,185.393387,1.138875,-0.167372,0.266619
7543272245,39.310810,76.888123,178.489639,1.394862,-0.144053,0.121499
7543292208,140.963867,69.713715,149.541138,1.537223,0.373055,0.021209
7543312169,203.750687,108.477936,87.935669,1.375483,1.042396,0.133126
7543332130,168.040833,107.242332,63.571331,1.305079,0.927284,0.074894
7543352091,133.589890,83.527725,56.814247,1.364028,0.711583,0.023779
7543372052,93.617935,62.450272,21.650576,1.212046,0.798635,0.088226
7543392013,50.937405,31.229053,-5.917474,1.077341,0.738721,0.066704
7543411974,44.326763,14.615414,-26.117500,1.008799,0.529915,0.030165
7543431935,62.531696,14.270959,-47.367893,0.991591,0.399853,0.093811
7543451896,75.853516,14.397552,-65.273010,0.992812,0.365660,0.187095
7543471857,74.964302,11.653016,-81.315872,0.921171,0.351572,0.292099
7543491818,68.326965,3.815361,-97.840645,0.842555,0.359314,0.374307
7543511785,62.714226,5.680099,-113.480988,0.920475,0.345436,0.363124
7543531738,61.530251,17.142757,-125.629906,1.028027,0.318489,0.337035
7543551699,60.803688,23.843573,-133.869247,1.009220,0.318464,0.334414
7543571660,64.856812,20.190847,-139.921936,0.986510,0.304479,0.306817
7543591622,74.674660,19.879950,-139.008636,0.950850,0.268019,0.218703
7543611583,91.365128,17.867662,-129.949432,0.912799,0.257907,0.146688
7543631543,99.573235,14.704238,-120.628151,0.893720,0.357629,0.139605
7543651504,89.312134,11.870857,-108.894241,0.808528,0.456437,0.153817
7543671465,74.137779,8.833813,-92.812347,0.804708,0.442085,0.189131
7543691426,70.097618,8.882125,-67.765533,0.848173,0.399600,0.223862
7543711388,76.744453,11.730320,-32.722687,0.776079,0.333355,0.217797
7543731349,97.992790,24.744297,13.122583,0.751181,0.228046,0.172169
7543751310,120.421013,44.771927,61.784534,0.760596,0.083709,0.067708
7543791232,122.046257,110.682220,131.324234,1.024481,0.378367,0.370137
7543811193,86.052284,155.448502,140.245697,1.026601,0.797979,0.204400
7543831154,58.049892,172.739090,120.842613,0.934447,0.750484,-0.013421
7543851115,43.032215,185.655594,140.157043,1.149115,0.236423,0.025708
7543871077,64.461243,187.873337,180.129669,1.153840,0.007153,0.083914
7543891038,80.691483,167.630112,198.777252,1.216093,0.338051,-0.094839
7543910999,67.813820,172.006134,164.955276,1.239487,0.651995,0.031850
7543930960,37.962097,172.466309,157.327240,1.171210,0.450702,0.180049
7543950921,48.181469,134.464447,158.389236,1.294101,0.450312,0.215547
7543970882,71.643059,144.903687,115.290199,1.200987,0.834303,0.219661
7543990843,87.799759,162.500931,35.195889,1.097141,1.028314,0.116869
7544010804,112.758430,141.929825,3.251442,1.179649,0.738368,-0.165079
7544030765,164.012085,114.312698,7.188491,1.078467,0.422502,-0.291797
7544050726,185.198257,82.295280,-8.593462,0.860855,0.547767,-0.196853
7544070687,151.617874,52.815109,-29.538845,0.810312,0.734489,-0.119884
7544090647,103.073608,32.809967,-44.377644,0.802992,0.675120,-0.019971
7544110608,74.438248,23.807747,-58.544769,0.800065,0.545152,0.066519
7544130569,78.641617,21.052731,-71.724747,0.770489,0.486722,0.152714
7544150530,95.340340,19.769032,-82.201744,0.785169,0.501687,0.198178
7544170491,110.344101,24.714382,-87.525269,0.856287,0.565903,0.201526
7544190452,117.121437,33.102203,-84.540359,0.889909,0.623800,0.156392
7544210413,117.862717,40.502888,-75.297485,0.923095,0.626007,0.100780
7544230374,112.497658,45.165180,-60.963013,0.900855,0.566846,0.079850
7544250335,117.435410,45.281620,-40.698315,0.794001,0.464292,0.090042
7544270296,134.575531,41.069073,-2.028047,0.705873,0.417179,0.100490
7544290257,151.772568,52.290146,49.620007,0.794764,0.391267,0.019951
7544310218,151.244598,78.740860,90.584320,1.016359,0.200823,-0.022585
7544330179,143.557281,119.124207,120.431198,0.952891,0.140768,0.139962
7544350140,124.242012,169.261719,149.253616,1.120223,0.541153,0.131738
7544370101,134.527145,205.269592,138.472015,0.937206,0.824131,-0.290404
7544390062,103.456047,191.761032,137.175232,1.186533,0.794429,-0.137004
7544410023,78.512077,203.090866,160.982498,1.420130,0.848438,-0.063852
7544429986,52.841736,199.855270,137.481583,1.374363,1.402259,-0.335565
7544449947,-56.535522,220.816910,93.768448,1.071550,1.106739,-0.139403
7544469908,-122.998886,245.596405,155.608337,0.789742,-0.076497,-0.256592
7544489868,-107.315468,183.569229,228.603622,0.526349,-0.287152,-0.072388
7544509829,-63.830509,142.765244,239.114746,0.737569,0.076819,0.357704
7544529790,-52.015045,81.637428,156.452240,1.395649,0.824989,0.385929
7544549751,16.448668,106.073761,58.548840,1.181475,1.220606,0.453015
7544569713,91.078323,123.777657,86.022568,1.140038,0.526857,0.262372
7544589674,162.843826,114.446686,101.748489,1.252486,0.376506,0.043249
7544609635,163.463959,94.168961,56.084999,0.932331,0.913124,0.247773
7544629595,57.484993,48.051273,8.263633,0.673132,1.203980,0.416918
7544649555,-32.218147,14.725632,-9.780169,0.727821,0.765647,0.305810
7544669516,-26.267475,5.422680,-31.535797,0.734249,0.353933,0.165607
7544689477,27.958908,-0.050222,-57.410458,0.626061,0.284919,0.187155
7544709438,79.690506,-13.571927,-77.323647,0.554067,0.393277,0.267108
7544729399,102.319038,-24.111179,-89.899841,0.575300,0.477863,0.291609
7544749360,98.096489,-33.788822,-98.642342,0.640200,0.592974,0.308580
7544769321,68.433891,-43.259293,-101.534294,0.710617,0.708095,0.311446
7544789282,29.439047,-52.497707,-98.423851,0.781034,0.739175,0.311044
7544809243,-0.530081,-52.999065,-92.830070,0.945031,0.648201,0.310261
7544829204,-3.140525,-47.532127,-86.160599,1.049024,0.407729,0.356447
7544849165,30.729559,-38.328102,-76.757812,0.954158,0.159317,0.440004
7544869126,85.650101,-25.393145,-58.183739,0.862541,0.094544,0.458689
7544889087,126.907669,-8.292376,-28.170670,0.841499,0.157579,0.390523
7544909048,152.403046,5.215410,12.845855,0.735631,0.191246,0.286678
7544929009,148.978180,20.660343,63.554256,0.930113,0.072228,0.304305
7544948970,123.659187,71.647491,123.244476,1.058411,0.084023,0.437321
7544968931,97.490196,131.149902,161.653625,1.044807,0.163229,0.423572
7544988894,83.319450,181.668457,183.958023,1.421621,0.243222,0.665842
7545008855,90.515404,245.697586,163.091110,1.007970,0.410755,0.378957
7545028816,69.859108,219.534134,144.247803,0.799181,0.094186,0.364377
7545048777,36.876808,233.782745,199.755493,1.257959,-0.200258,0.452012
7545068738,107.552933,258.054199,215.693207,1.265888,0.031566,0.029931
7545088699,131.522858,233.757248,148.589340,1.276645,0.930665,-0.118369
7545108660,46.783268,199.428528,97.374939,1.254172,1.554703,0.064958
7545128621,58.064507,215.239639,145.550980,1.461002,0.764973,-0.011195
7545148582,91.885918,167.525070,183.316833,1.787493,0.196003,-0.291474
7545188504,68.638847,89.656143,89.057945,0.901207,1.641624,-0.078075
7545208463,-4.525180,65.603279,83.281479,0.624660,1.210194,0.154489
7545228425,-21.459188,29.098938,44.862484,0.807681,0.744036,0.239515
7545248385,-5.716938,14.146063,4.978607,0.943202,0.649476,0.327781
7545268346,28.457767,11.118549,-16.640007,0.865428,0.479840,0.358820
7545288307,77.033401,11.032798,-34.974747,0.756250,0.394157,0.321250
7545308268,112.796150,4.366247,-56.005882,0.677083,0.527256,0.353678
7545328230,115.191307,-5.072532,-79.093613,0.721724,0.645926,0.369673
7545348190,98.778297,-14.130091,-93.797066,0.764178,0.611101,0.349258
7545368151,85.452591,-25.625334,-101.891464,0.705978,0.560473,0.326983
7545388112,79.928658,-39.312077,-105.812996,0.662709,0.525296,0.302634
7545408073,77.771873,-52.711685,-105.329544,0.696626,0.591075,0.293254
7545428034,71.377884,-57.705803,-99.241325,0.700948,0.671207,0.280912
7545447995,58.347794,-65.201729,-88.481041,0.702793,0.719762,0.295631
7545467956,38.770142,-66.299019,-82.874809,0.694699,0.683110,0.307283
7545487917,10.745930,-69.041779,-76.952507,0.709423,0.578233,0.425102
7545507878,-6.595798,-63.108627,-54.796879,0.794735,0.294195,0.518647
7545527840,17.647398,-42.501953,-6.501679,0.844123,-0.142288,0.480626
7545547802,89.257553,-9.908077,57.369003,0.779378,-0.370985,0.429184
7545567763,170.412384,19.438868,117.693871,0.753577,-0.255516,0.331660
7545587724,179.880066,49.443829,145.708008,1.354989,0.101590,0.748805
7545607685,152.681717,156.271927,129.945724,1.450703,0.891805,0.605759
7545627646,164.931137,150.234970,59.664154,0.854058,1.035768,0.193516
7545647607,169.134720,149.801834,70.227974,1.299952,0.422692,-0.177735
7545667568,197.666245,171.843796,90.431618,0.952372,0.350491,0.009850
7545687529,174.456146,155.249512,91.199371,0.904212,1.029600,-0.081290
7545707490,75.890297,141.991959,62.273792,1.185093,1.631866,-0.401897
7545727451,-121.331833,149.341736,34.456150,0.652249,0.811554,0.046878
7545747415,-144.953644,157.308197,100.765938,0.714464,-0.227766,0.000662
7545767372,-28.714684,143.221039,162.668106,0.592487,-0.267026,-0.122590
7545787333,38.898582,141.520950,199.733093,0.703600,0.158939,0.087103
7545807294,25.330364,146.618652,209.577209,0.808837,0.421087,0.279247
7545827255,2.775792,139.998032,190.599777,0.782617,0.376873,0.314185
7545847216,-10.236593,92.475006,170.090851,0.886443,0.357266,0.258950
7545867177,42.478737,80.632912,151.202972,1.788357,0.735492,0.225131
7545887138,69.068260,110.245659,125.085892,2.001956,1.226431,0.338022
7545907099,52.562450,89.538376,122.026535,1.305233,0.971924,0.330687
7545927060,18.500793,50.920723,98.353432,1.088788,0.898497,0.228481
7545947021,-1.181001,32.078094,45.835773,0.806926,0.861239,0.284660
7545966982,-6.416186,10.124444,4.557299,0.821895,0.577281,0.315174
7545986943,15.028322,0.329261,-33.068977,0.720995,0.436795,0.296684
7546006904,43.376293,1.202625,-71.644653,0.548429,0.491999,0.294436
7546026865,52.532459,2.125487,-104.773911,0.555033,0.563339,0.347752
7546046826,43.742119,-0.076917,-124.699112,0.640118,0.566127,0.374856
7546066787,33.514072,-5.590731,-140.988770,0.689969,0.525708,0.393734
7546086748,25.882057,-11.970978,-156.676575,0.730582,0.518712,0.422731
7546106710,19.102545,-21.209408,-166.627319,0.830132,0.524524,0.474273
7546126671,13.230360,-26.224915,-166.532959,0.944900,0.542093,0.482646
7546146632,14.478370,-24.056828,-152.931885,0.880105,0.517814,0.504621
7546166593,27.594849,-22.733566,-139.722870,0.754738,0.473098,0.472275
7546186554,47.713951,-23.005713,-133.455444,0.653445,0.439639,0.449748
7546206515,69.959122,-21.624329,-129.741058,0.666331,0.345676,0.454620
7546226476,100.589638,-24.162186,-117.872459,0.648762,0.315987,0.432200
7546246437,126.459175,-22.613256,-89.495964,0.564680,0.329006,0.342844
7546266399,137.044891,-19.128059,-56.649578,0.448673,0.351444,0.278244
7546286360,120.894539,-11.055629,-20.179586,0.372844,0.415196,0.344834
7546306321,73.016006,0.523190,19.079468,0.471270,0.353870,0.404375
7546326281,51.966061,18.589800,55.981277,0.643616,0.218788,0.451637
7546346242,94.839294,56.869286,84.298363,0.791240,0.595295,0.394087
7546366203,130.065216,88.062668,71.253647,0.521291,1.062102,0.148736
7546386164,131.173401,89.820297,58.390636,0.772703,1.288581,0.161930
7546406125,99.612083,114.929581,63.880154,1.011848,1.493006,0.062982
7546426085,22.776911,114.036453,61.191380,0.614367,1.495813,-0.007915
7546446046,-31.269527,95.178513,55.910515,0.328179,1.288438,-0.125689
7546466008,-61.978443,75.639519,51.565392,0.326042,1.097643,-0.164127
7546485968,-90.865425,66.817726,66.069962,0.421539,0.893312,-0.101660
7546505930,-116.201233,72.461884,90.643379,0.454526,0.802299,-0.104572
7546525890,-141.548615,72.509834,104.410233,0.353799,0.848816,0.009104
7546545851,-191.434204,45.456684,107.131836,0.295583,0.909616,0.197269
7546585773,-219.657654,-8.966488,83.926659,0.583980,0.525603,0.485676
7546605734,-141.696411,-20.932919,43.416687,0.707704,0.511351,0.468965
7546625695,-47.669746,-18.722759,-20.118019,0.647346,0.879443,0.422217
7546645656,-16.493351,-31.850569,-20.610115,0.596173,0.884300,0.369931
7546665619,-0.627307,-53.522007,-16.829252,0.547301,0.806658,0.477577
7546685579,-39.098167,-69.327995,-52.762375,0.333640,1.037223,0.683695
7546705541,-116.906746,-66.554413,-94.059601,0.361252,0.952798,0.630037
7546725501,-148.257843,-59.499065,-110.749023,0.649780,0.656225,0.501044
7546745463,-122.462303,-69.921379,-116.901871,0.762624,0.445235,0.524417
7546765423,-73.424232,-87.524910,-128.780670,0.659946,0.365194,0.547977
7546785385,-22.021622,-86.140091,-145.013596,0.621343,0.334990,0.525089
7546805346,12.379559,-86.329185,-150.341217,0.672315,0.414017,0.488851
7546825307,18.354700,-97.435265,-142.328415,0.631129,0.654742,0.460932
7546845268,-9.682928,-102.309486,-133.693542,0.525272,0.842542,0.491610
7546865229,-55.338612,-94.971558,-138.530472,0.480598,0.831793,0.526846
7546885205,-73.879524,-88.731094,-146.835587,0.491906,0.556389,0.530471
7546905149,-40.928108,-93.210724,-140.071671,0.533558,0.297101,0.476474
7546925111,18.494310,-92.632935,-125.258965,0.472576,0.349694,0.449270
7546945071,52.155907,-99.771530,-104.721542,0.468342,0.499196,0.431718
7546965032,54.570156,-104.199127,-79.085091,0.457716,0.547188,0.380380
7546984994,34.269543,-108.912140,-49.956257,0.453322,0.599744,0.334727
7547004955,0.310082,-119.169937,-8.941309,0.538871,0.590775,0.272882
7547024915,-38.140568,-134.192810,26.556005,0.649488,0.593651,0.554515
7547044877,-71.374893,-121.161003,32.741089,0.635719,0.650711,0.549230
7547064837,-31.257729,-89.787064,0.116414,0.479582,0.780851,0.592042
7547084799,27.728683,-73.490318,2.738367,0.792351,0.818190,0.544624
7547104760,48.579628,-66.876480,23.205315,0.748369,0.911300,0.509146
7547124721,25.081459,-52.698460,21.140816,0.602536,1.059304,0.506505
7547144682,-39.670361,-42.260723,18.505390,0.661076,1.175799,0.588810
7547164643,-96.414566,-27.608826,13.985189,0.640193,1.138443,0.536952
7547184604,-152.767197,-15.506951,16.437172,0.599224,0.577789,0.534457
7547204565,-139.741959,-7.435817,30.645172,0.440799,0.151471,0.534801
7547224527,-80.176361,-11.486627,43.302292,0.319012,0.108688,0.556398
7547244488,-9.250071,-23.960438,56.707767,0.371818,0.060241,0.606513
7547264449,56.997833,-18.126534,82.858582,0.485946,-0.033282,0.520352
7547284410,82.689102,-18.856091,104.908333,0.632414,0.342745,0.553576
7547304371,56.294331,7.420034,131.481384,0.798080,0.977031,0.601044
7547324332,-38.239613,40.367321,149.007980,0.813745,1.108781,0.658091
7547344293,-128.067657,73.030518,153.815521,0.813890,0.701100,0.640184
7547364254,-141.875244,84.797714,167.041367,0.898664,0.417115,0.662327
7547384215,-112.365318,93.765244,157.896759,0.871529,0.355419,0.638617
7547404176,-69.582245,88.411644,120.281235,0.737003,0.376305,0.635170
7547424137,14.811634,38.383148,105.266342,1.022528,0.738414,0.486136
7547444114,73.131653,55.296963,65.976440,1.097140,1.229857,0.535002
7547464058,40.858234,57.213417,30.022139,0.898687,0.975526,0.432355
7547484019,0.003298,28.847841,3.457656,0.810686,0.772887,0.293825
7547503980,-34.702522,1.865686,-28.773045,0.632474,0.918639,0.325687
7547523941,-73.835541,-12.518507,-58.388496,0.607101,0.847194,0.332857
7547543902,-87.850647,-14.350675,-80.236450,0.634102,0.647324,0.365948
7547563863,-80.684883,-16.113132,-98.083199,0.612854,0.501547,0.433693
7547583824,-67.140198,-19.146591,-117.622185,0.637262,0.424766,0.478015
7547603785,-49.517921,-22.291763,-137.071609,0.696288,0.415374,0.499194
7547623746,-32.019295,-29.582813,-149.783478,0.760147,0.427692,0.510272
7547643707,-19.060234,-39.426502,-157.087646,0.779382,0.473320,0.523627
7547663668,-7.838683,-49.511486,-162.355682,0.777592,0.543065,0.511525
7547683629,-3.784641,-57.475117,-164.106293,0.784631,0.582341,0.504545
7547703590,-5.186845,-68.167999,-166.500793,0.754270,0.594467,0.491678
7547723551,-3.087089,-72.804184,-165.553436,0.767296,0.570189,0.450608
7547743512,1.064783,-77.786217,-159.392426,0.731151,0.516235,0.452742
7547763473,6.551721,-88.414444,-149.014053,0.725680,0.438410,0.447906
7547783434,15.873017,-89.217285,-136.413971,0.709943,0.416369,0.440056
7547803396,29.251595,-84.616959,-119.353592,0.613015,0.397693,0.393418
7547823358,50.875237,-82.977379,-94.224350,0.482254,0.388345,0.289274
7547843318,59.320839,-90.277611,-50.531239,0.374174,0.494234,0.249224
7547863279,31.948051,-99.777351,3.459465,0.421734,0.473702,0.209090
7547883240,11.326185,-102.210648,50.024300,0.468368,0.458994,0.293144
7547903202,-42.552322,-85.354721,68.157066,0.919260,0.846642,0.715587
7547923166,-101.294220,-40.571144,49.681435,0.746919,1.016616,0.698442
7547943124,-109.904152,-10.618113,42.238899,0.829299,0.633917,0.650674
7547963085,-33.898411,16.920155,68.723457,0.774291,0.146025,0.460508
7547983046,34.229877,16.167624,93.797447,0.659734,0.224897,0.389638
7548003007,54.058323,16.588671,107.697830,0.602784,0.499256,0.375539
7548022966,16.501011,18.891613,107.873871,0.635120,0.679870,0.410418
7548042927,-28.450686,24.799980,104.232941,0.756489,0.847493,0.390776
7548062888,-77.905075,39.573139,99.744240,0.782081,0.845596,0.335000
7548082849,-123.807083,48.608658,110.409134,0.685253,0.479020,0.268291
7548102810,-128.247360,26.952085,127.078003,0.577506,0.114179,0.300247
7548122771,-93.453918,-5.215787,137.380508,0.675888,-0.033553,0.368761
7548142732,-49.236504,-26.614801,136.382248,0.860342,0.016599,0.497808
7548162694,11.569852,-14.329355,125.097221,1.120345,0.291661,0.563544
7548182655,61.215214,14.250311,94.625664,0.935570,0.794066,0.718478
7548202616,64.992546,20.561205,66.138062,0.880348,1.017727,0.588956
7548222576,49.500000,19.365793,63.515842,0.943863,0.681572,0.409770
7548242537,44.651978,7.360378,49.689865,0.954956,0.484820,0.377409
7548262499,32.965076,-2.988398,31.968203,0.921318,0.477457,0.353509
7548282459,4.809157,-11.034762,13.627058,0.667997,0.490492,0.375604
7548302420,-15.494746,-28.618393,3.590986,0.591755,0.511478,0.382968
7548322381,-36.380833,-28.446039,-8.112860,0.731896,0.456458,0.418402
7548342343,-57.279175,-17.997393,-11.294016,0.815322,0.253982,0.468598
7548362305,-51.033985,-15.659050,7.901568,0.818562,0.024545,0.495636
7548382266,-25.545359,-6.042162,20.197969,0.828401,0.008975,0.563093
7548402227,-7.500412,3.688345,28.029795,0.860285,0.161660,0.571285
7548422188,3.265608,17.284069,25.305275,0.875198,0.313493,0.428108
7548442149,8.282677,10.228021,15.071517,0.789806,0.437760,0.386624
7548462110,8.948843,1.338105,16.240595,0.848069,0.482855,0.347524
7548482071,-7.887232,-5.196003,11.474109,0.834664,0.510308,0.282084
7548502032,-27.692646,-14.734268,9.434487,0.765242,0.536778,0.314981
7548521993,-43.986237,-22.227676,4.989984,0.781483,0.545195,0.317781
7548541954,-62.620823,-28.679462,4.247409,0.801641,0.453494,0.351980
7548561915,-68.445671,-28.537178,5.237339,0.859683,0.429433,0.363911
7548581888,-67.421204,-28.981077,-9.588321,0.834386,0.406229,0.344340
7548601835,-66.611954,-30.262276,-6.312696,0.849438,0.259954,0.397551
7548621796,-61.284138,-26.542599,-4.987680,0.844388,0.239057,0.432040
7548641757,-66.523369,-20.717686,-2.205617,0.847603,0.262828,0.443639
7548661719,-76.083244,-20.125402,-2.708638,0.800786,0.224523,0.439128
7548681679,-72.596840,-22.211193,1.791343,0.930668,0.249966,0.424793
7548701640,-65.662384,-16.768541,-7.285989,0.976071,0.365310,0.387858
7548721601,-66.270874,-13.892752,-11.451296,0.870330,0.379885,0.358543
7548741562,-63.316322,-14.783587,-11.068320,0.860534,0.384809,0.315302
7548761523,-66.800888,-18.291571,-17.624252,0.903309,0.462673,0.262086
7548781484,-84.080467,-26.396120,-24.985434,0.939892,0.469646,0.267560
7548801446,-102.809891,-30.494394,-27.864468,0.887134,0.365575,0.293157
7548821406,-117.425812,-31.926971,-26.036041,0.929846,0.288421,0.337275
7548841368,-129.489807,-32.172016,-27.122881,0.965165,0.238623,0.375892
7548861329,-137.434677,-28.526421,-26.987617,0.985934,0.130750,0.386235
7548881289,-129.711227,-21.110338,-25.432526,0.998934,0.057043,0.390140
7548901250,-112.005577,-14.384405,-25.976042,0.946275,0.069996,0.393241
7548921211,-100.822144,-8.558902,-27.048256,0.921013,0.127112,0.383647
7548941174,-98.939743,-4.111853,-28.741119,0.925682,0.182316,0.363888
7548961135,-101.719505,0.904450,-27.065363,0.947341,0.229472,0.352858
7548981096,-109.779793,1.279199,-31.236378,0.948390,0.272654,0.341425
7549001057,-127.212173,-7.922526,-36.099510,0.908574,0.238960,0.340154
7549021018,-132.314026,-11.192391,-36.513721,0.936634,0.192113,0.351544
7549040979,-141.307800,-13.902146,-40.630081,0.969251,0.151560,0.355265
7549060943,-146.450729,-15.182064,-38.603615,1.001484,0.079927,0.359215
7549080901,-139.297974,-11.958663,-39.123646,0.991483,0.077888,0.411698
7549120823,-136.794373,-8.209061,-42.505856,1.028723,0.114244,0.437830
7549140784,-134.414444,-4.440446,-40.439301,1.015445,0.037487,0.432105
7549160744,-128.110168,-1.666339,-38.836422,0.990485,-0.009123,0.428404
7549180705,-122.962601,1.649071,-38.391773,0.993908,-0.029667,0.424614
7549200666,-118.254463,7.392013,-37.868713,0.972584,-0.040899,0.424680
7549220627,-106.943253,13.746877,-36.451977,0.919290,-0.020964,0.426108
7549240588,-102.065887,14.211266,-36.026718,0.908860,0.009053,0.451196
7549260549,-102.512909,12.829486,-39.350292,0.944082,0.023276,0.460351
7549280510,-101.949402,13.103471,-45.883324,0.940130,-0.014547,0.463265
7549300471,-93.948204,13.145472,-50.084251,0.891114,-0.067251,0.473338
7549320432,-79.670944,13.586185,-50.280590,0.890439,-0.077349,0.497258
7549340393,-65.568581,14.940793,-46.342644,0.924237,-0.057080,0.502372
7549360354,-53.182339,15.696594,-40.375507,0.915304,-0.035889,0.509237
7549380315,-44.858036,13.771199,-35.412003,0.915508,-0.023744,0.525615
7549400276,-40.090485,13.158926,-33.558693,0.911569,0.004603,0.559227
7549420237,-38.482075,14.318147,-33.160465,0.899487,0.027225,0.580945
7549440198,-37.464088,16.113613,-31.201715,0.902097,-0.009490,0.589607
7549460159,-26.382072,19.622772,-27.110004,0.878802,-0.069532,0.582332
7549480120,-4.688068,22.073999,-21.714209,0.853815,-0.087204,0.574514
7549500083,19.940126,23.907639,-16.231903,0.871573,-0.039252,0.546736
7549520044,43.158859,25.926905,-15.201924,0.804193,0.016395,0.506252
7549540005,60.806606,24.459925,-17.031176,0.690620,0.069073,0.460051
7549559966,68.199142,21.004313,-14.345290,0.684407,0.103958,0.404365
7549579927,61.213806,17.054026,-4.458288,0.784636,0.156991,0.403331
7549599888,39.693211,13.227314,5.972468,0.814158,0.218486,0.458504
7549619849,12.825771,9.543677,11.012039,0.787071,0.299729,0.506214
7549639810,-9.163904,7.761644,12.657240,0.846697,0.300054,0.502294
7549659771,-13.015507,11.599172,16.395536,0.914842,0.175023,0.485467
7549679732,5.146830,15.989701,23.757599,0.910163,0.103859,0.507855
7549699693,31.775524,17.590391,22.499878,0.881352,0.185527,0.533672
7549719660,41.628578,18.114500,11.420757,0.855972,0.272144,0.514850
7549739614,34.465000,15.237107,6.270943,0.794874,0.210031,0.507007
7549759575,24.844992,10.373437,4.075849,0.726430,0.120497,0.514776
7549779536,14.558144,3.517969,1.168124,0.734234,0.043102,0.511452
7549799497,14.423177,5.323136,2.341339,0.726664,-0.066740,0.472681
7549819458,22.757456,5.622976,17.122248,0.707254,-0.185461,0.483558
7549839419,39.829941,7.209830,39.071743,0.801042,-0.128497,0.510571
7549859380,68.361351,18.516352,38.025902,0.923115,0.201366,0.490104
7549879341,69.517784,18.730352,6.510579,0.832320,0.553974,0.463267
7549899302,47.322048,8.339347,-11.086370,0.837740,0.553153,0.410837
7549919262,41.398445,8.683340,-8.283198,0.853237,0.412127,0.369449
7549939223,34.339165,3.087560,-3.676212,0.856177,0.343601,0.335111
7549959185,20.473425,-3.988937,-1.191774,0.826802,0.346072,0.334077
7549979146,5.214571,-11.230819,-3.720702,0.822760,0.369287,0.370957
7549999106,-9.149908,-17.627483,-8.069398,0.816836,0.370213,0.399063
7550019067,-13.928868,-22.023184,-11.888505,0.828725,0.324703,0.403396
7550039028,-8.035454,-23.011396,-13.651065,0.828252,0.268567,0.405855
7550058991,0.749086,-22.317379,-13.843165,0.866446,0.251674,0.421493
7550078952,5.653620,-18.456232,-14.682742,0.878216,0.257741,0.434449
7550098913,4.284989,-18.437057,-14.884618,0.890137,0.268794,0.446598
7550118874,-1.474824,-18.357782,-14.865824,0.893211,0.280993,0.443813
7550138835,-9.098423,-17.899418,-14.603304,0.872984,0.272312,0.445042
7550158796,-14.800658,-17.491261,-13.567829,0.901688,0.255684,0.434731
7550178757,-15.647591,-13.872033,-11.496538,0.899505,0.234991,0.423010
7550198718,-13.557724,-13.218968,-8.667347,0.903244,0.218898,0.419153
7550218679,-10.683193,-13.437358,-6.820883,0.891691,0.212878,0.409569
7550238640,-8.817756,-14.327635,-7.883496,0.860648,0.194749,0.409752
7550258601,-8.127146,-15.593738,-8.615495,0.877678,0.194112,0.409347
7550278587,-8.319408,-14.388467,-7.092459,0.895314,0.197908,0.407878
7550298522,-9.628796,-12.681653,-3.759996,0.894701,0.200265,0.413200
7550318483,-11.698320,-12.614997,-0.389647,0.900488,0.200045,0.420959
7550338444,-13.784145,-12.455529,-0.040076,0.898784,0.194152,0.427035
7550358405,-13.121246,-10.709145,-0.351661,0.920096,0.176583,0.427987
7550378366,-10.802789,-7.080581,0.052816,0.933006,0.162079,0.421176
7550398327,-7.069911,-4.626055,1.268200,0.908523,0.163227,0.426445
7550418288,-4.183875,-3.242055,2.019431,0.884355,0.167646,0.425565
7550438249,-3.354645,-2.105222,1.398141,0.885350,0.169292,0.426922
7550458210,-4.328912,-2.311053,-0.388283,0.889906,0.162907,0.428659
7550478171,-4.387082,-2.852993,-1.465361,0.907402,0.156470,0.429813
7550498132,-3.019220,-1.176242,-1.250844,0.916316,0.156674,0.425147
7550518093,-1.387928,0.158109,-0.708599,0.924887,0.162990,0.428024
7550538054,0.489823,1.696056,-0.636387,0.942797,0.178868,0.438655
7550558016,2.158678,1.281590,0.121099,0.945320,0.197894,0.467257
7550577976,6.154057,3.428844,0.229755,0.966346,0.192265,0.470193
7550597937,12.687520,11.483253,-0.337486,0.955931,0.201980,0.455819
7550617900,15.859665,16.148802,-1.001844,0.908703,0.228182,0.430120
7550637861,15.596526,18.312788,-3.108215,0.890145,0.239711,0.397172
7550657822,11.437705,18.393185,-3.767178,0.885456,0.237267,0.382101
7550677783,5.403749,16.168362,-4.087369,0.866034,0.229438,0.373769
7550697744,2.087783,13.385604,-5.247759,0.841740,0.221813,0.357330
7550717705,2.495141,10.448447,-5.424169,0.822260,0.229639,0.350288
7550737666,2.648449,7.490558,-4.971467,0.803221,0.245687,0.365066
7550757626,0.349264,3.794947,-4.654787,0.809700,0.254463,0.385530
7550777588,-1.927454,2.431590,-5.517876,0.815086,0.265302,0.390823
7550797548,-6.396825,0.771057,-6.372589,0.805634,0.284435,0.405817
7550817509,-13.557116,-3.042376,-8.067812,0.797301,0.285079,0.425323
7550837471,-20.475903,-6.645759,-10.809890,0.812588,0.259395,0.438955
7550857430,-22.648846,-10.126215,-12.959672,0.828523,0.212331,0.445573
7550877391,-19.189865,-12.760945,-12.951893,0.846833,0.198983,0.459605
7550897352,-15.511836,-13.650989,-11.033465,0.867865,0.221599,0.466996
7550917313,-13.979553,-12.968105,-9.382521,0.867717,0.230633,0.475496
7550937274,-13.012728,-12.049552,-8.667295,0.877226,0.218127,0.466223
7550957235,-12.160177,-9.069294,-7.750612,0.867324,0.210156,0.454880
7550977196,-12.913515,-7.367902,-6.222583,0.847503,0.206486,0.450934
7550997157,-13.198380,-6.717925,-4.911527,0.848370,0.188655,0.438129
7551017118,-11.258032,-6.217938,-2.803596,0.872032,0.176885,0.427009
7551037080,-8.402584,-5.985046,0.294382,0.888111,0.177863,0.424465
7551057040,-7.023889,-6.234759,3.092215,0.876346,0.185242,0.429683
7551077001,-7.121366,-7.767294,4.748675,0.873962,0.176094,0.436437
7551096962,-6.155141,-8.635476,5.671484,0.894597,0.159403,0.434812
7551116924,-3.949061,-8.124226,6.247216,0.901762,0.151186,0.437446
7551136885,-1.407571,-7.835260,6.490456,0.904624,0.162669,0.441499
7551156845,0.543202,-7.126618,6.495842,0.897859,0.173772,0.443834
7551176807,2.478306,-5.407825,5.831800,0.885490,0.176373,0.438829
7551196769,3.764713,-4.028939,5.287553,0.886522,0.175053,0.436320
7551216730,4.524342,-3.523734,4.348221,0.892278,0.178378,0.431545
7551236691,4.514649,-3.236649,3.391495,0.894155,0.189410,0.428940
7551256652,4.240310,-2.591383,2.387821,0.900369,0.195683,0.414745
7551296574,5.906220,-0.900924,2.330085,0.893424,0.200313,0.396967
7551316535,5.188095,-1.354469,2.556072,0.896712,0.207786,0.400548
7551336496,3.417337,-2.862490,2.408275,0.895638,0.210805,0.401116
7551356457,3.647183,-3.519130,1.476518,0.899890,0.198436,0.385005
7551376418,4.570342,-3.012729,1.387739,0.911367,0.201441,0.381069
7551396379,4.074271,-2.538125,2.136742,0.903747,0.216077,0.381964
7551416339,2.126442,-2.379558,2.259089,0.893863,0.218698,0.386384
7551436300,0.576727,-2.680470,1.434760,0.887671,0.209495,0.386694
7551456261,-0.814458,-3.247983,0.649302,0.890923,0.203527,0.384940
7551476222,-1.066449,-3.688662,0.451803,0.904137,0.196404,0.385845
7551496183,-0.281648,-3.440233,0.438847,0.915710,0.196826,0.385595
7551516144,0.283533,-2.597308,0.727852,0.910319,0.196258,0.386416
7551536105,0.695797,-1.944034,1.009046,0.906709,0.196621,0.390077
7551556066,0.410818,-1.457378,0.529244,0.916797,0.196534,0.391266
7551576027,-0.759255,-1.522967,0.092879,0.910454,0.199952,0.396739
7551595988,-1.070077,-1.674856,-0.294981,0.902092,0.202316,0.397093
7551615949,-0.377993,-1.356936,0.063534,0.889778,0.202199,0.392772
7551635910,0.441369,-1.335628,0.612647,0.885602,0.205164,0.393648
