Timestamp (us),Gyroscope X (deg/s),Gyroscope Y (deg/s),Gyroscope Z (deg/s),Accelerometer X (g),Accelerometer Y (g),Accelerometer Z (g)
4437407600,4.135331,11.189573,-1.306051,0.995053,0.048634,0.178335
4437427645,4.604364,11.774918,-0.205548,1.004414,0.050600,0.167098
4437447689,5.600113,13.104767,1.095907,1.001825,0.067609,0.168941
4437467734,6.180242,13.461697,1.532983,1.011476,0.089170,0.182490
4437487779,4.794023,15.659621,1.815792,0.994622,0.087930,0.202863
4437507824,4.300459,17.217926,1.231494,0.968747,0.093677,0.225296
4437527868,2.252793,16.056742,1.126399,0.963098,0.082787,0.233084
4437547913,1.509539,17.265848,1.024298,0.963243,0.068226,0.236938
4437567958,2.217540,18.815556,0.529834,0.949184,0.054416,0.239498
4437588003,3.635997,19.057114,-0.441175,0.944665,0.068877,0.263017
4437608048,2.987294,18.616638,-0.877646,0.952199,0.071164,0.254586
4437628092,2.469257,18.654955,-1.170824,0.957049,0.067960,0.262751
4437648138,1.233584,18.275593,-2.044714,0.951821,0.068870,0.276818
4437668183,-0.123318,17.182076,-2.467519,0.943324,0.070086,0.288581
4437688227,-0.744240,14.469145,-2.505903,0.951411,0.068700,0.290200
4437708272,-0.886286,14.241581,-1.765625,0.959276,0.059428,0.297526
4437728317,-0.037959,14.400951,-0.682863,0.959077,0.066417,0.305479
4437748361,-0.394135,14.773750,-0.558592,0.946485,0.077335,0.301473
4437768406,-1.576871,14.766662,-1.684643,0.928436,0.072180,0.307666
4437788462,-0.832192,12.318177,-2.609852,0.933953,0.077609,0.288360
4437808494,-6.622401,10.521668,-2.929437,0.930703,0.097790,0.311295
4437828539,-6.632411,11.288898,-3.928082,0.927267,0.063520,0.292797
4437848584,-4.074376,13.300852,-3.972452,0.948686,0.100816,0.288003
4437868628,-11.173798,10.274245,-4.105616,0.959058,0.088689,0.296555
4437888673,-10.877314,9.802846,-3.886513,0.981605,0.037021,0.283671
4437908718,-6.880128,13.713583,-4.256063,0.980927,0.042497,0.320585
4437928763,-6.144938,11.234488,-5.661122,0.974998,0.040338,0.312366
4437948807,-4.565231,11.666073,-6.305960,0.966133,0.021104,0.319561
4437968852,-0.308337,10.431273,-5.887951,0.932860,0.040493,0.322162
4437988897,1.992415,8.910032,-3.923397,0.924827,0.066735,0.328715
4438008942,3.287934,9.631185,-3.469295,0.926675,0.086263,0.322468
4438028988,2.445736,10.604794,-3.486613,0.933789,0.080138,0.322297
4438049033,5.591761,12.684937,-2.888001,0.923684,0.064702,0.335188
4438069077,8.661807,12.195772,-3.040588,0.931441,0.092344,0.341117
4438089122,4.371339,13.985859,-2.559905,0.917248,0.095519,0.347360
4438109167,4.604217,14.388975,-1.495510,0.906329,0.071815,0.349843
4438129212,9.338144,11.314560,-0.706124,0.928606,0.084452,0.365743
4438149258,10.592598,12.225365,-1.143227,0.951754,0.096016,0.361355
4438169301,10.588993,14.611942,-1.236876,0.941640,0.071958,0.367034
4438189345,13.995972,13.218485,-0.324629,0.925644,0.064707,0.377447
4438229434,14.410590,11.692100,3.467546,0.916969,0.095938,0.379220
4438249479,16.235039,9.912319,4.262780,0.920681,0.099963,0.376300
4438269524,15.591170,9.031664,5.304637,0.919408,0.114059,0.381364
4438289568,12.719675,7.902164,6.462848,0.906119,0.104190,0.388450
4438309613,12.093701,6.701753,6.369744,0.915127,0.093750,0.375401
4438329658,12.253085,6.952352,6.177828,0.914228,0.100775,0.374335
4438349703,12.125115,7.332567,6.330815,0.909920,0.106902,0.380626
4438369747,11.410143,6.033709,6.870806,0.923707,0.101947,0.379493
4438389792,9.491396,8.102870,7.127347,0.913224,0.087089,0.370798
4438409837,10.101391,8.687680,7.312574,0.908511,0.072196,0.381539
4438429883,12.251675,8.039750,7.281464,0.897005,0.074120,0.396826
4438449928,11.591455,3.776496,7.648617,0.894210,0.084430,0.404641
4438469972,10.626798,1.481621,6.987772,0.913427,0.081247,0.395157
4438490017,10.644135,1.572147,5.509604,0.931280,0.092347,0.391281
4438510072,9.882151,3.062017,4.348438,0.929630,0.109558,0.385209
4438530106,7.471462,3.231206,4.107739,0.891167,0.114111,0.405557
4438550151,6.366536,-0.576165,3.274179,0.901405,0.127304,0.397967
4438570196,3.434639,0.345281,1.566435,0.910448,0.132934,0.388518
4438590239,0.868740,0.916980,0.305693,0.905001,0.115144,0.388078
4438610284,-0.235150,0.720182,0.009611,0.897342,0.095842,0.388273
4438630329,0.485631,-0.975205,0.432313,0.897987,0.082772,0.385017
4438650373,1.053702,-2.282986,0.497758,0.921758,0.080090,0.378657
4438670418,1.579689,-1.173813,0.332692,0.932681,0.085204,0.377329
4438690463,2.346843,-0.954189,0.037108,0.931938,0.104864,0.383808
4438710507,0.446806,-0.336947,-0.086037,0.921260,0.098398,0.387880
4438730552,-0.197204,-1.864437,-0.765302,0.925716,0.102285,0.379960
4438750597,-1.108797,-0.738903,-1.109819,0.925147,0.099236,0.373243
4438770641,-0.693058,-1.659033,-1.302594,0.922585,0.094143,0.382189
4438790686,-1.226357,-2.274227,-1.297923,0.929944,0.098676,0.381295
4438810733,-2.435817,-1.931298,-1.624179,0.929978,0.092968,0.373786
4438830777,-1.486474,-1.909439,-1.898119,0.926446,0.088378,0.374617
4438850822,-0.945905,-1.476669,-1.902673,0.924677,0.092141,0.374482
4438870867,-1.210097,-1.407823,-1.435996,0.915381,0.079145,0.373520
4438890912,-0.358453,-2.373623,-0.938805,0.917102,0.079426,0.377991
4438910956,-0.776196,-2.920346,-0.569407,0.917092,0.079073,0.379633
4438931001,0.317506,-3.362165,-0.645940,0.923528,0.082327,0.376558
4438951046,0.410844,-2.571695,-0.472182,0.926969,0.099774,0.375711
4438971089,-0.196375,-2.046717,-0.460404,0.923607,0.100179,0.374408
4438991134,-1.076675,-1.521430,-0.286549,0.928760,0.089108,0.366980
4439011179,-1.863329,-0.722373,0.389137,0.922605,0.078695,0.364108
4439031223,-0.584562,-1.376818,1.096071,0.918043,0.066956,0.370180
4439051268,2.070870,-1.333272,1.616569,0.932829,0.074097,0.367225
4439071313,3.122864,-0.490353,1.950530,0.932102,0.081802,0.372164
4439091358,3.526044,-0.627457,2.077079,0.926014,0.080535,0.360931
4439111402,4.955395,0.161614,1.707314,0.937908,0.078385,0.365497
4439131447,6.104334,0.844646,1.621676,0.935274,0.085446,0.365692
4439151492,6.478106,0.874866,1.931132,0.922452,0.089625,0.374942
4439171536,6.400085,-0.523529,2.077800,0.930589,0.103051,0.369974
4439191581,3.850712,0.390270,0.999448,0.925949,0.105176,0.376842
4439211627,3.072510,0.208243,0.373268,0.923535,0.093566,0.367543
4439231672,3.020075,0.702319,0.342730,0.920804,0.096427,0.379244
4439251717,2.236604,-0.079752,0.616117,0.919193,0.103800,0.374346
4439271762,0.490306,0.028419,1.177921,0.914260,0.095827,0.370916
4439291814,1.356095,-0.625957,1.248084,0.925185,0.095215,0.372002
4439311851,0.918227,1.479725,1.051375,0.925622,0.093745,0.371380
4439331896,1.638554,0.475799,1.023947,0.914916,0.085743,0.377195
4439351940,2.231715,-0.041432,1.309383,0.922858,0.091784,0.371832
4439371984,2.284954,-0.284645,1.431097,0.924802,0.088129,0.374698
4439392029,2.541786,-0.300262,1.002518,0.932411,0.102743,0.368988
4439412073,1.251767,0.977784,1.034056,0.927097,0.101476,0.371874
4439432118,0.432340,0.910298,1.505118,0.927963,0.104276,0.370127
4439452163,0.116246,1.366895,2.131810,0.930333,0.094467,0.355021
4439472208,1.265833,2.437555,2.030565,0.938407,0.090663,0.350013
4439492252,1.591031,3.538933,1.051888,0.921266,0.095720,0.345658
4439512297,1.739929,2.254190,0.838649,0.929232,0.132128,0.353974
4439532342,-0.590294,2.963368,1.503399,0.937128,0.158244,0.338429
4439552386,1.215429,3.137044,2.434059,0.904577,0.108739,0.321393
4439572431,7.576639,0.646388,3.019960,0.891157,0.103773,0.362943
4439592476,8.815819,-2.052355,4.292885,0.860897,0.158046,0.404883
4439612522,1.308148,-9.448693,4.860248,0.884757,0.252970,0.406550
4439632567,-8.344737,-13.872094,3.681421,0.941276,0.224406,0.418670
4439652611,-14.017554,-13.991616,-2.544830,0.927092,0.166360,0.405844
4439672656,-23.402498,-12.877120,-9.878911,0.888295,0.172517,0.395313
4439692701,-33.953426,-16.663332,-15.591959,0.890537,0.177442,0.400114
4439712746,-44.146385,-20.236107,-19.243395,0.943128,0.257015,0.355958
4439732791,-56.840454,-12.938248,-24.059153,0.929365,0.356407,0.342928
4439752833,-72.179993,-10.800528,-32.308449,0.915956,0.390310,0.326344
4439772878,-87.419586,-14.925285,-39.265102,0.934932,0.319312,0.318146
4439792923,-95.743362,-15.900927,-44.449371,0.959146,0.250839,0.279375
4439812968,-106.557259,-8.063987,-46.925995,0.907612,0.232084,0.264495
4439833012,-111.488419,-12.743987,-51.866127,0.900298,0.256411,0.322600
4439853057,-119.335876,-15.907981,-54.705544,0.945383,0.285406,0.290643
4439873102,-125.818275,-13.814116,-58.969769,0.948511,0.256116,0.293639
4439893147,-131.636597,-14.609053,-63.152561,0.947249,0.259305,0.303345
4439913192,-135.976944,-17.683723,-63.459198,0.982395,0.263154,0.303297
4439933236,-137.167679,-16.344919,-63.337059,0.987783,0.263707,0.302603
4439953281,-143.540833,-9.801768,-61.016514,0.946995,0.284105,0.265628
4439973326,-149.601562,-9.664807,-55.446915,0.876584,0.182733,0.171446
4439993372,-143.415192,-15.233828,-55.374805,0.918504,0.094318,0.234939
4440013416,-133.087402,-17.197121,-57.577644,1.018850,0.110671,0.195659
4440033461,-133.995636,-16.824398,-58.675682,1.072117,0.287487,0.173649
4440053506,-139.334198,-5.828125,-56.336807,1.001357,0.231861,0.163758
4440073551,-134.807175,-8.804664,-58.014252,0.971179,0.166866,0.190295
4440093596,-127.997849,-9.632467,-60.335926,0.990644,0.127618,0.198864
4440113641,-125.944992,-9.269473,-60.481518,0.979227,0.088976,0.289871
4440133685,-115.554520,-12.318364,-59.682205,0.976513,0.064106,0.286779
4440153729,-103.086517,-10.769588,-56.579575,0.963984,0.051894,0.274224
4440173773,-93.205772,-9.036477,-54.173405,0.955486,0.024031,0.298974
4440193818,-85.172661,-6.397501,-52.241497,0.903200,0.038121,0.323422
4440213863,-78.611427,-10.666230,-50.185116,0.883250,0.098309,0.360017
4440233907,-75.142059,-17.159422,-48.415279,0.921456,0.179033,0.344243
4440253952,-78.825027,-16.068159,-45.797852,0.922963,0.205457,0.332837
4440273997,-78.962578,-13.604230,-43.170818,0.888515,0.176755,0.289121
4440294041,-69.137436,-20.588367,-39.209465,0.879667,0.165797,0.356065
4440314086,-64.017632,-20.584818,-38.387852,0.855583,0.143380,0.320385
4440334131,-56.593025,-30.738155,-38.381855,0.909907,0.194055,0.317632
4440354176,-55.939613,-32.948296,-33.448116,0.986875,0.248243,0.318020
4440374220,-61.919224,-28.715809,-30.496082,0.942022,0.253243,0.286423
4440394266,-66.116501,-41.023621,-26.742157,0.929592,0.287846,0.280310
4440414311,-72.916801,-44.983063,-21.757235,0.997249,0.358387,0.216127
4440434356,-76.579422,-35.614037,-17.761259,1.085176,0.410917,0.174182
4440454401,-93.933151,-22.189417,-13.321324,1.049218,0.436189,0.215500
4440474446,-103.777885,-16.388538,-11.887653,0.974580,0.275274,0.236404
4440514535,-117.310760,-17.468908,-23.316975,0.969605,0.208036,0.181932
4440534601,-128.451111,-12.561769,-34.244633,0.973796,0.243177,0.196331
4440554623,-128.435989,-14.470057,-35.347599,0.924779,0.247214,0.236636
4440574668,-124.137054,-23.633829,-38.053539,0.999935,0.243949,0.205802
4440594713,-127.653923,-12.430305,-44.566048,1.083477,0.217594,0.101109
4440614757,-132.673325,11.764334,-50.576508,0.943658,0.118869,0.202781
4440634802,-130.274460,2.999226,-49.321976,0.851871,0.149406,0.339063
4440654847,-138.154816,-8.454703,-46.850964,0.946643,0.276663,0.256947
4440674892,-147.150543,3.266611,-44.918972,0.966444,0.243294,0.272389
4440694936,-136.742218,7.055367,-50.685612,0.890528,0.087513,0.344681
4440714981,-125.408203,12.324919,-57.649193,0.805062,0.176905,0.250636
4440735026,-137.531494,-9.432429,-56.377689,0.807103,0.278490,0.320918
4440755070,-144.365494,-28.883602,-54.813713,0.980422,0.277073,0.270027
4440775117,-148.842697,-29.710638,-60.179981,1.160075,0.296714,0.156917
4440795161,-152.754837,-11.673412,-65.956940,1.124939,0.197664,0.128798
4440815206,-147.225494,-5.912052,-72.145126,1.013731,-0.006667,0.246847
4440835251,-133.140213,-13.099836,-73.389076,0.998959,-0.063971,0.221993
4440855295,-124.286926,-10.051329,-71.898079,0.975307,-0.025916,0.291246
4440875340,-116.564316,-8.263934,-71.235245,0.918818,0.032764,0.346068
4440895385,-106.869522,-10.529077,-69.821869,0.932163,0.075868,0.383594
4440915430,-100.869629,-13.034192,-68.280899,0.908215,0.130861,0.336987
4440935473,-95.758919,-15.980144,-68.431564,0.774060,0.139672,0.344493
4440955518,-93.859016,-28.499321,-66.636383,0.773817,0.177349,0.360022
4440975563,-94.099815,-33.293823,-63.689342,0.870791,0.212238,0.317833
4440995607,-94.099960,-29.073664,-59.762287,0.937392,0.272371,0.337125
4441015652,-97.825836,-25.185591,-57.771881,0.904250,0.260606,0.330971
4441055741,-96.712532,-34.821762,-52.293751,0.966340,0.225430,0.310410
4441075786,-86.744865,-35.170479,-48.027416,0.963319,0.215288,0.326132
4441095831,-85.685394,-40.589195,-44.724072,0.996275,0.293748,0.289034
4441115876,-93.998177,-36.254910,-39.598270,0.982044,0.419783,0.227982
4441135920,-107.212502,-39.076225,-34.443356,0.950673,0.393748,0.231428
4441155965,-111.225739,-43.973133,-29.836979,0.930900,0.296793,0.197031
4441176011,-111.000381,-36.902931,-25.960058,0.950936,0.335114,0.230002
4441196056,-110.809937,-29.118019,-21.611214,0.993393,0.273578,0.217436
4441216101,-113.947968,-22.935249,-20.076960,1.013366,0.216161,0.185826
4441236145,-115.107460,-15.047790,-26.863426,0.919059,0.133519,0.236076
4441256190,-115.416763,-23.094236,-38.334217,0.906576,0.168604,0.333659
4441276235,-125.840668,-29.059948,-39.597095,0.994017,0.268751,0.256994
4441296280,-129.532928,-23.851091,-41.386871,1.015442,0.186109,0.257286
4441316324,-125.271667,-12.997083,-49.596615,0.988354,0.175857,0.245883
4441336368,-128.325699,-4.270463,-53.177284,0.925532,0.264079,0.275743
4441356412,-135.808655,-11.651398,-52.114941,0.929450,0.307771,0.299446
4441376457,-139.763077,-9.641048,-51.339928,0.932225,0.258067,0.265098
4441396502,-132.347778,5.226005,-53.787743,0.870247,0.259943,0.244964
4441416547,-137.778503,-10.146069,-55.019070,0.807981,0.257641,0.238974
4441436591,-150.362244,-35.235516,-61.260139,1.057428,0.254549,0.202310
4441456636,-160.577988,-16.501448,-67.614128,1.149624,0.180623,0.142958
4441476681,-148.096756,-0.559405,-69.918976,1.032867,0.007481,0.226021
4441496726,-126.920609,-9.827253,-68.838394,0.994648,-0.062828,0.320098
4441516770,-118.985664,-7.887225,-66.394653,0.975202,-0.041823,0.310041
4441536815,-108.936111,-8.470885,-60.475555,0.897568,-0.023412,0.299944
4441556860,-94.380821,-15.072309,-58.371605,0.894619,0.037908,0.326639
4441576906,-89.689240,-10.888304,-58.205845,0.897645,0.098640,0.334900
4441596951,-87.063034,-10.753405,-57.418564,0.865515,0.145163,0.385448
4441616995,-87.394241,-16.126156,-55.971088,0.884335,0.216377,0.375802
4441637040,-90.279671,-16.336010,-54.920292,0.940971,0.221704,0.360057
4441657085,-88.997025,-12.741228,-53.234650,0.930138,0.193514,0.372593
4441677129,-85.070801,-14.119669,-51.739788,0.896092,0.194414,0.363505
4441697174,-83.782578,-23.181158,-52.502930,0.926223,0.191468,0.333978
4441717218,-78.167351,-25.715973,-50.143822,0.976425,0.205946,0.347245
4441737262,-76.136124,-19.520746,-44.794353,0.909847,0.197517,0.379786
4441757307,-72.435524,-30.779270,-41.909512,0.865218,0.227991,0.391500
4441777352,-75.856674,-44.622688,-37.253506,0.966944,0.352418,0.373280
4441797396,-86.966194,-41.881649,-31.076283,0.994011,0.404724,0.237936
4441817442,-96.743927,-35.144512,-26.474798,0.956743,0.240685,0.244662
4441837486,-98.458130,-33.299088,-16.331066,0.938686,0.190271,0.307858
4441857531,-91.059799,-29.484352,-3.981190,0.945406,0.388696,0.202843
4441877575,-107.637314,-24.535061,0.719828,0.888480,0.423206,0.230184
4441897620,-111.273560,-29.392467,-7.483078,1.004300,0.404098,0.323325
4441917665,-126.438248,-11.890510,-25.080658,1.068096,0.367678,0.135447
4441977801,-122.731987,-42.364285,-57.381840,0.979596,0.181925,0.360212
4441997845,-133.966248,-21.501965,-48.729607,1.027662,0.180888,0.203975
4442017890,-129.794525,-13.896471,-46.963249,0.959016,0.137033,0.212394
4442037935,-136.607346,-15.076127,-46.589931,0.924600,0.181938,0.286338
4442057979,-142.122391,-15.032831,-45.412556,0.939545,0.185080,0.272855
4442078024,-147.929047,-13.257016,-45.773487,0.956431,0.200823,0.278493
4442098069,-152.969940,-14.226274,-47.371853,0.946082,0.156736,0.325123
4442118112,-147.912766,-11.244954,-50.445526,0.961315,0.175921,0.236672
4442138157,-154.612274,-3.662186,-52.465889,0.925658,0.227117,0.157782
4442158202,-163.688171,-23.433172,-56.483879,0.966054,0.120301,0.245269
4442178246,-163.995529,-25.488634,-64.326416,1.158820,0.065146,0.116119
4442198291,-159.253113,-0.095092,-72.942131,1.115646,-0.119776,0.109864
4442218336,-138.146393,1.046806,-79.100639,0.964381,-0.237389,0.285901
4442238381,-127.665558,-10.340230,-78.530296,0.948815,-0.093016,0.324291
4442258426,-121.044601,-6.058406,-76.870987,0.968444,-0.018424,0.304427
4442278470,-108.537384,-5.833558,-76.807114,0.913112,0.021609,0.342386
4442298515,-103.297707,-10.155082,-76.370872,0.886540,0.087736,0.367139
4442318559,-105.077263,-14.135511,-74.601250,0.888437,0.145554,0.373503
4442338604,-105.916306,-14.543661,-71.135727,0.882191,0.162997,0.352283
4442358650,-104.521004,-15.455379,-67.656387,0.878525,0.161878,0.353813
4442378695,-101.809204,-18.390339,-64.886101,0.901976,0.160322,0.338610
4442398740,-99.491074,-20.450867,-62.090782,0.940545,0.168236,0.340557
4442418784,-98.297211,-21.651621,-59.462868,0.955976,0.185406,0.351453
4442438829,-96.372978,-20.412752,-55.875340,0.940235,0.172260,0.341614
4442458874,-90.244370,-19.215504,-52.259056,0.925488,0.199217,0.370053
4442478919,-90.134308,-23.280664,-49.361107,0.940648,0.266775,0.376617
4442498967,-96.626671,-23.965624,-46.933769,0.966031,0.215934,0.307755
4442519007,-86.206528,-22.218727,-46.634399,0.949033,0.097578,0.307333
4442539052,-71.700653,-20.469194,-49.520332,0.924739,0.148391,0.349527
4442559096,-75.537262,-28.231787,-45.072586,0.959456,0.199394,0.351545
4442579141,-78.464996,-28.478306,-41.141720,0.984904,0.197614,0.309592
4442599186,-82.537987,-24.832796,-38.348495,0.978987,0.190271,0.303145
4442619230,-78.995834,-19.872856,-38.921242,0.942894,0.165187,0.277141
4442639275,-79.507088,-20.721933,-35.015953,0.906129,0.214105,0.333918
4442659320,-85.262527,-25.123531,-30.952820,0.852870,0.285854,0.349689
4442679365,-85.902367,-33.516079,-35.229080,0.854337,0.284091,0.310929
4442699410,-94.791046,-42.106659,-39.365726,0.988336,0.137542,0.279977
4442719454,-87.433128,-32.017147,-34.632153,1.056640,0.028391,0.266901
4442739500,-79.813057,-21.956936,-26.937044,0.961223,0.069753,0.304739
4442759545,-80.881401,-29.196581,-20.522640,0.948167,0.107353,0.308339
4442779590,-75.462341,-25.802885,-18.609497,0.953233,0.077575,0.273205
4442799634,-69.890968,-28.527430,-15.693738,0.975226,0.078043,0.295122
4442819679,-65.810799,-31.257515,-11.060041,1.021952,0.035501,0.258031
4442839724,-63.084377,-22.009472,-10.282148,1.002260,-0.006873,0.270163
4442859769,-59.754860,-22.155886,-8.349637,1.009359,0.023629,0.266868
4442899857,-47.661362,-8.499027,-5.575556,0.965931,-0.052172,0.284566
4442919902,-35.786495,-10.431021,-2.830770,0.945487,-0.050097,0.302062
4442939946,-28.990288,-7.402246,1.525253,0.946220,-0.033869,0.316228
4442959991,-18.585514,-4.407309,5.175611,0.939564,0.007918,0.331949
4442980036,-11.499805,-3.036209,8.487275,0.918373,0.030605,0.361652
4443000080,-6.383000,-5.685081,9.791368,0.928721,0.010458,0.370634
4443020125,0.444348,-7.362762,10.609094,0.963429,0.051311,0.330673
4443040170,-5.070243,-3.816246,10.229015,0.973294,0.130012,0.304238
4443060215,-13.767096,2.014024,11.615767,0.874155,0.138103,0.360077
4443080260,0.002796,0.606758,18.604155,0.828800,-0.016215,0.345542
4443100305,8.871346,-19.111107,15.058002,1.067488,0.039309,0.286283
4443120350,-1.765949,5.880548,12.799971,1.095592,0.032658,0.332156
4443140395,4.747960,8.708274,9.014390,0.947271,0.055978,0.387510
4443160440,7.663514,4.478420,6.024899,0.949018,0.020241,0.366149
4443180485,16.984730,7.137665,4.808173,0.913526,0.025749,0.373492
4443200529,23.421051,1.644308,4.596416,0.863158,0.086728,0.406034
4443220574,21.859526,-1.387617,3.278052,0.853043,0.094367,0.382590
4443240619,22.653120,-4.033328,3.312561,0.892722,0.113672,0.373434
4443260664,25.200989,-4.639742,11.826091,0.930178,0.079734,0.309528
4443280709,41.834724,-3.480385,18.950077,0.917056,0.138092,0.284095
4443300752,39.668194,-1.224665,27.908436,0.846394,0.223285,0.357441
4443320796,30.061193,-13.137142,38.361855,0.859985,0.146826,0.326943
4443340841,34.562866,-23.295967,37.460846,1.056655,0.184186,0.215632
4443360886,12.704143,3.495187,26.434685,1.057755,0.171204,0.212924
4443380930,-2.935890,16.806004,17.773357,0.849194,0.110040,0.373510
4443400975,-5.695656,-8.771424,10.086130,0.847225,0.199819,0.391783
4443421020,-22.597088,-9.624977,6.384519,0.967373,0.136618,0.247693
4443441065,-28.713230,-8.823111,3.086222,1.039710,0.057373,0.218284
4443461110,-30.248154,-2.218108,0.143466,1.069068,0.183318,0.234667
4443481154,-50.611042,6.007038,-2.496481,1.044443,0.291325,0.293230
4443501199,-67.252739,7.804577,-9.135633,0.982146,0.257260,0.269566
4443521244,-79.542015,5.037557,-16.626617,0.944929,0.238128,0.307509
4443541290,-91.846504,3.152039,-24.537323,0.928268,0.230266,0.295161
4443561334,-102.650215,1.516353,-31.774124,0.919817,0.241123,0.278895
4443581379,-113.255386,-0.590545,-38.562523,0.918815,0.252179,0.242743
4443601424,-123.426605,-0.637502,-44.182983,0.926001,0.236041,0.232276
4443621468,-133.498108,-1.261968,-49.293228,0.932839,0.215680,0.254618
4443641514,-141.368668,-0.793629,-53.949055,0.949330,0.228298,0.256000
4443661558,-147.757523,2.266409,-56.074177,0.978474,0.220807,0.201284
4443681610,-154.575211,5.394844,-59.041706,0.978377,0.167301,0.164669
4443701646,-162.066330,4.304966,-63.135216,0.985423,0.121634,0.180211
4443721691,-168.045013,1.557128,-66.568344,1.037969,0.138655,0.184370
4443741736,-170.010513,8.694765,-69.035965,1.076589,0.162769,0.157503
4443761780,-170.185211,16.233196,-72.599495,1.057876,0.197173,0.148707
4443781825,-181.396286,13.574168,-74.522247,1.024818,0.146855,0.144146
4443801870,-178.605316,1.528244,-66.571144,1.093922,0.017137,0.187784
4443821915,-177.006073,-3.868149,-63.287197,1.199747,-0.019153,0.166824
4443862004,-163.902069,10.396584,-58.982544,0.977992,-0.118641,0.320710
4443882049,-151.749374,3.821815,-52.936775,0.975195,-0.085041,0.234193
4443902093,-140.171967,14.924143,-52.693218,0.849399,-0.055246,0.286198
4443922140,-132.809052,3.599599,-54.354046,0.801097,-0.042760,0.311508
4443942185,-128.084808,-2.044432,-54.872498,0.875823,0.006926,0.252374
4443962229,-128.531235,2.888894,-54.675667,0.890002,0.054764,0.278212
4443982274,-127.565323,5.334999,-55.751942,0.863311,0.044077,0.283113
4444002319,-122.133675,5.572964,-57.005131,0.876544,0.009761,0.267560
4444022363,-119.176949,4.824713,-58.840240,0.927374,0.022958,0.306607
4444042408,-114.774727,6.150774,-59.416149,0.969059,-0.007503,0.303157
4444062453,-109.644928,4.921751,-61.366512,0.999913,-0.044468,0.323262
4444082496,-104.468185,1.663898,-61.997345,1.011329,-0.004269,0.295883
4444102541,-100.544647,4.199553,-61.085152,1.010171,0.037859,0.332309
4444122586,-99.960846,4.138066,-61.478107,0.973854,0.063854,0.346942
4444142630,-99.157700,1.544870,-62.952145,0.956213,0.061632,0.381064
4444162675,-98.827049,-1.975136,-64.276932,0.975005,0.058949,0.364289
4444182720,-97.246758,-2.592152,-64.265610,0.973517,0.056685,0.363387
4444202765,-95.458839,-2.038814,-64.196037,0.934962,0.067574,0.327053
4444222809,-94.481842,-4.328319,-66.083084,0.897819,0.084883,0.361600
4444242854,-95.864410,-9.284275,-69.397003,0.917869,0.123309,0.333933
4444262899,-98.019989,-9.130904,-70.515732,0.960331,0.113849,0.324034
4444282943,-95.829811,-7.809590,-69.002502,0.965035,0.113459,0.305134
4444302988,-91.302551,-4.544579,-67.623299,0.964126,0.104660,0.321861
4444323034,-89.851761,-3.306447,-66.576653,0.946985,0.120151,0.335720
4444343079,-89.913681,-4.164315,-64.457474,0.940486,0.141533,0.354069
4444363124,-90.686127,-2.369012,-62.525826,0.941175,0.177452,0.355507
4444383169,-89.309517,0.685579,-61.861240,0.930423,0.148249,0.366777
4444403213,-87.900192,1.178632,-61.362083,0.887256,0.136475,0.388774
4444423258,-85.286514,-3.155283,-59.724854,0.882465,0.139469,0.389534
4444443303,-86.518166,-5.791092,-58.463524,0.909639,0.186606,0.395898
4444463347,-88.180519,-5.113027,-58.093357,0.921537,0.203591,0.399214
4444483391,-86.322784,-4.909141,-57.490715,0.930848,0.200494,0.381099
4444503436,-84.717850,-2.964180,-56.232601,0.940549,0.179627,0.389900
4444523480,-82.446831,-0.692487,-53.913342,0.923133,0.154951,0.395894
4444543525,-81.208397,-1.156295,-51.911171,0.884774,0.148595,0.420613
4444563570,-80.034157,-4.477692,-49.425850,0.893654,0.174361,0.409175
4444583614,-79.649277,-4.484161,-46.183403,0.898407,0.193682,0.405591
4444603659,-77.221748,-3.679593,-43.985847,0.905557,0.202872,0.405294
4444623704,-75.765755,-2.114989,-43.724228,0.875516,0.169862,0.417547
4444643748,-72.843552,-5.644048,-43.309055,0.881047,0.154281,0.442662
4444663793,-72.386902,-5.537099,-41.240486,0.912838,0.186209,0.448185
4444683838,-74.813980,-4.408754,-38.259422,0.910064,0.203981,0.454118
4444703883,-72.475082,-3.269444,-35.543468,0.886908,0.136371,0.411352
4444723929,-66.464027,-3.016590,-36.382092,0.805768,0.113990,0.488696
4444743974,-68.294930,-11.983532,-35.719639,0.854734,0.186836,0.464780
4444764018,-66.965225,-8.282232,-33.706871,0.909834,0.182880,0.460572
4444784063,-70.672600,-5.116596,-32.500603,0.902094,0.193698,0.477907
4444804108,-66.349350,-4.527027,-31.505838,0.875500,0.078021,0.412569
4444824152,-57.358650,-5.014829,-34.149292,0.807972,0.070591,0.517749
4444844197,-56.502960,-12.736612,-31.352638,0.919737,0.135660,0.431354
4444864242,-56.945583,-7.162721,-26.478806,0.936608,0.140017,0.476053
4444884285,-66.758957,-6.308740,-22.427622,0.955690,0.160177,0.441793
4444904330,-74.721542,1.498972,-16.843069,0.959786,0.150449,0.428884
4444924375,-63.748367,7.918577,-19.294945,0.867763,0.039290,0.436140
4444944420,-48.043728,6.229307,-27.169182,0.853903,0.074156,0.450773
4444964464,-60.747276,2.694299,-19.313015,0.874326,0.187508,0.497239
4444984509,-58.839668,1.957262,-15.152118,0.916663,0.038141,0.416568
4445004554,-45.088661,11.452419,-18.336699,0.950823,0.004244,0.414093
4445024599,-45.316463,16.421530,-22.636368,0.919737,-0.036634,0.432958
4445044643,-48.858505,18.295856,-19.319881,0.877412,0.040793,0.474710
4445064688,-46.078423,17.352673,-15.546392,0.837154,0.077804,0.516719
4445084733,-38.248070,7.382592,-12.900126,0.879023,-0.007292,0.497515
4445104777,-29.702160,8.607206,-11.389818,0.905438,-0.029890,0.515922
4445144868,-6.805706,10.856087,-3.309263,0.828170,0.067418,0.486694
4445164913,-12.445693,6.567641,-0.923149,0.804392,0.113491,0.517460
4445184958,-20.175434,0.273170,-1.299794,0.813102,0.064636,0.511827
4445205003,-17.067123,-1.159181,-2.929732,0.856205,0.030079,0.474643
4445225048,-12.018075,5.691801,-4.003391,0.875828,0.079821,0.460082
4445245097,-16.326752,9.935142,-7.478784,0.843622,0.131184,0.499027
4445265137,-32.432041,0.037773,-7.414509,0.879308,0.065413,0.504292
4445285180,-29.654694,0.690070,-5.120458,0.904286,-0.042639,0.477871
4445305225,-11.399881,12.865953,-4.822453,0.902577,0.001272,0.495159
4445325270,-14.089989,13.476353,-4.779550,0.880520,0.085700,0.500947
4445345314,-25.946384,7.512399,-4.881082,0.874611,0.053755,0.496251
4445365359,-20.355915,6.435493,-5.722848,0.892090,-0.006064,0.492775
4445385404,-10.085827,9.444201,-5.499703,0.908687,0.031216,0.513438
4445405449,-7.217833,10.286325,-3.450312,0.903360,0.099891,0.518568
4445425494,-11.147213,8.237223,-4.134367,0.908644,0.098659,0.485477
4445445538,-15.117826,8.369602,-4.713512,0.878933,0.023482,0.491798
4445465583,-8.477149,5.286661,-2.331277,0.880568,-0.028144,0.491690
4445485628,2.758329,3.613498,0.090581,0.903050,0.012574,0.483233
4445505674,6.593038,5.998435,3.700470,0.886398,0.070574,0.476533
4445525719,2.346450,-3.186557,4.991114,0.867400,0.077205,0.546717
4445545763,-0.649484,-19.061146,6.491805,0.887595,0.051647,0.559002
4445565808,7.529086,-15.578682,8.284671,0.894477,0.046018,0.576306
4445585853,15.761959,-8.965324,8.862850,0.823790,0.084880,0.622175
4445605898,13.522751,-14.139720,8.298303,0.739727,0.110004,0.656861
4445625943,6.297694,-27.732973,4.199342,0.734354,0.131458,0.637343
4445645987,-0.317132,-32.060574,2.174355,0.755562,0.138094,0.590737
4445666030,-2.958460,-36.838474,3.631363,0.831493,0.114718,0.541410
4445686075,-12.528759,-32.277287,3.860412,0.882407,0.063575,0.496136
4445706120,-21.054470,-3.676337,3.342604,0.731393,-0.028914,0.592303
4445726164,-16.458166,-12.497410,2.691003,0.777370,-0.079736,0.468237
4445746209,-18.903040,-38.474785,2.010570,0.866781,-0.113657,0.488471
4445766254,-9.901575,-55.134811,3.945681,0.957958,-0.178930,0.501056
4445786299,30.625645,-15.855273,12.229346,0.957712,-0.168325,0.454626
4445806344,70.582520,17.326700,15.418890,0.757814,0.027897,0.535944
4445826388,66.074097,-2.507435,14.946546,0.653509,0.234644,0.669314
4445846433,21.511234,-23.546886,12.268409,0.745757,0.302394,0.598050
4445866478,-1.092857,-16.058523,6.416183,0.867218,0.204192,0.457627
4445886522,4.858049,-1.417829,4.848292,0.869315,0.153792,0.489104
4445906569,-7.595675,7.622355,4.409567,0.871760,0.175667,0.505876
4445926613,-20.671293,11.874055,2.677409,0.854815,0.108329,0.488281
4445946658,-19.865318,16.364410,0.549098,0.869112,0.012139,0.491365
4445966703,-18.241358,17.121655,-2.602807,0.876999,-0.032554,0.504720
4445986747,-9.800599,14.171031,-6.732904,0.917849,-0.013491,0.527349
4446006792,-8.958450,23.867388,-9.841556,0.904132,0.039407,0.577250
4446026837,-18.722202,23.261885,-6.033159,0.895261,0.038765,0.583564
4446046882,-11.016228,18.439743,1.408721,0.982109,0.078304,0.508032
4446066926,4.941046,21.773935,9.533837,1.000155,0.109999,0.365508
4446086970,2.994092,37.169022,13.960440,0.781690,0.034856,0.426352
4446107015,6.749442,23.331854,12.497252,0.669161,0.002215,0.582578
4446127060,12.695705,8.687449,11.764624,0.806453,0.016554,0.580732
4446147104,7.585331,28.717913,7.815735,0.955499,0.060717,0.542033
4446167149,3.869146,42.462196,5.637164,0.970073,0.136591,0.512562
4446187193,10.161182,46.642578,0.838772,0.787334,0.010115,0.658670
4446207238,13.462761,30.679651,-12.937712,0.772713,-0.045348,0.849486
4446227283,-2.373184,18.794182,-5.087724,0.828186,0.160044,0.749868
4446247328,5.252078,16.547640,-0.108370,0.710793,0.174740,0.786309
4446267372,-4.458014,0.693038,-0.849326,0.647472,0.024444,0.736284
4446287417,-5.507492,-19.490978,4.746778,0.680946,-0.117460,0.610511
4446307463,15.738117,-13.481065,6.764653,0.659301,-0.113825,0.526835
4446327508,23.176163,-7.255063,6.442716,0.551317,0.027217,0.606184
4446347553,14.336602,-26.530439,6.345875,0.505934,0.148675,0.603667
4446367597,1.254669,-46.358685,2.518645,0.546004,0.119501,0.598373
4446387642,-4.616821,-59.481041,0.260107,0.610776,0.010161,0.577170
4446407687,7.368206,-68.408302,-2.642113,0.719076,-0.006093,0.470845
4446427732,19.430424,-71.026497,-4.271017,0.856829,0.053247,0.439951
4446447777,18.890972,-39.898876,0.861276,0.781413,0.097149,0.391876
4446467820,21.320938,-41.604401,-1.083171,0.944368,0.128299,0.222283
4446487865,3.679867,-94.269325,-0.494353,1.375416,0.133810,0.125692
4446507909,-12.753420,-126.711624,-3.880192,1.789524,0.055357,0.219772
4446527954,20.601763,-53.013199,-2.788606,1.898999,0.008004,0.176897
4446547999,35.877247,75.427505,1.932353,1.275534,0.134225,0.265168
4446568044,33.045116,60.731117,3.956337,0.682552,0.182389,0.476306
4446588088,17.433928,-5.288902,6.934363,0.561114,0.243989,0.447870
4446608133,-6.747125,-24.376144,6.985444,0.718005,0.161548,0.441502
4446628178,-6.306540,6.640570,4.004460,0.785628,0.035148,0.336882
4446648222,-1.171908,26.867844,1.028161,0.771323,0.076121,0.375406
4446668267,-22.075092,36.705299,-0.519752,0.778653,0.132290,0.442096
4446688312,-24.991680,49.180901,0.245027,0.770852,0.047675,0.537060
4446708358,-17.512222,44.391743,-3.883580,0.718479,0.026955,0.576088
4446728403,-16.321337,30.541309,-5.951793,0.845329,0.031926,0.718457
4446748448,-5.618044,26.360926,-2.327412,0.991959,-0.024992,0.728192
4446768492,10.426404,29.852341,0.669773,1.016181,0.107745,0.614924
4446788542,13.328281,25.382210,4.179021,0.901021,0.154718,0.468570
4446808582,-8.368376,28.749222,12.973719,0.619850,0.049931,0.511083
4446828627,5.742829,7.545529,11.278113,0.618993,-0.068875,0.732567
4446848672,14.145529,-1.736878,6.179152,0.786618,0.002535,0.592811
4446868715,13.121674,2.034335,7.029067,1.006204,0.104179,0.442624
4446888760,4.900812,27.200333,8.348179,0.932431,-0.002014,0.493401
4446908805,13.673386,50.843597,2.742918,0.707131,0.074719,1.027738
4446928849,19.151129,7.171942,0.700505,0.617492,0.097300,0.801744
4446948894,5.356584,-6.893561,-1.359265,0.593662,-0.029600,0.790782
4446968938,12.378252,-23.604534,1.787146,0.548359,-0.022417,0.682321
4446988983,26.581535,-29.726286,5.058940,0.470697,0.137363,0.542685
4447009028,31.550156,-35.970722,5.110550,0.466805,0.227493,0.480002
4447029072,21.034189,-53.786087,3.318683,0.617976,0.214078,0.375879
4447049117,-2.519301,-40.412422,0.881170,0.778005,0.169215,0.240669
4447069162,-10.921859,-18.242897,-2.145539,0.749013,0.082419,0.255377
4447089206,-4.084319,-54.998016,-1.805154,0.970867,0.049204,0.219306
4447109253,9.918050,-115.298637,-1.367931,1.523142,0.152692,0.130531
4447129297,-12.810972,-108.096619,-1.962303,1.995442,0.293360,0.388564
4447149342,-29.260315,28.336374,1.333550,1.768516,0.105968,0.316163
4447169387,1.049533,90.832329,-1.296743,0.928743,0.047140,0.412758
4447189432,18.636494,26.363876,0.107315,0.616589,0.098398,0.662612
4447209477,-8.910548,-29.594429,10.366632,0.724465,0.081933,0.488731
4447229522,-3.085330,1.016008,10.064481,0.805111,-0.028511,0.373603
4447249571,4.006484,24.029932,4.617450,0.702498,0.076575,0.408859
4447269610,-10.804111,18.638847,5.101780,0.793956,0.100781,0.390572
4447289654,-18.588377,39.533283,7.320541,0.823983,0.033112,0.361488
4447309699,-15.802692,47.176788,6.461562,0.686983,0.021435,0.454268
4447329744,-8.480287,34.430061,2.836872,0.684818,0.014473,0.557919
4447349789,-0.682844,26.183802,2.007818,0.791151,-0.063459,0.591113
4447369833,0.304833,20.222509,-1.300459,0.928824,-0.045818,0.655340
4447389878,2.025343,28.476566,1.329713,1.035234,0.043067,0.723667
4447409923,10.571190,34.834133,8.343195,0.875796,0.101590,0.707817
4447429968,24.566570,22.812689,7.767303,0.704566,0.059946,0.683693
4447450012,10.363697,8.361145,8.468853,0.625957,-0.032011,0.601119
4447470057,11.864079,-2.801948,16.497587,0.572247,-0.095774,0.723343
4447490103,36.023125,-17.916636,19.069231,0.778741,0.033101,0.655140
4447510148,23.848761,3.478241,10.213704,1.005579,0.108212,0.569594
4447530193,5.051498,28.292505,3.477900,0.766512,0.103521,0.773283
4447550237,21.403313,8.195179,-1.321342,0.571545,-0.125680,0.921880
4447570282,22.379391,-19.271900,4.616559,0.498394,-0.114678,0.817373
4447590327,32.446686,-44.847263,9.203094,0.385108,0.041596,0.799141
4447610371,28.653271,-64.651581,8.809041,0.390868,0.147940,0.641708
4447630416,17.188152,-73.815544,9.172250,0.521299,0.148001,0.329740
4447650459,-0.015345,-37.442142,2.146656,0.460911,-0.012367,0.117032
4447670504,6.928421,-57.659130,0.497452,0.815327,-0.039767,-0.074715
4447690549,35.623768,-121.609154,9.822680,1.330681,0.080602,-0.199862
4447710594,48.274441,-168.013336,-3.950994,1.997376,0.283572,-0.000284
4447730638,-14.846504,-107.391510,-9.748497,2.259160,0.517626,0.492429
4447750683,-31.042271,91.922058,-5.935048,1.613153,0.029088,0.105441
4447770728,15.960569,106.697227,-18.338684,0.670455,0.046931,0.378461
4447790773,12.378272,11.733767,-9.140429,0.460189,0.208814,0.555402
4447810817,-24.778860,-50.707657,0.185467,0.694530,0.133582,0.333674
4447830862,-7.512235,-15.987603,-0.292094,0.874370,-0.040981,0.293364
4447850907,-2.712323,16.645195,-1.281562,0.812091,0.097655,0.349214
4447870952,-18.579981,5.966049,1.661345,0.891980,0.091250,0.335011
4447890998,-17.411182,23.158360,2.870294,1.012583,0.038806,0.266948
4447911043,-18.614834,42.952450,4.727291,0.937171,0.097559,0.367974
4447931087,-14.089568,40.083889,6.523698,0.833052,0.024038,0.448758
4447951132,-8.813399,27.005341,4.766256,0.843726,-0.013378,0.478006
4447971183,-6.931392,19.296064,3.555424,0.929812,0.007672,0.528718
4447991222,-5.733609,18.961163,4.803576,0.962907,0.032687,0.551515
4448011266,-8.739778,21.304804,4.870120,0.967063,0.095578,0.558218
4448031311,-2.743735,24.256258,4.783266,0.958100,0.120136,0.506874
4448051355,4.015208,26.029509,5.948694,0.853642,0.101518,0.539587
4448071399,4.556074,15.744947,5.169586,0.739303,0.021514,0.510187
4448091444,7.618367,8.071966,2.433630,0.715986,0.012044,0.576466
4448111489,9.829904,-1.216990,4.657616,0.777139,0.040567,0.562839
4448131533,16.202166,-2.232132,7.436106,0.809097,0.071349,0.511560
4448151578,19.725924,-1.319753,-2.007987,0.909703,0.107438,0.478766
4448171623,0.749413,15.960785,-12.270185,0.838999,-0.045612,0.586399
4448191668,7.234756,15.691040,-8.106736,0.660311,-0.125745,0.669789
4448211712,34.011299,-10.392887,-3.708779,0.704494,0.134524,0.696552
4448231757,8.649088,-11.950617,-0.800737,0.757612,0.284159,0.572157
4448251801,-11.679254,-22.588564,0.690764,0.780065,0.179047,0.493525
4448271848,-15.615230,-31.281815,-2.531470,0.731859,0.066982,0.504112
4448291893,2.416653,-19.273205,-2.795351,0.755037,-0.001706,0.333321
4448311937,20.950766,-30.744755,-5.661577,0.916433,0.102159,0.318529
4448331982,-2.051222,-54.469269,-5.219002,1.212440,0.229064,0.351782
4448372072,-25.572763,-9.905326,-14.207510,1.258050,-0.062696,0.379288
4448392116,7.905643,31.202147,-11.059588,0.952094,-0.037654,0.371839
4448412161,20.739723,15.907638,-7.570549,0.737003,0.091793,0.516600
4448432204,1.625691,-21.059235,-4.006525,0.749062,0.155046,0.476471
4448452249,-5.618471,-15.117064,-4.520355,0.772788,0.046297,0.439394
4448472294,9.797385,1.073204,-6.962202,0.727437,0.024938,0.417571
4448492339,7.769821,-7.103146,-6.413263,0.731322,0.103441,0.464294
4448512383,-5.712272,-17.883343,-3.869465,0.813933,0.106675,0.439925
4448532428,-4.550953,-8.573030,-2.843465,0.888425,0.065665,0.419867
4448552473,2.259706,6.843000,-2.620763,0.871215,0.070226,0.434908
4448572518,0.780155,3.553342,-2.255867,0.835024,0.074029,0.482138
4448592562,-0.897906,-7.419788,-0.427091,0.861188,0.064992,0.496880
4448612607,-0.090552,-11.114353,-0.269804,0.898484,0.047210,0.497845
4448632652,0.897862,-13.760571,-0.983382,0.923527,0.078966,0.503502
4448652697,-3.535774,-16.477348,-0.002151,0.930027,0.093326,0.473204
4448672743,1.862130,-19.788506,-0.428940,0.934773,0.043482,0.448704
4448692788,10.621494,-21.537039,-1.332459,0.947046,0.079016,0.446042
4448712832,5.326816,-21.136787,-0.355192,0.951272,0.111414,0.409205
4448732877,3.796278,-22.966221,1.890433,0.935468,0.059091,0.415167
4448752922,6.400051,-21.509020,2.143351,0.934629,0.065952,0.366577
4448772966,8.454215,-17.657007,2.664858,0.907138,0.082192,0.399382
4448793011,6.684797,-18.612720,3.654470,0.904316,0.135041,0.377257
4448813056,4.157312,-17.553766,4.259457,0.918762,0.117360,0.370134
4448833099,3.514931,-15.380326,2.235860,0.927499,0.107387,0.358171
4448853144,3.431491,-14.332462,-0.209964,0.912586,0.107466,0.375906
4448873189,-2.129659,-15.749101,-0.455482,0.909962,0.141254,0.378157
4448893233,-5.022632,-16.909721,-0.927393,0.930420,0.110347,0.370004
4448913278,-6.234820,-16.901472,-1.809447,0.955137,0.113857,0.352037
4448933323,-3.598361,-15.338545,-3.004357,0.952159,0.091700,0.357934
4448953368,-4.571266,-15.679632,-2.775644,0.942781,0.105714,0.360117
4448993457,-6.483774,-16.626562,0.561492,0.943419,0.095084,0.341364
4449013502,-6.061374,-15.372580,1.075112,0.939708,0.079588,0.321617
4449033547,-5.286669,-14.735021,0.565762,0.923310,0.091642,0.315570
4449053591,-2.665100,-13.764771,-0.262795,0.913427,0.087837,0.311069
4449073638,-5.304741,-13.549891,-0.753186,0.911416,0.118305,0.334565
4449093682,-7.067863,-15.570533,-1.591006,0.935723,0.097037,0.305875
4449113727,-6.953798,-12.796973,-2.912468,0.935724,0.091031,0.307381
4449133772,-3.340594,-13.469486,-4.089898,0.913103,0.062529,0.327936
4449153816,-1.141112,-13.889064,-3.291208,0.926820,0.077234,0.322270
4449173861,-2.699150,-15.938499,-0.176678,0.949571,0.087842,0.323532
4449193906,-1.610923,-17.177063,2.680629,0.976356,0.069984,0.304938
4449213951,3.254009,-15.827832,3.807652,0.963640,0.063625,0.319556
4449233994,3.558637,-16.352367,4.194346,0.962799,0.084783,0.306265
4449254039,1.813924,-17.331575,3.698223,0.952949,0.042144,0.289702
4449274083,10.542254,-19.529398,0.852701,0.961736,-0.021114,0.309316
4449294128,15.396901,-18.031195,-4.777766,0.930579,-0.032157,0.256101
4449314173,15.036718,-19.886290,-6.632115,0.990978,0.017298,0.286178
4449334218,19.514118,-23.710756,-0.979579,1.153547,0.045704,0.252352
4449354263,27.939108,-3.977756,1.832121,1.133698,0.107207,0.206724
4449374307,23.098791,14.766006,-6.444812,1.023444,0.215441,0.308087
4449394352,6.802711,4.791825,-8.527361,0.959316,0.207116,0.372603
4449414397,-0.164982,0.760523,-11.517447,1.008325,0.110044,0.375947
4449434442,-1.284633,13.490562,-16.152822,0.985840,0.075241,0.382989
4449454486,-4.454970,21.619390,-14.056405,0.868853,0.132713,0.397684
4449474533,-12.533927,13.862265,-5.622239,0.779492,0.228233,0.436212
4449494577,-26.859455,0.988213,4.030257,0.752930,0.287179,0.426244
4449514622,-37.872482,-3.607804,5.124656,0.716919,0.247962,0.425213
4449534666,-45.219532,-12.662560,2.751693,0.735832,0.170423,0.407509
4449554717,-51.110119,-19.528633,2.460525,0.833122,0.130516,0.360568
4449574756,-53.330559,-15.384380,2.359357,0.858757,0.046520,0.321298
4449594800,-45.566635,-16.813732,-0.555680,0.862378,-0.029205,0.333421
4449614845,-38.310158,-23.359278,-6.494071,0.950921,-0.051041,0.308847
4449634888,-34.910713,-21.198162,-11.253139,1.089980,-0.087602,0.268921
4449654933,-31.368334,-11.602777,-13.986250,1.166864,-0.067788,0.143405
4449674978,-10.261101,-5.380151,-12.470322,1.198924,-0.007717,0.133128
4449695023,4.345204,-8.728584,-10.506968,1.308753,0.121743,0.196866
4449715068,-8.609190,12.161788,-10.343593,1.297768,0.156167,0.194226
4449755157,-4.122630,30.143682,-4.749835,1.037186,0.206445,0.302890
4449775202,-21.152603,29.573288,-4.413031,0.923429,0.126545,0.376556
4449795247,-27.233898,23.381824,-9.182933,0.868455,0.055539,0.377924
4449815291,-27.203770,29.451609,-16.152025,0.785780,0.064583,0.448261
4449835336,-32.854279,27.484539,-23.618481,0.701622,0.092992,0.470628
4449855381,-39.953957,17.440374,-28.437880,0.663707,0.135914,0.490390
4449875427,-49.349766,10.683674,-28.869879,0.695748,0.216964,0.494144
4449895472,-59.049629,7.880551,-27.193016,0.715262,0.263357,0.470232
4449915516,-64.371170,1.340608,-27.945953,0.729580,0.280681,0.487492
4449935561,-74.337456,-10.263827,-26.129217,0.802880,0.311218,0.475029
4449955606,-87.582214,-13.754744,-22.657078,0.872288,0.311613,0.434107
4449975651,-99.696274,-12.186811,-24.150286,0.885416,0.273939,0.408020
4449995695,-105.130203,-16.895088,-25.345953,0.901814,0.239606,0.371732
4450015756,-109.494431,-20.981441,-27.441753,0.915922,0.178211,0.332556
4450035783,-111.506706,-22.698597,-29.961592,0.936495,0.126030,0.307735
4450055828,-113.929565,-23.890171,-30.749432,0.958946,0.170541,0.269202
4450075873,-119.435608,-22.510180,-31.836025,0.946441,0.162770,0.240405
4450095918,-123.053741,-23.610624,-35.090729,0.946284,0.133515,0.216427
4450115962,-124.065353,-24.013454,-37.010021,0.975146,0.130195,0.182888
4450136007,-126.764847,-21.397106,-38.393562,0.992908,0.139411,0.170468
4450156052,-129.973160,-19.258999,-39.407078,0.988543,0.112143,0.160192
4450176097,-131.105743,-19.464067,-41.241829,0.995584,0.132441,0.157799
4450196141,-133.436096,-19.736080,-42.130280,1.026589,0.168328,0.141979
4450216186,-134.324844,-18.451881,-44.539677,1.062391,0.176150,0.125424
4450236231,-137.313736,-14.072366,-46.897812,1.067758,0.162481,0.124847
4450256277,-138.827225,-10.849121,-48.580517,1.061447,0.154366,0.124231
4450276322,-138.648010,-12.080709,-48.847366,1.073676,0.176888,0.162373
4450296367,-144.158951,-12.842429,-46.206558,1.123791,0.158204,0.140952
4450316412,-140.034119,-1.710186,-44.466026,1.121150,0.098969,0.076142
4450336456,-136.225861,9.913890,-48.231560,1.034347,0.174777,0.167111
4450356501,-148.810883,8.310770,-54.083439,0.939551,0.227638,0.232900
4450376545,-156.630310,1.701400,-61.879326,0.924820,0.278883,0.279075
4450396590,-160.610641,-2.766591,-66.796471,0.970513,0.272291,0.269084
4450416640,-162.086655,0.069906,-66.437393,0.960870,0.171737,0.299706
4450436678,-156.639969,-2.274940,-64.503799,0.915349,0.136766,0.298752
4450476768,-147.733429,-9.195536,-56.238747,0.872591,0.055794,0.283630
4450496813,-141.137375,-14.246477,-52.650620,0.901000,0.105502,0.257571
4450516857,-140.253799,-13.432146,-48.620464,0.901464,0.111951,0.255154
4450536902,-137.616501,-13.615101,-44.770420,0.872866,0.104386,0.271760
4450556947,-131.525986,-17.944138,-42.512299,0.881464,0.077525,0.256476
4450597036,-119.327629,-22.804255,-43.256405,0.957607,0.151329,0.232114
4450617081,-120.173981,-21.496775,-44.523407,0.968326,0.155648,0.233886
4450637125,-119.874222,-21.306671,-43.764053,0.985692,0.136242,0.246282
4450657172,-118.897018,-19.133711,-43.743126,0.996718,0.127906,0.238511
4450697261,-118.961845,-15.782043,-44.400974,1.014003,0.166637,0.221929
4450717306,-117.351234,-13.997797,-45.565372,1.013250,0.144333,0.187147
4450737351,-112.120529,-10.772715,-47.109329,0.997073,0.042401,0.202892
4450757395,-103.384468,-11.319736,-46.726315,1.003416,0.040246,0.233001
4450777440,-101.242683,-10.628531,-43.642738,1.034369,0.113789,0.230162
4450797485,-100.494431,-7.123836,-40.497814,0.999122,0.159625,0.254927
4450817528,-99.759186,-9.480441,-39.952705,0.976621,0.182480,0.267503
4450837573,-99.011116,-7.824139,-39.960011,1.004362,0.143499,0.254735
4450857618,-96.956131,-4.649243,-40.892963,0.985821,0.123412,0.262504
4450877662,-93.490440,-4.918342,-41.071648,0.969452,0.127065,0.267270
4450897707,-87.188118,-6.557625,-40.387062,0.959277,0.120105,0.254507
4450917752,-86.251221,-4.483685,-40.921871,0.973745,0.152691,0.264632
4450937797,-87.199516,-1.792559,-41.671352,0.956188,0.136731,0.240236
4450957842,-86.099648,-0.752737,-42.831131,0.942117,0.169524,0.282653
4450977886,-85.441620,-1.657996,-43.292416,0.945123,0.173507,0.272536
4450997931,-85.225845,0.599078,-43.616173,0.968031,0.147134,0.316076
4451017975,-85.958023,0.767516,-42.307995,1.007629,0.126177,0.324004
4451038020,-86.391342,3.262185,-39.503498,1.009584,0.125391,0.307728
4451058067,-81.955528,7.006889,-36.417545,0.988968,0.072723,0.306464
4451078111,-76.370468,9.958647,-36.615520,0.912790,0.057753,0.347457
4451098156,-73.531631,6.255811,-34.058804,0.901886,0.099170,0.378901
4451118201,-85.202011,2.293367,-28.206146,0.925775,0.178202,0.414295
4451138246,-83.034859,-9.635376,-14.422368,1.027135,0.142145,0.365986
4451158290,-77.191483,-10.805652,-2.726269,1.060478,0.197330,0.388627
4451198380,-108.581810,-7.871127,-27.659222,0.801931,0.039471,0.388132
4451218423,-99.653656,-7.056941,-25.397245,0.975928,-0.207035,0.259059
4451238468,-78.765549,1.871295,-24.826864,0.959559,-0.161748,0.334952
4451258513,-78.026543,1.686663,-28.321535,0.951121,-0.037097,0.308551
4451278557,-77.173889,7.864094,-30.977461,0.994493,-0.033054,0.302006
4451298602,-71.738083,11.135471,-30.595606,0.973981,-0.083916,0.361273
4451318647,-51.074856,17.550797,-23.987434,0.961138,-0.051548,0.360366
4451338691,-42.057884,21.391743,-17.828434,0.986604,0.047552,0.362920
4451358736,-46.390427,26.726143,-12.132246,1.003226,0.129418,0.346889
4451378781,-48.305927,31.207287,-6.194762,0.968868,0.143270,0.350620
4451398826,-51.010273,30.747242,-3.392915,0.941911,0.018298,0.385141
4451418870,-47.975426,30.129259,-2.745189,0.940703,-0.064938,0.420143
4451438915,-33.081711,35.263638,0.746837,0.918778,0.002132,0.421160
4451458961,-29.648006,35.192860,2.053778,0.902663,0.067094,0.420141
4451479006,-38.576332,27.196651,1.192743,0.913507,0.043927,0.403387
4451499051,-35.540863,29.138720,-1.216893,0.924276,0.015495,0.414716
4451519096,-29.632942,31.032551,-3.968476,0.960947,0.004636,0.413617
4451539140,-30.427738,36.527763,-5.681694,0.940388,-0.008254,0.429051
4451559185,-30.086487,37.424053,-6.340332,0.868404,-0.059035,0.481113
4451579230,-23.045246,30.281691,-4.635356,0.843692,-0.070704,0.517902
4451599274,-19.900818,25.019161,-4.928749,0.915180,-0.034349,0.499460
4451619318,-23.690481,31.460217,-4.936256,0.887693,0.003993,0.487562
4451639363,-23.456572,29.217186,-6.322458,0.849783,0.031525,0.522292
4451659407,-27.034410,22.583065,-10.318832,0.848837,-0.003206,0.520842
4451679452,-31.019922,20.244001,-13.622878,0.847198,-0.098311,0.552479
4451699497,-21.388912,17.653605,-8.841416,0.815935,-0.126529,0.569236
4451719541,-9.652402,16.739826,-6.980255,0.782945,-0.068172,0.628056
4451739586,-14.412856,9.666386,-9.870111,0.750605,-0.022478,0.626805
4451759631,-16.962734,-2.722719,-14.684085,0.730423,-0.071195,0.593192
4451779676,-11.818560,-14.790803,-17.645161,0.755997,-0.130698,0.624734
4451799720,-9.201632,-14.922060,-17.169912,0.813077,-0.070203,0.573939
4451819765,3.539819,2.489275,-13.749173,0.671948,-0.032049,0.527800
4451839810,13.962287,-12.936117,-18.575935,0.716481,-0.018054,0.487950
4451859856,-7.156181,-35.182468,-23.344879,0.942337,-0.098502,0.471600
4451879901,-0.687825,-28.460384,-21.001064,1.135651,-0.265042,0.358851
4451899946,41.588844,14.940428,-22.455654,1.211850,-0.300747,0.369899
4451919991,70.093437,39.570557,-9.845425,1.124931,-0.223394,0.560183
4451940035,83.672150,43.018719,10.479477,0.958830,-0.110753,0.588449
4451960080,98.022415,49.410583,20.389086,0.821815,0.069653,0.630298
4451980125,95.225822,48.655933,27.054394,0.670874,0.302267,0.727060
4452000170,80.685928,32.366322,29.977192,0.554035,0.448448,0.805301
4452020216,68.379433,12.820367,29.990988,0.512212,0.348144,0.753928
4452040257,77.824043,0.788940,32.276382,0.546968,0.194765,0.745251
4452060302,75.315758,-2.436618,37.974293,0.715008,0.205375,0.745208
4452080347,55.826401,12.543739,49.841736,0.730149,0.132984,0.562825
4452100392,40.582573,41.454773,49.893188,0.529111,-0.009086,0.520285
4452120437,50.935909,34.217636,66.885635,0.487624,0.024976,0.279889
4452140481,119.455605,-7.292652,73.713089,0.637777,0.263845,0.164844
4452160526,171.430649,-68.290253,67.666153,1.175133,0.823543,0.585595
4452180570,28.349289,-26.452457,54.370758,1.438538,1.394494,0.848747
4452200615,-53.282417,102.960251,40.094799,0.775943,0.271750,0.683559
4452220660,-1.833893,42.905560,17.138390,0.428905,-0.184576,1.028757
4452240706,57.008553,-19.627832,6.393091,0.680980,0.348878,0.738767
4452260751,-13.754597,19.098167,6.716191,0.657007,0.554843,0.829848
4452280795,-25.864542,6.559134,5.076305,0.448380,0.051521,0.639647
4452300840,-12.730512,-21.543230,7.622868,0.442930,0.105907,0.647898
4452320885,-27.757568,-15.693753,5.774650,0.473478,0.224714,0.688020
4452340929,-36.477268,-21.472622,0.742710,0.503628,0.249747,0.719899
4452360974,-43.322815,-37.721050,-8.232360,0.590477,0.179626,0.696348
4452381019,-37.419609,-42.518543,-16.996033,0.611772,0.093191,0.663713
4452401062,-28.621582,-46.376465,-26.689369,0.702062,0.141652,0.718963
4452421107,-26.164396,-28.538931,-24.866209,0.577582,0.215242,0.527801
4452441152,-21.740643,-33.881413,-14.610374,0.557919,0.187468,0.454140
4452461196,-60.050751,-126.493874,-16.072714,1.111724,0.251091,0.477872
4452481241,-91.434845,-151.084198,-30.184565,1.855958,-0.153491,0.345984
4452501286,-32.429886,2.251052,-37.821239,1.863602,-0.297152,0.138643
4452521331,-26.837965,53.193035,-39.253098,1.093070,-0.088870,0.577140
4452541376,-24.863503,9.319930,-22.832180,0.806933,-0.002183,0.575063
4452561420,-21.202667,4.902179,-19.694481,0.822813,0.060293,0.335853
4452581465,-18.784258,13.389220,-21.572290,0.811676,0.223190,0.410814
4452601510,-25.383198,13.463342,-21.537003,0.765042,0.234127,0.364496
4452621554,-32.630325,19.079304,-20.679211,0.741848,0.224744,0.392901
4452641601,-31.057571,22.568489,-16.634014,0.763104,0.115538,0.413168
4452661645,-22.030649,35.301495,-12.121430,0.819576,-0.084972,0.386830
4452681691,-3.962255,53.717697,-11.858368,0.891057,-0.218747,0.466755
4452701735,2.233631,64.435471,-15.092836,0.888952,-0.084051,0.556035
4452721780,-20.798304,67.412415,2.603021,0.727967,0.178943,0.509806
4452741824,-19.398701,49.784180,17.205610,0.721993,0.181325,0.762118
4452761869,-1.349323,40.782959,13.639882,0.875913,0.190695,0.612760
4452781914,-9.112148,85.417564,6.130325,0.838600,0.051603,0.602437
4452801957,-19.847246,74.547195,-0.625938,0.689615,-0.124989,0.658707
4452822002,-25.881508,55.737820,-6.961258,0.668062,0.092315,0.784492
4452842047,-29.453434,53.984787,-7.754990,0.713010,0.010145,1.010834
4452862091,-14.962811,54.801437,-6.221313,0.590277,-0.074888,0.962203
4452882136,-3.333562,50.879333,-1.141563,0.368900,-0.023499,1.128777
4452902181,-15.998403,22.351482,2.905934,0.286556,0.006406,1.047263
4452922225,-22.554409,4.578170,0.809408,0.259820,-0.017811,1.034339
4452942270,-21.016996,-5.046964,-2.126324,0.195771,-0.060467,0.979142
4452962315,-7.959018,-21.440025,-7.185690,0.116727,-0.035907,0.896512
4452982360,-4.939706,-45.495819,-17.341286,0.158875,0.054070,0.744670
4453002404,-28.864117,-77.524284,-27.534164,0.352625,0.087762,0.561898
4453022449,-62.448166,-101.638283,-34.620762,0.689396,0.028852,0.275777
4453042495,-64.362892,-69.040054,-23.994144,0.709706,-0.121799,0.236381
4453062540,-38.373772,-81.960449,-23.046068,1.056259,-0.261594,0.205743
4453082585,-27.254038,-141.699493,-13.216767,1.531646,-0.418292,0.510318
4453102630,30.086683,-116.265213,0.687652,2.056797,-0.348849,0.372735
4453122674,107.705811,33.568993,1.383116,1.752571,0.114873,0.467107
4453142719,67.528107,76.121254,-0.261258,1.051283,0.375543,0.805620
4453162763,5.228041,20.529419,-2.336493,0.656803,0.360559,0.627966
4453182808,-15.710673,-23.568291,-5.333945,0.682735,0.237958,0.608682
4453222896,-21.514647,7.245225,1.050318,0.722341,0.047016,0.484451
4453242941,-30.093100,11.827865,0.189944,0.745242,-0.043344,0.416899
4453262986,-21.292631,37.466255,2.939854,0.703393,-0.078290,0.464589
4453283031,-25.547182,46.638340,7.313850,0.600186,-0.087776,0.602210
4453303075,-32.768322,32.636997,8.426160,0.598702,-0.026612,0.710675
4453323120,-40.802010,29.813774,2.441497,0.742454,0.010590,0.756849
4453343165,-28.042263,51.712906,-3.451707,0.851933,-0.051250,0.790298
4453363210,-9.036551,63.457485,2.569908,0.696798,-0.080436,0.719756
4453383254,12.853032,47.425713,6.569206,0.500729,0.036721,0.705521
4453403299,5.443475,27.059820,1.190570,0.500992,0.092834,0.787455
4453423344,1.287197,17.850946,0.256002,0.566224,-0.049747,0.759428
4453443390,11.813971,17.925983,1.409384,0.608737,-0.063730,0.742009
4453463435,16.111835,21.505297,8.275225,0.683074,-0.043910,0.699689
4453483480,20.105251,29.975927,6.728176,0.744143,-0.049031,0.647918
4453503525,13.997818,52.370426,1.360075,0.588339,0.123928,0.830446
4453523569,1.938138,49.046455,6.498994,0.402420,0.167822,1.217668
4453543614,2.838629,15.783620,3.361944,0.434528,0.046538,1.041366
4453563659,9.449991,2.831861,-1.209387,0.410582,-0.151342,1.148254
4453583703,20.804390,-8.328046,-0.943069,0.329748,-0.216827,1.053154
4453603747,27.222282,-27.089718,4.350651,0.312274,-0.164276,0.909835
4453623791,29.699356,-47.851746,15.908242,0.382155,-0.069322,0.772357
4453643836,47.799370,-50.305126,20.495131,0.448602,0.128305,0.655676
4453663881,69.194305,-13.227133,14.902285,0.324173,0.246656,0.476981
4453683926,64.151367,-28.097099,15.434959,0.615074,0.233068,0.398826
4453703971,35.152119,-113.551086,11.875618,1.114900,0.282360,0.196127
4453724015,-0.243585,-155.424576,8.727884,1.575322,0.350521,0.425538
4453744060,-54.916824,-88.746758,-1.695856,1.662116,0.325332,1.013890
4453764104,-40.981834,76.450546,-17.195473,1.211063,-0.006429,0.360089
4453784149,17.428045,84.665817,-25.703617,0.542758,0.085070,0.746217
4453804194,4.309695,0.603380,-14.317047,0.423835,0.272413,0.776305
4453824239,-39.779831,-25.923166,2.097822,0.605110,0.176693,0.724248
4453844285,-21.905714,-10.053877,0.483063,0.652185,-0.033802,0.571826
4453864329,-8.289686,0.151030,3.431573,0.739506,0.082759,0.633321
4453884374,-35.234890,-1.878464,2.154518,0.829248,0.161371,0.596091
4453904419,-30.957115,21.945068,0.042256,0.800188,0.016241,0.599990
4453924464,-18.338945,34.473225,-4.599220,0.603419,0.040760,0.732823
4453944508,-20.533148,11.621521,-0.850682,0.600773,0.037913,0.749579
4453964553,-20.381466,0.563822,2.350675,0.791481,0.058712,0.718025
4453984597,-23.524775,15.297603,4.387312,0.782257,0.045663,0.722435
4454004641,-16.483355,15.793208,4.477603,0.693244,0.003868,0.696546
4454024686,-3.889839,12.148582,3.104619,0.702083,-0.069447,0.712330
4454044731,15.526720,16.380476,2.829856,0.605593,-0.080579,0.737846
4454064776,6.918982,10.627660,5.217253,0.461404,0.021843,0.822622
4454084820,8.242404,-11.444672,7.947706,0.519938,0.016066,0.875812
4454124910,30.088459,7.083046,9.911053,0.644386,-0.052653,0.759113
4454144955,35.399513,1.372081,13.776299,0.543071,-0.042011,0.822653
4454164999,32.368305,-6.655029,6.257397,0.539880,0.046179,0.958287
4454185044,7.296130,-9.399225,8.036829,0.460032,0.021599,1.049315
4454205089,17.351727,-29.258778,12.800890,0.366927,0.005410,0.850474
4454225135,40.262196,-43.514801,12.516817,0.398327,0.095730,0.811264
4454245180,40.452126,-57.113285,11.012176,0.607149,0.189818,0.715505
4454265225,23.607702,-38.526260,2.987411,0.560243,0.097685,0.523819
4454285269,4.605333,-20.101702,1.348241,0.526367,-0.013263,0.391653
4454305314,14.280849,-83.610382,9.074289,0.877097,0.000461,0.281115
4454325358,41.101471,-144.030258,5.573725,1.485308,0.125234,0.238278
4454345404,30.681465,-99.326324,-4.962843,1.785753,0.243974,0.611864
4454365448,1.001574,57.454754,-7.869882,1.345653,0.234989,0.475617
4454385491,8.017498,78.470207,-12.324062,0.655282,0.114669,0.748160
4454405536,16.325855,-12.331639,-5.140718,0.505213,0.138215,0.668207
4454425581,2.679099,-35.270775,1.910632,0.631644,0.111852,0.575573
4454445626,5.662420,-19.616238,1.194930,0.655918,0.035681,0.569004
4454465670,17.397202,-21.602587,1.122072,0.668750,0.055332,0.577221
4454485715,7.974852,-33.366585,4.100389,0.761638,0.136563,0.593343
4454505760,-2.133533,-22.464422,7.725329,0.822031,0.075785,0.533833
4454525805,9.525499,-8.048312,7.850856,0.821023,0.052243,0.516357
4454545850,17.811110,-4.195313,5.635327,0.818058,0.119604,0.546279
4454565894,9.426550,-7.008069,5.328976,0.758030,0.153652,0.629048
4454585939,7.324059,-7.289706,0.393469,0.731934,0.132975,0.602898
4454605983,8.707277,-11.047591,-3.917920,0.720516,0.161091,0.621975
4454626030,6.401238,-19.665010,-4.410137,0.753958,0.182939,0.636242
4454646074,1.922257,-24.495155,-4.340755,0.850866,0.178256,0.580632
4454666119,0.819625,-20.161869,-4.481146,0.866804,0.107281,0.581880
4454686164,6.068130,-17.399137,-3.129851,0.830657,0.087384,0.567031
4454706209,6.002182,-19.724098,-1.367321,0.832459,0.157503,0.572384
4454726253,1.732198,-23.116861,0.984587,0.845134,0.119359,0.543384
4454746298,2.808141,-22.524595,1.737608,0.839598,0.131587,0.533500
4454766343,4.152020,-20.344143,2.212813,0.838493,0.140058,0.517763
4454786386,4.725359,-19.014431,2.397618,0.848414,0.146036,0.520244
4454806431,0.350035,-16.973648,2.436853,0.845296,0.151286,0.521179
4454826476,-0.080545,-19.390347,2.328165,0.834589,0.073068,0.499532
4454846520,4.529635,-20.527142,1.638719,0.839217,0.097086,0.527227
4454866565,1.621742,-20.053022,2.452869,0.835147,0.129925,0.521464
4454886610,0.976310,-21.822948,3.510816,0.834725,0.089046,0.528171
4454906655,5.497971,-22.890955,3.500012,0.830990,0.070214,0.500804
4454926699,6.464958,-24.746691,2.770614,0.825123,0.108577,0.511279
4454946744,5.061857,-27.261261,2.875169,0.858766,0.132400,0.471814
4454966789,1.453614,-24.247656,4.233187,0.854634,0.148408,0.495688
4454986834,4.233544,-29.532619,4.064503,0.860948,0.098709,0.494414
4455006878,6.751193,-30.303061,2.735582,0.875797,0.120089,0.506364
4455026924,8.139223,-33.929401,3.612090,0.883826,0.088323,0.504773
4455046969,10.180475,-35.640507,5.403593,0.894847,0.080281,0.499822
4455067014,9.172442,-35.661163,8.230111,0.863508,0.088689,0.475761
4455087059,15.824783,-40.652802,8.602833,0.813030,0.074034,0.462585
4455107103,16.799650,-47.471588,8.327546,0.820319,0.090220,0.421807
4455127148,12.411654,-46.957905,9.762471,0.857731,0.119350,0.367578
4455147193,8.288931,-48.276821,9.863892,0.874767,0.082232,0.375747
4455167258,9.708290,-47.436630,4.854612,0.924767,0.057173,0.305031
4455187281,8.620640,-32.442810,-2.441934,0.936242,0.066271,0.263433
4455207326,17.144098,-21.892294,-1.313568,0.943745,0.055655,0.235715
4455227370,26.031897,-26.168821,4.762677,1.129465,0.077746,0.258649
4455247415,18.132959,-16.295687,6.109016,1.294250,0.108383,0.197781
4455267460,13.528489,17.623701,8.557723,1.268320,0.103498,0.274838
4455287505,19.273697,31.989153,3.022537,1.205654,0.114194,0.450554
4455307550,6.802298,28.764591,-8.146254,1.153524,0.059681,0.519180
4455327594,10.410185,49.202129,-2.875668,0.952371,0.024054,0.558792
4455347639,19.761021,50.298546,2.430118,0.824462,0.191811,0.660082
4455387729,-19.956221,26.543261,3.739856,0.557230,0.163513,0.618668
4455407774,-28.592901,0.832328,-7.863702,0.659653,0.063226,0.578455
4455427819,-37.260807,-0.963951,-13.181681,0.777947,0.017742,0.522427
4455447864,-29.826643,23.928473,-15.479137,0.734902,0.018749,0.534577
4455467909,-24.438528,21.895504,-13.103528,0.685425,0.132223,0.579166
4455487953,-35.069012,6.720659,-8.307186,0.826636,0.215733,0.657078
4455507998,-40.626396,15.186832,-4.318686,0.816636,0.154439,0.632383
4455528043,-35.134350,17.743311,-4.797454,0.658535,0.023884,0.694671
4455548087,-32.916843,-8.671015,-4.774246,0.782816,-0.005165,0.691995
4455568131,-29.317352,-4.856298,0.268335,0.883826,-0.050813,0.653050
4455588175,-14.163645,4.702489,6.024436,0.782745,-0.052942,0.615820
4455608220,-8.477629,-8.670158,10.206402,0.756203,-0.036006,0.583439
4455628265,-2.251919,-15.167040,9.075394,0.856391,-0.030422,0.517116
4455648310,5.338006,-5.734389,7.172274,0.868829,0.011341,0.518956
4455668355,5.332711,-7.908341,6.823927,0.853218,0.022237,0.518388
4455688399,5.601624,-6.944060,5.106838,0.852894,-0.004790,0.499398
4455708444,11.962569,-2.647893,4.368359,0.823954,0.000926,0.511248
4455728489,11.811833,-6.614313,6.613043,0.858739,0.043340,0.510606
4455748533,10.274940,-4.126430,9.113659,0.879668,0.075166,0.492287
4455768578,7.105103,-2.679811,8.557604,0.852632,0.057021,0.486322
4455788623,8.982806,-6.438086,4.326223,0.881044,-0.001261,0.491016
4455808669,10.183690,-4.935452,1.519681,0.962156,0.006493,0.470878
4455828714,10.677679,-0.778319,1.473872,0.987153,0.027363,0.471161
4455848759,10.051074,2.885490,0.880985,0.973955,0.044219,0.455175
4455868803,9.707668,2.080135,0.930089,0.973239,0.073397,0.466947
4455888848,9.405201,4.453296,4.213650,0.943021,0.162280,0.479285
4455908893,0.229420,7.630115,2.894469,0.848548,0.119843,0.504164
4455928937,-2.776777,-2.066749,0.740235,0.868092,0.065199,0.476898
4455948982,-4.140656,2.600795,-0.282191,0.899410,0.047795,0.467347
4455969026,-4.453519,6.218979,-0.321304,0.844521,0.053282,0.469541
4455989070,-8.905573,2.567153,0.264800,0.836462,0.045962,0.449240
4456009115,-8.168335,1.243354,-1.156604,0.877676,0.036078,0.428682
4456029160,-7.900526,5.536791,-2.762559,0.873041,0.060442,0.447202
4456049204,-8.529006,3.773756,-3.243644,0.862725,0.052186,0.444100
4456069249,-7.402792,-2.542812,-1.951197,0.902055,0.037294,0.420474
4456089294,-8.928713,-1.825119,2.280360,0.924345,0.064900,0.413763
4456129383,-15.394938,-3.034942,3.839504,0.885131,0.067557,0.347447
4456149428,-19.699511,-7.538530,3.632980,0.928279,0.083144,0.348271
4456169473,-22.732058,-4.480079,4.415170,0.958627,0.024097,0.314474
4456209564,-17.916384,2.096014,0.090547,0.994133,-0.031057,0.337677
4456229609,-13.532628,9.943490,-0.476145,0.969643,-0.035900,0.335899
4456249653,-10.384590,14.995100,-0.771698,0.959922,0.001264,0.349087
4456269698,-10.061314,13.877329,-1.192126,0.974778,0.029833,0.334119
4456289752,-5.977002,20.821329,-0.102499,0.979089,0.028503,0.348183
4456309787,-4.703515,25.113249,-3.148402,0.969019,0.032787,0.352353
4456329832,-0.390766,27.084614,-5.567860,0.981475,0.055838,0.350979
4456349877,-4.364563,31.793049,-5.183783,0.968691,0.058186,0.396753
4456369920,-4.677975,29.719477,-2.642527,0.915818,0.037152,0.391624
4456389965,-0.554778,24.927010,-3.682843,0.983099,0.040852,0.374695
4456410010,1.936337,35.861389,-5.609236,1.034596,0.037629,0.388572
4456430054,3.710927,48.591343,-4.895903,0.979090,0.031915,0.391036
4456450099,2.332724,50.980183,-2.602106,0.881053,0.082730,0.407017
4456470144,-0.135437,47.996216,-0.454856,0.868610,0.045782,0.428081
4456490189,-0.605342,49.061558,1.414222,0.875709,0.091400,0.434948
4456510233,-4.561666,49.704754,4.338901,0.872169,0.102794,0.452491
4456530278,-7.416492,40.380936,3.821087,0.894857,0.049151,0.443904
4456550323,-7.391629,39.300289,0.888874,0.928321,0.039607,0.454060
4456570368,-2.169696,39.157959,-1.345098,0.896618,0.007049,0.474947
4456590412,1.901284,36.812550,-3.293905,0.890677,-0.000921,0.444924
4456610459,-7.233653,43.206764,0.571619,0.820396,0.017351,0.443350
4456630504,-5.065697,39.468998,8.649161,0.716194,0.000280,0.601420
4456650548,12.508207,34.411613,2.119832,0.760261,-0.067472,0.627521
4456670593,17.875813,54.895836,-3.684884,0.646803,-0.087229,0.647977
4456690638,11.073053,34.435860,2.572674,0.642885,0.026680,0.783575
4456710682,15.683374,27.950243,6.474499,0.710666,0.131049,0.632621
4456730727,23.926228,39.463463,1.341865,0.663035,0.218658,0.697102
4456750777,6.577890,23.516073,-0.681259,0.643959,0.211150,0.728617
4456770815,-10.007525,1.329513,0.975302,0.699160,0.020893,0.717936
4456790860,8.741617,-3.786459,1.613453,0.787419,-0.184958,0.674666
4456810905,37.311920,3.934898,3.657352,0.798379,-0.135896,0.686723
4456830949,43.548969,3.123441,2.779904,0.779539,0.059888,0.667216
4456850994,24.925068,-1.156300,-0.394834,0.742802,0.201353,0.700741
4456871039,12.019954,-20.541023,2.061255,0.810485,0.144345,0.573151
4456891083,19.269848,-27.798054,2.713414,0.970536,0.148150,0.448374
4456911128,13.527024,-8.373335,2.670515,0.980066,0.198369,0.428455
4456931173,-3.333236,-4.581728,1.562037,0.885018,0.109361,0.454170
4456951218,-0.107286,-20.134598,3.647039,0.927553,-0.006797,0.402360
4456971262,11.239055,-11.312138,4.199258,0.998065,0.002221,0.396154
4456991309,22.648661,6.578026,5.039534,0.921725,0.093191,0.475056
4457011353,26.637802,2.059570,4.601832,0.881470,0.117596,0.488582
4457031398,24.980459,-1.656729,2.408747,0.946710,0.136786,0.466321
4457051443,24.889643,5.462813,-2.884385,0.954115,0.092163,0.488230
4457071488,19.417360,16.726439,2.144525,0.867191,0.075078,0.517143
4457091533,36.554062,19.577391,2.787506,0.824704,0.174709,0.452734
4457111577,31.546448,15.643915,1.366906,0.830126,0.342694,0.446562
4457131622,-5.440934,5.147577,-1.554503,0.839416,0.318597,0.511926
4457151665,-19.488934,-3.157030,-5.050016,0.926501,0.142384,0.454837
4457171710,-6.032443,17.953571,-5.295040,0.927226,0.118085,0.462054
4457191754,4.200902,30.765240,-9.430928,0.872431,0.181513,0.521401
4457211799,-11.219921,22.205639,-7.956164,0.867614,0.160269,0.536291
4457231844,-20.452227,19.006510,-7.090051,0.818690,0.128085,0.585545
4457251889,-18.671309,20.463312,-9.291533,0.772370,0.131130,0.632980
4457291978,-25.301458,-1.139635,-9.060290,0.764595,0.124747,0.641807
4457312023,-29.669827,-5.202775,-10.257120,0.698257,0.101392,0.703517
4457332067,-29.046047,-23.095943,-11.570569,0.665909,0.056665,0.729415
4457352112,-32.866222,-42.701332,-9.107743,0.721177,0.034606,0.705874
4457372157,-27.380381,-45.578007,-6.617811,0.710684,0.045176,0.558309
4457392203,-22.976751,-38.228436,-15.693823,0.712781,0.172134,0.695300
4457412248,-39.721336,-40.793140,-21.307209,0.701982,0.200039,0.436242
4457432293,-48.592178,-53.222744,-26.903076,0.835920,0.048144,0.259390
4457452337,-55.833008,-101.853081,-26.344484,1.161961,-0.022922,0.222663
4457472382,-39.412590,-115.318680,-22.305679,1.599778,-0.179447,0.335769
4457492428,16.254017,-38.363243,-3.546188,1.828325,-0.114507,0.183947
4457512472,28.839737,92.918030,8.216777,1.168841,0.111775,0.380656
4457532517,-0.365593,90.829437,6.416207,0.588628,0.160098,0.589791
4457552560,-28.196404,31.470705,9.679701,0.466663,0.098484,0.490990
4457572604,-40.868687,18.525845,0.327176,0.611000,0.049146,0.510296
4457592649,-44.029484,49.354168,-5.939976,0.615730,0.084345,0.471073
4457612694,-49.315166,48.383148,-11.916985,0.542138,0.216027,0.612844
4457632739,-52.721691,31.171473,-9.787181,0.623874,0.082500,0.622646
4457652783,-43.824585,34.583584,-10.932802,0.741718,-0.010645,0.693652
4457672828,-37.278782,34.036575,-14.707820,0.800093,-0.054618,0.797048
4457692873,0.114745,38.109043,-13.855627,0.933906,-0.167084,0.776557
4457712918,3.179612,44.942558,-6.907228,0.814067,-0.046430,0.597968
4457732962,-13.432813,40.145359,9.253572,0.633949,0.048418,0.682908
4457753007,-8.830208,16.246708,13.484270,0.684862,0.087298,0.668483
4457773054,-1.086098,28.896572,16.582146,0.690771,0.105890,0.642243
4457793098,0.321247,34.618446,16.055519,0.724836,0.018952,0.604334
4457813143,-3.534448,25.571173,20.100859,0.935115,-0.044110,0.464452
4457833188,-4.773247,48.365459,17.285275,0.997760,-0.008745,0.442129
4457853232,-10.382245,95.902603,-4.984943,0.701199,0.002161,0.879163
4457873277,-7.915450,80.009476,-0.448327,0.512285,-0.275165,0.916490
4457893322,26.512821,35.133564,11.824141,0.677444,-0.063480,0.917770
4457913367,1.570976,63.713188,16.841206,0.564134,0.160221,1.007233
4457933410,-6.499781,58.176346,10.409914,0.250666,-0.007453,1.035826
4457953455,-2.352240,19.873508,11.854186,0.172570,-0.168184,1.112513
4457973499,2.125330,3.041682,11.812914,0.168709,-0.243565,1.043731
4457993544,11.739388,-6.462745,5.485948,0.141487,-0.041018,0.996793
4458013588,8.601586,-31.241697,-2.031535,0.171880,0.136354,0.891305
4458033633,-8.648702,-66.526657,-6.970173,0.206265,0.055259,0.780150
4458053678,-24.000641,-102.146996,-10.368917,0.377571,-0.109669,0.630627
4458073723,-15.133608,-103.486023,-13.140129,0.559741,-0.258323,0.434708
4458093768,18.426922,-48.236065,-15.163796,0.534732,-0.149004,0.221853
4458113813,54.245529,-83.647057,4.288351,1.002563,-0.002497,0.195564
4458133857,53.356655,-187.520096,-1.655556,1.650057,0.121343,0.318358
4458173948,-6.075811,38.267952,-10.441027,2.012146,0.124326,0.170845
4458193993,12.859215,122.498001,-9.797353,0.895519,0.024223,0.552549
4458214038,36.972023,30.527245,-2.505530,0.491917,0.196860,0.669356
4458234082,-23.702814,-28.144211,12.383250,0.673602,0.341255,0.590556
4458254127,-37.869503,-10.886448,11.386135,0.738209,-0.007243,0.439857
4458274172,-9.640591,25.629009,1.833238,0.719580,-0.021260,0.417166
4458294217,-20.811871,25.508236,-0.838819,0.693283,0.117833,0.509602
4458314261,-41.945480,21.142080,1.803289,0.734514,0.120155,0.537744
4458334305,-43.707050,31.485283,-4.546642,0.730159,0.108284,0.563666
4458354350,-38.215004,40.255981,-11.986790,0.744347,-0.055203,0.727179
4458374394,-18.270319,52.098095,-7.000937,0.789761,-0.133032,0.686637
4458394439,-2.391239,46.381622,4.889155,0.811981,-0.009876,0.643356
4458414484,19.717590,38.510906,4.658520,0.756244,-0.066734,0.632948
4458434528,20.437527,60.303696,9.569053,0.390493,-0.203368,0.760232
4458474618,31.427956,25.139208,5.625083,0.730650,-0.041462,0.795795
4458494663,27.073368,39.032051,11.412387,0.843972,0.015766,0.587203
4458514707,30.553688,78.689705,11.911963,0.437445,0.069683,0.945509
4458534752,43.871197,61.489243,3.522174,0.282059,0.037371,1.108885
4458554797,18.761574,17.233711,13.355587,0.507155,0.108316,0.923211
4458574843,13.921122,21.277786,22.050880,0.503291,0.051758,0.910539
4458594888,24.668831,21.082218,13.481878,0.327490,0.111731,0.972491
4458614932,17.163967,3.019340,7.926575,0.203037,0.181213,0.981115
4458634977,8.501585,-25.280493,2.785977,0.193921,0.124184,0.955571
4458655022,4.335639,-60.872215,-0.020530,0.335421,0.029681,0.863609
4458675066,-0.832541,-60.369617,-7.790133,0.497552,-0.058890,0.476673
4458695111,-4.285682,8.897768,-9.428988,0.336723,-0.208872,0.281537
4458715154,46.373001,-70.569824,15.017200,0.933285,0.000801,-0.070091
4458735199,109.109528,-216.045685,20.425539,1.743782,0.337616,0.502351
4458755244,-5.136850,-144.185516,-5.857116,2.301372,0.687108,1.068379
4458775289,-84.968399,110.989105,-14.971065,1.807835,-0.054090,0.275982
4458795334,1.502590,111.796471,-14.141628,0.758865,-0.196084,0.803195
4458815378,39.944969,28.285187,-13.328947,0.475006,0.194458,0.617630
4458835423,-26.439949,2.197160,5.800961,0.492711,0.306029,0.764422
4458855468,-33.436329,0.615683,8.073023,0.512430,-0.044098,0.535565
4458875512,-5.308589,5.500085,5.072067,0.623746,-0.034111,0.571075
4458895557,-15.492609,18.545292,7.773746,0.716317,0.070820,0.535924
4458935647,-16.927189,44.312996,8.019406,0.551096,0.007556,0.672625
4458955693,-12.004722,34.556873,7.617591,0.511312,0.074258,0.811811
4458975737,-23.668442,25.960196,1.483380,0.641431,0.115562,0.892540
4458995782,-25.481680,38.054108,0.685928,0.734245,0.066330,0.920391
4459015827,0.361724,40.865524,-2.242226,0.707370,0.004646,0.870083
4459035872,14.498657,45.156082,-17.370335,0.488737,-0.010134,0.769187
4459055917,8.079638,36.283863,-17.708881,0.173516,0.024681,0.907990
4459075961,19.748755,10.385471,-1.623077,0.160501,-0.094873,0.939108
4459096006,39.657177,4.723601,4.225234,0.421927,-0.021385,0.889517
4459116049,41.013378,2.330872,10.121278,0.623094,0.103873,0.789440
4459136094,20.260578,20.101410,4.336556,0.485075,0.196966,0.982954
4459156139,1.590711,4.284503,2.605318,0.153695,-0.076318,1.294981
4459176184,17.246000,-21.521866,11.278345,0.221019,-0.105337,1.091499
4459196229,36.052990,-31.996473,11.707805,0.330138,0.081421,1.034762
4459216273,26.155981,-43.980824,13.928140,0.444682,0.198992,0.940124
4459236317,10.507515,-52.899132,11.702497,0.616449,0.185779,0.668263
4459256362,7.347991,6.891640,13.841409,0.036983,-0.078210,0.707088
4459276407,45.328964,-42.584095,12.941805,0.280819,0.028382,0.209339
4459296452,92.153091,-132.957443,15.959343,1.074451,0.351812,0.072986
4459316496,43.522919,-215.716583,0.991010,1.915769,0.718075,0.771597
4459336541,-100.997864,-27.855515,-1.095383,1.720712,0.434800,0.567569
4459356587,-39.498405,114.372749,-9.190161,0.910483,-0.103292,0.662327
4459376632,52.435986,9.782262,-12.538738,0.421339,0.123341,0.806743
4459396677,15.587774,-16.334877,-1.390691,0.539102,0.399834,0.896820
4459416721,-25.955555,-24.028353,-0.165940,0.487155,0.104213,0.719159
4459436766,2.574772,-45.615448,1.433641,0.605863,0.024322,0.608792
4459456811,-4.813318,-36.792149,1.672402,0.778898,0.263490,0.606898
4459476855,-35.694050,-24.156649,0.068833,0.877631,0.248482,0.476730
4459496899,-26.914194,1.563808,-0.632265,0.889623,0.145960,0.544490
4459516943,-19.718916,14.066898,-3.822754,0.753580,0.148055,0.627514
4459536988,-25.172394,2.768845,-4.996806,0.666876,0.064925,0.663893
4459557033,-20.563929,-5.118813,-8.887157,0.726096,0.029545,0.684557
4459577078,-19.416895,-0.525592,-1.373419,0.834397,0.068088,0.791916
4459597123,-30.126608,0.413747,4.840535,0.792931,0.105186,0.643086
4459617168,-21.706438,-2.808362,5.411341,0.861128,0.088303,0.505518
4459637212,-3.011652,7.588848,6.301881,0.751055,-0.016372,0.627396
4459657257,-7.496263,4.225561,6.187079,0.602008,0.056849,0.760995
4459677302,3.445091,3.843874,6.621595,0.636855,0.022991,0.715187
4459697346,24.030010,4.678591,9.319840,0.658976,-0.033472,0.643707
4459717391,16.112488,-7.367032,14.290497,0.773953,-0.056524,0.556515
4459737437,16.246481,20.827705,6.027435,0.779189,-0.063947,0.737338
4459757482,18.721752,48.190281,-5.924809,0.700821,-0.036722,1.022421
4459777527,6.491597,22.528458,17.040493,0.479829,0.146775,1.002904
4459797571,23.726025,-2.292564,22.660782,0.246184,0.244508,0.910621
4459817616,14.398293,-22.520287,16.618692,0.219514,0.200029,0.957408
4459837661,-1.301247,-42.230751,16.132998,0.354835,0.007032,0.735201
4459857706,-14.982307,-39.150257,11.702093,0.495880,-0.108263,0.466052
4459877750,17.026829,10.883545,2.092195,0.152659,-0.124970,0.269849
4459897794,55.569553,-38.380901,-1.127877,0.746367,-0.022885,0.073591
4459937883,-2.387573,-239.185898,0.961432,2.117560,0.196458,0.728668
4459957928,41.104019,-41.106873,10.816824,2.354739,0.215241,0.352957
4459977973,47.252941,138.243393,-1.703434,1.513106,0.358792,0.281438
4459998017,36.183945,98.791542,1.397487,0.517911,0.233744,0.855336
4460018062,8.067898,10.814052,-0.619728,0.357919,0.150717,0.441875
4460038107,3.467320,-49.095325,5.886791,0.506829,0.014109,0.692733
4460058152,4.004000,-28.420433,9.131379,0.764427,-0.014874,0.472432
4460078196,-0.014013,11.618511,14.906618,0.763763,0.043451,0.455649
4460098241,-15.799050,14.073039,17.280338,0.718882,0.090106,0.560639
4460118286,-19.645451,24.916283,20.225002,0.725780,0.127929,0.510575
4460138332,-15.359876,39.141323,20.765305,0.708693,0.109834,0.557033
4460158376,-14.965129,42.055351,11.236654,0.661922,0.089611,0.613306
4460178421,-12.276268,27.266272,3.695526,0.649198,0.054333,0.700360
4460198466,-12.805553,11.248670,-3.827386,0.775879,0.090425,0.721746
4460218511,-4.729749,14.425897,-4.913160,0.898146,0.041576,0.662589
4460238555,-0.010403,20.245163,-2.235114,0.850747,0.116750,0.684929
4460258600,-8.873331,20.496210,-1.855048,0.727208,0.132480,0.738069
4460278643,-6.300917,9.855629,3.940431,0.696692,0.056761,0.680749
4460298688,-2.994389,10.393126,5.499177,0.610273,0.036820,0.681647
4460318733,-5.018096,0.056400,2.111469,0.662271,0.021662,0.685157
4460338778,-5.803450,0.864109,5.118335,0.723077,0.079253,0.681393
4460358822,-6.093676,1.573615,10.414606,0.730502,0.211398,0.715317
4460378867,8.545424,-8.251659,10.121198,0.864053,0.166701,0.623523
4460398912,15.922060,3.889490,-3.156965,0.954041,0.139903,0.496211
4460418957,10.043666,49.592007,-15.443416,0.625444,-0.030921,0.850021
4460439001,-1.758030,18.709482,-23.170578,0.577071,-0.348881,1.105214
4460459046,-1.407129,9.135011,-0.332182,0.488691,0.026593,0.917560
4460479091,41.970352,30.244852,4.480483,0.204325,0.493560,0.972628
4460499135,4.781325,-8.367880,-1.978161,0.086167,0.385855,0.874690
4460519181,-45.587051,-70.030602,-10.348048,0.288525,0.032487,0.551324
4460539226,-49.971031,-56.690147,-15.995062,0.397502,-0.166971,0.301664
4460559271,9.709751,-34.044823,-47.038658,0.688820,-0.149609,0.117645
4460579315,-1.717228,-92.121323,-51.147148,1.452230,-0.134631,0.189742
4460599361,-19.455711,-169.250854,-12.549626,1.811362,-0.316835,0.395533
4460619405,120.654808,-67.833191,6.438251,2.073092,-0.243801,0.447190
4460639450,146.972183,90.483177,9.522646,1.389047,0.782493,0.659330
4460659495,22.223694,101.573067,7.634621,0.597212,0.612525,0.803352
4460679538,10.579307,-28.373045,8.821898,0.379861,0.203038,0.510888
4460699583,14.267648,-82.797028,9.210752,0.701423,0.182585,0.617288
4460719628,7.833063,-24.067104,12.312827,0.770934,0.038605,0.443359
4460739672,28.376738,5.953034,12.157406,0.623441,0.050238,0.473050
4460759717,7.243443,-28.376656,11.277714,0.640689,0.186919,0.561635
4460779762,-10.638272,-32.161644,11.098426,0.809779,0.092120,0.448209
4460799806,1.718058,12.178285,12.287353,0.854807,0.119015,0.453323
4460819851,-3.582165,15.106568,6.611498,0.782949,0.278777,0.548715
4460839896,-6.091691,11.231345,4.318441,0.795413,0.182895,0.527656
4460859941,-6.005975,17.325060,-0.045643,0.783697,0.122961,0.561023
4460879985,-9.062174,13.009651,-1.937941,0.826115,0.134818,0.573981
4460900032,-11.949934,15.057343,-0.584535,0.889720,0.160804,0.580149
4460920076,-15.018415,18.534920,2.536351,0.873746,0.158612,0.634313
4460940121,-14.496253,12.234564,4.915213,0.836922,0.097822,0.648749
4460960166,-8.330527,2.401850,5.600974,0.842411,0.067456,0.621362
4460980210,-0.918373,-1.716604,5.433763,0.820828,0.038926,0.602776
4461000255,1.823123,-12.787161,1.941648,0.757467,0.017572,0.569622
4461020300,1.767091,-22.250069,1.745330,0.863118,0.080609,0.504595
4461040345,-2.166115,-18.916790,3.463597,0.861135,0.143105,0.519542
4461060388,2.222660,-14.549090,5.878910,0.793548,0.118152,0.509239
4461080433,9.484845,-13.605297,5.829956,0.767174,0.106251,0.523439
4461100477,15.433897,-10.615071,7.358503,0.787179,0.109184,0.579189
4461120522,28.906168,-11.477779,7.812160,0.819993,0.064899,0.637243
4461140567,26.476454,-12.166821,8.974186,0.842904,0.072731,0.633158
4461160611,14.230704,-10.925825,6.994726,0.853264,0.112953,0.594299
4461180656,4.391716,-1.398532,-3.810154,0.822497,0.046255,0.711253
4461200701,8.240648,7.584054,0.372380,0.628171,0.047931,0.691884
4461220746,43.778404,2.211517,3.571310,0.499669,0.271349,0.686096
4461240791,24.569246,-13.581167,3.954451,0.544141,0.411436,0.572278
4461260835,-9.498677,-32.797943,1.216978,0.641370,0.178514,0.397830
4461280880,-29.228380,-35.144276,2.208480,0.634153,-0.048869,0.330915
4461300926,-13.072803,-68.440811,4.104468,1.170070,-0.030387,0.190645
4461320971,16.308483,-104.085663,-1.671314,1.618825,0.099758,0.156886
4461341015,10.220333,-23.828297,-9.737816,1.649311,0.100582,0.458004
4461361060,4.157979,76.628189,-8.742603,1.089818,0.097601,0.487537
4461381105,22.317482,67.636711,-7.357294,0.597575,0.119045,0.516723
4461401150,25.032177,-19.983669,-1.177776,0.550573,0.205913,0.580941
4461421194,-9.531886,-56.950745,6.062449,0.734754,0.182298,0.596411
4461441239,-9.544426,-14.766663,6.510234,0.770907,-0.016055,0.436253
4461461282,17.521606,-0.417504,5.664448,0.664540,0.033772,0.487234
4461481327,3.779581,-29.948112,8.829812,0.725209,0.159899,0.517864
4461501372,-9.397371,-30.833580,8.901206,0.861053,0.059115,0.428097
4461521417,0.853376,-8.148697,4.603483,0.871686,0.031260,0.455809
4461541461,4.417726,-2.407050,1.500553,0.822050,0.079624,0.460055
4461561506,1.532005,-14.513056,0.193303,0.872769,0.093950,0.453479
4461581551,-0.448262,-16.571110,0.248524,0.926438,0.130147,0.476880
4461601596,-1.560459,-8.634296,1.857008,0.890392,0.155202,0.488245
4461621640,-4.140951,-13.192773,1.218311,0.878443,0.182700,0.471361
4461641685,-5.550365,-19.265345,-0.624006,0.917233,0.138341,0.456442
4461661730,-0.355318,-20.326721,-1.493228,0.960135,0.113606,0.440480
4461681774,0.381867,-20.714043,0.611754,0.969632,0.115394,0.442720
4461701820,-1.234332,-22.703220,2.401089,0.971959,0.081079,0.417437
4461721866,1.728933,-21.504444,3.344760,0.953739,0.070436,0.395723
4461741911,8.807250,-21.236973,3.252145,0.932305,0.050813,0.398642
4461761955,12.744604,-20.336189,2.588786,0.941148,0.100212,0.390013
4461782000,9.460073,-17.004086,2.953642,0.915942,0.113741,0.380704
4461802044,9.573465,-19.444456,1.957083,0.893047,0.106978,0.356284
4461822089,10.091350,-20.311989,0.613113,0.930575,0.136661,0.353309
4461842132,7.796349,-17.004295,-0.698002,0.937523,0.172249,0.334492
4461862177,2.091306,-18.131981,-0.935071,0.932385,0.160400,0.349302
4461882222,0.185709,-17.765261,-0.402763,0.948609,0.122306,0.322057
4461902267,-1.036646,-15.870940,1.128477,0.925061,0.094586,0.322843
4461922311,-0.008039,-16.335106,1.936187,0.927847,0.095481,0.338879
4461942356,-2.576810,-14.637285,3.371280,0.920821,0.083036,0.343028
4461962401,-3.848022,-15.129410,5.194647,0.919048,0.094414,0.349476
4461982445,-7.084146,-14.822340,5.744831,0.929170,0.098555,0.338044
4462002490,-6.074431,-14.025481,4.982124,0.917636,0.066637,0.325477
4462022535,-5.387683,-14.041877,3.651291,0.896442,0.103316,0.361164
4462042580,-10.112664,-15.026107,3.162786,0.866612,0.109252,0.338774
4462062624,-9.977423,-18.614067,2.464258,0.862906,0.075567,0.350041
4462082670,-6.847568,-21.201643,1.056177,0.901546,0.052258,0.333399
4462102715,-7.915940,-19.072557,0.986173,0.902378,0.124107,0.336545
4462122760,-11.973560,-19.729902,1.894009,0.895772,0.127207,0.335470
4462142805,-10.295191,-24.953022,1.916552,0.943308,0.096709,0.326418
4462162850,-9.963840,-24.695314,0.961481,0.952898,0.109585,0.349143
4462182894,-9.033296,-29.720539,0.166794,0.981694,0.085959,0.331339
4462202939,-8.535452,-33.581753,0.981785,1.017988,0.057424,0.255818
4462222983,-8.586007,-31.370070,0.622022,0.991230,0.052711,0.279606
4462243027,-8.872248,-32.276493,-4.227781,0.970716,-0.008908,0.263759
4462263072,-3.116244,-34.063160,-11.164782,0.991181,-0.060625,0.189679
4462283116,6.284426,-31.375881,-17.478785,1.009884,-0.060700,0.155219
4462303161,12.060668,-28.190386,-21.487597,1.022945,-0.010600,0.113749
4462343250,13.171633,-16.852543,-24.668427,1.013927,0.095890,0.158872
4462363295,3.285552,-13.553907,-26.896475,1.036389,0.149159,0.183907
4462383340,-5.351530,-8.583406,-27.368233,1.091499,0.159497,0.239670
4462403385,-10.476784,1.355565,-26.401281,1.059593,0.197279,0.267076
4462423429,-24.252224,6.953758,-26.879948,0.976695,0.200910,0.269627
4462443474,-42.312859,3.616791,-28.338161,0.914790,0.189360,0.308875
4462463519,-58.347153,-6.091259,-29.683994,0.918957,0.202682,0.318992
4462483565,-71.592476,-11.513300,-27.428955,0.938393,0.231317,0.297593
4462503610,-85.979301,-15.536255,-26.126389,0.941500,0.219782,0.272310
4462523654,-101.347214,-16.481686,-28.376961,0.919918,0.155975,0.266852
4462543699,-111.378700,-19.537649,-31.801573,0.897727,0.097481,0.276095
4462563744,-114.207947,-21.587971,-33.080666,0.913360,0.108101,0.251813
4462583789,-119.569862,-20.040066,-32.340141,0.920116,0.104391,0.231863
4462603834,-124.335632,-21.579321,-33.292522,0.925489,0.088917,0.221287
4462623878,-126.899384,-22.528076,-35.252728,0.939404,0.098049,0.214485
4462643921,-130.134369,-26.097292,-34.546516,0.954915,0.108721,0.171992
4462663966,-135.478088,-30.165646,-32.322868,0.983668,0.121974,0.160712
4462684011,-140.064911,-32.000038,-30.069044,1.026158,0.108679,0.124988
4462704055,-143.664307,-31.821636,-29.020763,1.045077,0.079185,0.119906
4462724100,-147.416183,-33.597015,-29.142687,1.051927,0.081753,0.098449
4462744145,-152.879837,-35.226669,-29.640154,1.035929,0.096899,0.067252
4462764190,-159.296097,-36.878567,-30.716904,1.040238,0.073391,0.040255
4462784234,-165.031219,-36.159615,-31.747791,1.048415,0.040923,0.017822
4462804279,-168.555511,-33.899254,-31.943838,1.050954,0.020548,0.016825
4462824324,-171.587570,-33.144154,-31.921303,1.023642,0.028596,0.014192
