Timestamp (us),Gyroscope X (deg/s),Gyroscope Y (deg/s),Gyroscope Z (deg/s),Accelerometer X (g),Accelerometer Y (g),Accelerometer Z (g)
8658042768,-0.574454,0.676277,0.179001,0.565119,0.035090,0.827003
8658062813,-1.182002,0.175344,0.595521,0.577996,0.045639,0.837389
8658082860,0.135406,-0.357476,1.408700,0.579850,0.032776,0.827494
8658102905,0.215873,-0.418712,0.608220,0.560133,0.050127,0.828482
8658122950,-0.665888,-1.588186,1.210313,0.568532,0.042832,0.820409
8658142994,-0.072449,-0.995922,1.037601,0.565783,0.034924,0.817996
8658163039,-0.626421,-1.603246,1.598558,0.575312,0.039183,0.821581
8658183085,-0.470909,-0.516307,1.984871,0.586192,0.033402,0.813788
8658203129,0.603887,0.546965,2.211792,0.580894,0.034169,0.820571
8658223173,1.563289,0.865469,2.440302,0.568702,0.034969,0.817653
8658243218,1.558805,1.305687,1.053391,0.554807,0.039116,0.820248
8658263262,0.359848,0.485394,0.050126,0.568122,0.042472,0.832791
8658283308,0.003406,0.250237,0.395904,0.574614,0.044394,0.834735
8658303352,0.131469,-0.350339,0.372635,0.566493,0.028577,0.824336
8658323397,0.761181,-0.442228,0.070780,0.566561,0.032375,0.820117
8658343442,0.289947,-0.852153,0.303330,0.570915,0.038171,0.823834
8658363487,0.017966,-1.140479,0.892297,0.579688,0.038452,0.817795
8658383532,-0.262740,-0.403058,0.695676,0.572636,0.044268,0.825799
8658403577,-0.574653,-1.314699,1.079844,0.577283,0.036405,0.819707
8658423622,-0.034509,-0.509624,0.785446,0.582045,0.037408,0.817093
8658443669,0.215535,-0.380757,0.501530,0.573340,0.042056,0.824001
8658463713,-0.075189,-0.411117,0.039072,0.569999,0.042881,0.817688
8658483758,-0.380878,-0.692205,-0.240195,0.565996,0.037017,0.817889
8658503803,-0.520106,-0.851946,-0.787494,0.571164,0.035587,0.820033
8658523848,-0.131601,-0.905385,-0.561873,0.575936,0.038358,0.822230
8658543893,-0.419095,-0.517418,-0.377197,0.587913,0.040628,0.820569
8658563938,0.358309,0.470016,-0.345999,0.575934,0.037327,0.818323
8658583999,0.036873,-0.077090,-0.640131,0.565291,0.039798,0.822778
8658604026,0.195773,-0.746033,-0.518824,0.578569,0.043967,0.821748
8658624071,-0.602068,-0.638904,-0.451862,0.581191,0.040962,0.815054
8658644116,0.253327,0.295500,0.119687,0.583692,0.023100,0.808574
8658664161,0.853217,1.259976,-0.533380,0.586619,0.039560,0.821570
8658684206,0.558916,1.526458,-0.081896,0.580611,0.055696,0.834139
8658704250,0.023393,-0.198459,-0.129487,0.553787,0.039172,0.825885
8658724295,-0.418806,-1.140506,-0.003313,0.569099,0.039596,0.827997
8658744340,0.181751,-1.148631,-0.015529,0.579353,0.039519,0.813414
8658764385,0.595173,-0.267158,0.315673,0.578569,0.036174,0.815712
8658784431,1.387727,-0.123239,0.736085,0.573274,0.040115,0.807629
8658804475,0.955258,0.629546,0.609178,0.566778,0.047408,0.819266
8658824522,0.695660,0.401667,0.428545,0.580862,0.044275,0.818666
8658844567,1.228347,2.004666,-0.209373,0.604970,0.016294,0.794036
8658864612,4.847786,6.158285,-2.061824,0.624150,-0.009786,0.807684
8658884657,7.708784,10.175993,-3.367432,0.569617,0.053900,0.815227
8658904701,4.000707,10.156644,-2.813321,0.518712,0.088304,0.840428
8658924746,5.805977,2.295367,-4.137695,0.606111,0.002485,0.803081
8658944791,10.073915,12.421551,-8.255779,0.577520,0.045740,0.787584
8658964834,6.991392,8.357416,-9.195827,0.554565,0.061581,0.824978
8658984879,5.212621,7.879344,-10.888234,0.558879,0.064364,0.827991
8659004924,3.896207,8.176709,-11.327902,0.550511,0.083151,0.849170
8659024969,1.380273,7.548230,-10.873775,0.543885,0.083660,0.842926
8659045014,-0.933243,5.817375,-10.641089,0.541873,0.078926,0.852237
8659065059,-1.201801,4.365896,-10.591947,0.543355,0.079696,0.848327
8659085104,-1.135637,3.476481,-10.759216,0.544127,0.082505,0.847490
8659105149,-1.354719,3.013294,-10.170490,0.531915,0.077440,0.852996
8659125194,-1.275754,1.660942,-8.752814,0.535387,0.064791,0.850850
8659145239,-1.177327,2.072057,-7.062695,0.550047,0.080728,0.840993
8659165284,-0.715124,2.953863,-5.901474,0.536681,0.088653,0.837734
8659185330,-0.516536,2.551050,-5.468373,0.513465,0.090366,0.837368
8659205375,-0.566703,1.327107,-6.076294,0.522833,0.090737,0.844990
8659225420,-0.264188,0.870714,-6.276258,0.537957,0.076530,0.840666
8659245465,1.574074,2.739203,-5.598854,0.518003,0.074846,0.831247
8659265518,1.934327,2.420077,-4.679500,0.524900,0.095555,0.847333
8659285555,2.648609,2.176246,-4.661891,0.543352,0.098564,0.847807
8659305600,2.764921,2.965816,-6.438592,0.520386,0.103884,0.842497
8659325647,2.265958,1.627347,-9.046576,0.503571,0.127227,0.846187
8659345688,0.782869,-0.272100,-10.275193,0.512692,0.130556,0.858881
8659365732,1.985749,-0.690892,-9.644083,0.476176,0.144019,0.879808
8659385777,1.677341,-6.822671,-5.842009,0.432391,0.173484,0.879882
8659405822,-0.454987,-11.290395,-6.628976,0.476910,0.184804,0.860813
8659425867,-1.564099,-10.992968,-6.536952,0.562682,0.171242,0.827500
8659445912,-3.054350,-8.635986,-7.693354,0.593694,0.113443,0.791149
8659465957,-1.190395,-6.299636,-14.459664,0.611619,0.102123,0.750767
8659486002,-1.694938,-0.682926,-15.878110,0.634559,0.134894,0.791361
8659506047,-2.850977,0.672454,-12.647988,0.645755,0.086789,0.781006
8659526092,-0.354393,6.348931,-10.623175,0.640574,0.041414,0.773877
8659546137,-0.712000,10.688267,-12.772895,0.641556,0.048206,0.782204
8659566183,0.738312,14.350445,-13.008408,0.656593,0.064954,0.771979
8659586228,-1.509258,17.187170,-13.618557,0.634588,0.053096,0.788395
8659606273,-1.240847,17.855928,-13.331753,0.621624,0.039922,0.793052
8659626318,0.411887,20.385334,-13.773440,0.612967,0.025878,0.787096
8659646363,0.648366,25.652267,-14.092584,0.555726,0.007813,0.792654
8659666408,7.431247,26.256279,-10.076990,0.510021,0.011939,0.852011
8659686453,11.688913,24.185673,-9.056351,0.519785,-0.009688,0.894324
8659706497,10.975789,22.465485,-15.806685,0.562937,-0.014195,0.890124
8659726541,21.575096,20.084650,-16.388510,0.511376,0.111408,0.843188
8659746586,18.134960,18.622366,-12.665876,0.384466,0.215863,0.892111
8659766631,16.292246,5.294880,-7.032082,0.411744,0.288094,0.864309
8659786676,15.359173,-9.244659,-7.506371,0.625665,0.464483,0.851124
8659806721,-25.176701,1.477963,-22.053776,0.644975,0.499814,0.784966
8659826766,-52.959671,16.463303,-31.857748,0.469529,0.223905,0.806811
8659846810,-42.652592,8.612309,-44.651905,0.331588,-0.027490,0.866875
8659866855,-33.472401,-2.613690,-60.260620,0.444085,-0.047748,0.882886
8659886900,-37.077972,-3.238418,-70.418037,0.566076,0.128077,0.941323
8659906945,-48.143826,-2.824365,-83.581810,0.584462,0.309747,0.875407
8659926991,-69.265312,7.592363,-98.795815,0.526940,0.263069,0.757014
8659947037,-83.378609,13.509114,-118.249359,0.470419,0.252058,0.881332
8659967081,-95.390671,4.952192,-137.994843,0.489099,0.306455,0.840687
8659987126,-115.808350,14.424746,-155.605499,0.505806,0.262972,0.837890
8660007171,-124.130188,15.663755,-171.312759,0.491285,0.190929,0.867695
8660027216,-124.671341,11.379498,-183.577621,0.513396,0.146992,0.826339
8660047261,-125.964622,16.713255,-190.330185,0.509932,0.051731,0.857782
8660067306,-120.809807,22.627583,-195.121490,0.378513,-0.045864,0.931647
8660087349,-115.268883,19.565104,-200.029190,0.253007,-0.016677,0.975830
8660107394,-114.999321,6.657585,-202.913986,0.307744,0.075746,0.972917
8660127439,-117.742096,3.284389,-204.809570,0.367542,0.076802,0.890404
8660147484,-120.460114,1.793269,-213.076050,0.386037,0.093441,0.909885
8660167529,-123.007103,-8.553150,-222.097260,0.489605,0.241130,0.847330
8660187574,-135.556030,-8.326056,-231.326080,0.659799,0.300476,0.733731
8660207619,-157.585602,3.387395,-238.070419,0.809523,0.075117,0.792131
8660227664,-155.263641,14.772744,-234.724060,0.685822,-0.386917,0.875434
8660247709,-132.975372,12.025975,-232.218353,0.473810,-0.455005,0.916874
8660267754,-123.211319,5.080754,-226.351990,0.422579,-0.334930,0.912777
8660287798,-113.261505,2.667500,-215.806091,0.439573,-0.291185,0.895606
8660307845,-102.750954,1.189123,-204.206421,0.474515,-0.231478,0.866325
8660327889,-99.743660,5.627569,-199.251312,0.422684,-0.166276,0.862313
8660347934,-100.810219,3.272527,-198.692383,0.444387,-0.128961,0.910872
8660367980,-100.972504,0.180440,-195.907547,0.541441,-0.119857,0.870900
8660388024,-104.185349,3.268801,-196.563858,0.543152,-0.085479,0.888110
8660408069,-108.711517,0.482660,-197.882584,0.546583,-0.083622,0.849698
8660428114,-113.125603,0.240972,-202.929916,0.573601,-0.105442,0.825858
8660448158,-115.381592,-1.651704,-207.474182,0.585771,-0.115702,0.793984
8660468202,-119.742569,-2.370391,-208.331421,0.627983,-0.157472,0.803559
8660488248,-119.573807,-1.284594,-210.451614,0.681476,-0.167226,0.763425
8660508292,-118.593910,6.960332,-212.630524,0.670189,-0.129295,0.728432
8660528337,-118.893837,9.301595,-212.653275,0.648017,-0.154397,0.766261
8660548382,-120.186005,7.683249,-213.792221,0.681547,-0.200336,0.736294
8660568427,-120.523178,10.312497,-215.750015,0.720828,-0.205273,0.715044
8660588472,-124.534622,12.618811,-216.109985,0.715136,-0.213635,0.719351
8660608517,-127.654472,16.306723,-218.588333,0.719932,-0.274426,0.744015
8660628562,-126.689636,20.575573,-222.812698,0.651912,-0.328696,0.738230
8660648607,-124.832123,20.116516,-225.942368,0.569065,-0.355346,0.789194
8660668653,-121.698288,13.994049,-228.604187,0.547326,-0.339572,0.844897
8660688698,-117.577988,7.630033,-225.666229,0.520937,-0.262217,0.834415
8660708743,-116.215393,2.250727,-218.655136,0.557347,-0.210161,0.796650
8660728788,-110.013817,6.065227,-209.114868,0.626621,-0.249837,0.761339
8660748833,-105.027847,8.914894,-200.889923,0.685162,-0.199849,0.747970
8660768878,-101.467773,14.420071,-189.045517,0.646322,-0.143885,0.716452
8660788922,-96.583809,15.301292,-180.711273,0.702366,-0.102179,0.762585
8660808966,-93.344864,20.508368,-173.191299,0.676903,-0.102885,0.713332
8660829011,-90.509453,22.523216,-166.289917,0.586426,-0.084246,0.758222
8660849056,-89.248802,17.559778,-164.283646,0.606640,-0.027434,0.789402
8660869101,-90.519173,16.488426,-165.948944,0.682875,-0.021568,0.775343
8660889146,-91.055023,19.794044,-168.492447,0.646855,-0.038818,0.761019
8660909191,-91.063354,18.189665,-169.907883,0.629150,-0.024290,0.804198
8660929236,-92.763382,16.510296,-172.308258,0.624520,-0.032809,0.789122
8660949281,-93.674881,15.559502,-175.621948,0.591525,-0.047133,0.782353
8660969325,-93.895355,11.340418,-177.589417,0.598523,-0.057976,0.797516
8660989371,-93.323219,10.594545,-178.720596,0.597454,-0.074361,0.773789
8661009415,-90.862701,11.269305,-177.780197,0.617321,-0.079347,0.780895
8661029461,-88.909744,11.436485,-174.123306,0.624139,-0.059045,0.791156
8661049506,-87.893890,10.213615,-170.313187,0.599053,-0.061125,0.816938
8661069551,-85.397774,7.058136,-168.173340,0.605688,-0.051272,0.781489
8661089596,-84.574333,7.629431,-163.845398,0.624523,-0.034042,0.782577
8661109641,-84.558022,7.053820,-159.289246,0.623850,-0.023045,0.814073
8661129686,-84.905685,7.115157,-158.776215,0.613385,0.001025,0.830368
8661149731,-85.062355,6.058477,-159.482513,0.608729,-0.013744,0.795768
8661169776,-86.318588,5.671801,-159.761993,0.618482,-0.012013,0.803109
8661189819,-86.922478,5.481959,-160.526642,0.620725,-0.013943,0.805690
8661209864,-88.901688,6.395260,-161.616974,0.566624,-0.005779,0.801404
8661229909,-88.067459,5.169945,-163.572495,0.618899,0.010418,0.829603
8661249954,-89.641441,8.476869,-165.209106,0.624338,0.010449,0.782390
8661269999,-89.447540,10.156547,-165.006500,0.527065,-0.017806,0.833626
8661290044,-86.054146,3.113595,-168.941650,0.505042,-0.026136,0.871317
8661310089,-83.254082,-0.171349,-166.781189,0.552830,-0.029134,0.820797
8661330133,-79.122353,0.807566,-162.364700,0.564725,-0.002840,0.838057
8661350179,-77.936974,-0.151015,-162.075775,0.531828,0.030691,0.843002
8661370223,-77.127098,-1.269205,-162.492310,0.526005,0.026097,0.876138
8661390269,-72.830086,-2.670970,-161.442139,0.542308,0.008562,0.830333
8661410315,-68.201561,-1.997036,-158.187149,0.540671,0.059911,0.829989
8661430360,-67.035378,-2.749099,-155.056641,0.505148,0.067824,0.829482
8661450404,-66.390915,-4.573639,-154.648468,0.521348,0.041469,0.861774
8661470449,-62.262337,-6.142576,-153.825409,0.559743,0.040257,0.849409
8661490494,-58.285030,-4.311813,-148.441025,0.511889,0.086425,0.856327
8661510539,-58.827339,-7.021806,-141.821609,0.491088,0.132594,0.868904
8661530584,-60.860340,-8.485229,-137.934555,0.516217,0.203898,0.909742
8661550628,-70.745392,-9.987277,-133.606339,0.607590,0.398029,0.990201
8661570673,-97.798157,-11.313199,-125.543175,0.687566,0.563005,0.999620
8661590718,-124.277512,-7.556369,-121.069847,0.617939,0.503616,0.875872
8661610762,-122.979561,-9.535294,-124.666145,0.394969,-0.063222,0.584667
8661630807,-99.650879,-13.121695,-128.048920,0.357350,-0.393854,0.699197
8661650852,-76.031235,-19.091906,-107.814957,0.491650,-0.263108,0.839671
8661670897,-62.089203,-19.832626,-71.947556,0.617071,-0.330783,0.793166
8661690942,-41.606674,-14.081156,-54.587967,0.661518,-0.313500,0.879294
8661710987,-22.002781,-13.120439,-44.043095,0.600806,-0.180560,0.819575
8661731032,-9.435087,-12.929179,-34.083477,0.507168,-0.211767,0.748225
8661751077,9.287396,-12.843331,-26.974491,0.488873,-0.179260,0.742725
8661771123,17.224783,-11.780908,-15.494634,0.623737,-0.121161,0.811058
8661791168,21.096195,-0.752435,-8.388781,0.706247,-0.090751,0.825067
8661811214,24.156563,9.848783,-6.418656,0.643136,-0.006095,0.815258
8661831258,34.728020,18.115950,8.515755,0.582132,0.053595,0.861754
8661851310,30.236950,23.563309,28.413555,0.496936,-0.004596,0.908136
8661891393,15.204809,15.935866,7.753308,0.483669,0.271294,0.871073
8661911441,-4.658255,11.122972,-17.077860,0.655411,0.161955,0.832169
8661931481,-15.495249,21.054934,-42.571167,0.710202,0.056670,0.758782
8661951526,-16.136362,29.784710,-51.388874,0.549423,-0.040328,0.753856
8661971571,-7.943959,26.165886,-54.533676,0.517368,-0.105427,0.824901
8661991616,2.591738,26.064491,-56.937935,0.574580,-0.019315,0.761696
8662011661,-0.167923,36.042648,-65.664391,0.566623,0.054572,0.701030
8662031705,-8.481377,43.194305,-66.049271,0.539887,0.010225,0.740714
8662051750,-3.890621,45.449806,-61.492775,0.510152,-0.093740,0.824934
8662071795,1.617295,44.449989,-60.094208,0.492519,-0.164763,0.863266
8662091840,6.970443,45.804790,-62.528667,0.456583,-0.082864,0.893829
8662111885,-0.981715,48.780231,-69.845016,0.437892,-0.011826,0.870527
8662131930,-12.630315,55.648502,-81.410568,0.375396,-0.064401,0.883433
8662151976,-14.449151,58.822666,-91.371979,0.248379,-0.091650,0.949010
8662172021,-18.928852,52.001888,-106.491592,0.222762,-0.012877,0.959644
8662192066,-39.301540,52.203880,-135.780319,0.179841,0.091186,0.964754
8662212111,-61.295135,48.096630,-167.391327,0.021422,0.101975,1.043718
8662232156,-77.573357,34.917648,-197.155884,-0.017135,0.050659,1.128713
8662252201,-97.677734,27.533121,-228.214539,-0.142620,0.047869,1.251094
8662272246,-112.058121,17.223305,-246.142273,-0.341009,0.029674,1.386635
8662292289,-109.918518,-3.815544,-259.158447,-0.340944,0.034444,1.415822
8662312334,-107.455803,-17.694111,-270.614502,-0.235872,0.039403,1.273790
8662332379,-101.112434,-30.184120,-279.892334,-0.089553,0.075418,1.112138
8662352424,-88.997063,-52.045471,-294.264099,0.431607,0.260889,0.887531
8662372469,-107.625885,-44.492264,-300.405884,1.052875,0.324508,0.623509
8662392514,-151.975342,29.342955,-296.509308,0.924462,-0.623313,0.615008
8662412559,-130.534256,83.793816,-290.341095,0.171370,-1.600125,1.262074
8662432604,8.094115,-3.829475,-232.606918,-0.436344,-1.063928,1.245016
8662452648,26.077360,-42.791042,-165.392700,-0.308820,-0.196401,1.004437
8662472693,-18.548443,-21.287985,-165.063263,-0.176991,-0.171746,1.018307
8662512784,-18.840277,-25.513754,-215.657745,0.075768,-0.093586,0.991558
8662532829,-22.387766,-23.992323,-219.585876,0.058948,-0.218315,0.992738
8662552874,-23.874855,-22.801226,-227.331039,-0.013450,-0.244581,1.055337
8662572919,-26.278185,-29.982155,-228.105743,-0.032093,-0.117425,1.039038
8662592964,-29.987366,-36.877880,-222.555130,0.128086,-0.057170,0.954584
8662613009,-36.492767,-33.915028,-221.304382,0.313815,-0.119987,0.910482
8662633054,-37.421005,-22.496929,-218.976852,0.338452,-0.166446,0.865978
8662653097,-32.433193,-15.217695,-214.382416,0.262578,-0.156533,0.894385
8662673143,-28.744736,-14.222572,-208.583664,0.233721,-0.157465,0.907384
8662693187,-23.600941,-12.581508,-200.259766,0.241806,-0.209825,0.882200
8662713232,-19.828697,-6.083825,-195.061050,0.299350,-0.164166,0.848193
8662733277,-12.076820,4.990852,-179.201080,0.305282,-0.017158,0.816887
8662753322,-13.645904,11.856108,-161.315414,0.330808,-0.046526,0.855191
8662773367,-9.551682,18.887562,-151.685837,0.361323,-0.185105,0.842081
8662793412,-2.608608,32.773346,-139.928604,0.314601,-0.095080,0.889706
8662813457,-2.249486,38.615616,-128.296127,0.305958,-0.022881,0.921277
8662833502,0.407514,43.495045,-123.696793,0.358058,-0.003733,0.903654
8662853547,2.256003,56.484852,-119.677925,0.307635,0.004630,0.946918
8662873593,-0.359601,59.029667,-110.990669,0.222513,0.093667,0.942466
8662893638,-11.770543,56.735806,-95.717735,0.168630,0.205348,0.932046
8662913683,-24.247358,52.941666,-72.138901,0.174458,0.208380,0.947268
8662953773,-18.275108,41.563507,-43.689137,0.147936,-0.269069,1.041696
8662973817,-0.508412,38.132473,-50.282425,0.349662,-0.110621,0.943442
8662993862,-4.782985,59.099545,-48.829613,0.338564,0.190380,0.853656
8663013907,2.008396,56.505848,-23.106535,0.003796,-0.135775,1.134502
8663033951,19.661671,30.553188,-14.768657,0.031757,-0.290863,1.077354
8663053996,19.506853,30.285633,-35.306145,0.153362,0.019530,0.860269
8663074041,6.635461,52.263420,-33.834087,0.139228,0.428915,0.862704
8663094086,-4.140147,52.816467,-24.777639,0.006339,0.398765,1.068654
8663114131,-15.590020,35.313622,-26.395041,-0.132906,0.132244,1.127103
8663134176,-24.601444,21.832331,-38.449150,-0.187819,0.069174,1.229466
8663174265,-35.971325,2.873967,-48.301163,-0.136538,0.246071,1.201795
8663194310,-43.266388,-6.139385,-43.041027,-0.212633,0.184026,1.263571
8663214355,-48.606190,-14.511946,-45.711906,-0.333753,0.083754,1.354012
8663234400,-63.105743,-24.048462,-51.396866,-0.451583,0.135314,1.519247
8663254446,-67.268486,-43.529823,-61.075089,-0.554953,0.092273,1.530591
8663274491,-48.607197,-68.122185,-68.173271,-0.718612,0.088177,1.557745
8663294536,-36.836220,-114.121208,-61.614971,-0.645388,0.150019,1.537466
8663314581,43.816662,-136.244293,-36.371178,-0.018348,0.033733,0.779689
8663334626,39.843960,-102.991379,-27.428276,0.388619,0.035645,0.164089
8663354670,-31.342274,-142.670944,-20.780802,1.221911,0.054505,0.487492
8663374715,-45.367233,-76.100159,-22.168447,1.192719,-0.547001,0.579191
8663394759,-16.923706,37.144466,-14.151559,-0.136125,-1.059108,1.072181
8663414804,42.850506,-90.889069,-0.410199,-0.275587,-0.218203,1.371679
8663434849,52.475765,-78.058464,19.410477,0.161225,0.040303,0.661677
8663454894,19.650421,-53.698448,6.657550,0.215869,0.088563,0.803799
8663474939,14.347947,-56.930157,-6.630758,0.181442,0.038060,0.883628
8663515029,9.198836,-41.281300,-18.642984,0.514136,-0.102381,0.823304
8663535074,11.627405,-26.721420,-20.762783,0.516078,-0.028565,0.773272
8663555119,12.223121,-9.398870,-18.376347,0.531200,0.039010,0.706999
8663575163,7.538773,4.591810,-15.374902,0.480028,-0.023681,0.781345
8663595208,14.980556,9.700291,-16.175764,0.420331,-0.095311,0.774945
8663615255,21.762453,17.812950,-14.018508,0.436940,-0.108919,0.793205
8663635300,16.711559,25.743711,-16.516556,0.472242,-0.083231,0.812916
8663655344,16.364111,38.540188,-24.037630,0.450125,-0.052374,0.798297
8663675389,16.902203,49.109802,-29.544540,0.392465,0.054000,0.890228
8663695434,18.055470,44.491005,-21.968809,0.338386,0.002422,0.869591
8663715479,23.195587,40.134182,-15.726624,0.291443,0.099508,0.847325
8663735524,12.801945,36.883083,-14.341131,0.196888,0.153126,0.954899
8663755583,2.981604,26.602737,-8.778563,0.272894,0.201889,0.947039
8663775613,2.875570,15.095709,8.800920,0.526025,0.019596,0.784601
8663795657,-0.116451,34.829849,-7.711264,0.629786,-0.010684,0.808552
8663815702,-2.717183,65.213043,-22.408125,0.313641,0.257259,0.822331
8663835747,-7.517661,61.154926,-13.309326,-0.059626,0.227389,1.010407
8663855792,-9.337522,34.122730,-9.079753,-0.120461,0.067845,1.223050
8663875837,-7.019541,13.156135,-13.229675,-0.173740,0.126123,1.241754
8663895881,-12.164689,2.706707,-19.686373,-0.309311,0.340634,1.212590
8663915926,-14.643442,-15.760483,-18.888079,-0.432381,0.348414,1.339271
8663935971,-4.820701,-37.223801,-14.608288,-0.517140,0.166453,1.466524
8663956017,16.455084,-63.171562,-5.330666,-0.516792,0.121607,1.556029
8663976061,20.222805,-99.459785,13.179595,-0.182941,0.091717,1.455834
8663996108,99.515099,-102.455734,27.353975,0.439113,-0.025615,0.656877
8664016152,38.905849,-76.014076,26.681404,0.891861,0.314705,0.398171
8664036197,-7.607148,-84.165207,14.833607,1.273583,0.254842,0.725208
8664056242,-61.980339,2.319504,3.832704,0.601291,-0.374284,0.858870
8664076287,3.268339,-34.819622,6.094895,-0.001825,0.038144,1.469982
8664096332,19.369152,-53.493027,6.568093,0.124997,0.426007,0.797072
8664116377,-16.072004,-18.187658,6.402677,-0.068207,0.221075,0.901872
8664136421,-6.404096,-48.201904,10.059420,-0.121578,0.125411,0.975744
8664156465,-7.161314,-58.012177,13.563681,0.176641,0.104251,0.799195
8664176510,-16.021208,-42.592155,9.472679,0.476550,-0.002800,0.849976
8664196555,-5.924599,-23.389547,2.307333,0.537823,0.039736,0.832866
8664216600,-7.204482,-8.811965,-1.368655,0.476597,0.185654,0.876827
8664236645,-5.624381,-8.403131,-1.899201,0.497454,0.122756,0.858106
8664256690,-2.395339,-5.350452,-1.926844,0.594115,0.064327,0.782726
8664276735,-1.433541,7.964515,-3.302864,0.515019,0.059437,0.812233
8664296780,-0.043364,7.848295,-5.537955,0.386593,0.053356,0.814623
8664316825,1.315141,5.057986,-4.829613,0.415514,0.044529,0.738612
8664336870,2.443770,12.482593,-5.492841,0.570194,0.043649,0.760780
8664356916,6.298515,29.042118,-3.412547,0.708923,0.060869,0.919614
8664376961,9.450235,38.686687,1.041346,0.517513,0.017033,0.840916
8664397006,9.841938,38.655521,0.101322,0.289659,0.065938,0.828196
8664417051,4.918570,23.514345,6.202312,0.371397,0.091327,0.889948
8664437096,9.886925,24.293198,6.811038,0.448463,0.065342,0.872880
8664457140,9.921364,28.091373,2.060984,0.309289,0.153977,0.952526
8664477185,1.308865,18.604162,-0.995133,0.292422,0.213517,0.906298
8664497229,-7.351285,16.566525,-2.168590,0.335440,0.147181,0.811654
8664517274,-1.733362,23.004709,-7.382955,0.218089,0.051721,0.856925
8664537318,0.214336,14.153394,-12.752800,0.463187,0.088453,0.846758
8664557363,-4.183059,35.305504,-5.715013,0.353087,-0.014468,0.871477
8664577408,2.156749,46.225163,0.785407,-0.243359,0.142659,1.253582
8664597453,-10.223181,-3.313489,-0.116545,-0.178444,0.340509,1.302042
8664637543,-35.745132,-9.491814,-12.965164,-0.003101,0.341469,1.369049
8664657587,-32.722607,-30.351128,-13.837103,-0.356180,0.124474,1.366076
8664677633,-15.380921,-69.264389,-9.232784,-0.308212,0.084016,1.292286
8664697678,29.342991,-81.276794,1.657417,0.237922,0.017971,0.945389
8664717724,30.711815,-47.802708,5.660589,0.311057,-0.001062,0.510068
8664737769,1.907398,-63.931728,33.977726,0.474419,-0.215283,0.260380
8664757814,5.462571,-71.728668,26.971861,1.003855,-0.162256,0.757089
8664777859,-2.120282,-23.534166,9.127150,0.568118,0.280313,1.206842
8664797904,-25.716499,-43.620163,3.521914,0.388619,0.039489,1.255954
8664817949,-6.152035,-35.764133,0.423820,0.466888,0.206340,1.181221
8664837993,-21.739101,-30.215126,5.383319,0.354661,0.183859,1.005508
8664858038,-23.896023,-31.785099,8.722918,0.259919,0.114733,0.882658
8664898127,-24.069397,-36.963730,19.569977,0.281352,-0.088299,0.800912
8664918171,-13.015973,-36.087006,12.902194,0.343762,-0.066888,0.789810
8664938216,-6.021490,-32.576488,7.215325,0.470043,0.004942,0.810443
8664958261,-2.628180,-27.876213,3.619502,0.515219,0.030124,0.818577
8664978306,-1.910416,-25.674536,-0.608619,0.487274,0.040952,0.883471
8664998351,-0.071765,-32.479225,-1.659989,0.564503,0.057160,0.889364
8665018396,-7.220424,-29.601749,-5.569414,0.570881,0.065119,0.868678
8665038441,-13.921736,-33.010128,-8.783060,0.481778,0.074231,0.897541
8665058486,-18.523052,-38.858521,-8.407046,0.498365,0.021962,0.864954
8665078531,-18.818380,-38.630154,-8.206923,0.502006,-0.045476,0.850879
8665098577,-16.008389,-37.977619,-5.326513,0.525664,-0.073157,0.854103
8665118622,-10.762009,-35.458309,-4.416833,0.511322,-0.046065,0.814170
8665138667,-7.570372,-32.307640,-6.326001,0.453575,0.026063,0.810057
8665158712,-4.216167,-32.859303,-9.688010,0.438685,0.034448,0.829271
8665178757,-1.082831,-36.717308,-13.563247,0.484126,0.053289,0.868415
8665198802,-0.798514,-36.772194,-16.734585,0.539176,0.066308,0.841487
8665218847,0.655735,-36.112080,-16.494957,0.546030,0.102657,0.827034
8665238890,-0.958471,-36.300949,-17.038536,0.534367,0.115001,0.795437
8665258935,-1.641485,-35.972553,-14.877633,0.585762,0.097864,0.751251
8665278980,-3.044014,-33.308502,-9.125201,0.615135,0.052025,0.739007
8665299025,-1.997910,-29.826702,-5.616860,0.609095,0.023190,0.760505
8665319070,3.426016,-30.340149,-4.545690,0.616126,0.018247,0.734649
8665339115,7.608231,-27.084583,-7.917647,0.671233,-0.010259,0.789550
8665359159,10.526210,-27.802494,-9.958190,0.648068,0.000704,0.757424
8665379204,12.700470,-29.498976,-9.180953,0.648951,0.014909,0.744385
8665399249,11.186981,-34.438019,-8.951367,0.622903,0.026896,0.734536
8665419294,13.533071,-40.413273,-6.922003,0.628970,0.035019,0.698096
8665439339,13.275742,-42.349770,-3.695660,0.729023,0.040542,0.673380
8665459385,11.365849,-37.862171,-0.279881,0.788649,0.039673,0.664172
8665479430,11.524423,-30.170393,-0.257896,0.798390,0.011952,0.658281
8665499475,9.632826,-23.511810,-3.053221,0.766527,0.027474,0.658648
8665519520,8.382205,-20.022312,-3.717341,0.736123,0.016342,0.682372
8665539565,7.271272,-17.097626,-9.349128,0.696543,0.037897,0.756652
8665559610,5.857700,-21.155134,-9.258270,0.716232,0.045569,0.761558
8665579655,8.632290,-19.349005,-10.233538,0.670862,0.052394,0.729032
8665599699,3.735273,-24.986973,-15.729165,0.631988,0.074718,0.672389
8665619743,0.479268,-29.743210,-17.969955,0.720471,0.036988,0.680994
8665639788,2.042549,-29.830292,-22.674730,0.759241,0.037133,0.642947
8665659833,-2.441055,-26.051247,-27.938644,0.754385,0.031169,0.652702
8665679878,-4.827833,-24.053276,-34.748226,0.752133,0.058267,0.651096
8665699922,-11.179592,-20.827099,-39.189751,0.766394,0.086818,0.707686
8665719967,-18.400387,-20.624870,-42.791363,0.727990,0.054476,0.744363
8665740012,-19.579735,-24.486984,-47.166801,0.663070,0.093213,0.697227
8665760057,-22.898674,-31.546827,-50.852413,0.623672,0.069033,0.625851
8665780102,-25.452404,-37.012741,-57.996483,0.566822,0.039953,0.659363
8665800147,-25.219826,-44.950329,-62.988369,0.627847,0.009249,0.649865
8665820192,-22.442104,-51.898838,-60.946152,0.755039,-0.016372,0.635619
8665840238,-20.327915,-48.428726,-64.439583,0.695751,-0.043538,0.614014
8665860283,-14.187023,-56.272507,-69.225441,0.668868,-0.018362,0.610697
8665880328,-11.574499,-67.851151,-70.407745,0.819590,-0.000183,0.587794
8665900373,-12.735640,-63.672222,-75.849876,0.896823,0.069936,0.547993
8665920418,-14.261288,-53.628265,-87.976006,0.820044,0.188562,0.517774
8665940463,-24.745846,-52.341305,-102.638229,0.766346,0.289098,0.542226
8665960508,-39.164658,-53.748150,-114.967026,0.813018,0.333433,0.566965
8665980551,-56.825104,-52.931805,-125.117104,0.872227,0.310816,0.562577
8666000596,-71.501022,-50.104683,-137.112732,0.911424,0.338643,0.571010
8666020641,-88.037819,-46.827400,-148.850739,0.913615,0.340199,0.463580
8666040686,-105.847252,-35.066124,-159.451859,0.912207,0.297274,0.512724
8666060731,-115.201828,-29.625999,-164.878082,0.893433,0.240108,0.598732
8666080776,-116.882774,-29.146793,-167.295868,0.873886,0.211617,0.627230
8666100821,-124.256111,-26.930740,-171.987640,0.809000,0.294451,0.651474
8666120866,-132.838501,-29.546669,-174.425797,0.863571,0.308284,0.635280
8666140910,-138.956543,-31.416292,-168.968109,0.979240,0.283736,0.694687
8666160955,-139.642303,-24.621426,-170.622452,0.871677,0.251947,0.727577
8666181000,-141.096634,-29.782888,-174.712677,0.863583,0.244944,0.775829
8666201045,-141.106155,-37.427761,-171.559021,0.947498,0.196007,0.738334
8666221092,-140.316269,-33.193161,-167.813263,0.910536,0.139425,0.729336
8666241136,-139.028748,-33.977562,-168.736588,0.748548,0.142036,0.804699
8666261181,-138.645218,-48.541775,-170.843658,0.816795,0.106792,0.825063
8666281226,-137.379761,-44.148415,-168.069199,0.833432,0.066154,0.799846
8666301271,-138.896957,-33.795898,-170.147156,0.729201,0.088024,0.884577
8666321316,-141.170959,-39.676590,-169.529938,0.690771,0.086028,1.007132
8666341361,-143.117203,-46.819817,-170.079651,0.685784,0.079519,0.941870
8666361404,-138.874954,-40.340595,-171.215302,0.686050,0.084357,0.880559
8666381449,-136.492432,-35.758286,-168.670563,0.655164,0.020975,0.964344
8666401494,-125.686356,-35.411057,-170.163116,0.648368,0.005259,0.995653
8666421539,-117.716522,-31.374992,-171.538376,0.657486,0.044949,0.943769
8666441584,-112.379883,-26.105015,-172.201370,0.667267,-0.025061,0.964631
8666461629,-101.768051,-22.798487,-168.232910,0.657469,-0.119742,1.012775
8666481674,-88.810989,-18.387697,-171.833237,0.532914,-0.144186,1.005330
8666501719,-82.923866,-21.356106,-169.734833,0.467129,-0.106720,0.994707
8666521764,-79.914398,-26.443518,-169.615967,0.479634,-0.148565,0.945433
8666541809,-82.722786,-14.944975,-177.894012,0.418021,-0.128397,1.034314
8666561854,-81.951477,-10.658467,-177.050720,0.309202,-0.121852,1.145814
8666581900,-87.433380,-26.557690,-167.524109,0.339965,0.025316,1.074811
8666601945,-92.999519,-35.341499,-155.580978,0.560720,-0.000363,0.932147
8666621990,-88.948975,-23.114225,-135.968384,0.616201,-0.073004,0.873609
8666642034,-91.155716,1.175429,-128.158066,0.344743,-0.091427,1.140451
8666662084,-97.460136,-10.946523,-120.815163,0.396550,0.154859,1.228293
8666682124,-108.819527,-14.803333,-99.248444,0.632815,0.293686,1.073095
8666702169,-112.867638,6.526400,-68.482506,0.848159,0.051497,1.171263
8666722220,-97.694199,33.082191,-41.754230,0.389753,-0.037580,1.015695
8666742258,-78.482048,46.737690,-28.369112,-0.071612,0.275527,0.898302
8666762302,-75.062805,20.041323,5.820829,-0.096247,0.397427,1.049433
8666782347,-59.946182,-5.664259,34.686371,0.033732,0.317125,0.918393
8666802392,-43.310020,2.394023,53.101753,0.281265,0.334338,0.999632
8666822437,-37.316154,-4.777120,73.243454,0.411498,0.397087,1.196176
8666842482,-17.245718,-8.330316,86.676346,0.305938,0.445423,1.131639
8666862527,7.888465,-17.590239,112.889793,0.215337,0.318313,1.079584
8666882572,39.924042,-39.838234,138.834030,0.340705,0.098880,0.887476
8666902617,62.904282,-15.428765,140.333649,0.341649,0.118259,0.708603
8666922662,68.628036,10.506630,121.638527,0.216030,0.374346,0.688000
8666942707,61.396912,5.691368,115.733391,0.292378,0.189241,0.614609
8666962753,67.815361,14.967174,117.724731,0.453789,-0.469353,0.532638
8666982798,42.706131,48.771072,128.185211,0.595628,-0.885592,0.440147
8667002843,63.303150,50.808765,135.476044,0.377956,-1.294906,0.559019
8667022888,60.309273,18.707335,155.253128,0.803980,-0.191264,0.994770
8667042933,4.078632,58.690857,56.212471,0.318594,0.408754,0.916987
8667062977,-31.879848,132.686707,-56.286865,-0.682408,-0.095470,1.163663
8667083022,-78.035873,14.289762,-79.270149,-0.362954,-0.930513,1.263570
8667103066,-41.840496,56.250713,-99.730118,-0.115343,-1.097079,1.271487
8667123111,-44.795933,70.896782,-140.105911,-0.663990,-0.489847,1.340766
8667143155,-90.001587,28.329176,-167.472504,-0.619596,-0.511388,1.328340
8667163201,-78.413727,35.255848,-190.407562,-0.605742,-0.885213,1.513980
8667183245,-24.763363,27.270432,-199.183868,-0.919227,-1.024872,1.558729
8667203290,-1.054024,-12.019392,-225.223099,-0.887685,-0.380895,1.632853
8667223335,-8.922050,-15.891617,-231.124222,-0.612245,0.257794,1.119379
8667243380,15.653060,-54.775951,-249.628357,0.357533,1.101564,0.212694
8667263425,-45.658409,-192.672379,-276.057617,2.033880,0.921881,-0.331408
8667283470,-181.228851,-9.410744,-229.588333,2.291194,-1.401424,-0.455294
8667303515,72.309540,511.320831,-63.789719,-2.060658,-1.196831,1.824399
8667323561,106.798538,-57.724705,-23.977201,-0.982239,0.388991,1.824467
8667343607,-30.982237,-169.938553,4.946350,0.822120,0.175763,0.354288
8667363652,50.696381,97.927620,48.748165,0.187993,0.858065,0.666413
8667383696,63.507973,91.955101,93.725433,-0.406144,1.399413,1.748318
8667403751,35.455074,-43.781410,83.273712,-0.319132,1.129036,1.354322
8667423786,76.324211,-0.883741,75.811935,-0.218244,0.611552,1.897222
8667443831,40.867218,-22.594740,50.925842,-0.142414,0.537461,1.881726
8667463882,93.270905,-43.667641,92.330338,-0.000975,0.374238,0.514523
8667483919,102.302788,53.854794,189.172638,-0.399087,0.128697,-0.008316
8667503964,111.082298,-55.808941,305.037598,0.681642,-0.680077,0.282392
8667524009,48.072521,-180.137115,311.237671,2.026267,-0.518253,0.357704
8667544054,-23.107542,95.751968,88.679825,0.838142,0.623560,0.247646
8667564098,-36.506062,323.342712,-64.773682,-1.532747,1.061494,1.826548
8667584143,-115.489502,-103.729599,-57.296410,-0.678587,-0.166470,0.823406
8667604188,-164.755798,5.624910,-93.772720,0.324229,-0.754366,0.926264
8667624233,-66.568680,115.063667,-132.910934,-0.685605,-1.052846,1.853648
8667644278,-55.996529,12.570116,-108.646065,-0.682688,-0.923404,1.181329
8667664323,-56.991566,17.743340,-116.863464,-0.546447,-0.733319,1.349370
8667684368,-16.005322,27.741264,-149.648727,-0.794182,-0.562783,1.510761
8667704414,-12.072549,16.415333,-211.467819,-0.835963,-0.228445,1.303575
8667724459,23.597574,-11.057699,-202.855225,-0.066967,0.925013,0.434019
8667744504,-6.769426,-136.015808,-233.175522,1.854031,1.344728,0.102259
8667764549,-188.139496,-133.585587,-247.846603,2.372202,-1.681677,-0.189270
8667784594,92.806458,446.807739,-20.987255,-0.983119,-2.389752,0.246196
8667804639,226.934189,43.325680,52.392818,-1.570755,0.271365,2.150811
8667824684,-42.631088,-183.023026,58.703690,0.245450,0.452864,0.588965
8667844728,69.024376,16.072018,109.265717,0.134115,0.740494,0.998574
8667864772,132.432602,53.450031,141.510498,-0.193441,1.412325,1.079131
8667884817,95.154305,-17.145212,87.064674,-0.287815,1.432955,1.352042
8667904862,80.605499,-30.978283,76.500832,-0.526308,0.459651,1.874375
8667924907,57.515572,2.196392,94.442841,-0.277171,0.311048,1.460073
8667944952,179.693771,13.605150,143.242752,-0.014407,0.520441,0.407880
8667964997,187.150726,49.082329,201.683395,0.409340,-0.083288,0.024285
8667985042,23.459919,-89.123474,354.779846,1.828185,-0.090863,0.388510
8668005087,-49.610054,22.976610,175.564240,0.797252,1.810631,0.876226
8668025131,-0.353211,256.645813,-132.120255,-1.690357,1.581997,1.306152
8668045176,-185.284943,-32.226341,-82.068291,-0.487337,0.228249,0.523738
8668065222,-354.301880,-111.915237,-75.745178,0.167200,-0.405704,1.134646
8668085267,-94.276833,37.714901,-110.798935,-1.148578,-0.436524,2.020440
8668105312,-37.008812,2.313818,-78.864883,-1.110320,-0.349948,0.854634
8668125357,-117.595528,-102.249054,-48.048286,-0.917359,-0.349710,1.447376
8668145402,8.165224,-44.390579,-5.094405,-0.357629,-0.073658,1.872999
8668165447,13.262342,-76.635277,-34.669609,-0.267162,0.270296,0.804142
8668185492,-122.911743,-162.729874,-113.315323,1.008939,0.430782,0.642250
8668205537,-220.268356,-86.355362,-192.557022,1.292386,-0.944600,1.069470
8668225581,-12.950159,0.366095,-37.139271,-1.113367,-1.504499,2.549559
8668245625,71.304062,-69.545334,56.222046,-1.312483,-0.337530,0.967225
8668265670,-19.768627,-140.773117,46.695335,-0.677115,-0.028247,1.204208
8668285715,7.579357,-129.812500,15.735468,-0.387158,-0.075016,1.074515
8668305760,57.510822,-102.140976,-12.404124,-0.597852,0.468490,0.837146
8668325804,16.203836,-124.026108,-30.137325,-0.879992,0.748394,0.873289
8668345849,-15.372097,-152.592987,-30.843363,-0.826583,0.504146,0.868685
8668365894,-11.004969,-187.295486,-17.397743,-0.285008,0.214720,0.722257
8668385939,-13.363946,-180.900192,-15.031650,0.098652,0.089556,0.498481
8668405984,-5.061241,-149.182526,-16.130909,0.015444,0.283040,0.531511
8668426029,-16.707691,-156.625244,-8.317243,-0.123647,0.316680,0.370434
8668446075,-48.301201,-164.767914,-23.410561,0.108642,0.072080,0.347474
8668466120,-35.671276,-179.051041,-36.064079,0.413710,-0.047117,0.468680
8668486165,8.645241,-154.714539,-3.858655,0.187310,0.060078,0.376098
8668506210,-5.303679,-162.422394,18.348639,-0.049996,-0.233133,0.511167
8668526255,10.929487,-210.837845,17.919508,0.621816,-1.634951,0.397997
8668546300,142.188324,-203.929123,15.801941,0.577139,-1.698413,-0.584722
8668566345,313.164276,-192.385742,1.544263,0.223002,0.645726,-0.077416
8668586416,84.228645,-187.251892,8.833195,0.618855,2.972062,0.391905
8668606433,-81.513741,-170.415649,-3.708684,0.523393,1.271150,0.092873
8668626478,-95.012650,-157.779449,-54.674953,0.672213,-0.117316,0.662432
8668646523,-20.725878,-184.729553,-59.706211,1.254346,0.428864,0.082222
8668666568,-88.953674,-112.741928,-52.417557,1.358899,1.138741,0.304920
8668686613,-127.671432,-120.412254,-61.872482,1.756617,0.468917,0.494077
8668706658,-113.564507,-74.409416,-60.965195,1.878338,-0.228572,0.309894
8668726703,-110.990868,-49.554573,-37.940228,1.475222,-1.022418,0.499142
8668746748,39.823681,-64.546844,6.680737,1.401302,-0.377901,0.493100
8668766792,33.721085,-52.524887,23.499266,1.828303,0.931156,0.770201
8668786837,-34.193611,-11.684615,32.102470,2.215791,0.466536,0.798990
8668806882,-43.234573,18.322405,47.319065,1.605394,0.435057,0.716311
8668826928,-102.043610,39.607559,76.600334,0.573749,0.204511,0.736626
8668846973,-107.418648,-9.894227,120.272606,0.477277,-0.869707,0.750706
8668867018,-20.871929,-15.158500,157.827377,0.391175,-1.434948,0.221495
8668887063,50.579288,-18.658026,169.563568,0.028365,-1.253052,0.278981
8668907108,89.789780,-39.654625,186.378235,0.333947,-1.316802,0.203168
8668927153,147.320618,-25.548483,193.755417,0.464578,-1.048885,0.080730
8668947198,151.679840,15.329101,137.041306,0.233823,-0.285336,0.536614
8668967242,98.175339,-5.974189,88.417480,0.516585,0.429975,1.597268
8669007331,171.680313,1.944812,-8.745962,1.784305,-0.617359,0.109114
8669027376,157.664597,-10.828745,-11.605179,2.010548,0.489903,0.756237
8669047421,51.463318,25.370186,-70.316414,1.832421,0.016859,0.229326
8669067466,39.528034,50.946934,-92.250717,1.026657,-0.206537,0.782659
8669087511,94.438164,-10.601178,-99.919479,1.169450,-0.093972,0.158571
8669107556,84.510910,44.275093,-103.734863,1.182591,0.594547,-0.111045
8669127600,21.963421,83.854141,-100.603470,1.119201,0.834345,-0.224926
8669147645,-46.108570,118.932961,-92.610703,1.110949,0.101913,0.058836
8669167690,-18.694284,128.361450,-99.465332,1.265691,-0.315178,0.314146
8669187737,18.559534,153.564545,-63.610741,1.255662,-0.032764,0.177997
8669207781,7.717606,192.250061,-38.355255,0.903967,0.289329,0.093105
8669227826,-7.444573,191.905731,-38.779572,0.667182,0.377224,0.083094
8669247871,-18.223738,175.258484,-46.352818,0.860894,0.152838,0.014891
8669267916,-6.966278,210.975754,-38.115627,0.866972,-0.071851,-0.092828
8669287961,4.856726,258.210846,-22.656281,0.535579,-0.110424,-0.124884
8669308006,34.751492,266.013428,-40.178780,0.134678,0.203365,-0.024153
8669328051,48.459362,243.021988,-63.056080,-0.118937,0.514602,0.066840
8669348094,-43.439281,178.326523,-33.112244,0.721777,-0.012045,0.172105
8669368139,21.305384,188.222229,-28.026176,1.063635,-0.314258,-0.138190
8669388184,43.875916,358.700745,-80.271469,-0.434947,0.750069,0.178215
8669408229,-41.205994,245.731659,-24.005430,-0.882167,0.367595,0.656362
8669428274,-64.960182,98.155304,11.916522,0.090199,-0.312240,0.552812
8669448319,0.935506,224.357971,-11.959068,0.249653,-0.203526,0.511290
8669468364,-3.162060,259.421387,-16.691765,-0.296116,0.371667,0.818936
8669488409,-50.055847,175.540115,11.531008,-0.223175,0.263818,1.069366
8669508454,-19.501476,194.898392,17.906357,-0.106927,0.232141,1.002284
8669528499,-13.459512,205.163742,22.375597,-0.304306,0.417916,0.906079
8669548543,-34.025860,185.083694,35.754772,-0.586374,0.319141,1.083736
8669568590,-34.943882,165.667328,41.562454,-0.858947,0.258050,1.423303
8669588635,-42.421124,122.130272,43.481716,-0.870322,0.356494,1.485319
8669608679,-64.961487,86.348526,39.163101,-0.878517,0.245933,1.559554
8669628724,-68.899261,65.940414,31.106722,-1.034367,-0.029121,1.613855
8669648769,-60.823612,23.231331,28.015009,-1.096748,-0.091925,1.687209
8669668814,-57.846375,-21.760296,26.815790,-1.163097,-0.037333,1.899045
8669688859,-35.722214,-80.167023,28.872595,-1.351823,0.027276,2.145594
8669708902,-33.415745,-144.161423,-9.549362,-1.582875,0.249033,1.938409
8669728947,-34.867943,-184.662827,-40.034069,-1.330798,0.334951,1.648563
8669748992,-10.526412,-188.089935,-59.004169,-1.321930,0.151299,1.648413
8669769037,43.740063,-182.309875,-48.371567,-1.246030,-0.181038,1.374025
8669789083,90.087105,-135.012802,18.863604,-0.645255,-0.671041,0.608852
8669809127,185.973572,-212.373062,49.985100,0.277314,-0.375263,-0.318327
8669829172,146.704987,-401.289062,40.637177,2.092817,-0.153549,-0.890583
8669849217,-173.002991,-416.330414,52.854073,2.843058,-0.353707,-1.219132
8669869262,-93.945961,400.158264,33.809162,0.874823,-0.497889,0.084004
8669889307,147.996307,114.262207,-32.957691,-0.622875,-0.209781,2.916375
8669909352,118.160889,-415.136810,4.529853,1.156094,0.151913,-0.832300
8669929398,52.673077,-81.674034,25.034687,2.478081,0.228094,-1.209666
8669949442,-19.333786,350.672729,-36.606365,1.449314,0.385780,-0.450703
8669969488,-119.697571,417.889557,-34.765278,-0.155971,0.187145,1.908919
8669989533,80.323112,45.316029,89.549576,-0.813881,-0.863485,1.089651
8670009585,93.049019,32.243340,47.647530,-0.532476,0.009618,-0.209972
8670029622,-70.479897,56.735310,9.781078,0.062999,0.862419,0.017682
8670049667,-115.089424,83.767998,35.664547,0.529339,0.010421,0.620548
8670069713,-53.048637,120.770752,8.543179,0.466929,-0.658839,1.330574
8670089755,-8.824970,144.737686,-37.269306,-0.053670,-0.042729,1.362018
8670109800,-38.115665,119.117813,-38.231815,-0.664610,-0.005848,1.439101
8670129845,-10.915158,66.907753,-21.798355,-1.211889,-0.251941,1.836001
8670149890,47.208282,-13.352724,-5.255496,-1.707307,-0.094728,2.149649
8670169935,37.159218,-100.184624,-11.076716,-1.803345,0.240912,1.984664
8670189980,2.616908,-155.971603,-5.075884,-1.585929,0.359151,1.930558
8670210025,22.697126,-160.454346,3.390689,-1.526608,0.133090,1.982022
8670230070,123.565781,-136.556213,14.578299,-0.301427,-0.313520,0.936082
8670250115,160.467850,-235.583862,55.527786,1.906939,-0.550357,-0.315630
8670270159,19.435795,-381.355286,43.392048,3.343275,-0.270270,-0.600068
8670290206,-258.745789,125.740891,-66.699684,1.151719,-0.083794,-0.884558
8670310250,56.966820,478.308075,-66.017776,-0.951577,0.071254,3.575642
8670330296,92.373367,-313.226562,5.888241,0.310364,-0.370701,-0.400154
8670370385,-21.997519,313.477112,-87.326714,1.525802,0.475677,-0.567970
8670390430,-118.509018,491.985687,-123.414764,-0.051575,1.272620,0.814833
8670410475,-104.637337,169.731354,4.031959,-0.553483,0.079597,1.357631
8670430520,26.427147,53.068626,137.714569,-0.635146,-0.950217,0.338279
8670450563,-3.557568,152.026779,-27.146152,-1.209109,-0.226516,0.236886
8670470608,-62.572269,90.706444,-68.102089,-0.825076,0.551320,0.213514
8670490653,-73.381836,29.201820,29.553127,-0.550037,0.056109,1.344193
8670510698,-54.209614,-20.733755,1.090424,-0.218831,-0.347400,2.138025
8670550788,55.970406,-19.169624,-27.417858,-1.543885,0.108512,1.888869
8670570833,23.686064,-75.545876,-9.183556,-1.889686,0.281024,2.057266
8670590878,68.547295,-164.854141,42.818428,-1.835798,-0.005836,2.111286
8670610923,134.902527,-71.272797,55.385620,-1.620788,-0.103564,1.113629
8670630968,191.792908,-125.390335,45.081570,-0.070906,-0.316211,-0.099027
8670651012,-62.957649,-497.799713,134.456375,4.537196,-0.745233,0.632206
8670671059,-203.314545,-63.343803,17.678116,1.079785,0.118827,-0.236698
8670691103,196.942749,625.974182,-152.334610,-2.662695,0.788374,3.172834
8670711148,88.233864,-234.803162,47.175095,-1.028774,-0.048480,-0.320641
8670731193,-132.748810,-365.057800,109.413261,1.258518,-0.526809,-0.206209
8670751239,-50.425243,9.345106,-35.717686,1.826700,-0.056316,-0.016024
8670771283,80.112862,297.969177,-116.450249,0.493124,0.909462,0.815618
8670791328,-133.802277,66.593597,-60.448143,-0.208216,0.778521,0.796372
8670811372,-141.976334,4.117609,-4.903303,0.589748,-0.649634,0.706101
8670831416,44.405144,129.349197,-13.139583,-0.296107,-0.786536,0.502647
8670851461,22.618633,137.354080,-18.168171,-0.782620,0.265323,0.425223
8670871506,-50.539410,23.289566,-8.525062,-0.858685,0.556484,0.653427
8670891551,-35.480698,-47.040466,18.531870,-0.487337,0.052742,0.935525
8670911596,-4.167197,-69.031235,40.413250,-0.128019,-0.042621,1.524444
8670951686,63.806454,-128.908813,20.491571,-1.147104,0.278638,2.406312
8670971731,59.993637,-154.140244,19.599991,-1.697569,0.452866,1.775377
8670991776,116.603638,-75.653130,65.715721,-0.864478,-0.023009,0.623844
8671011821,174.136749,-127.952766,59.610332,0.860110,-0.170013,0.046775
8671031867,-8.611130,-326.150177,76.717346,3.642123,-0.313669,0.089769
8671051912,-273.717865,-17.987049,-8.450916,1.271028,0.062181,-0.210706
8671071956,107.925125,512.398499,-117.049065,-1.586293,0.227342,3.723583
8671092001,80.550011,-204.316040,17.295750,0.053821,-0.360270,-0.108769
8671112046,-75.280052,-189.419556,37.141270,1.467634,-0.146639,-0.514094
8671132091,-40.302589,207.014664,-87.580902,1.238085,0.467857,-0.242975
8671152136,-29.286440,333.176422,-88.218880,0.128361,0.786475,0.753242
8671172180,-149.699005,103.902847,-12.320564,-0.037950,-0.016355,1.097431
8671192225,-25.776548,76.801697,79.690529,0.173490,-0.982716,0.618953
8671212270,81.659874,227.857498,31.734327,-1.133487,-0.170284,0.239706
8671232314,-22.805212,142.143433,-35.696945,-1.143138,0.864827,0.571416
8671252359,-76.297653,-51.839344,1.502498,-1.123750,0.358195,0.771485
8671272404,-13.790613,-73.664856,45.070015,-0.651157,-0.434101,1.310446
8671292449,30.524426,-30.575974,30.024286,-1.186096,-0.117576,2.826555
8671312494,18.825508,-135.852554,9.087980,-0.890550,0.343434,2.104473
8671332539,20.142639,-120.234718,8.080357,-0.727363,0.507972,1.773997
8671352584,95.911079,-20.484165,49.854267,-0.682855,-0.047072,1.148693
8671372628,77.264328,-101.118896,33.366543,0.806400,-0.618009,0.336598
8671392675,32.794106,-293.976685,37.523766,2.658662,-0.490741,-0.209663
8671412720,-165.897324,48.392048,-66.668030,0.453990,0.162905,-0.241086
8671432765,55.621937,409.900757,-70.948006,-1.716827,0.288183,3.346659
8671452809,69.687454,-233.062561,45.487255,0.019883,-0.274991,0.052066
8671472854,4.048429,-92.262413,14.858553,1.521144,-0.421896,-0.319691
8671492899,30.341572,227.989532,-93.848473,1.107276,0.459780,0.094003
8671512944,-23.032825,214.328384,-84.086288,-0.082034,1.068393,0.850529
8671532999,-112.862579,111.992264,-37.872917,-0.262563,0.386499,0.909192
8671553033,-36.925007,163.405701,11.578935,-0.403542,-0.538471,1.196033
8671573078,52.617790,127.404236,38.078041,-1.169628,-0.260441,0.817682
8671593123,-46.853794,56.773010,-13.041680,-1.097781,0.389546,0.572939
8671613168,-33.834129,-21.901100,-20.274033,-0.961399,0.496814,0.698691
8671633212,16.890606,-39.981071,14.047868,-0.872133,0.022320,0.710908
8671653257,-12.956759,-22.151482,3.815173,-1.924264,0.149512,1.966781
8671673302,26.105360,-146.486359,5.255926,-2.102582,0.127160,2.474238
8671693347,54.296745,-230.136948,31.417221,-0.548058,0.007712,1.675736
8671713392,115.366425,-151.922729,70.855865,1.429641,-0.128308,1.174809
8671733437,117.087158,-167.277603,70.887657,2.090824,-0.257603,-0.110033
8671753483,-96.544533,-96.740959,-13.079309,1.925734,-0.078695,-0.244002
8671773528,-73.220482,415.183929,-96.933929,-1.599973,0.345621,2.297386
8671793573,100.147568,-36.067581,19.881378,-1.935075,0.042454,0.888344
8671813617,0.253067,-115.807785,61.610065,0.218867,-0.227480,0.087724
8671833662,-35.756969,-43.259403,-7.882219,1.278773,-0.270090,0.498599
8671853707,58.075481,110.339233,-55.744141,0.846182,0.563847,0.514958
8671873752,-32.738686,104.419914,-40.689381,0.159230,0.683204,0.418730
8671893797,-91.966515,111.924164,-30.902336,-0.058907,0.131330,0.928355
8671913841,-33.322449,125.007439,-14.215552,-0.379597,-0.057229,1.041283
8671933886,-10.462172,108.069862,5.524177,-0.765300,-0.007734,0.659403
8671973975,-25.761803,23.559256,13.324439,-1.084057,0.116668,0.962231
8671994020,-31.178026,-70.647896,-6.192551,-0.646849,0.104573,0.488542
8672014065,-10.976209,-51.858337,17.045818,0.037823,0.106033,0.695559
8672034110,-47.182507,54.805832,-10.576590,-1.648947,0.266300,2.521471
8672054155,38.231316,-125.513191,1.074955,-2.258307,0.154442,1.931434
8672074200,56.842407,-182.121689,40.006691,-0.788568,0.012398,0.784709
8672094245,129.357712,-170.376968,98.207146,0.904902,-0.400023,1.053860
8672114290,64.410866,-145.495728,67.317055,1.296297,-0.352538,0.041544
8672134335,-37.474354,-185.804092,36.642288,1.826285,0.390081,0.502885
8672154381,-157.536499,1.443708,-98.623642,-0.922717,0.682976,2.444309
8672174426,61.947346,-124.464050,13.317569,-1.734107,0.142601,1.333465
8672194470,-27.414089,-95.584381,37.797821,-0.494609,0.481040,1.183219
8672214515,-105.155762,-176.364990,39.704422,0.213250,-0.000318,1.676083
8672234560,33.036293,-31.497377,-2.661355,-0.360115,-0.137152,1.373579
8672254605,16.250347,-64.493057,13.390307,-0.535512,0.358678,0.946486
8672274648,-57.178665,-123.814735,11.502965,-0.063991,0.350323,0.957010
8672294693,-38.719528,-101.014748,8.460163,0.282501,0.120278,1.027083
8672314738,-16.631725,-84.069832,6.789224,0.262258,0.073303,0.906962
8672334783,-35.606865,-82.489677,2.407948,0.101344,0.079780,0.864399
8672354828,-24.172184,-82.217468,4.300776,-0.039868,-0.031415,0.890688
8672374873,-23.416389,-93.306580,6.438588,0.024166,-0.076817,0.872138
8672394918,-28.790474,-95.248970,3.662859,0.077417,-0.009314,0.824263
8672414963,-27.816734,-81.775711,-0.638828,-0.052159,0.155724,0.724081
8672455053,-29.302700,-94.356674,-7.479625,0.164825,0.083780,0.868198
8672475098,-7.514989,-80.173065,-14.752718,0.276474,-0.185899,1.034301
8672495144,39.894264,-55.950825,-10.827158,-0.229288,-0.266510,1.130328
8672515189,42.227829,-94.063461,21.248775,-0.836812,0.006243,0.879458
8672535234,41.368958,-212.444855,52.053776,-0.343318,0.072368,0.170730
8672555279,-2.940465,-215.872208,69.530296,0.834896,-0.050338,0.141473
8672575323,29.621590,-213.942963,78.413155,1.897299,0.181075,0.253572
8672595368,-43.408516,-38.002228,-11.226284,1.460211,0.424339,0.184823
8672615413,-105.241776,79.369377,-75.359650,0.466630,0.029371,1.015886
8672635457,-31.240833,-80.029816,-12.194036,0.257249,-0.569051,1.035229
8672655502,41.656425,-77.606651,23.027897,0.501348,-0.074808,0.727478
8672675546,-12.594847,-37.106186,12.176190,0.539055,0.113733,0.918938
8672695591,9.679157,-46.096558,23.898453,0.621597,-0.147820,0.876542
8672715636,14.667873,-38.144505,20.432068,0.398343,0.166358,0.807676
8672735681,2.241902,-42.619373,17.788986,0.290454,0.179883,0.915666
8672755726,4.760695,-47.681351,22.802536,0.550194,-0.060967,0.875850
8672775771,8.169613,-28.645618,20.427200,0.493967,0.033035,0.949320
8672795816,0.048848,-39.850929,17.551779,0.412310,0.238265,0.920899
8672815861,-9.946087,-41.886131,19.237797,0.573934,0.266030,0.809593
8672835906,-21.783978,-26.267895,27.617737,0.552380,0.006698,0.807934
8672855952,-21.730560,-22.239515,27.735411,0.304322,-0.170527,0.974015
8672875997,-9.598377,-49.941662,22.564323,0.571304,-0.082545,0.848049
8672896042,-11.417477,-33.754345,14.281881,0.677731,-0.191192,0.744658
8672916087,0.637412,-35.524506,22.289373,0.607451,-0.580442,0.892483
8672936132,40.201794,-44.468819,34.427544,0.812788,-0.450250,0.764808
8672956177,42.425438,-27.954861,33.457832,0.794888,-0.187439,0.749944
8672976221,46.106056,-25.042595,26.311369,0.798181,-0.475211,0.774922
8672996277,76.612686,-25.267405,7.603317,0.979852,-0.643860,0.786837
8673016310,100.653976,-19.019285,-12.988717,1.178511,-0.356473,0.711442
8673036354,99.929932,8.470006,-36.587784,0.508403,0.116523,0.600399
8673056399,60.012825,-26.811432,-60.246010,0.368880,0.464333,0.802998
8673076444,36.950829,-44.393158,-90.449554,0.472334,0.771507,0.519527
8673096489,-25.635185,-35.404522,-132.633057,0.456594,0.947814,0.498473
8673116534,-81.346992,-52.279858,-142.154678,0.650975,0.631068,0.493130
8673136579,-90.251137,-37.357574,-137.674286,0.853926,0.185103,0.538171
8673156624,-77.653191,-16.025793,-137.874863,0.827593,0.001074,0.514005
8673176669,-81.672905,-4.825059,-134.693024,0.770575,0.093512,0.571276
8673196713,-89.751526,-4.320175,-126.137154,0.963318,0.070699,0.677027
8673216758,-87.417244,-0.777406,-119.797127,1.128200,-0.126892,0.736310
8673236805,-75.070602,7.152914,-123.662712,0.662676,-0.071356,0.544262
8673256850,-79.860703,-18.998936,-111.236771,0.479711,0.014993,0.683241
8673276895,-70.997925,-60.741737,-93.788887,1.042141,0.033984,0.604797
8673296940,-58.607872,-28.217579,-102.028122,1.180458,0.212231,0.415783
8673316984,-65.296875,-6.620919,-108.000473,0.964920,0.239590,0.474254
8673337029,-62.406857,-9.445249,-112.377625,0.897133,0.144913,0.528803
8673357074,-60.170273,-0.829691,-116.143509,0.862118,0.178620,0.541107
8673377117,-61.114594,-3.959873,-115.059120,0.793103,0.198617,0.578676
8673397162,-66.630600,-10.063423,-109.198303,0.802603,0.171672,0.566222
8673417207,-69.200844,-13.181775,-101.854462,0.814144,0.143058,0.591670
8673437252,-70.444473,-15.064884,-100.106171,0.788147,0.162584,0.628101
8673457297,-71.206894,-20.255535,-100.179222,0.818585,0.200505,0.627464
8673477342,-72.100540,-21.493896,-100.666389,0.894298,0.227277,0.641362
8673497387,-74.369247,-17.919847,-101.193275,0.878657,0.209116,0.606528
8673517432,-72.668755,-12.128435,-98.644417,0.783686,0.200386,0.652066
8673537476,-73.181458,-15.168906,-100.054619,0.807406,0.256173,0.637302
8673557522,-75.825531,-10.111253,-98.043137,0.782688,0.277154,0.650878
8673577566,-76.942551,-12.678699,-96.660851,0.673742,0.259127,0.692840
8673597613,-76.884377,-19.959854,-95.862114,0.727171,0.236879,0.702154
8673617658,-79.554512,-20.794531,-97.867310,0.838585,0.275053,0.690180
8673637703,-84.397987,-17.164759,-97.742188,0.817126,0.244917,0.739163
8673657747,-82.276749,-17.028002,-93.804688,0.739193,0.206362,0.767864
8673677792,-81.431015,-17.351675,-85.194580,0.678882,0.207471,0.821040
8673697837,-85.258919,-22.931416,-77.511185,0.674794,0.223328,0.887068
8673717882,-86.350685,-28.612406,-70.008652,0.643581,0.241214,0.837620
8673737926,-86.834770,-30.734531,-74.322510,0.576533,0.262653,0.751826
8673757971,-84.645668,-37.151882,-75.369316,0.673552,0.234521,0.756318
8673778015,-78.426147,-37.454464,-77.100349,0.708934,0.167457,0.708694
8673798060,-72.302116,-33.043350,-76.222054,0.702599,0.146729,0.716103
8673818105,-72.636230,-38.119183,-73.685417,0.693395,0.194952,0.759248
8673838150,-75.070923,-41.513168,-70.540039,0.844192,0.182039,0.773475
8673858195,-78.549950,-34.160618,-71.266907,0.839942,0.086898,0.794897
8673878240,-75.787796,-30.621567,-72.342751,0.731035,0.058464,0.835215
8673898285,-75.631775,-34.900402,-71.250481,0.670784,0.069909,0.830583
8673918329,-80.544632,-38.095535,-70.105141,0.701003,0.060449,0.858195
8673938374,-84.218361,-36.694321,-71.190575,0.696223,0.067162,0.843811
8673958421,-90.511826,-37.132141,-76.535660,0.655607,0.076730,0.847168
8673978465,-94.980598,-41.782307,-81.852661,0.677462,0.039986,0.803930
8673998510,-96.698158,-37.171719,-91.861916,0.699696,0.084983,0.806725
8674018555,-105.255928,-32.571049,-103.258575,0.632572,0.159279,0.893389
8674038600,-113.604950,-41.412876,-107.307693,0.727990,0.086550,0.829771
8674058645,-108.628319,-34.415226,-103.520470,0.689748,-0.091601,0.736913
8674078690,-91.090141,-29.085701,-100.460289,0.635590,-0.149610,0.797177
8674098748,-80.775215,-36.193264,-99.587975,0.674595,-0.114340,0.813286
8674118778,-79.197212,-29.240089,-99.812347,0.608114,-0.065449,0.842805
8674138823,-81.758316,-31.960922,-104.223999,0.664067,-0.022071,0.867802
8674158868,-85.622414,-31.752630,-104.819260,0.695436,-0.022522,0.832892
8674178913,-86.505463,-25.110430,-108.292725,0.637023,0.004754,0.865380
8674198957,-90.871758,-27.626720,-117.665466,0.554492,0.019087,0.886055
8674239047,-93.301086,-38.427856,-123.525566,0.691283,-0.019230,0.863334
8674259092,-86.293671,-31.342464,-123.540268,0.622203,-0.021712,0.793383
8674279137,-82.263008,-29.940880,-125.896103,0.532263,-0.048078,0.868784
8674299182,-84.748535,-34.322418,-121.652351,0.622678,-0.009352,0.926938
8674319228,-86.771255,-35.472176,-113.225159,0.729158,-0.061917,0.800596
8674339273,-85.875343,-25.113781,-114.514069,0.657528,-0.130954,0.775150
8674359318,-84.875481,-21.118881,-119.393608,0.537773,-0.074207,0.910101
8674379363,-91.294182,-35.099426,-121.190041,0.669047,0.019255,0.919484
8674419453,-92.731483,-18.840254,-121.095360,0.691662,-0.066505,0.819571
8674439498,-91.918961,-19.693066,-122.936790,0.556654,-0.111524,0.882141
8674459542,-91.937508,-28.060905,-121.801239,0.626028,-0.120398,0.895558
8674479586,-89.241425,-23.835802,-118.603355,0.649130,-0.075105,0.828071
8674499631,-84.774231,-22.874962,-119.910767,0.595108,-0.080876,0.850850
8674519676,-83.957458,-25.049509,-120.006401,0.559398,-0.139752,0.867372
8674539721,-78.373245,-27.933025,-115.643105,0.635556,-0.140275,0.877219
8674559766,-71.441284,-24.979589,-109.543465,0.644250,-0.113459,0.871780
8674579811,-64.410797,-23.614477,-102.765045,0.673105,-0.156909,0.861060
8674599856,-57.352577,-19.550241,-93.993401,0.632449,-0.186902,0.815033
8674619901,-48.106182,-20.617426,-83.138649,0.574548,-0.185550,0.856571
8674639945,-35.778873,-24.740978,-68.358360,0.577663,-0.210406,0.854887
8674659990,-20.773142,-26.950716,-51.909145,0.599207,-0.275995,0.893733
8674680035,-2.721953,-27.512676,-33.115547,0.559867,-0.305016,0.896326
8674700082,14.078215,-31.083271,-13.974311,0.473653,-0.223618,0.942367
8674720126,20.433285,-40.544285,2.296682,0.476614,-0.068806,0.962598
8674740171,20.858416,-42.720257,15.139925,0.508844,-0.008638,0.928468
8674760216,22.039623,-42.847427,21.911274,0.497701,0.039931,0.952477
8674780261,22.188133,-41.644627,26.388556,0.412190,0.080429,0.967086
8674800306,14.674079,-52.928833,35.118835,0.449406,0.054781,1.014458
8674820351,28.344254,-59.038124,48.115654,0.586144,-0.082342,0.656052
8674840394,52.030483,-5.742695,41.491909,0.469981,0.014035,0.756924
8674860439,30.997568,-36.859192,53.437622,0.657738,-0.068903,0.871147
8674880484,40.127533,-20.501923,55.325294,0.801642,-0.085677,0.716468
8674900529,39.402042,-17.865707,51.222107,0.881107,0.176778,0.778067
8674920574,28.055328,-12.017535,53.520496,0.918031,0.427802,0.696965
8674940618,4.226332,4.241993,45.239132,0.707384,0.553203,0.745832
8674980708,-36.615597,-1.740371,16.242727,0.586483,0.289872,0.754315
8675000753,-47.793373,-3.033058,10.433091,0.541113,0.298134,0.756373
8675020798,-58.286869,-6.575652,5.709752,0.589975,0.339577,0.738999
8675040843,-67.238480,-1.416137,2.413838,0.654968,0.287340,0.647585
8675060889,-69.040802,7.910303,-0.179000,0.659624,0.150655,0.691174
8675080934,-53.911842,12.208539,3.601508,0.600275,0.050733,0.706224
8675100979,-43.509941,13.561741,7.283914,0.601959,0.030473,0.744460
8675121024,-37.240437,17.230839,14.766870,0.554895,0.003637,0.805884
8675141068,-35.109169,14.596421,8.704094,0.575592,0.036831,0.837262
8675161113,-42.720139,16.700665,-8.411181,0.663585,0.125727,0.794107
8675181158,-53.095390,20.829012,-25.674778,0.546618,-0.033336,0.806857
8675201220,-48.983585,10.824452,-39.173611,0.302856,-0.165285,0.914691
8675221247,-32.511635,-7.953122,-33.035149,0.180749,-0.105954,0.998982
8675241291,-17.938929,-31.804152,-22.093039,0.338575,0.036287,0.875868
