Timestamp (us),Gyroscope X (deg/s),Gyroscope Y (deg/s),Gyroscope Z (deg/s),Accelerometer X (g),Accelerometer Y (g),Accelerometer Z (g)
804474039,27.842850,-18.874346,1.720778,0.563684,-0.691227,0.510844
804494037,29.745306,-17.416809,9.616389,0.630823,-0.627252,0.526043
804514035,21.270031,-14.639929,12.963426,0.632986,-0.587068,0.504103
804534033,12.979177,-14.092719,9.237145,0.634819,-0.594193,0.472670
804554032,7.189734,-11.522790,0.953466,0.644353,-0.593247,0.489353
804574028,4.810482,-5.590571,-6.981065,0.680443,-0.572488,0.500617
804594027,5.302362,-1.629309,-5.853769,0.665108,-0.598332,0.533242
804614025,7.095631,1.497839,-2.957991,0.597869,-0.607503,0.555054
804634023,1.474622,3.232299,-2.309433,0.583280,-0.569625,0.563082
804654021,-12.113831,7.713343,-4.471483,0.605577,-0.545341,0.520700
804674020,-20.031498,9.426161,-4.937037,0.589577,-0.595130,0.460827
804694018,-13.748275,9.024488,-5.526268,0.562258,-0.660555,0.435013
804714016,-4.876794,7.516692,-6.297092,0.565061,-0.661088,0.459131
804734015,-4.149361,8.160851,-6.706100,0.602630,-0.642137,0.485944
804754014,-7.308634,9.512015,-6.644598,0.606593,-0.647258,0.489711
804774013,-8.630220,8.957188,-5.427752,0.593900,-0.650653,0.475041
804794011,-8.908880,8.030030,-4.935919,0.613264,-0.645050,0.456998
804814009,-9.199224,6.452732,-6.508104,0.619911,-0.662916,0.457066
804834007,-4.908811,7.415630,-8.355907,0.612577,-0.658467,0.452180
804854006,-1.187060,7.100025,-6.760419,0.623050,-0.644886,0.451165
804874003,0.079155,3.342286,-2.455544,0.595849,-0.648297,0.464717
804913999,-1.304085,-2.670201,2.365612,0.579129,-0.647691,0.463262
804933998,-0.962264,-4.688929,2.973549,0.597990,-0.647098,0.450034
804953996,4.156723,-4.755198,4.918694,0.598385,-0.660425,0.446777
804973994,9.533365,-4.998103,5.123215,0.595599,-0.648053,0.462339
804993992,8.349276,-5.273803,4.157158,0.617753,-0.621092,0.479753
805013991,4.622325,-4.592976,4.019110,0.626493,-0.618935,0.484642
805033989,3.780525,-3.516420,3.820493,0.621400,-0.624506,0.481666
805053989,3.664712,-3.594334,1.769554,0.630501,-0.611261,0.480551
805073987,-0.075358,-3.474140,-4.110991,0.639264,-0.587658,0.491223
805093985,-5.517947,-2.359076,-6.986532,0.662649,-0.581533,0.483793
805113983,-9.830314,0.235917,-5.785501,0.638058,-0.609375,0.496470
805133982,-11.637505,3.671595,-5.922009,0.616298,-0.629795,0.492004
805153980,-12.800123,4.379575,-3.609709,0.609770,-0.652882,0.476239
805173977,-9.610257,4.500482,-1.930176,0.609526,-0.656876,0.450848
805193975,-3.296430,2.277282,-0.695049,0.608904,-0.644652,0.433870
805213973,1.026910,-1.605837,1.468616,0.589803,-0.640189,0.444282
805253970,2.424735,-4.688830,3.398839,0.613489,-0.649037,0.464541
805273968,2.878174,-4.082340,4.549116,0.636144,-0.655037,0.472706
805293966,3.250264,-4.536857,5.408202,0.658819,-0.648664,0.475208
805333963,7.039552,-1.861235,7.521777,0.636042,-0.627755,0.485968
805353963,2.966369,-1.600751,5.342994,0.612019,-0.594992,0.465612
805393959,-0.451816,-1.497147,2.622378,0.597496,-0.608063,0.439122
805413958,1.521057,-2.177531,3.429579,0.598128,-0.626379,0.462397
805433956,1.093938,-2.227165,3.971308,0.593734,-0.631647,0.475295
805453954,-1.315549,-3.698449,4.224563,0.608993,-0.631817,0.466968
805473951,-2.848613,-5.215648,3.341722,0.620557,-0.643820,0.458421
805493949,-2.098075,-6.172585,2.977864,0.634346,-0.642894,0.454623
805513947,-3.791785,-6.170852,2.332050,0.621477,-0.649365,0.466177
805533945,-5.706102,-6.038908,1.679053,0.611424,-0.658438,0.471597
805553944,-4.308215,-3.924951,1.283118,0.610485,-0.659477,0.461114
805573942,0.419297,-2.679499,1.415464,0.617436,-0.649455,0.447530
805593941,4.640072,-2.214940,2.199608,0.611646,-0.640299,0.443500
805613939,4.800764,-2.130453,2.426471,0.599484,-0.628092,0.459061
805633937,1.252126,-2.406225,1.653600,0.594819,-0.624263,0.472000
805653937,-2.659631,-2.098562,1.502888,0.606073,-0.632303,0.466763
805673935,-3.723669,-1.322948,2.036186,0.625784,-0.633109,0.445994
805693933,-0.579879,-1.124273,2.385693,0.622187,-0.666536,0.436164
805713932,2.950069,-1.471152,2.074767,0.615385,-0.650733,0.450448
805733930,2.272637,-1.178636,2.258919,0.614002,-0.631274,0.467831
805753928,-0.556823,-1.188580,3.320598,0.612894,-0.618353,0.479753
805773925,-5.117424,-0.985719,3.196123,0.621317,-0.605659,0.470886
805793924,-9.434179,-0.719949,1.998743,0.636069,-0.605230,0.459170
805813922,-11.401175,1.189651,1.535512,0.646679,-0.631539,0.465975
805833920,-12.256152,5.929360,2.004289,0.642535,-0.647480,0.489347
805873916,-22.304071,10.689263,-0.357581,0.608271,-0.618947,0.475885
805893915,-29.547810,11.625152,-3.497658,0.606700,-0.603840,0.436596
805913913,-32.178471,12.108583,-6.048810,0.614092,-0.624192,0.416550
805933911,-30.325766,13.596481,-6.345192,0.616674,-0.640137,0.417825
805953911,-28.515396,14.009151,-5.063446,0.613400,-0.649461,0.428425
805973909,-30.499367,11.820318,-1.472773,0.607913,-0.693317,0.423935
805993907,-33.711525,4.620336,2.678180,0.575001,-0.704603,0.437734
806013906,-50.156158,-11.684456,3.647937,0.546994,-0.682427,0.434010
806033904,-55.885246,-17.542686,11.117613,0.528784,-0.727971,0.457877
806053902,-36.594891,6.837111,42.790596,0.501637,-1.088914,0.522623
806073899,2.969762,26.769205,53.591743,0.600968,-1.149182,0.326974
806093897,62.092445,31.285110,9.757015,0.739605,-0.557990,0.165677
806113896,96.650757,45.152687,-4.157710,0.740899,-0.373122,0.381040
806133894,98.050072,50.616993,-2.289038,0.646547,-0.388257,0.676503
806153892,69.180260,37.445671,-13.732040,0.637279,-0.303589,0.798525
806173890,31.330740,26.310459,-32.134640,0.771367,-0.197185,0.809642
806193889,-2.604901,25.929827,-57.230492,0.816399,-0.041507,0.746133
806213887,-25.065220,24.473064,-96.805023,0.767493,0.276183,0.614515
806233885,-40.868073,28.859505,-148.124237,0.799890,0.589005,0.580755
806253885,-65.643509,49.282986,-184.937622,1.004065,0.627408,0.670062
806273883,-117.659729,103.136307,-214.893127,1.382963,0.625265,0.897390
806293881,-254.899994,161.709198,-268.365417,1.406971,1.081432,1.047151
806313880,-432.970673,123.242714,-317.890442,1.536974,1.238576,0.214605
806333878,-488.497864,120.278877,-313.291748,2.165592,0.515070,-0.548855
806353876,-378.680542,164.262482,-297.274200,2.129353,-0.353087,-0.913701
806373873,-222.310471,188.915421,-300.798004,1.650085,-0.293017,-0.830969
806393871,-126.272995,170.827774,-326.422485,1.323525,0.550206,-0.738573
806413870,-171.169464,119.164902,-347.626129,1.541921,1.267939,-0.686469
806433868,-342.525146,82.012711,-389.276855,2.022005,1.450065,-0.728400
806453866,-500.562897,81.283615,-449.262756,2.686100,1.534245,-1.034148
806473864,-589.864136,85.640114,-492.487213,2.232778,1.462996,-1.519971
806493863,-556.966248,-22.159826,-516.269043,2.056078,1.473087,-1.368843
806513861,-667.312073,10.844708,-352.323730,3.235806,0.551450,-1.960616
806533859,-648.851318,22.009586,-225.367401,3.466238,-0.945080,-1.462071
806553859,-384.356323,136.893280,-182.625031,1.944291,-1.290519,-0.883100
806573857,-226.904999,142.283569,-239.596161,1.402953,0.569653,-0.583277
806593856,-205.716309,160.633072,-351.311584,1.370877,1.749113,-0.571073
806613854,-232.356628,99.368065,-384.828033,1.634876,1.387641,-0.594788
806633852,-265.373322,38.650948,-376.863403,1.520152,0.906746,-0.415242
806653851,-285.554474,-19.445969,-352.037994,1.231613,1.032188,-0.443152
806673847,-291.819550,-55.668301,-356.587158,1.250594,1.237868,-0.525936
806693845,-318.663055,-54.018585,-373.730164,1.379402,1.515665,-0.539397
806713844,-374.438263,-64.159172,-371.255981,1.361445,1.619633,-0.466378
806733842,-446.883667,-96.833084,-364.469482,1.371136,1.634323,-0.619750
806753840,-492.187378,-117.175179,-362.072937,1.505286,1.510702,-0.845819
806773838,-498.016388,-106.914764,-353.155975,1.690412,1.301294,-0.911704
806793837,-489.664093,-84.643631,-346.820465,1.732329,1.115267,-0.839190
806813835,-467.979340,-71.324524,-335.808868,1.690506,0.946977,-0.718444
806833833,-436.816620,-71.308784,-315.395081,1.610656,0.814481,-0.680999
806853833,-411.496918,-80.300972,-287.701996,1.525596,0.808319,-0.653210
806873831,-409.230255,-73.075989,-261.063843,1.540176,0.796835,-0.627346
806893830,-424.217712,-55.066463,-242.542236,1.563173,0.709967,-0.603249
806913828,-434.917419,-38.305733,-225.964813,1.497053,0.576785,-0.612541
806933826,-426.943604,-30.748730,-214.537689,1.397243,0.427446,-0.625573
806953824,-400.921143,-22.208080,-210.173676,1.378659,0.284583,-0.548493
806973821,-362.110291,-14.157539,-208.350830,1.414947,0.159557,-0.414216
806993820,-311.984161,-14.492627,-213.988983,1.398107,0.185545,-0.243024
807013818,-274.809814,-16.480103,-218.785400,1.448629,0.286961,-0.113452
807033816,-271.304810,-6.318751,-214.014267,1.575982,0.431325,-0.051539
807053815,-273.214844,14.807623,-202.664337,1.757716,0.480080,0.048146
807073813,-280.673004,32.675358,-196.859772,1.763074,0.422627,0.087850
807093811,-285.256287,44.524754,-197.941254,1.607388,0.300590,0.064077
807113809,-269.016083,49.076721,-178.475372,1.394417,0.347805,-0.064854
807133808,-241.085922,56.293320,-130.106323,1.245537,0.419857,-0.052957
807173806,-244.634094,96.895248,-67.397263,0.983904,-0.192051,0.155582
807193804,-203.168915,95.501442,-24.309740,0.990729,-0.382586,0.166058
807213802,-130.918518,95.920731,30.377520,1.223281,-0.556599,0.026586
807233801,-41.140293,92.368637,89.334335,1.398451,-0.692728,0.118009
807253799,-13.645631,79.072205,143.551056,1.638411,-0.619033,0.306195
807273796,-27.940510,62.060150,178.734024,1.628950,-0.288662,0.560079
807293794,-106.975983,61.772327,175.669052,1.438291,-0.228593,0.670072
807313792,-183.823654,78.115074,152.882019,1.246614,-0.464171,0.662914
807333791,-206.802002,88.631775,155.766251,0.881150,-0.747940,0.785095
807353789,-197.201126,80.138474,168.223801,0.464200,-0.948128,0.655722
807373787,-179.181030,83.300789,175.338928,0.095325,-0.976654,0.440915
807393786,-151.334579,65.409927,197.969269,-0.172541,-0.929801,0.256251
807413784,-125.127983,25.051157,200.715042,-0.319367,-0.769163,0.140747
807433782,-110.198738,-21.631227,194.535828,-0.243220,-0.698474,0.092174
807453782,-65.239922,-62.211903,159.565079,-0.090180,-0.898285,0.115758
807473781,3.929438,-77.956131,106.991470,0.061607,-0.746637,0.201977
807493779,31.161600,-97.959297,80.420868,0.075758,0.044887,0.356337
807513777,-56.283775,-135.528564,79.812714,0.053000,0.437681,0.563064
807533775,-180.933746,-190.706741,53.039047,0.226872,0.001492,0.527093
807553773,-223.683441,-169.897903,-8.315832,0.595931,-0.455822,0.136300
807573770,-176.095047,-60.235512,-83.860977,0.983061,-0.497796,-0.044419
807593768,-106.339584,77.464706,-98.778999,1.420865,-1.222201,0.415709
807613767,11.965135,224.650436,-39.032345,1.659233,-1.248601,0.550322
807633765,7.205432,315.292908,-86.484177,1.056575,-0.413596,0.739308
807653763,-100.512192,222.121475,-144.966187,0.988267,-0.193163,0.014440
807673762,-208.756363,162.544113,-165.069443,1.365821,-0.459551,-0.413043
807693760,-135.393204,156.170364,-140.442245,1.322229,-0.992815,-0.560631
807713758,-43.122486,165.928955,-147.215408,1.058887,-0.815568,-0.501150
807733756,-6.153484,166.827362,-177.382950,0.876009,-0.544729,-0.471578
807753756,-19.406860,164.995621,-213.350143,0.708353,-0.162656,-0.415559
807773754,-73.147408,165.066437,-248.358307,0.661579,0.056058,-0.307558
807793753,-142.880402,158.268661,-289.379700,0.823423,0.325376,-0.273763
807813751,-220.306686,152.195587,-315.429016,1.296842,0.363754,-0.263748
807833749,-266.622131,153.901733,-328.957184,1.856492,0.172065,-0.200986
807853748,-294.858612,176.369751,-335.093109,2.264620,0.228175,-0.382635
807873744,-328.126038,202.182571,-335.035370,2.276554,0.103274,-0.402762
807893743,-318.454010,239.850464,-334.004028,2.080895,-0.122741,-0.573385
807913741,-247.496490,237.557709,-307.210907,1.638786,0.059085,-0.681150
807933739,-213.977386,196.166122,-269.916840,1.905536,0.463090,-0.729551
807953737,-400.811859,159.962418,-217.748169,2.893162,1.084898,-0.765192
807973736,-653.092590,110.128487,7.308970,2.144897,-0.560185,-0.955058
807993734,-695.954346,121.062225,87.225418,1.650509,-1.969632,-0.889123
808013732,-320.738403,156.885071,74.899994,1.103836,-1.869668,-1.066099
808033731,12.548827,89.740791,91.213615,0.894616,-1.387631,-0.572096
808053731,148.815308,52.651833,133.649933,1.273227,-0.645256,-0.059847
808093727,-133.240723,103.609123,149.860428,0.547408,0.282584,0.094091
808113725,-267.081390,65.063911,168.611359,0.380394,-0.501387,-0.146391
808133724,-245.611160,23.255611,200.878387,0.332835,-1.093423,-0.252159
808153722,-143.834351,-3.782379,203.385788,0.305269,-1.220905,-0.231687
808173719,-32.856159,-25.076258,187.548737,0.236601,-1.091206,-0.112780
808193717,29.926634,-46.817101,171.082733,0.229571,-0.777600,0.078538
808213716,20.372036,-65.555687,153.109711,0.266223,-0.500020,0.212014
808233714,-35.915966,-81.259918,142.814133,0.344295,-0.314829,0.246077
808273710,-123.052017,-143.553802,151.200272,0.130431,-0.815685,0.287741
808293709,-97.553940,-168.194107,116.838905,0.275651,-1.154457,0.175188
808313707,-26.983078,-147.478470,72.650459,0.542265,-0.964236,0.014226
808333705,15.688694,-103.388664,17.388477,0.674262,-0.172930,0.213560
808373704,-92.267670,50.929993,82.103195,0.618069,-0.749579,1.036783
808393702,-168.956421,92.677017,125.641258,0.594362,-0.903825,0.660183
808413700,-146.966614,112.993828,102.247940,0.569847,-0.975588,0.157523
808433698,-113.486404,123.827797,96.057617,0.609208,-1.067744,-0.119240
808453697,-43.400551,114.873405,74.081963,0.247816,-1.114196,-0.267017
808473693,21.459831,100.965057,36.444809,0.127052,-1.260036,-0.314337
808493692,88.428741,92.086143,4.299938,0.076191,-1.254287,-0.311927
808513690,145.807037,107.819984,-32.107529,0.126211,-0.898664,-0.174590
808533688,122.080223,106.656586,-74.922523,0.074315,-0.617048,0.166911
808553687,52.899658,77.831604,-118.582382,-0.044107,-0.600497,0.144393
808573685,13.475384,44.264717,-149.103424,0.093168,-0.804545,0.032700
808593683,29.663818,23.010643,-161.239975,0.254713,-0.986244,-0.018524
808613681,69.861519,11.864807,-182.278854,0.331809,-0.932742,0.022843
808633680,103.762283,4.557410,-216.194824,0.317794,-0.708822,0.155721
808653679,112.077896,-19.886139,-261.178467,0.279954,-0.571242,0.146841
808673678,111.983604,-40.805401,-301.116486,0.777692,-0.545924,0.074294
808693676,100.197945,-50.466988,-334.364777,1.387702,-0.627502,0.448289
808713674,62.050568,-33.101040,-388.938843,1.647331,-0.518801,0.666145
808733673,0.358636,16.778351,-434.737518,2.182397,-0.303013,0.580466
808753671,100.919815,119.973007,-350.407745,1.624635,0.322993,0.670497
808773668,86.612869,125.005302,-315.111847,1.133582,0.361086,1.131176
808793666,-162.494537,200.571503,-306.132019,1.521579,-0.582724,0.351711
808813664,-323.005310,58.525185,-142.296341,1.163253,-2.085897,0.117252
808833663,-234.210938,-55.247391,53.990643,1.193244,-2.610900,0.122428
808853661,79.929688,40.763359,140.895889,1.138267,-2.210868,-0.044995
808873659,316.207184,70.639809,175.610809,1.098609,-1.024430,-0.115435
808893658,454.933411,31.748755,196.195999,1.103647,-0.240903,-0.165004
808913656,387.194641,-1.608722,255.171524,1.060480,0.681913,0.242716
808933654,139.074677,8.697979,281.571594,0.610313,0.828245,0.444183
808953654,-88.951904,-5.024063,244.678696,0.414328,0.611234,0.349584
808973652,-211.706802,-38.064339,232.607132,0.355891,0.041437,0.168111
808993650,-186.884033,-77.098572,247.063828,0.381086,-0.750016,0.032572
809013651,-52.765572,-103.030106,238.239868,0.457792,-1.087015,-0.006813
809033647,89.777390,-112.579002,206.087173,0.583931,-0.904558,0.040820
809053645,153.885895,-114.876801,174.016739,0.761624,-0.505607,0.218821
809073642,110.618027,-116.926178,172.840607,0.815296,-0.240453,0.620837
809093640,13.220854,-114.085182,183.714096,0.738434,-0.467502,0.916083
809113639,-39.777000,-116.125732,173.706329,0.833688,-0.802919,0.766945
809133637,-20.319347,-103.198174,158.413361,0.869419,-0.726347,0.434373
809153636,26.272369,-77.419601,133.993805,0.745854,-0.759506,0.418040
809173634,58.507252,-57.939060,89.621307,0.548781,-0.449819,0.454170
809193632,48.834301,-34.242298,36.301929,0.402761,-0.022943,0.534895
809213631,16.748310,11.975311,-1.886881,0.848260,0.103866,0.965785
809233629,-37.922295,86.765625,32.995960,0.463894,-0.416857,1.069069
809253628,-100.246643,140.131653,1.889060,0.568929,-0.265482,0.723914
809273627,-118.790886,153.826935,-35.074276,0.604546,-0.453506,0.342683
809293625,-95.632034,162.761703,-55.708378,0.547797,-0.530902,0.129124
809313623,-49.787495,172.376587,-81.935905,0.519406,-0.580379,0.129872
809333621,-33.985977,168.181061,-95.614677,0.506540,-0.469470,0.244431
809353620,-63.064384,130.417679,-97.750053,0.415138,-0.438397,0.317466
809373617,-98.415184,77.346947,-99.627800,0.372146,-0.560189,0.115583
809393615,-134.286469,32.707703,-107.066109,0.369140,-0.870271,-0.028549
809413613,-113.517052,1.040343,-120.817825,0.357497,-1.186157,-0.165472
809433611,-39.525223,-13.001899,-155.517136,0.306595,-1.200806,-0.210000
809453610,51.964592,-8.723608,-193.221588,0.303357,-0.934767,-0.148079
809473608,142.018768,-8.524162,-226.797379,0.509878,-0.614295,-0.145268
809493606,177.195496,-23.465824,-261.930847,0.855863,-0.455991,0.210980
809513605,140.289780,-48.020576,-312.209351,1.244485,-0.286635,0.519691
809533603,72.048126,-53.749535,-355.309448,1.850773,-0.196348,0.764763
809553603,50.365089,31.677727,-318.512878,2.114766,0.086614,0.410430
809573601,31.236258,54.931267,-286.628906,1.064659,0.415361,0.927695
809593599,-121.165237,67.802803,-291.682983,1.382566,0.087351,0.533396
809613597,-304.353363,52.583042,-190.154449,1.481912,-1.595878,0.445507
809633596,-235.391586,-46.943317,11.098144,1.129993,-2.506179,0.333356
809653594,-10.074661,5.556010,141.618607,0.861608,-2.008347,0.140936
809673591,196.135910,17.437035,164.705093,1.117459,-0.889794,-0.131726
809693590,312.934906,18.622160,170.374847,1.093711,-0.228881,-0.051085
809713588,298.150482,-18.596247,192.216019,0.981738,0.310806,0.200466
809733586,169.957535,-38.290901,209.822205,0.812355,0.472710,0.387828
809753584,14.822124,-37.450302,203.398834,0.703255,0.460635,0.506774
809773582,-110.960526,-35.830265,175.901703,0.679872,0.073698,0.431392
809793581,-146.453278,-41.431843,166.597656,0.742977,-0.543046,0.249401
809813579,-86.443825,-55.962070,165.804260,0.831459,-0.937828,0.115428
809833577,20.333603,-62.556854,155.186096,0.860665,-0.958201,0.075444
809853577,107.602707,-65.788139,136.312927,0.817869,-0.750156,0.136306
809873575,126.944542,-77.361374,131.960617,0.787350,-0.403177,0.287196
809893574,62.955608,-82.752350,139.109161,0.796877,-0.278939,0.457873
809913572,-18.606318,-74.270393,142.885757,0.760180,-0.454126,0.510821
809933570,-51.260593,-57.714622,143.241058,0.779238,-0.779836,0.425348
809953569,-13.760641,-29.698437,145.017380,0.767176,-1.167650,0.273654
809973566,85.135918,-10.854456,139.829407,0.670809,-1.228221,0.211587
809993564,170.312973,-3.936934,129.453857,0.631065,-0.803365,0.403876
810013563,164.066513,6.411672,111.394653,0.639936,-0.310694,0.604552
810033561,104.243713,31.347042,84.022476,0.587051,-0.161520,0.710184
810053559,36.784851,57.864494,56.115677,0.449701,-0.121588,0.724333
810073557,-22.251204,59.897373,29.839251,0.325106,-0.189713,0.518159
810093555,-36.007610,56.021832,-1.617584,0.344201,-0.269847,0.384490
810113554,-16.202572,70.308258,-21.234715,0.649562,-0.340572,0.646338
810133552,-49.235119,107.512726,-8.037230,0.236207,-0.491533,0.671679
810153551,-79.576942,126.205002,-40.128551,0.127891,-0.551850,0.463541
810173550,-76.002457,86.907539,-92.934113,0.507344,-0.629573,0.346143
810193548,-48.530083,69.183395,-117.912689,0.570422,-0.631243,0.316519
810213546,-42.619568,69.450027,-122.553680,0.432967,-0.530152,0.303640
810233545,-46.155602,61.881100,-137.116745,0.318473,-0.356081,0.253657
810253560,-70.164825,34.216011,-163.258957,0.405397,-0.203637,0.165990
810293538,-73.759544,-7.801281,-188.973419,0.486540,-0.694673,0.117615
810313536,-20.825556,-24.044785,-213.026291,0.551264,-0.884943,0.137061
810333535,24.723127,-35.285076,-255.884064,0.759166,-0.914115,0.077302
810353533,59.562389,-31.515095,-315.623871,1.042717,-0.625287,-0.041403
810373531,78.849655,-8.087925,-357.036957,1.705875,-0.263612,-0.097386
810393530,134.704132,15.636061,-296.946930,1.437227,-0.250347,0.368012
810413528,107.662758,-41.212448,-258.789398,1.039320,-0.003458,1.181527
810433526,-100.269363,-49.957355,-230.381561,1.439364,-0.095304,1.047861
810453526,-163.471527,-3.312595,-64.372810,1.381820,-2.001523,0.461040
810473525,-25.967209,6.105298,68.719894,0.981047,-2.093336,0.229553
810493523,142.781219,29.642506,117.625610,0.942579,-1.157729,0.350156
810513521,224.777176,-7.789635,151.906525,0.969411,-0.565055,0.107714
810533519,238.684113,-56.320076,162.405701,1.145406,-0.110813,0.087639
810553534,209.388870,-70.066757,159.721680,1.130284,0.272254,0.235757
810573514,146.354584,-64.964684,148.154327,0.978517,0.459031,0.364171
810593513,81.212082,-38.487976,130.838196,0.895164,0.047230,0.457135
810613511,58.897213,-14.090580,126.680305,0.928530,-0.234786,0.492179
810633509,59.980209,6.339776,119.849731,0.911808,-0.256873,0.467631
810673506,80.004242,22.245430,96.067421,0.808192,-0.316466,0.450446
810693504,96.205025,22.045525,81.031235,0.763362,-0.292285,0.415781
810713502,81.921822,23.899452,56.428230,0.701664,-0.132745,0.476743
810733501,53.208317,18.730038,39.279144,0.713245,-0.139865,0.536351
810753501,30.967789,12.134014,29.105928,0.766938,-0.243315,0.514400
810773499,18.001791,22.170113,15.174883,0.758813,-0.325670,0.515492
810793497,18.095247,28.801373,3.319830,0.677036,-0.345696,0.506858
810813495,18.805500,27.613457,0.829388,0.593567,-0.320121,0.505990
810833494,16.817181,23.125008,1.831532,0.611353,-0.366239,0.498577
810853506,22.507755,18.280249,1.371540,0.682409,-0.463358,0.506440
810873489,33.535385,11.591383,-2.151805,0.707908,-0.441012,0.549407
810893487,32.810284,3.318452,-2.551752,0.687899,-0.368692,0.605744
810913486,21.213964,-3.759194,-1.729562,0.710112,-0.336186,0.629640
810933483,6.371555,-5.192164,-0.758547,0.731326,-0.351538,0.623705
810953482,-1.804323,-1.565821,-1.451976,0.700741,-0.426398,0.607125
810973480,1.155622,0.163646,-1.602525,0.691579,-0.449417,0.579474
810993479,7.620610,0.855831,0.287437,0.688888,-0.456664,0.532764
811013477,11.460377,-0.190451,0.609011,0.684954,-0.438980,0.511290
811033475,13.402264,-2.565700,0.945279,0.677309,-0.451254,0.537946
811053475,15.270240,-9.472798,2.305540,0.651633,-0.493607,0.570446
811073473,24.956987,-14.993698,6.397559,0.675357,-0.462491,0.537552
811093471,28.416971,-12.738148,9.791232,0.668797,-0.435647,0.491556
811113470,31.206568,-12.127195,14.920469,0.632819,-0.461217,0.499979
811133468,33.900505,-27.105463,19.186090,0.600851,-0.455444,0.506683
811153473,37.729954,-45.565212,23.173536,0.638059,-0.397017,0.483721
811173463,40.111130,-44.841656,34.186016,0.679102,-0.400466,0.532258
811193462,30.284216,-43.543690,48.177410,0.634682,-0.362012,0.574457
811213460,14.114183,-50.165474,50.789070,0.605846,-0.396015,0.544131
811233458,-56.834808,-56.471886,29.270851,0.390520,0.027568,0.508090
811253456,-88.683441,-58.792934,16.029224,0.865193,-0.680850,0.659849
811273455,-25.941214,-45.365032,34.201336,0.764210,-0.764753,0.396231
811293453,59.988552,-47.283058,24.660311,0.655711,-0.708953,0.450289
811313451,80.874634,-49.418934,15.850551,0.657285,-0.465764,0.536143
811333450,72.174103,-42.160912,15.310242,0.657744,-0.402555,0.627761
811353449,48.754101,-39.907009,20.126190,0.663754,-0.396424,0.677623
811373448,27.746880,-43.926216,26.866989,0.644171,-0.512793,0.590825
811393446,38.904076,-46.669868,32.216393,0.629282,-0.630471,0.540216
811413444,57.887173,-47.249706,32.139904,0.665129,-0.612310,0.541119
811433442,71.910217,-48.286495,32.460518,0.691466,-0.619165,0.564841
811453441,85.149765,-46.997063,30.813534,0.666827,-0.555195,0.621624
811473438,80.109207,-46.648651,30.546204,0.650923,-0.456648,0.604716
811493436,73.098839,-41.567875,28.510973,0.638555,-0.465138,0.628347
811513434,71.954361,-42.863453,24.714806,0.680290,-0.531921,0.635358
811553431,81.225739,-39.960648,20.023701,0.658578,-0.490204,0.621637
811573429,79.022179,-32.143608,25.515450,0.611393,-0.495412,0.626076
811593428,69.227699,-31.006248,29.666275,0.592876,-0.531968,0.515258
811613426,73.716187,-32.358181,33.489567,0.523770,-0.514438,0.507178
811653424,104.368454,-29.372570,43.017570,0.555703,-0.584544,0.502465
811673422,115.153839,-27.010998,50.648125,0.647520,-0.678738,0.573888
811693421,128.553162,-30.678577,63.568008,0.805018,-0.838965,0.664044
811713419,152.076447,-43.179272,70.447815,0.776713,-0.782115,0.694355
811733417,154.770035,-40.030552,73.605362,0.763907,-0.627102,0.613033
811753416,154.409012,-35.606224,88.420853,0.700123,-0.517091,0.627485
811773413,146.571075,-40.194256,92.322723,0.745940,-0.636895,0.708872
811793410,157.774429,-43.346066,87.080292,0.861561,-0.685904,0.726934
811813409,167.730728,-44.257492,84.052399,0.902707,-0.525213,0.753886
811833407,159.066223,-43.803326,81.399757,0.785479,-0.346663,0.796848
811853405,138.459686,-49.443970,80.820320,0.680326,-0.351130,0.849858
811873404,127.133240,-48.973499,78.422943,0.735091,-0.447524,0.871502
811893402,116.902603,-37.688236,77.233017,0.797503,-0.460859,0.838859
811913400,108.307831,-25.908470,78.411972,0.746250,-0.399409,0.813591
811933399,99.169258,-18.325191,83.556496,0.652261,-0.390215,0.789517
811953398,93.381149,-12.155010,90.181580,0.589935,-0.442826,0.781489
811973397,94.203606,-8.303144,97.448128,0.601177,-0.483387,0.752488
811993395,97.613701,-7.326890,104.427109,0.596655,-0.480097,0.734331
812013393,98.181358,-7.497210,112.351395,0.507510,-0.441511,0.713138
812033392,95.043884,-12.419302,122.631950,0.434396,-0.412715,0.711321
812053411,87.134735,-16.413933,131.083450,0.435092,-0.404160,0.725700
812073387,74.918900,-20.876083,134.814743,0.449686,-0.426744,0.744620
812093385,63.623352,-22.918966,141.183060,0.395859,-0.448987,0.774886
812113383,53.396225,-31.350119,146.876297,0.374431,-0.458453,0.767792
812133382,37.187267,-39.611046,147.884521,0.404188,-0.415741,0.772726
812153380,12.893147,-47.751522,148.594742,0.411200,-0.417253,0.721921
812173378,0.216682,-60.867847,150.459946,0.343357,-0.467353,0.715987
812193376,-1.869061,-77.864830,149.011475,0.286992,-0.429512,0.678625
812213375,-17.980839,-92.314491,142.531540,0.275393,-0.398057,0.648836
812233373,-46.631992,-109.665367,134.245010,0.243339,-0.529016,0.629363
812253373,-53.335579,-123.711624,130.000092,0.189341,-0.612315,0.560045
812273371,-49.513844,-135.116943,129.388382,0.191231,-0.677927,0.545383
812293369,-49.284904,-137.752518,123.585793,0.255156,-0.783834,0.500312
812313368,-43.131481,-136.773514,110.026428,0.334498,-0.773121,0.470754
812333366,-45.009560,-142.566315,99.604591,0.326374,-0.789045,0.444920
812353364,-44.599312,-163.684402,94.006538,0.410054,-0.993014,0.437312
812373361,-16.907751,-192.017715,117.346054,0.383295,-1.234058,0.400519
812393359,32.619076,-190.540894,131.886230,0.326064,-1.124133,0.437751
812413358,77.434494,-156.587372,109.861900,0.594594,-0.879817,0.553184
812433356,69.016953,-111.689140,97.195908,0.488831,-0.489310,0.686684
812453354,-17.101730,-113.284691,97.193756,0.326679,-0.506869,0.629771
812473353,-50.842751,-135.286194,97.364029,0.389341,-0.919576,0.481857
812493351,-17.829287,-124.412773,87.930748,0.477185,-0.957965,0.425865
812513349,1.865507,-103.881393,79.654411,0.429693,-0.728818,0.455160
812533348,-7.105586,-98.264992,71.964211,0.382298,-0.691795,0.443806
812553348,-1.780686,-93.415833,58.824253,0.436786,-0.722209,0.368474
812573346,15.292071,-74.457916,38.636074,0.467276,-0.607121,0.407330
812593344,19.320654,-54.158501,20.279646,0.404232,-0.564841,0.466979
812613343,18.978436,-40.310616,0.756539,0.363929,-0.535990,0.504897
812633341,16.761747,-17.635521,-20.424280,0.512305,-0.559551,0.507574
812653353,-6.815853,26.870869,-36.309750,0.646860,-0.411799,0.715271
812673336,-76.626900,30.316061,-54.047302,0.403915,-0.204209,0.746395
812693334,-150.104248,14.398429,-69.750099,0.473170,-0.592499,0.516716
812713332,-181.097214,21.558903,-76.814758,0.557299,-1.112611,0.187870
812733331,-133.309204,32.883507,-91.751106,0.594094,-1.379047,-0.080768
812753329,-38.948326,62.214725,-112.050575,0.505383,-1.504362,-0.170952
812773327,86.136917,91.183296,-145.741974,0.362537,-1.325651,-0.237255
812793326,171.110443,96.661781,-183.444916,0.256667,-0.987513,-0.212320
812813324,200.736572,54.796509,-238.136078,0.211906,-0.736781,-0.220637
812833322,193.828506,4.964816,-288.353424,0.497510,-0.913345,-0.066000
812873320,119.710442,6.585755,-405.036804,1.718706,-0.133441,0.200573
812893319,150.014236,66.682869,-356.583893,1.306762,0.814096,0.690491
812913317,104.797859,3.530898,-346.705902,1.188584,1.032571,1.222389
812933315,-98.355721,104.020828,-333.428558,1.571646,0.531428,0.686281
812953312,-365.295074,128.054382,-208.935333,1.322030,-2.171412,0.386244
812973310,-230.820175,-68.032227,-2.049986,0.652487,-2.438480,0.176818
812993309,-21.254749,-40.894085,135.177628,0.942720,-2.226264,0.412639
813013307,170.380035,52.677109,210.524979,1.483448,-0.983081,0.231417
813033306,235.121689,82.279129,202.579330,1.331697,-0.231137,0.251813
813053304,240.735260,42.418259,144.667862,0.798049,-0.126438,0.120138
813073302,192.249603,-26.597515,154.169403,0.670520,0.140103,0.147324
813093300,56.519508,-62.160076,180.195587,0.581351,0.354687,0.208896
813113299,-91.747086,-63.964890,160.096863,0.536840,0.168636,0.278807
813133298,-162.900894,-76.268394,150.644119,0.595659,-0.370643,0.180323
813153297,-106.456985,-83.393356,165.906036,0.681785,-0.968926,0.045621
813173295,20.664162,-84.682289,167.246246,0.812791,-1.137386,-0.034117
813193293,137.305542,-85.403152,150.104553,0.899097,-0.813454,0.013312
813213292,175.325653,-91.611038,136.872971,0.899970,-0.350149,0.195568
813233290,114.268967,-101.067253,142.286285,0.883054,-0.098830,0.466464
813253289,-13.156334,-97.089073,148.390228,0.840786,-0.238908,0.588687
813273285,-80.583466,-80.892830,142.286972,0.831951,-0.693218,0.527714
813293283,-50.755592,-50.888000,144.028519,0.790463,-1.029455,0.442705
813313282,10.471087,-26.003946,152.268890,0.701358,-0.968533,0.311709
813333280,58.675407,-16.388067,161.823456,0.566360,-0.912125,0.311855
813353278,95.334183,-12.747830,156.821518,0.634607,-0.787193,0.376663
813373277,94.601700,2.795400,134.366760,0.635316,-0.392670,0.484903
813393275,39.616562,24.157925,97.580734,0.531954,-0.093258,0.519945
813413274,-17.776505,41.098328,61.053711,0.559895,-0.091333,0.524301
813433273,-48.319386,50.942673,44.475658,0.643417,-0.054201,0.701806
813453271,-107.477158,87.845139,45.900887,0.499671,-0.165298,0.761356
813473270,-164.047028,116.568481,51.029449,0.319537,-0.427305,0.537990
813493268,-185.918701,115.496857,25.653639,0.499171,-0.642644,0.252764
813513266,-163.407547,114.324280,8.602009,0.338066,-0.788815,0.046326
813533264,-112.618111,113.880211,-11.751019,0.329292,-0.809654,-0.152386
813553262,-36.071129,131.224274,-33.123070,0.405773,-0.867988,-0.145064
813573260,25.734463,173.698776,-52.261898,0.298341,-0.831023,0.049129
813593258,26.801006,138.639679,-95.424065,-0.080795,-0.745365,0.111678
813613256,-19.080875,81.210518,-142.001633,0.068966,-0.929215,0.026071
813633255,-9.839398,50.453560,-168.524902,0.100346,-0.980840,-0.034756
813653253,48.201721,32.300716,-182.044571,0.064939,-0.862345,-0.077798
813673251,85.348000,15.603863,-213.052628,0.124855,-0.723702,0.005324
813693249,79.168846,-9.554665,-254.965103,0.393799,-0.750806,-0.035518
813713248,74.843079,-30.636883,-304.549438,0.876929,-0.830401,0.034968
813733247,76.364273,-43.703342,-374.616241,1.454342,-0.696810,0.290304
813753246,137.518524,2.554017,-389.080444,1.857148,-0.446708,0.170475
813773244,300.641052,8.514431,-322.666870,1.303831,0.383381,0.806904
813793242,105.076126,-13.320470,-275.014618,1.510260,1.031778,1.046399
813813241,-218.339035,48.587742,-224.741425,1.348585,-0.354900,0.680687
813833239,-392.886353,-12.549826,-142.475677,1.237009,-2.237264,0.372170
813853242,-201.208542,-19.026299,1.118695,1.260571,-2.272483,0.340840
813873234,48.651711,40.421139,91.431854,0.752801,-1.504400,-0.124677
813893233,262.457520,-7.481840,85.641594,1.032827,-0.871700,-0.015460
813913231,334.277466,-36.036942,97.890686,1.146831,-0.287198,0.068836
813933229,275.368408,-22.147518,123.676178,0.971348,0.480156,0.311507
813953228,100.734322,-16.429754,129.357147,0.654563,0.653249,0.560517
813973226,-85.686020,-16.607845,111.332748,0.684663,0.236256,0.446000
813993224,-172.250046,-20.138296,108.202881,0.847206,-0.339089,0.210556
814013222,-134.448196,-42.439590,127.988358,0.852831,-0.913462,0.052056
814033221,-9.501026,-59.002743,148.869629,0.839998,-1.141482,0.024872
814053221,109.139923,-63.464191,153.143097,0.906286,-0.953397,0.072180
814073219,161.017532,-64.941200,152.198486,0.948142,-0.603306,0.192007
814093217,140.214355,-69.218941,157.586853,0.937125,-0.381989,0.318936
814113216,83.715958,-71.103188,162.557449,0.934802,-0.319059,0.393290
814133214,24.123314,-70.043686,160.902222,0.858584,-0.417903,0.367315
814173209,4.829000,-56.890785,154.174927,0.694356,-0.746820,0.218201
814193207,25.016811,-51.424397,157.994385,0.691971,-0.857635,0.284552
814213206,56.707043,-41.322815,163.662933,0.742059,-0.941203,0.401456
814233204,91.384178,-20.212524,167.497269,0.763267,-0.952539,0.441158
814253203,122.364487,3.945448,163.742950,0.758844,-0.721451,0.460276
814273201,109.945656,21.669973,150.663681,0.668996,-0.463044,0.546618
814293199,75.633949,33.253304,131.929153,0.585989,-0.270773,0.589075
814313198,33.307323,46.001633,106.416946,0.483303,-0.226730,0.579793
814333196,9.187596,57.718643,73.515686,0.419253,-0.186815,0.529825
814353195,-15.708013,64.750374,42.645439,0.356926,-0.164826,0.481245
814373194,-41.964264,67.530815,14.946802,0.341253,-0.186298,0.405981
814393192,-41.560596,72.767258,-19.374580,0.393469,-0.238835,0.528267
814413190,-34.374939,100.931534,-51.353493,0.358049,-0.220292,0.590018
814433188,-74.614845,140.871399,-91.688011,0.222218,-0.237596,0.577149
814453189,-125.812904,145.990021,-138.167664,0.201255,-0.203247,0.379930
814473183,-167.851257,127.072784,-177.945984,0.458323,-0.108058,0.310454
814493182,-195.806305,85.582962,-187.076172,0.485684,-0.145802,0.101967
814513180,-162.339951,62.054375,-161.687408,0.494530,-0.693576,-0.016228
814533178,-78.847435,70.405304,-137.310028,0.373376,-1.148638,-0.156402
814553177,10.905531,48.083656,-152.521118,0.403735,-1.129163,-0.217967
814573175,100.693420,18.836489,-186.038177,0.506245,-0.997914,-0.200982
814593173,149.337433,-1.868831,-235.691391,0.630918,-0.831840,-0.055237
814613172,140.507782,-40.729275,-310.062378,0.818230,-0.501897,0.250621
814633170,67.329895,-72.654480,-386.351868,1.342022,-0.186351,0.627041
814653170,-6.587523,-41.833458,-419.097046,2.113318,0.218114,0.132191
814673168,68.562759,26.422441,-335.609924,1.196692,0.868395,0.662734
814693166,-107.245834,26.139656,-304.544983,1.376230,0.529137,0.478108
814713165,-335.033722,55.425426,-278.855804,2.062004,-1.723676,-0.053397
814733163,-236.809830,-83.658966,-103.904480,1.585232,-2.775250,0.538645
814753162,-30.474056,-0.583220,72.220901,1.597714,-2.533820,0.447858
814773158,159.965210,64.835190,138.422546,1.103473,-0.687525,0.127182
814793157,263.537689,22.830416,148.733322,1.261815,-0.174922,0.036343
814813155,266.100800,-21.730164,135.579178,1.056847,0.126711,0.165010
814833153,148.555450,-48.577721,141.534561,0.874953,0.543771,0.211774
814853151,-18.574118,-57.789124,130.682373,0.672868,0.446135,0.445849
814873150,-159.823914,-55.666908,118.079933,0.832253,-0.029837,0.333631
814893148,-189.908218,-38.602325,127.669556,1.006322,-0.747028,0.075034
814913146,-91.462875,-44.246540,148.918762,0.993739,-1.144605,-0.035468
814933145,50.929501,-53.909302,167.204071,0.998267,-1.119633,-0.049762
814953144,151.473190,-56.724411,163.740631,0.996097,-0.848649,0.016289
814973143,160.629562,-60.406723,157.962784,0.994598,-0.417130,0.152763
814993141,90.352066,-56.015560,159.563400,0.975870,-0.231843,0.323313
815033138,-40.288357,-40.928879,116.342392,0.809310,-0.525361,0.306625
815053136,-31.514305,-48.988773,103.647949,0.765566,-0.785127,0.136956
815073133,16.898666,-46.104916,120.010681,0.682345,-1.005767,0.146440
815093131,73.500511,-40.307137,148.040970,0.742866,-0.925865,0.280184
815113130,105.648033,-13.834367,168.702698,0.853678,-0.894417,0.316938
815133128,139.632599,32.864365,167.036270,0.772101,-0.810642,0.282174
815173125,130.343994,58.369446,148.359894,0.651690,-0.339427,0.494466
815193123,87.546806,71.469208,124.337738,0.616350,-0.152505,0.583094
815213121,40.309875,86.948578,92.908096,0.517546,-0.068983,0.632171
815233119,-1.534204,100.597771,63.042793,0.436564,-0.077417,0.621633
815253119,-35.538269,110.626770,33.355659,0.408308,-0.188884,0.527831
815273117,-45.825237,110.925705,6.378060,0.325763,-0.285537,0.397863
815293115,-43.966751,98.779121,-23.410358,0.236347,-0.287099,0.308689
815313114,-41.679840,77.711662,-59.376553,0.144397,-0.215365,0.242992
815333112,-31.187691,60.062710,-101.270012,0.179701,-0.181851,0.305863
815353126,-20.143837,68.830467,-124.127823,0.351798,-0.248045,0.388336
815373107,-34.758064,91.947746,-123.481911,0.278639,-0.182955,0.438776
815393106,-72.490974,85.521553,-150.630432,0.085632,0.144538,0.454696
815413104,-159.090286,26.423206,-166.176331,0.131820,0.199401,0.183314
815433102,-222.022644,-21.249571,-155.428848,0.329935,-0.343521,-0.084105
815453100,-193.303131,-46.997669,-144.409088,0.482009,-1.061666,-0.302227
815473099,-77.370033,-35.601139,-164.946167,0.700995,-1.408972,-0.374592
815493097,36.350533,-22.343555,-233.858963,0.853033,-1.345729,-0.233924
815513095,108.672516,-23.838331,-322.296814,1.172876,-1.044441,0.120868
815533094,126.957298,-26.835537,-399.287231,1.686848,-0.639420,0.458872
815553094,227.450089,26.522984,-370.153198,1.386892,0.521243,0.641067
815573092,23.602104,-24.586721,-308.492004,1.615046,2.048616,1.255677
815593090,-433.426117,104.317223,-290.581757,2.150301,-0.125942,-0.046226
815613088,-619.789551,-47.931702,-142.335114,1.448142,-2.571225,-1.155202
815633087,-329.206268,-117.715576,28.619228,0.973085,-4.357868,-0.751066
815653095,232.321320,-22.695427,107.855911,1.276589,-2.589275,-0.110580
815673082,361.221252,-1.750687,134.499359,1.532133,0.078761,-0.016827
815693080,212.431808,-53.022118,137.752014,0.976330,0.702957,-0.018604
815713079,-7.836539,-110.084343,138.074554,0.872073,0.544677,-0.021418
815733077,-168.886429,-119.327278,158.298813,0.810661,-0.000921,0.029036
815753075,-194.526611,-120.036163,159.239868,0.876240,-0.873419,-0.126197
815773073,-106.687080,-120.708862,128.596329,0.966057,-1.283356,-0.237211
815793072,8.979849,-117.098007,120.786644,1.027882,-1.389768,-0.282659
815813070,125.939758,-111.653458,134.058487,1.066162,-1.421617,-0.348829
815833070,211.516220,-98.692825,149.202667,1.177067,-1.043935,-0.294954
815853068,217.838089,-74.925781,169.257477,1.168198,-0.781203,-0.104059
815873067,177.128326,-41.501213,179.923386,1.033251,-0.724701,0.017130
815893065,148.432297,-15.117020,179.364914,0.885147,-0.844230,0.065456
815913064,157.889389,4.452846,177.796738,0.761355,-0.878492,0.028796
815933062,183.212158,13.333578,168.080841,0.665195,-0.806481,0.001637
815953061,211.847031,14.825438,153.785736,0.526140,-0.762584,0.080746
815973057,226.329788,23.406906,145.298599,0.527268,-0.527744,0.236778
815993056,184.868683,34.326176,128.636353,0.494771,-0.394699,0.369955
816013063,142.812347,46.861946,111.619934,0.449227,-0.487840,0.438519
816033052,116.101860,47.779049,92.800247,0.353681,-0.490146,0.478913
816053050,113.727432,48.005020,71.265953,0.261228,-0.489620,0.480346
816073048,118.670265,57.677925,42.648823,0.229416,-0.290359,0.591532
816093047,96.628403,75.836143,17.095428,0.225156,-0.092860,0.677665
816113045,56.260265,92.794022,-5.496259,0.193618,-0.047987,0.660239
816133045,21.936312,99.000893,-29.297915,0.158352,-0.143391,0.573234
816153043,13.194378,88.229080,-51.946362,0.119746,-0.259966,0.532860
816173041,18.459736,73.246643,-76.303970,0.085130,-0.283530,0.511985
816193039,20.757839,62.788780,-96.929649,0.092024,-0.188988,0.490351
816213038,11.262053,42.919308,-108.871544,0.063248,-0.145342,0.512013
816233036,7.938345,19.807880,-119.025894,0.105481,-0.187672,0.437105
816253038,14.613037,2.839175,-128.706619,0.089426,-0.133461,0.453533
816273031,-4.468740,-14.781863,-141.716827,0.063097,-0.092217,0.539655
816293030,-40.624626,-35.128181,-165.640518,0.105554,-0.221999,0.490539
816313028,-55.046101,-47.614525,-196.340958,0.163549,-0.224867,0.433153
816333026,-80.997520,-59.459583,-211.017822,0.298840,-0.300522,0.543222
816353024,-128.594147,-88.679810,-181.288910,0.631319,-0.575912,0.455388
816373023,-117.580826,-64.408310,-195.568802,1.249408,-0.404624,0.483060
816393021,-142.028885,-19.741638,-229.833817,1.024956,-0.008630,0.576514
816413019,-216.246933,-74.572746,-236.913971,0.908979,-0.022067,0.120017
816433019,-234.466888,-100.153717,-252.544205,1.466725,-0.590799,-0.122314
816453018,-220.548462,-17.804188,-304.413391,1.512318,-1.006581,-0.167369
816473016,-34.757713,62.772202,-338.684418,1.200402,-0.895678,0.113569
816493014,34.947594,43.423321,-278.295227,1.462838,0.362621,0.309595
816513012,-258.208069,-42.224754,-232.187759,1.274578,-1.846099,-0.119008
816533011,-196.672623,-223.791382,-40.955647,1.437433,-3.843092,0.195356
816553013,100.972572,-36.576096,106.482193,1.293867,-2.954949,0.159467
816573006,340.598724,9.420754,174.363434,1.077104,-1.104314,-0.107583
816593004,369.300140,11.100522,214.827972,1.457130,-0.242970,-0.084335
816613003,343.772278,-26.228939,230.935623,1.236335,0.403591,-0.174118
816633001,175.067657,-107.933250,199.133499,0.996603,0.492619,0.209772
816652999,-9.191895,-132.101471,118.551468,1.041307,-0.061645,0.224758
816672998,-4.211154,-82.109573,81.430115,1.271591,-0.780543,0.508214
816692996,55.468941,-37.428040,138.185547,1.149019,-1.255641,0.242637
816712994,94.748398,-18.915018,125.869659,1.160273,-0.833995,0.248039
816732993,114.154350,-2.176429,93.970314,1.013250,-0.341684,0.287978
816752993,98.806290,12.789722,90.917648,0.974803,-0.184547,0.278974
816772991,43.147049,20.924166,94.653511,0.991291,-0.378069,0.349157
816792989,9.093929,10.552252,94.962463,0.813655,-0.490520,0.282965
816812987,-11.444164,-12.674700,74.240608,0.633401,-0.501243,0.219470
816832986,0.145027,-28.168455,55.206371,0.529998,-0.780790,0.180034
816853010,69.919762,-18.785114,49.236805,0.627017,-1.028109,0.135828
816872981,143.494644,11.761626,48.047913,0.694212,-0.851421,0.258391
816892979,150.183792,21.164742,36.119762,0.495817,-0.399387,0.386912
816912977,91.355652,2.648310,21.349743,0.309756,-0.210412,0.484663
816932976,28.210724,-13.427255,15.563192,0.305701,-0.347150,0.407821
816952974,15.388180,-13.782896,3.578429,0.379658,-0.608356,0.356389
816972972,52.078003,-7.497040,-9.589725,0.373871,-0.756291,0.390165
816992970,88.524284,-10.823597,-23.959488,0.329601,-0.675746,0.381914
817012969,100.517540,-16.651199,-41.618309,0.399812,-0.492268,0.462444
817032967,84.667824,-20.786802,-46.854298,0.459829,-0.404597,0.541242
817052967,55.246956,-28.569847,-51.046642,0.457230,-0.380298,0.551971
817072965,37.561962,-35.287380,-56.756500,0.453879,-0.427002,0.523192
817092963,36.085243,-36.244812,-56.935394,0.513710,-0.457097,0.509845
817112962,44.585941,-32.440918,-55.296822,0.572396,-0.452210,0.499962
817132960,49.422287,-31.228699,-50.802799,0.566852,-0.474426,0.546494
817152958,49.686016,-37.397629,-45.836472,0.578664,-0.477723,0.574941
817172955,45.495335,-40.838120,-50.323338,0.672980,-0.411157,0.589188
817192954,42.267056,-35.911190,-53.629040,0.676805,-0.353205,0.598006
817212952,40.079929,-29.445469,-48.488407,0.689735,-0.376258,0.676936
817232950,29.397734,-22.855030,-39.730251,0.709076,-0.373707,0.642429
817252949,14.983593,-24.250021,-36.907131,0.669377,-0.407007,0.537186
817272947,14.087312,-31.198029,-41.051170,0.615780,-0.501133,0.493305
817292945,28.777466,-37.711208,-43.938503,0.683563,-0.490133,0.511150
817312944,50.918686,-38.195633,-44.539001,0.782326,-0.469788,0.605329
817332942,66.551208,-39.339207,-43.260139,0.831181,-0.386535,0.657447
817352942,61.014618,-33.069118,-37.943741,0.810591,-0.184662,0.713703
817372940,38.226402,-34.897236,-28.438583,0.835515,-0.063360,0.689377
817392938,10.896443,-41.270214,-13.602935,0.938408,-0.018291,0.668832
817412936,-17.999493,-37.865665,-2.467338,0.945323,-0.198956,0.600528
817432935,-7.483383,-28.578333,-2.641067,0.873554,-0.425152,0.562690
817452934,23.516968,-21.601320,-5.162496,0.888192,-0.445000,0.525105
817472930,51.268269,-13.498468,-2.065877,0.939520,-0.313233,0.502526
817492928,60.806278,-5.159502,3.065897,0.959310,-0.238596,0.525659
817512927,58.845066,0.672901,8.246363,0.974827,-0.163399,0.549836
817532925,46.397434,5.006194,15.913311,0.974648,-0.083303,0.569127
817552924,25.161638,9.304626,22.260281,0.966743,-0.082535,0.534830
817572922,10.185240,14.481710,29.486595,0.944728,-0.128588,0.485785
817592920,3.181974,22.127848,33.055614,0.882583,-0.236207,0.464556
817612919,9.159067,26.395384,32.864578,0.839798,-0.321953,0.444189
817632917,25.497990,26.511936,31.740705,0.846874,-0.285383,0.424726
817652917,33.691639,25.241966,30.873108,0.863990,-0.237168,0.408012
817672915,36.062279,23.427925,29.191050,0.858279,-0.213864,0.395373
817692914,38.047646,20.929810,26.115574,0.844989,-0.193903,0.423848
817712912,33.389217,16.708633,23.974979,0.830605,-0.153825,0.446166
817732910,23.678963,12.094340,21.152502,0.824376,-0.134878,0.465058
817752908,13.116497,7.976327,17.959305,0.818398,-0.120500,0.463592
817772905,1.637617,5.366561,13.897130,0.822507,-0.126261,0.435536
817792903,-9.210858,5.644528,8.131933,0.801566,-0.161624,0.404489
817812902,-12.131417,6.640074,0.792204,0.757130,-0.233498,0.398123
817832900,-6.440225,5.745038,-4.549271,0.749412,-0.253150,0.391962
817852898,-0.982494,3.208653,-3.947157,0.762049,-0.288890,0.371567
817872896,5.338709,-1.102235,0.876687,0.777518,-0.333430,0.350333
817892895,15.907278,-7.178680,4.100873,0.811135,-0.315887,0.355510
817912893,19.844948,-12.261047,8.832712,0.869034,-0.334956,0.372896
817932892,21.715300,-18.752279,11.072599,0.927775,-0.283004,0.418571
817952891,11.547754,-17.675777,2.017759,1.003486,-0.206016,0.511009
817972889,-6.502796,-9.068398,-7.437976,1.023371,-0.240664,0.520498
817992888,-6.557432,0.231706,-4.721326,0.981130,-0.330963,0.500389
818012896,-7.829008,9.522676,5.075906,0.917302,-0.326603,0.481801
818032885,-12.662697,10.758077,13.596044,0.851961,-0.347768,0.405212
818052883,-6.272913,8.049381,18.663086,0.831065,-0.394263,0.409455
818072880,8.857401,6.684332,24.444052,0.828306,-0.387148,0.419808
818092878,21.859995,5.489919,29.565218,0.843901,-0.306139,0.437329
818112876,17.487131,4.883768,31.016619,0.843040,-0.224340,0.466621
818132875,0.651096,10.004519,26.738688,0.817363,-0.210596,0.480563
818152873,-10.434702,15.084473,20.458849,0.791689,-0.276937,0.463081
818172872,-5.793412,18.007521,15.682414,0.781147,-0.321778,0.439400
818192870,7.864813,17.977533,9.343109,0.774000,-0.351353,0.439418
818212868,17.851173,14.192467,1.662119,0.821483,-0.302203,0.463131
818252866,-1.215376,10.815416,-6.343970,0.848203,-0.234024,0.502670
818272864,-13.575560,8.751181,-8.421164,0.835826,-0.263589,0.508290
818292863,-18.234825,9.141485,-9.283173,0.836746,-0.294112,0.498461
818312867,-17.358395,9.037174,-9.864252,0.839174,-0.287472,0.496012
818332859,-16.559692,8.569299,-9.972171,0.821771,-0.251956,0.531777
818352857,-22.257111,7.199112,-11.269818,0.795380,-0.190608,0.561583
818372854,-39.266483,2.684519,-13.466656,0.806778,-0.084741,0.562990
818392853,-65.418221,1.497395,-9.124185,0.884819,-0.116965,0.485003
818412851,-78.766968,4.681505,-8.036534,0.835875,-0.361501,0.425419
818432849,-59.409622,6.351205,-12.730123,0.762359,-0.487962,0.436565
818452848,-33.788570,4.918359,-16.746723,0.729183,-0.456519,0.431096
818472847,-23.852730,4.196966,-16.659649,0.768117,-0.394084,0.430346
818492845,-24.161825,5.063613,-17.399302,0.824750,-0.450469,0.455499
818512843,-19.617912,4.687212,-18.520254,0.816250,-0.477221,0.472882
818532841,-11.366120,5.837168,-17.126886,0.807377,-0.435457,0.481455
818552851,-5.826587,7.286793,-11.991213,0.814837,-0.444067,0.494341
818572839,3.734606,10.658556,-5.932707,0.815243,-0.468885,0.494909
818592838,17.689392,14.069004,-0.373204,0.809891,-0.450252,0.505789
818612836,27.647625,14.273709,5.348276,0.772057,-0.395978,0.526192
818632835,29.690790,13.483562,10.434081,0.733076,-0.349861,0.521169
818652833,27.531950,16.357851,13.949404,0.730835,-0.358120,0.518811
818672830,28.403477,14.755239,17.433182,0.742776,-0.379058,0.509036
818692828,30.622355,9.399222,19.689129,0.729196,-0.333163,0.513394
818712826,27.964840,2.200058,19.467928,0.694981,-0.312167,0.532338
818732825,22.193607,-0.246586,17.841124,0.677027,-0.312397,0.546847
818752823,15.743187,2.246435,15.526295,0.657911,-0.311364,0.527209
818772821,8.080937,1.516453,14.614689,0.627837,-0.328356,0.489495
818792819,13.456492,-5.520902,14.690429,0.595784,-0.393913,0.498298
818812818,29.000542,-15.677422,14.239901,0.664530,-0.319280,0.498391
