Timestamp (us),Gyroscope X (deg/s),Gyroscope Y (deg/s),Gyroscope Z (deg/s),Accelerometer X (g),Accelerometer Y (g),Accelerometer Z (g)
4339343856,0.017981,-0.161512,0.018009,0.995347,0.011233,0.036218
4339363902,-0.043353,-0.031658,0.003478,0.997199,0.011602,0.037548
4339383946,0.018452,-0.092462,0.040593,0.998810,0.012784,0.035884
4339403991,0.039885,0.075080,-0.052019,0.996990,0.010599,0.036100
4339424037,0.018649,-0.000949,0.063225,0.998352,0.012510,0.035802
4339444082,-0.136565,-0.001340,-0.078929,0.998215,0.011696,0.038166
4339464127,-0.127480,0.090178,-0.018126,0.996621,0.012417,0.036013
4339484173,0.094704,0.044307,0.000655,0.997462,0.010601,0.036909
4339504219,-0.043170,0.036570,-0.004266,0.995807,0.011689,0.036391
4339524264,0.017766,0.066954,-0.020839,0.999403,0.010788,0.038147
4339544309,0.125057,0.036351,0.000127,0.999008,0.014242,0.036786
4339564355,-0.096499,0.089527,0.011956,0.996345,0.012872,0.035926
4339584401,0.023761,0.096722,-0.104999,0.995110,0.011054,0.038129
4339604447,0.080213,0.104461,0.062100,0.997582,0.012423,0.038538
4339624493,-0.074459,0.050633,-0.034118,0.996379,0.013148,0.037741
4339644538,0.009342,0.088624,-0.051058,0.996172,0.012144,0.036384
4339664584,-0.165581,0.042698,-0.009196,0.995205,0.011965,0.038398
4339684638,-0.118638,0.012252,0.028163,0.994983,0.007594,0.036049
4339704675,0.170687,-0.003089,-0.038496,0.995093,0.008406,0.032233
4339724720,0.124807,-0.086814,-0.022015,1.002789,0.009139,0.028651
4339744778,0.122974,0.103567,-0.106478,1.004656,0.010857,0.021173
4339764810,-0.015153,0.339251,-0.127263,1.013307,0.014051,0.019930
4339784855,-0.175571,0.741803,-0.148040,1.008137,0.018687,0.022190
4339804901,-0.236298,0.755023,-0.146601,0.996358,0.017314,0.027204
4339824946,-0.464416,0.699765,-0.133866,0.986198,0.014485,0.030741
4339844992,-0.445778,0.302469,0.012429,0.979457,0.012757,0.036487
4339865037,-0.550119,-0.276642,0.107955,0.980757,0.007848,0.037290
4339885083,-0.343704,-0.542411,0.051150,0.990822,0.008055,0.043109
4339905128,0.022628,-0.761851,-0.008705,0.996966,0.008893,0.049266
4339925173,0.061237,-0.638038,0.020614,1.000799,0.006351,0.048933
4339945219,0.198969,-0.537268,0.040471,1.000752,0.007629,0.051383
4339965265,0.128825,-0.345893,-0.019938,1.001239,0.010544,0.053185
4339985312,0.105954,-0.207978,-0.004703,1.001839,0.013825,0.056165
4340005357,0.166834,-0.108385,-0.006198,1.002877,0.011828,0.057785
4340025403,0.089357,0.005904,-0.050814,0.999296,0.013103,0.061747
4340045448,0.233874,-0.077847,-0.060928,0.994863,0.013456,0.059189
4340065494,0.158382,-0.039428,0.016952,0.992241,0.013182,0.060596
4340085539,0.188427,-0.077407,0.008806,0.991847,0.017091,0.059326
4340105584,0.387317,-0.259694,0.066549,0.994097,0.021913,0.057827
4340125629,0.172158,-0.304963,0.047788,0.992777,0.020460,0.060394
4340145674,-0.088256,-0.372684,0.030067,0.993381,0.022914,0.058654
4340165719,-0.307084,-0.341079,0.163982,0.994630,0.018910,0.056824
4340185765,-0.345306,-0.561116,0.126903,0.985680,0.002958,0.046201
4340205810,0.071825,-0.833120,0.348313,0.989411,0.006957,0.040865
4340225856,0.221109,-0.937962,0.169386,1.002352,0.010976,0.039549
4340245901,0.196232,-0.745301,0.092387,1.012338,0.021283,0.046624
4340265947,-0.745329,-0.431868,0.002458,1.007146,0.050093,0.034591
4340285992,-2.203334,-0.203012,-0.076710,1.003847,0.040616,0.028581
4340306038,-3.115166,0.040809,-0.090150,0.999770,0.027967,0.029579
4340326083,-3.716904,0.002697,-0.024792,0.997595,0.013044,0.029550
4340346130,-3.481458,0.040657,-0.113543,0.997769,0.007312,0.028740
4340366176,-3.368628,-0.005276,-0.214918,0.994730,0.002119,0.027075
4340386221,-2.763569,-0.004980,-0.157887,0.994128,-0.002427,0.028818
4340406267,-2.512378,-0.126984,-0.215845,0.995397,-0.003336,0.028253
4340426312,-2.343584,-0.210687,-0.180634,0.990754,0.011472,0.020229
4340446357,-2.187920,-0.377936,-0.022628,0.996140,0.001107,0.019428
4340466403,-2.057673,-0.316904,-0.010075,0.998386,0.005929,0.017747
4340486448,-1.645980,-0.210263,-0.079550,1.004752,0.003570,0.016100
4340506493,-1.270709,-0.103397,-0.048981,1.005765,-0.001076,0.011370
4340526538,-0.607687,0.117489,-0.177203,1.005108,-0.007811,0.010030
4340546584,0.266942,0.339101,-0.019159,1.007727,-0.010813,0.008266
4340566629,0.932256,0.468841,-0.017218,1.006149,-0.009808,0.011831
4340586675,1.697492,0.613916,0.013299,1.001163,-0.013625,0.018459
4340606720,2.905243,0.576099,-0.002369,0.997426,-0.020180,0.018533
4340626765,4.090387,0.622142,-0.002595,0.998673,-0.021083,0.021600
4340646811,5.352645,0.653050,0.033941,0.996570,-0.019804,0.026445
4340666856,6.317641,0.440148,0.130546,0.991678,-0.010709,0.029146
4340686902,7.222113,0.349239,0.258486,0.987976,-0.009246,0.036378
4340706947,8.145333,0.181588,0.157074,0.994011,-0.012122,0.051167
4340726994,8.906384,0.106122,0.387084,0.984294,0.016602,0.046202
4340747040,7.403081,-0.588342,0.151116,0.965331,0.103216,0.014609
4340767085,2.793055,-1.482090,-0.214942,0.984195,0.153353,0.005671
4340787130,-0.657030,-1.040274,0.095059,1.035422,0.061918,0.062321
4340807176,-3.068100,-0.317326,-0.074523,1.020668,0.099897,0.047531
4340827221,-6.002536,0.336451,-0.432398,1.011798,0.082869,0.045986
4340847267,-7.707477,0.435071,-0.430209,0.995660,0.060814,0.036494
4340867311,-9.062458,0.335429,-0.518207,1.007103,0.042984,0.026978
4340887357,-10.690772,0.533156,-0.510193,1.004497,0.061115,0.044966
4340907402,-13.009325,0.486573,-0.610236,0.989647,0.079120,0.052997
4340927447,-15.494868,0.059087,-0.629356,0.984648,0.099031,0.050688
4340947493,-19.273287,-0.231671,-0.692617,0.978176,0.117393,0.047682
4340967538,-23.211395,-0.545221,-0.706855,0.987519,0.120104,0.029817
4340987584,-27.724283,-0.645729,-0.802346,0.994506,0.122749,0.027514
4341007629,-32.464813,-0.609898,-1.230098,0.999014,0.124206,0.024439
4341027675,-36.751236,-0.604038,-1.490808,0.992947,0.127651,0.022631
4341047720,-41.212132,-0.689489,-1.671414,0.997369,0.124650,0.019565
4341067766,-45.231392,-0.813160,-1.952161,0.998904,0.136114,0.019338
4341087813,-50.115932,-0.830547,-2.308168,0.996382,0.133921,0.016207
4341107858,-54.721657,-0.954081,-2.462913,0.994259,0.120897,0.009366
4341127903,-58.990952,-1.100385,-2.616468,1.001235,0.120083,0.006253
4341147949,-63.497185,-1.002890,-2.773880,1.006360,0.135923,0.007773
4341167994,-67.997910,-1.019976,-3.045638,0.989189,0.134433,0.002894
4341188040,-72.368263,-1.235106,-3.288701,0.987550,0.128418,-0.002061
4341208085,-76.614189,-1.587097,-3.411460,0.979834,0.126765,-0.004468
4341228144,-81.188255,-1.977194,-3.497158,0.987202,0.121124,-0.011302
4341248175,-85.098656,-2.230146,-3.672606,0.992623,0.108926,-0.020089
4341268220,-88.995697,-2.619520,-3.526918,0.995918,0.122098,-0.033511
4341288266,-93.562927,-2.499159,-3.675580,1.009092,0.145650,-0.050387
4341308311,-98.067200,-2.355688,-3.726202,0.999549,0.137973,-0.062920
4341328357,-103.071823,-2.113722,-3.966121,1.020286,0.154272,-0.071471
4341348402,-108.331551,-1.369245,-4.378516,1.019244,0.163902,-0.077733
4341368448,-113.857590,-0.944727,-4.708263,1.017119,0.134302,-0.095440
4341388493,-118.658730,-0.351563,-4.701132,1.027910,0.127917,-0.114586
4341408539,-123.042969,-0.055952,-4.884495,1.016582,0.117338,-0.120185
4341428584,-126.747849,-0.095598,-5.118131,1.008055,0.093832,-0.133072
4341448630,-130.407837,-0.645925,-5.389145,0.991550,0.102064,-0.145695
4341468677,-134.225052,-0.882433,-5.062119,1.006072,0.149288,-0.152557
4341488722,-139.110657,-0.831375,-5.479465,1.004424,0.152146,-0.181764
4341508768,-143.373123,-0.474841,-5.695959,1.017634,0.122047,-0.185479
4341528813,-146.755280,-0.430370,-5.844440,1.037983,0.104697,-0.187613
4341548859,-150.034119,1.114851,-6.252089,1.074374,0.067806,-0.192802
4341568904,-151.504822,3.117264,-6.895024,1.078515,0.014252,-0.179893
4341588950,-152.018188,4.624818,-7.432625,1.059926,-0.013313,-0.164643
4341608994,-151.190002,5.401637,-7.749298,0.966900,-0.031225,-0.133797
4341629039,-149.824707,3.908978,-7.457521,0.944817,-0.032597,-0.171635
4341649085,-151.222244,1.645580,-7.285321,0.935486,0.072584,-0.258253
4341669130,-155.200165,-0.330410,-7.751740,0.968529,0.075408,-0.283603
4341709221,-162.487076,-0.812492,-7.753925,1.035992,0.101293,-0.259742
4341729266,-166.691956,-0.395443,-8.170416,1.048903,0.111388,-0.272052
4341749312,-171.150909,-0.000561,-8.260962,0.997310,0.092655,-0.277223
4341769357,-173.673218,-0.077333,-8.211762,0.965878,0.018631,-0.287185
4341789403,-174.142838,-1.144722,-8.351925,0.953783,-0.029048,-0.282452
4341809448,-173.094528,-2.157836,-8.269555,0.960447,-0.097969,-0.267473
4341829495,-170.885498,-2.775568,-8.707719,0.974474,-0.113550,-0.241361
4341849541,-168.671082,-3.849818,-8.831167,0.996993,-0.088302,-0.232346
4341869586,-166.395309,-4.229586,-8.545479,1.015678,-0.104192,-0.230641
4341889631,-164.150574,-3.664495,-8.315826,1.018041,-0.088524,-0.220540
4341909677,-162.850891,-3.990848,-7.889113,1.008716,-0.076091,-0.229933
4341929722,-161.860718,-3.868156,-7.679492,1.038294,-0.047688,-0.243647
4341949768,-161.205536,-3.166224,-7.411808,1.017063,-0.054785,-0.226752
4341969814,-160.609009,-2.777407,-7.417037,1.033263,-0.037290,-0.223971
4341989857,-160.402344,-2.541095,-7.414192,1.018775,-0.049210,-0.213083
4342009903,-159.823441,-2.761221,-7.103751,1.015033,-0.042309,-0.217388
4342029948,-158.976349,-2.852644,-7.188657,1.019065,-0.059870,-0.222602
4342049994,-158.134506,-2.646566,-7.152189,1.020397,-0.074139,-0.215793
4342070040,-157.275589,-2.699346,-7.008209,1.001040,-0.065861,-0.200317
4342090085,-156.306763,-2.600309,-7.134318,1.013471,-0.082310,-0.200864
4342110130,-155.141083,-2.287108,-6.951660,1.008834,-0.086839,-0.185437
4342130176,-153.606445,-2.895616,-6.627906,0.992996,-0.074235,-0.196262
4342150221,-152.591415,-3.298474,-6.294754,0.983252,-0.052147,-0.198221
4342170267,-152.098618,-3.899896,-6.080713,0.994893,-0.051060,-0.210585
4342190312,-150.882904,-3.304193,-5.678364,1.065673,-0.090071,-0.208641
4342210359,-149.541641,-2.625204,-5.523256,1.012739,-0.062682,-0.160852
4342230405,-148.497879,-2.488242,-5.735002,1.012753,-0.073724,-0.180260
4342250450,-146.879135,-2.372798,-5.438213,1.041439,-0.100291,-0.205941
4342270496,-145.396500,-1.640932,-5.499986,1.018513,-0.099173,-0.171783
4342290548,-143.529419,-1.335429,-5.430251,0.991375,-0.106822,-0.153334
4342310587,-141.677643,-0.999446,-5.360322,1.051832,-0.124320,-0.169586
4342330632,-139.286285,0.174492,-5.502330,1.018385,-0.126866,-0.141415
4342350695,-136.765503,0.914031,-5.660686,1.005851,-0.126688,-0.132759
4342370722,-134.289566,0.091525,-5.705991,0.984729,-0.118259,-0.133412
4342390767,-131.081482,-0.295674,-5.446012,0.993342,-0.131991,-0.137712
4342410813,-127.879448,-1.192240,-4.656959,1.003959,-0.132718,-0.146334
4342430858,-125.219658,-1.275478,-4.708293,0.983442,-0.093680,-0.122628
4342450904,-123.052048,-1.960232,-4.472982,0.999259,-0.111107,-0.113156
4342470949,-120.019333,-2.332174,-4.186726,0.986472,-0.136666,-0.100096
4342490995,-116.844704,-2.878794,-3.658115,1.003330,-0.146670,-0.112621
4342511040,-112.775475,-3.128965,-3.560488,0.991311,-0.179355,-0.117446
4342531086,-106.839928,-3.789050,-2.985735,1.008363,-0.228628,-0.112299
4342551131,-100.823265,-2.651102,-2.640144,1.072443,-0.140639,-0.050810
4342571177,-98.154961,-0.639626,-3.141821,1.059431,-0.064533,-0.009411
4342591223,-97.329506,1.622803,-3.662064,1.049637,-0.042836,0.024852
4342611269,-98.637054,1.063179,-4.918593,0.963484,0.103996,-0.005876
4342631314,-103.942413,2.205920,-4.483228,0.953618,0.123327,-0.024168
4342651360,-111.093430,-1.074006,-4.906657,0.938017,0.115305,-0.072273
4342671405,-114.712318,-2.971756,-4.547384,1.011159,0.028101,-0.059486
4342691451,-115.424690,-2.789228,-4.625866,1.032226,-0.024755,-0.025626
4342711496,-114.144630,-1.988336,-4.477618,1.050462,-0.047593,-0.043328
4342731541,-113.371368,-0.563985,-4.894720,1.076246,-0.008812,-0.049279
4342751586,-113.698990,1.644984,-5.331280,1.038100,0.015436,-0.041043
4342771631,-115.127457,3.549856,-5.325185,1.149934,0.025259,-0.136013
4342791677,-116.538948,10.186186,-5.816584,1.049942,0.000316,-0.009720
4342811722,-119.200600,8.565880,-7.501793,0.988795,0.060303,-0.042092
4342831768,-121.058289,6.105042,-6.976142,0.906600,0.013237,-0.044335
4342851813,-122.042587,3.141722,-6.335862,0.937838,-0.011575,-0.109096
4342871859,-122.603058,1.419076,-6.403307,0.950726,-0.008214,-0.123029
4342891904,-123.279411,0.512610,-6.142638,0.966716,-0.005220,-0.088539
4342911949,-124.286316,0.054434,-6.419591,0.986900,0.018152,-0.058058
4342931995,-125.519432,-0.052856,-6.532853,1.000773,0.012124,-0.083339
4342952041,-127.630814,-0.024078,-7.019239,0.989681,0.041201,-0.093365
4342972087,-129.812424,-0.474591,-7.143518,1.019260,0.042193,-0.123283
4342992133,-132.390594,-0.423126,-7.651489,1.035350,0.050529,-0.156069
4343012178,-134.917725,0.017661,-7.886653,1.046234,0.048874,-0.174862
4343032224,-137.300262,0.549841,-8.163134,1.043299,0.044692,-0.170901
4343052269,-139.494385,1.364664,-8.176762,1.015404,0.036494,-0.153890
4343072315,-140.811005,0.746862,-8.240854,0.975687,0.029978,-0.153384
4343092360,-141.914642,0.327108,-8.370870,0.961077,-0.003607,-0.150356
4343112404,-141.781403,-0.761148,-7.727952,0.952466,-0.061561,-0.145483
4343132450,-141.088577,-1.652926,-7.860690,0.979242,-0.111817,-0.138231
4343152495,-139.257477,-2.652198,-8.466003,0.993014,-0.127439,-0.135444
4343172541,-137.031006,-3.238172,-8.362067,0.983591,-0.129058,-0.116853
4343192586,-135.546844,-3.411941,-7.885952,0.925083,-0.027447,-0.122923
4343212632,-136.111649,-5.792166,-5.628123,0.898005,0.038950,-0.159881
4343232677,-138.534637,-7.149137,-5.538382,0.979566,0.046057,-0.169544
4343252723,-139.199753,-7.444514,-4.676292,1.007437,-0.040084,-0.135381
4343272768,-137.102493,-6.005395,-5.447717,1.139918,-0.106006,-0.123006
4343292814,-135.580521,-4.063730,-6.339556,1.043990,-0.088819,-0.098614
4343312859,-133.202881,-3.894485,-5.935409,1.017312,-0.081978,-0.117960
4343332906,-131.746338,-4.038384,-5.718668,0.989735,-0.044831,-0.129806
4343372997,-130.695663,-4.257689,-5.111726,1.033187,-0.041725,-0.106769
4343393043,-130.484085,-3.571134,-4.850667,1.031066,-0.054451,-0.098905
4343413088,-129.700073,-2.663570,-4.654941,1.042348,-0.048442,-0.105734
4343433133,-129.167358,-1.650247,-4.829121,1.031827,-0.036458,-0.110749
4343453179,-128.430298,-0.918100,-4.685390,1.007020,-0.044215,-0.104321
4343473225,-126.761589,-0.917406,-4.580226,1.027076,-0.068036,-0.112794
4343493268,-125.228096,-0.742159,-4.771037,1.012830,-0.062134,-0.107386
4343513314,-123.658020,-1.152891,-4.609099,0.991634,-0.066433,-0.103024
4343533359,-122.300552,-1.381591,-4.795149,0.996621,-0.058332,-0.104484
4343553405,-121.121635,-1.769726,-4.702111,1.003341,-0.066869,-0.102224
4343573450,-119.931007,-1.547703,-4.405012,1.018911,-0.066470,-0.095137
4343593496,-118.665375,-1.509727,-4.605450,1.003616,-0.062121,-0.092160
4343613541,-117.489563,-1.281017,-4.705442,1.008350,-0.060205,-0.092880
4343633587,-116.372635,-0.937720,-4.682410,1.016157,-0.051927,-0.099835
4343653632,-115.612434,-0.586560,-4.514935,1.009725,-0.030377,-0.100487
4343673678,-115.244621,-0.647319,-4.468379,1.009648,-0.032568,-0.104749
4343693723,-114.719177,-0.624590,-4.585631,0.990242,-0.019200,-0.091550
4343713770,-114.069977,-0.997906,-4.612268,1.008647,-0.060483,-0.096515
4343733816,-110.787415,-0.013683,-4.511128,1.006004,-0.253995,-0.049852
4343753861,-100.602234,-0.703304,-4.018737,0.996606,-0.484440,-0.048947
4343773907,-84.387550,-0.438181,-3.310297,1.017348,-0.525323,0.016944
4343793952,-72.573685,0.639573,-3.298597,1.011897,-0.166691,0.084434
4343813998,-67.809204,0.831498,-3.246500,1.005555,-0.205727,0.084789
4343834043,-61.291027,1.140543,-2.197225,0.991181,-0.149260,0.081672
4343854089,-56.253628,0.814057,-2.255678,1.008136,-0.162786,0.083856
4343874133,-49.779793,0.900314,-1.961305,1.013430,-0.185490,0.101687
4343894178,-42.813530,1.054697,-1.921240,1.002981,-0.165410,0.096113
4343914224,-35.675217,1.034356,-1.662330,1.001019,-0.163606,0.089063
4343934269,-28.359766,1.189497,-1.338668,0.992312,-0.163050,0.102101
4343954314,-21.310743,1.070387,-0.940150,0.984128,-0.172421,0.108338
4343974360,-14.277867,0.897819,-0.586990,0.972526,-0.175722,0.103185
4343994406,-7.913821,0.236899,-0.417904,0.970822,-0.169651,0.090677
4344014451,-2.570100,-0.408505,-0.015110,0.969275,-0.129828,0.078836
4344034497,0.634356,-1.123851,0.054996,0.972882,-0.052618,0.061671
4344054543,2.226618,-1.633739,0.178626,0.987948,-0.003110,0.059607
4344074588,2.094476,-1.634055,0.058928,0.989021,0.033447,0.050904
4344094635,1.090029,-1.649932,-0.097282,1.012041,0.042553,0.036971
4344114680,0.557538,-1.314427,0.041839,1.016139,0.016082,0.034676
4344134726,0.894597,-0.719868,0.056243,1.029602,-0.000106,0.025849
4344154771,1.634603,-0.018812,-0.059789,1.005611,-0.040179,0.020243
4344174817,3.779248,-0.048227,0.150862,0.996739,-0.076975,0.002753
4344194862,6.170446,-0.352655,0.051986,0.995355,-0.044217,0.008895
4344214908,7.492222,-0.276223,-0.004482,0.998237,-0.032264,0.026891
4344234966,8.667727,-0.344746,-0.111120,0.999744,0.005079,0.051041
4344254997,7.998287,-0.215931,-0.350727,0.994278,0.034858,0.073144
4344275042,6.625073,-0.299727,-0.178614,0.992166,0.070826,0.094180
4344295088,4.864042,-0.384343,-0.312273,0.990569,0.095154,0.117678
4344315134,2.383697,-0.507331,-0.477695,1.001724,0.069466,0.140951
4344335179,2.507526,0.111135,0.006896,0.994347,0.007177,0.162604
4344355225,4.214544,0.164200,-0.309137,0.995568,-0.013067,0.133931
4344375270,6.145471,0.029082,0.349216,0.956353,-0.002800,0.055243
4344395315,3.327678,-1.259049,0.591577,0.969398,0.114184,-0.011350
4344415361,0.035582,-1.602420,0.786505,1.012531,0.036291,-0.058888
4344435406,1.048623,-0.276711,0.525549,1.099791,-0.080218,-0.064540
4344455452,3.574469,2.474265,0.154079,1.123099,-0.082454,-0.010376
4344475499,4.948669,3.656509,0.421494,0.977519,-0.090168,-0.034116
4344495544,8.175764,3.154499,0.467527,1.011935,-0.092181,-0.069376
4344515590,11.189938,2.629723,0.578898,0.893629,-0.029865,-0.022709
4344535635,13.383015,0.360274,1.010028,0.944196,0.004034,-0.032252
4344555681,13.856149,-1.179026,1.013613,0.946331,0.023487,0.009619
4344575726,13.877247,-2.208004,0.947856,0.984781,0.023503,0.038557
4344595772,12.870686,-2.064129,0.668892,1.005390,0.042670,0.057327
4344615815,11.332726,-1.599847,0.590209,1.034468,0.060722,0.055258
4344635861,9.189426,-0.671058,0.422386,1.018732,0.062615,0.058882
4344655907,7.172392,-0.267528,0.490748,1.011145,0.062496,0.048845
4344675952,4.645221,0.089429,0.255863,1.008142,0.058754,0.044363
4344695998,2.171617,0.316860,0.028012,1.004365,0.057562,0.042614
4344716043,0.172439,0.292997,-0.170001,0.997936,0.057740,0.045628
4344736088,-1.581285,0.101654,-0.318729,0.988023,0.055100,0.052610
4344756134,-2.552506,-0.096760,-0.322147,0.988583,0.038642,0.057076
4344776179,-3.415811,-0.150245,-0.282293,0.992237,0.024182,0.056221
4344796225,-3.475565,-0.127217,-0.204796,0.999142,0.018465,0.058745
4344816270,-3.651366,0.101353,-0.209787,1.001203,0.030391,0.062230
4344836316,-4.203167,0.154380,-0.283312,0.995667,0.026921,0.059063
4344856363,-4.608630,0.230445,-0.298622,0.995200,0.030914,0.053890
4344896454,-4.858025,-0.119779,-0.124505,0.975829,-0.024986,0.045235
4344916499,-2.139924,-0.979655,0.115990,0.961489,-0.104230,0.001493
4344936545,3.164628,-2.082412,0.482860,0.983025,-0.177856,-0.033338
4344956590,8.292108,-2.049944,0.742405,1.039060,-0.051766,0.025320
4344976636,9.249189,-1.158926,0.361719,1.015962,-0.013651,0.042898
4344996680,11.263452,-0.661633,0.955219,1.017251,-0.022243,0.018562
4345016725,11.597042,-0.105626,0.778783,1.017397,0.009356,-0.015444
4345036771,10.900668,0.115100,0.738071,0.996127,0.004760,-0.024787
4345056816,10.812719,-0.144514,0.534322,0.989704,-0.009446,-0.027195
4345076862,11.161082,-0.480150,0.360568,0.996090,0.003326,-0.012256
4345096907,11.717238,-0.495500,0.250489,0.999867,-0.000214,-0.010772
4345116953,12.937107,-0.426049,0.478755,1.006881,-0.031486,-0.004031
4345136998,14.887447,-0.303519,0.509275,0.998285,-0.070704,-0.002095
4345157044,17.513155,-0.180480,0.679518,1.001716,-0.081885,-0.000047
4345177089,20.351089,-0.278615,0.754681,0.998509,-0.083529,-0.000716
4345197135,23.311014,-0.422484,0.812347,0.993691,-0.082541,-0.004266
4345217182,26.517767,-0.741274,0.995711,0.997569,-0.071267,-0.011068
4345237227,29.579224,-0.709571,1.165444,1.003928,-0.062163,-0.012372
4345257272,33.034302,-0.861166,1.121830,1.000752,-0.062902,-0.016129
4345277318,35.942722,-0.882861,1.287068,0.996432,-0.067096,-0.017864
4345297363,38.742134,-1.034386,1.347874,1.000250,-0.055091,-0.022942
4345317409,41.518192,-0.964983,1.377832,0.998080,-0.058549,-0.021992
4345337455,44.498936,-0.849038,1.732246,1.006247,-0.073927,-0.030638
4345357500,47.688255,-1.061426,1.793330,0.994069,-0.067289,-0.022090
4345377544,51.364433,-1.456893,1.723313,0.980136,-0.097213,-0.007097
4345397589,55.943054,-2.491206,2.111682,0.971234,-0.139181,-0.016770
4345417635,60.628975,-3.502597,2.513176,0.986324,-0.094834,-0.056771
4345437680,63.090393,-4.187840,2.505902,1.000729,-0.009542,-0.091835
4345457726,64.688019,-3.959841,2.053863,1.028799,-0.063747,-0.054824
4345477771,69.151535,-3.142496,2.354245,1.035665,-0.142336,-0.053993
4345497817,73.965607,-2.310959,2.166366,1.011029,-0.079495,-0.097341
4345517862,75.087662,-2.760503,2.077317,0.922096,0.090883,-0.187067
4345537908,68.768021,-5.489820,2.369502,0.960625,0.335550,-0.299241
4345557953,62.712090,-4.867616,1.904190,1.097798,0.029131,-0.115250
4345577999,64.044029,-2.788692,1.069071,1.007041,0.099379,-0.133246
4345598046,62.887848,-3.847450,1.438896,0.996852,0.052910,-0.114476
4345618091,60.661839,-4.273929,1.819734,0.984499,0.092533,-0.127767
4345638136,57.991394,-4.710258,1.299895,1.028102,0.067836,-0.137274
4345658182,55.972679,-3.872588,1.259864,1.035794,0.033773,-0.114019
4345678228,53.457066,-2.455893,1.204622,1.050385,0.062022,-0.098974
4345698273,49.492531,-0.217090,0.907307,1.068126,0.087127,-0.115748
4345718319,45.464409,2.341437,0.464975,1.043117,0.112482,-0.161842
4345738363,42.065853,4.627130,0.599726,1.030739,0.201281,-0.197726
4345758408,36.671001,6.758796,0.277032,1.016408,0.283532,-0.231025
4345778454,28.879349,8.189269,0.201858,1.009576,0.407780,-0.236924
4345798499,18.813688,8.963372,-0.025683,0.985248,0.431192,-0.198240
4345818545,9.055576,9.167249,0.285250,1.067279,0.334427,-0.145556
4345838590,-0.457772,10.643798,0.556630,1.024508,0.280057,-0.091814
4345858635,-10.319305,10.640383,0.228378,1.000808,0.239540,-0.091705
4345878681,-19.356697,11.200883,-0.209441,1.143576,0.169408,-0.154390
4345898726,-27.160925,13.544161,-1.013348,1.011560,0.100450,-0.096832
4345918772,-33.757401,14.645612,-1.790707,1.032463,0.074186,-0.099233
4345938817,-39.003086,13.569662,-1.784675,0.842589,0.044210,0.085065
4345958864,-43.361835,2.868476,-1.863149,0.786022,0.074476,0.012631
4345978910,-47.709335,0.711148,-1.618778,1.028308,0.060238,-0.112211
4345998955,-51.927040,1.791482,-1.922606,1.094285,0.048592,-0.116312
4346019001,-54.482788,4.548105,-2.554639,1.063704,-0.036847,-0.047656
4346039046,-53.636063,5.721608,-2.704880,1.022735,-0.192915,0.061689
4346059092,-48.976723,6.271907,-2.560238,0.947839,-0.217388,0.123646
4346079137,-44.636681,4.695294,-2.662128,0.907514,-0.143345,0.048140
4346099182,-44.213963,3.032474,-3.329601,0.986738,-0.089330,-0.083022
4346119227,-46.082146,2.596287,-3.880290,1.045262,-0.049069,-0.154893
4346139272,-48.660019,1.961961,-4.347776,0.983853,-0.046438,-0.107554
4346159317,-51.200871,0.695000,-4.859722,0.963426,-0.059655,-0.053080
4346179363,-53.587460,-0.821233,-4.441575,0.956540,-0.057192,0.008399
4346199408,-54.769291,-1.483101,-3.812764,0.979732,-0.061640,0.046500
4346219454,-54.484253,-1.314107,-3.276314,0.966734,-0.062347,0.069327
4346239499,-53.136745,-1.648805,-3.163801,0.986320,-0.092794,0.069497
4346259545,-49.909813,-1.121097,-2.739121,1.025827,-0.185690,0.080869
4346279590,-45.008877,-0.135781,-2.356089,1.010310,-0.232997,0.093104
4346299636,-40.269974,-0.133722,-2.020129,0.948837,-0.191326,0.095717
4346319681,-35.914684,-1.678864,-1.702140,0.932582,-0.217174,0.050558
4346339728,-27.987309,-3.596258,-1.291755,0.928530,-0.394344,-0.025332
4346359774,-17.848211,-4.445947,-0.805578,1.050738,-0.154441,0.086293
4346379819,-14.863099,-2.921655,-1.105461,1.146192,-0.113724,0.088865
4346399865,-10.569168,0.504596,0.297536,1.063537,-0.142549,0.165395
4346419910,-6.820868,1.860271,-0.498006,1.002558,-0.148614,0.181604
4346439956,-0.289344,1.702242,-0.387334,0.990489,-0.239202,0.151096
4346460001,6.564277,0.753895,0.651976,0.882589,-0.153249,0.023799
4346480066,10.990802,-1.203404,0.694863,1.020760,-0.041957,-0.072969
4346500091,13.443457,-0.078131,-0.709012,1.070462,0.017778,-0.029798
4346520136,17.105827,1.342214,0.086319,1.009110,-0.076903,0.034042
4346560227,25.209890,1.939686,0.454338,0.990400,-0.126761,0.046336
4346580273,30.710972,1.468184,0.249824,0.987317,-0.126516,0.032953
4346600318,34.002457,1.476181,0.033100,1.011055,0.008344,0.035864
4346620364,34.176826,2.108522,-0.071727,1.021937,0.109493,0.071913
4346640409,31.555487,2.970066,0.388908,0.965999,0.235430,0.136111
4346660455,28.150864,2.238309,0.717217,0.930984,0.144897,0.104541
4346680500,28.713240,0.914061,1.421368,0.987937,-0.050368,-0.016839
4346700546,34.135849,1.047259,2.354941,1.054947,-0.136378,-0.096906
4346720593,40.159386,1.804092,2.671102,1.061223,-0.116273,-0.101949
4346740638,45.662788,2.362629,2.982733,1.028589,-0.028350,-0.049250
4346760684,48.982147,2.561781,3.032283,0.978153,0.071527,0.038772
4346780729,49.598618,2.166311,3.312013,0.983003,0.145523,0.107012
4346800774,48.020988,2.256999,3.166569,0.952749,0.222277,0.169038
4346820820,42.942024,1.089457,3.093256,0.855858,0.361435,0.076777
4346840865,33.817711,-2.952122,3.085084,0.951139,0.338249,0.056491
4346860909,27.874743,-1.731081,1.232484,1.058153,0.191020,0.050190
4346880955,22.464584,-1.414052,0.549339,1.021663,0.160987,0.021632
4346901000,16.742582,-0.701630,-0.480578,1.012115,0.278775,0.070074
4346921046,10.761282,-0.732015,0.246901,0.987589,0.072115,0.054859
4346941091,5.576745,-1.191696,-0.193510,0.974969,0.206507,0.028344
4346961136,-2.709483,-0.739421,-1.371482,1.040792,0.238651,0.043054
4346981182,-13.889647,-0.012096,-1.921106,1.002504,0.252730,0.062565
4347001228,-22.709940,-0.076014,-2.170023,0.971534,0.224125,0.065410
4347021273,-32.041264,0.171535,-2.784491,1.035014,0.254406,0.057379
4347041319,-40.681374,1.158841,-3.254364,0.996084,0.149778,0.083997
4347061364,-46.149662,1.073362,-3.331367,1.043574,0.065895,0.092949
4347081411,-49.932549,2.467108,-3.277886,1.053608,0.014282,0.118190
4347101456,-51.517918,4.058987,-3.481666,1.042846,-0.037971,0.159583
4347121502,-51.758801,4.265163,-3.279001,0.921522,0.018540,0.166823
4347141547,-55.557892,1.930458,-3.992221,0.888606,0.140358,0.041364
4347161593,-63.705639,-0.245141,-4.606306,0.974627,0.207200,-0.043275
4347181638,-72.305077,-0.979703,-4.880200,1.054797,0.158315,-0.076968
4347201684,-80.233162,-1.157002,-4.832751,0.996006,0.107962,-0.054005
4347221729,-86.445961,-1.000191,-5.499789,1.031077,0.059172,-0.047532
4347241773,-91.812920,-0.523472,-6.337132,0.951056,0.039672,0.053085
4347261819,-95.849792,-1.584752,-6.713754,0.913063,-0.030138,0.117120
4347281864,-98.238472,-3.596576,-6.393255,0.962422,-0.104685,0.104601
4347301910,-98.985191,-2.941095,-6.273968,1.008322,-0.157773,0.089201
4347321955,-98.767555,-2.720577,-6.508168,1.017237,-0.171328,0.081537
4347342000,-98.649719,-2.553481,-6.763178,1.029924,-0.172809,0.056631
4347362046,-98.223839,-1.738289,-6.919344,1.042717,-0.168695,0.057133
4347382092,-97.991570,-1.228281,-7.200642,0.989265,-0.154406,0.105769
4347402137,-98.685173,-1.205323,-7.080278,1.005316,-0.169016,0.113236
4347422183,-98.461273,-1.128778,-6.962615,0.975959,-0.211210,0.147576
4347442228,-97.410828,-2.332127,-6.757390,0.923669,-0.216743,0.096370
4347462275,-93.885948,-3.388410,-5.867090,0.972191,-0.266514,0.050600
4347482320,-89.729965,-3.783001,-5.617837,0.978417,-0.288722,-0.013195
4347502366,-84.216331,-4.260493,-5.127202,1.031452,-0.265803,-0.008781
4347522411,-79.291367,-3.526500,-4.675026,0.979447,-0.142650,0.021494
4347542457,-76.041328,-3.797908,-3.789646,1.026734,-0.157084,-0.000348
4347562502,-75.347839,-2.535028,-4.808338,1.075616,-0.019315,-0.020292
4347582548,-75.633789,-1.909641,-4.575628,1.013714,-0.027441,0.014727
4347602592,-75.102654,-1.275556,-3.976729,1.034686,-0.047066,0.011588
4347622638,-74.749474,-0.421793,-3.925292,1.009269,-0.039693,0.035067
4347642683,-74.478905,-0.963371,-4.165625,0.989204,-0.088105,0.043387
4347662728,-73.894989,-1.473412,-3.991862,0.984219,-0.146511,0.046746
4347682774,-72.669876,-1.480474,-3.893348,0.996032,-0.113308,0.035778
4347702819,-72.067902,-1.328172,-4.012516,1.002028,-0.058895,0.037401
4347722865,-73.349579,-1.467298,-4.697838,0.976853,-0.054791,0.063876
4347742910,-73.471436,-2.130237,-4.647418,0.948518,-0.158869,0.032125
4347762956,-69.722572,-2.708071,-4.496636,0.986134,-0.255340,0.030100
4347783001,-65.543343,-2.569193,-4.249610,1.044831,-0.212055,0.074598
4347803047,-61.121536,-1.248377,-3.736134,1.045593,-0.213107,0.149115
4347823094,-55.571709,0.141851,-3.000251,0.947607,-0.185589,0.152102
4347843139,-55.182964,-3.514969,-2.514209,0.943931,0.079823,-0.027108
4347863185,-57.902493,-2.186785,-4.544335,1.063452,-0.068414,0.005051
4347883230,-52.162300,-2.311069,-2.951261,1.002351,-0.181715,0.032425
4347903275,-47.251160,-2.628496,-2.380695,0.998338,-0.093644,-0.010409
4347923321,-43.997147,-2.665141,-2.130415,0.997904,-0.098177,-0.053241
4347943366,-41.642437,-2.739751,-1.717371,0.978619,-0.109974,-0.020576
4347963417,-40.205887,-3.058543,-1.331546,0.990360,-0.086098,-0.006745
4347983456,-40.109413,-3.051276,-1.493913,1.015246,-0.036928,-0.001532
4348023547,-42.824757,-2.191041,-1.581634,1.022767,-0.015104,-0.013135
4348043592,-43.394455,-1.643036,-1.816930,1.004524,-0.011912,-0.045599
4348063638,-44.245750,-1.163520,-1.977761,1.025585,-0.021987,-0.101770
4348083683,-44.764637,0.078590,-1.964186,1.049070,-0.052191,-0.122545
4348103729,-44.868111,0.847687,-2.216907,1.014676,-0.060657,-0.096527
4348123774,-44.176952,0.664385,-2.466593,1.037175,-0.104449,-0.083131
4348143820,-42.322975,1.542688,-1.871251,1.063269,-0.184188,-0.079903
4348163865,-39.689728,2.694461,-1.742787,1.070633,-0.168225,-0.061355
4348183912,-36.104744,3.958290,-2.687684,1.052038,-0.202299,-0.022491
4348203958,-30.134073,4.875221,-2.340464,0.982460,-0.248904,0.019713
4348224003,-23.466221,3.841715,-1.847450,0.944583,-0.216121,0.018489
4348244049,-18.172163,3.294869,-1.657981,0.939587,-0.135731,0.005459
4348264094,-15.580381,1.192328,-1.594292,0.946512,-0.031178,-0.037588
4348284140,-15.060942,0.186520,-1.585740,1.010684,-0.013093,-0.101894
4348304185,-14.657969,0.918879,-1.313264,1.075173,-0.024960,-0.126848
4348324231,-12.794503,2.032662,-1.047473,1.033164,-0.070452,-0.095192
4348344275,-9.800821,2.628387,-0.840096,1.007457,-0.137371,-0.052794
4348364320,-5.579219,2.569685,-0.356349,0.971529,-0.147043,0.013013
4348384366,-0.406552,1.672395,-0.102227,0.962195,-0.148304,0.080077
4348404411,4.053342,0.980442,0.050421,0.967015,-0.071905,0.117722
4348424457,6.242692,0.759386,-0.220569,0.939155,-0.012353,0.121366
4348444502,7.314497,-0.276513,-0.108013,0.940657,-0.023523,0.079057
4348464548,10.207258,-1.669921,0.085021,0.945628,-0.179063,-0.015995
4348484593,15.686347,-1.843122,0.346070,1.032475,-0.154813,-0.059274
4348504639,21.679264,-1.750263,0.260039,1.031896,-0.150193,-0.070347
4348524684,27.210695,-1.678759,0.870764,1.037635,-0.077566,-0.056948
4348544730,30.608446,-1.562167,1.453969,1.003788,0.040850,0.005978
4348564776,30.933725,-0.968148,1.239360,0.986184,0.149578,0.082078
4348584822,28.831234,-1.181071,1.678222,1.006735,0.203199,0.138828
4348604868,25.561035,-0.442483,1.777425,1.026160,0.228767,0.177671
4348624913,21.538193,0.881244,1.247404,1.026627,0.201747,0.176527
4348644958,18.175320,1.291021,0.883372,1.008419,0.114756,0.179252
4348665004,17.497210,1.656924,1.002293,0.980612,0.003201,0.189715
4348685050,18.135216,1.603201,0.768489,0.967369,0.026871,0.210690
4348705094,16.061201,1.272731,-0.175913,0.978977,0.140272,0.281291
4348725139,14.261118,0.556501,0.090644,0.935013,-0.052539,0.190131
4348745185,23.198393,-1.487109,1.811466,0.893376,-0.521073,0.001531
4348765230,39.371662,-3.088400,2.832580,1.002636,-0.219599,-0.042227
4348785276,42.742302,-2.460125,0.625478,1.072425,0.009755,0.011032
4348805321,47.319038,-0.946515,2.090487,1.075564,-0.017478,0.093722
4348825366,49.788803,1.356498,2.439893,1.076119,0.023977,0.077213
4348845412,52.266750,3.680459,1.971435,1.085539,0.009202,0.047756
4348865458,56.395947,5.305743,2.359670,1.007563,-0.032457,0.012753
4348885503,61.896606,5.034298,2.972134,0.968692,-0.048673,-0.020054
4348905548,68.482567,3.970576,3.589101,0.957181,-0.050660,-0.054350
4348925594,75.657990,2.846143,4.248322,0.991720,-0.085249,-0.094733
4348945641,84.217461,2.688889,4.457187,1.019737,-0.125541,-0.113118
4348965686,91.789322,3.416156,4.987930,1.066271,-0.030979,-0.075942
4348985732,94.195633,5.679761,4.788513,1.047984,0.192830,0.053538
4349005778,90.828148,6.089931,4.592681,0.977731,0.208981,0.088024
4349025823,91.473000,5.093167,5.194804,0.787212,-0.055876,-0.034196
4349045868,102.260071,0.498165,7.400203,0.902458,-0.195105,-0.258153
4349065914,113.757210,-0.993631,6.899343,1.060650,-0.066857,-0.299553
4349085958,122.542534,-0.519785,6.467484,1.122528,-0.005482,-0.264489
4349106003,127.656204,0.840793,7.609285,1.062516,0.084705,-0.195714
4349126049,128.335541,2.007730,7.928442,1.013382,0.291902,-0.124142
4349146094,124.134834,1.747111,7.766294,0.955943,0.476169,-0.048759
4349166140,116.729027,0.953011,7.966131,0.941429,0.526438,-0.006292
4349186185,106.713737,-0.202216,7.209135,0.930139,0.596174,-0.019469
4349206231,96.900581,-1.371207,7.059577,1.001126,0.540778,-0.075599
4349226276,89.239990,-0.711203,6.648201,1.000422,0.436812,-0.066064
4349246321,84.082588,-0.568325,6.419218,1.009483,0.314550,-0.019174
4349286413,78.076683,-1.188675,5.804244,1.007393,0.193470,0.037163
4349306458,75.714775,-0.924492,4.985711,1.021135,0.173563,0.086707
4349326505,72.690964,-0.141877,4.331126,1.020234,0.183141,0.102502
4349346551,68.293961,0.990313,3.411647,1.038126,0.235936,0.105196
4349366596,62.763252,1.780992,3.233600,0.985062,0.168274,0.057556
4349386641,61.880939,-0.085629,3.554951,0.884264,-0.009554,-0.053175
4349406687,64.198212,-2.400525,4.090802,0.979561,0.126231,-0.101685
4349426732,61.623058,-2.830733,2.919571,1.012410,0.251891,-0.061695
4349446778,58.666496,-2.587363,3.044903,1.040501,0.200699,-0.018516
4349466822,56.944374,-1.367811,3.326427,1.051208,0.131322,-0.007145
4349486867,57.179207,0.483710,3.139953,1.068514,0.068690,0.005826
4349506913,58.658756,1.658142,3.313653,1.004347,0.015757,0.014725
4349526958,60.736645,1.940418,3.203620,1.101866,0.091105,-0.001860
4349547004,58.401989,5.649559,2.502995,1.106455,0.320004,0.105798
4349567049,52.120815,7.955343,1.784281,0.991155,0.296189,0.161271
4349587095,49.123001,6.986677,1.784544,0.849025,-0.038167,0.053047
4349607140,57.931683,3.965826,2.769894,0.938554,-0.304049,-0.108532
4349627186,72.352638,2.958270,3.693129,1.071264,-0.296958,-0.118341
4349647231,84.848747,3.046783,4.260351,0.981854,-0.215764,-0.068840
4349667277,95.092636,0.805284,5.941195,0.915570,-0.112033,-0.104556
4349687324,101.978874,-1.577396,6.296917,0.878797,0.066663,-0.110943
4349707369,103.701889,-2.947254,6.917568,0.974764,0.310740,-0.087930
4349727415,98.904533,-2.348957,5.862447,1.067754,0.477194,-0.023978
4349747460,91.904015,-0.004352,5.531993,1.050232,0.453551,0.048346
4349787551,76.569748,1.801656,3.966657,0.999147,0.375170,0.008134
4349807597,70.989044,1.282083,4.030827,0.984911,0.260140,-0.003142
4349827642,67.439331,0.191162,3.958151,0.977258,0.169555,0.016656
4349847686,66.151428,0.120801,3.349135,1.031819,0.123015,0.044488
4349867732,65.335991,1.444885,2.604046,1.024075,0.127005,0.147919
4349887777,63.239258,2.389016,2.473477,1.024001,0.255180,0.249105
4349907823,57.083099,3.674056,1.939130,0.966306,0.352725,0.310385
4349927868,51.379173,1.058742,2.027951,0.806724,0.122806,0.009020
4349947913,45.856384,-3.480808,3.747293,0.805590,0.142344,-0.210583
4349967959,44.565353,-7.329277,3.945627,1.057786,0.295224,-0.186542
4349988004,34.470867,-6.050342,1.256418,1.057765,0.402255,-0.054639
4350008050,27.733459,-5.670314,1.592206,1.014432,0.268200,0.003149
4350028095,23.766706,-4.715669,2.911555,1.036590,0.133905,-0.026599
4350048141,22.620361,-3.884297,3.336028,1.060420,0.061191,-0.114303
4350068188,22.586315,-0.813760,3.036092,1.143162,0.019075,-0.180822
4350088233,21.728821,3.040759,2.413299,1.087399,0.083553,-0.198679
4350108279,19.317226,5.249603,2.162365,1.064308,0.134960,-0.175040
4350128324,15.242556,6.604018,1.724944,0.980214,0.165032,-0.127723
4350148370,10.317088,6.053838,1.661880,0.966829,0.177856,-0.066332
4350168415,6.069907,3.873796,1.957870,0.957542,0.148079,-0.022824
4350188461,0.189017,3.672945,1.476620,1.046017,0.240958,0.005289
4350208506,-7.579134,5.306272,0.154758,1.069606,0.182191,0.090406
4350228550,-12.566193,6.515327,-0.417304,1.000438,-0.003348,0.121486
4350248596,-10.603699,6.706036,-0.562999,0.941169,-0.281256,0.177879
4350268641,-1.323478,4.393677,0.258012,0.898384,-0.396481,-0.025631
4350288687,6.929580,2.575033,0.493637,0.942447,-0.153867,-0.276060
4350308732,9.267612,0.249263,-0.361623,1.022794,0.004437,-0.336153
4350328777,7.596474,-1.229099,-0.125596,1.012975,0.129341,-0.223902
4350348823,2.563779,-1.236303,0.629248,1.059471,0.259115,-0.079666
4350368868,-5.771515,-1.117766,0.133428,0.952035,0.358069,0.100561
4350388914,-14.158611,-2.255383,0.200621,0.894140,0.325081,0.220884
4350408959,-20.790096,-3.005267,-0.333010,0.970338,0.143579,0.254381
4350429005,-22.287539,-2.616881,-0.282322,1.008304,-0.081880,0.258193
4350449052,-18.956810,-1.069435,-0.497291,1.057840,-0.211266,0.203097
4350469097,-13.230440,0.227503,-0.566876,1.037507,-0.264608,0.201717
4350489143,-5.508126,1.333522,-1.033703,1.007180,-0.357062,0.264025
4350509188,4.517173,2.342288,-0.987067,1.008955,-0.300418,0.400884
4350529234,10.405059,1.415247,-0.502197,0.793508,0.228296,0.206602
4350549279,-4.887987,-7.242736,1.007801,0.885457,0.632387,0.020812
4350569324,-20.318792,-2.219926,-3.477764,1.137429,0.410854,0.009802
4350589370,-33.741367,-1.590562,-3.295820,1.170501,0.332942,0.063653
4350609414,-42.156796,2.470166,-2.863311,1.057514,0.184959,0.122742
4350629459,-48.831242,2.179854,-2.404250,0.943226,0.134700,0.089462
4350649505,-51.614941,2.110448,-2.434059,0.970395,-0.034057,0.013117
4350689596,-53.394150,3.738044,-3.635227,1.021981,0.005989,-0.019601
4350709642,-57.134926,3.545291,-4.158032,1.002201,-0.009477,-0.003806
4350729687,-62.081795,3.046664,-4.984998,0.977267,-0.093883,0.078640
4350749732,-64.496933,2.306969,-4.905106,0.889899,-0.045390,0.050093
4350769778,-69.196175,-1.077330,-4.619259,0.829453,-0.012150,-0.087640
4350789823,-76.132317,-4.601935,-5.412834,0.983865,0.054082,-0.265946
4350809869,-80.520271,-5.403145,-5.340304,1.116012,-0.099751,-0.271938
4350829916,-81.788445,-3.848799,-5.336154,1.067405,-0.195506,-0.157024
4350849961,-79.669342,-2.566869,-4.892488,1.022423,-0.299208,-0.063583
4350890052,-65.338219,-4.281900,-3.414970,0.913318,-0.365050,0.143997
4350910098,-57.894096,-4.888928,-3.137116,0.979101,-0.297137,0.168544
4350930143,-52.119053,-4.840359,-2.584532,0.992193,-0.212221,0.180253
4350950189,-49.123837,-4.686414,-2.276374,1.004259,-0.099643,0.143912
4350970234,-48.753502,-2.986548,-2.151673,1.024060,-0.044233,0.131682
4350990278,-49.659790,-3.177827,-2.370336,0.974948,-0.034491,0.177619
4351010324,-49.792545,-3.421082,-2.091858,0.978582,-0.070920,0.203489
4351030369,-47.839573,-3.390646,-2.336174,1.045630,-0.189153,0.269264
4351050415,-43.661232,-1.538300,-2.622096,1.084288,-0.165088,0.369055
4351070460,-38.486290,0.459442,-2.767370,0.974494,-0.127739,0.176874
4351090506,-39.915325,-4.235963,-2.983818,0.722537,0.154719,-0.191577
4351110551,-42.347977,-5.206543,-3.865639,1.251381,-0.087097,-0.067022
4351130597,-47.236244,-1.663733,-3.706167,1.122488,0.187670,0.109920
4351150642,-56.927906,2.151893,-3.653075,1.171639,0.235863,0.108457
4351170687,-68.376549,6.139545,-4.789095,1.014297,0.288066,0.075014
4351190733,-77.112801,6.487139,-5.056295,0.963360,0.052258,0.008645
4351210780,-81.951607,5.131544,-4.102046,0.881588,-0.072676,-0.043947
4351230826,-84.202606,2.219570,-4.170936,0.947397,-0.165628,-0.086309
4351250871,-83.356834,0.863989,-3.861893,1.018325,-0.189167,-0.080399
4351270916,-81.591309,1.974958,-4.786259,1.037398,-0.231517,0.032727
4351290962,-79.556961,2.943356,-4.790751,1.001518,-0.146463,0.111811
4351311007,-85.224174,1.439433,-5.248885,0.854337,0.250902,-0.079060
4351331053,-100.478653,-1.242485,-6.472246,1.029531,0.336466,-0.248765
4351351097,-114.698273,-1.308018,-6.792140,1.111382,0.258401,-0.219167
4351371142,-125.213089,-1.008228,-7.742965,1.080262,0.125615,-0.225860
4351391188,-131.020859,-0.852330,-8.845779,0.974851,-0.060774,-0.130525
4351411233,-131.964249,-1.857855,-8.549034,0.907940,-0.173012,-0.062295
4351431279,-130.408569,-4.074493,-8.273825,0.934924,-0.353822,-0.008260
4351451324,-126.305702,-3.934631,-7.597400,0.934470,-0.359999,0.049855
4351471370,-121.860435,-4.235881,-6.574644,0.972785,-0.335092,0.058511
4351491415,-119.570580,-4.388182,-6.786681,1.023045,-0.315291,0.051176
4351511461,-116.874062,-3.296092,-6.116703,1.008165,-0.405165,0.119026
4351531506,-112.139168,-3.150758,-6.430666,1.043148,-0.317698,0.114653
4351551552,-108.843437,-3.082241,-6.838710,1.041989,-0.353922,0.157671
4351571599,-103.526047,-1.623887,-6.274297,1.035303,-0.412689,0.216252
4351591644,-99.574753,-1.600180,-6.366331,0.949367,-0.208793,0.147117
4351611690,-101.397766,-3.004229,-6.922315,0.897029,-0.020817,-0.001631
4351631735,-108.215012,-4.948864,-6.691860,1.032049,-0.040952,-0.079790
4351651781,-110.063667,-3.224965,-5.813528,1.080908,-0.134540,-0.003397
4351671826,-111.969498,-1.817957,-6.820467,1.085462,-0.052610,-0.028212
4351691872,-113.583130,-0.142952,-7.321992,1.060335,-0.037761,-0.047144
4351711917,-115.489548,0.450588,-7.485654,1.044994,-0.028636,-0.070681
4351731961,-116.983681,1.083255,-7.260091,1.020469,-0.052638,-0.094007
4351752007,-117.235329,2.081537,-7.258531,1.092024,-0.139328,-0.097534
4351772052,-115.481773,4.619922,-7.201669,1.018317,-0.213747,-0.038600
4351792098,-115.038780,4.643833,-6.805347,0.872450,-0.072940,-0.083007
4351832189,-130.762604,-2.745976,-7.178650,1.007578,0.038244,-0.395228
4351852234,-137.686157,-2.261643,-7.840628,1.147822,-0.081292,-0.459149
4351872280,-139.498535,-2.416559,-8.698994,1.058045,-0.172558,-0.396101
4351892325,-138.170410,-3.469093,-9.210314,0.986956,-0.360562,-0.316690
4351912371,-132.431061,-3.665044,-8.931315,0.966206,-0.508498,-0.151602
4351932416,-125.014229,-5.665183,-7.998771,0.911484,-0.522568,-0.036266
4351952463,-118.579666,-5.600938,-7.336773,0.972210,-0.431082,0.051145
4351972508,-113.468002,-6.390548,-6.653904,0.951554,-0.351931,0.123443
4351992554,-109.673286,-6.632084,-6.092493,1.017813,-0.280882,0.120017
4352012599,-107.683548,-5.892145,-6.018944,1.012796,-0.206465,0.124972
4352032649,-106.474838,-5.000158,-6.014802,1.079346,-0.200102,0.118470
4352052690,-105.184883,-3.154985,-5.778525,1.078356,-0.185537,0.124999
4352072736,-102.815880,-1.578093,-6.326437,1.040695,-0.190300,0.137813
4352092791,-99.992607,-0.571200,-6.254668,1.050600,-0.286879,0.148517
4352112826,-92.735855,2.016124,-5.456553,1.067695,-0.337576,0.223927
4352132871,-85.328751,3.404779,-5.604906,0.943470,-0.150336,0.182070
4352152916,-86.198952,-1.378855,-4.509933,0.738048,0.209633,-0.067567
4352172962,-97.079124,-6.070266,-5.192526,1.017331,0.070891,-0.097789
4352193007,-100.753616,-4.532522,-5.493134,1.112573,0.005125,-0.069347
4352213053,-101.966156,-1.682431,-5.417963,1.178873,-0.105892,-0.038068
4352233099,-102.410370,1.260786,-4.716129,1.039728,-0.061261,-0.046662
4352253144,-102.523911,2.013333,-5.526424,1.052558,-0.127797,-0.077726
4352293235,-98.435028,4.896682,-4.874145,1.051945,-0.175959,-0.098696
4352313280,-96.572922,6.556969,-5.550045,1.062295,-0.190126,-0.093221
4352333327,-93.846405,7.654630,-5.759434,0.990766,-0.270998,-0.084060
4352353373,-89.796341,6.254270,-5.413080,0.851629,-0.246782,-0.166423
4352373418,-88.960388,1.141581,-5.091340,0.795294,-0.080753,-0.325052
4352393464,-91.428032,-3.256750,-5.250416,0.961199,-0.125126,-0.399249
4352413509,-91.622269,-4.931691,-4.515133,1.031882,-0.241667,-0.305217
4352433555,-87.607635,-4.709558,-4.494434,1.117472,-0.334396,-0.184427
4352453600,-81.234642,-3.579528,-4.316201,1.032677,-0.369173,-0.076351
4352473644,-72.488716,-2.914344,-4.396425,1.022479,-0.452837,-0.050620
4352493690,-61.081825,-2.497910,-3.610481,0.970155,-0.476091,0.065416
4352513735,-49.335487,-2.950703,-3.049832,0.984728,-0.427322,0.109931
4352533781,-39.045181,-2.832789,-2.692074,1.022486,-0.339110,0.112318
4352553826,-31.860994,-1.977771,-2.887814,0.984692,-0.232476,0.100621
4352573871,-26.424290,-2.341038,-2.426632,1.003823,-0.161387,0.107167
4352593917,-23.800097,-2.318252,-2.760362,0.994390,-0.041679,0.108400
4352613963,-23.697950,-1.999798,-3.466417,1.013480,0.013759,0.165263
4352634008,-23.847450,-1.664100,-3.288881,1.006497,0.016668,0.221568
4352654053,-23.888554,-0.581404,-3.062445,1.019834,-0.023760,0.189999
4352674099,-21.494461,1.471212,-2.236966,1.054458,-0.187902,0.092640
4352694145,-15.079159,2.625635,-1.410112,1.072958,-0.258014,-0.011227
4352714192,-7.160923,3.862864,-1.193447,1.043490,-0.236682,-0.012848
4352734237,0.591106,3.446695,-0.807582,0.982438,-0.196228,0.021804
4352754283,6.964618,2.115424,-0.514184,0.933667,-0.064770,0.064266
4352774328,9.552953,0.592572,-0.238398,0.953268,0.009838,0.105747
4352794374,9.775898,0.304208,0.262572,1.015938,0.170749,0.198820
4352814419,5.501375,2.709045,-0.694086,0.958333,0.706830,0.340616
4352834465,-14.331974,0.426937,-3.144258,1.020650,0.151982,0.127601
4352854511,-17.054665,-0.108667,2.763707,0.738927,0.125008,0.076077
4352874554,-25.363792,-4.539360,-0.781697,0.988392,0.121839,0.032613
4352894599,-28.565756,-5.621096,-0.226911,1.025465,0.116666,0.060857
4352914645,-31.610735,-2.863598,-0.429174,1.085103,0.145545,0.086480
4352934690,-34.551785,0.441196,-1.246591,1.149851,-0.104006,0.128637
4352954736,-33.394646,4.601556,-1.672609,1.107344,-0.228367,0.162975
4352974782,-30.428253,7.108421,-2.197003,1.066191,-0.200946,0.166899
4352994827,-27.001987,8.107719,-2.182758,0.987722,-0.187838,0.133357
4353014872,-24.407055,6.167599,-1.103358,0.896915,0.025906,0.029248
4353034918,-27.048597,2.347630,-1.597209,0.911015,0.213348,-0.064350
4353054963,-33.323238,1.277461,-2.258961,1.023972,0.209777,-0.119829
4353075009,-37.145145,0.896548,-1.763253,1.008678,0.114958,-0.069483
4353095056,-40.881653,0.445259,-2.040753,0.979285,0.080753,0.007237
4353115101,-44.233948,-0.028540,-2.211012,0.934639,0.086731,0.081609
4353135147,-48.016617,-0.998061,-2.485892,0.965089,0.002307,0.107283
4353155192,-50.608406,-0.823465,-2.482030,0.940880,-0.015072,0.125517
4353175237,-53.129246,-1.784995,-2.743214,0.928820,-0.007829,0.116088
4353195283,-55.050335,-3.141193,-2.380480,0.964619,-0.013651,0.086166
4353215328,-56.603539,-3.332258,-2.433762,0.985095,-0.044138,0.114281
4353235373,-57.667255,-3.547027,-2.901459,1.010199,-0.102181,0.143906
4353255418,-57.384205,-3.456479,-3.319891,1.014113,-0.119967,0.166382
4353275464,-57.522316,-2.694544,-3.373238,1.062503,-0.067749,0.178179
4353295509,-58.142269,-1.300272,-3.457547,1.029160,-0.038203,0.194403
4353315555,-59.411720,-0.897756,-3.908025,0.984981,-0.038785,0.210589
4353335600,-58.592972,-1.202267,-3.861767,0.984984,-0.076477,0.193858
4353355646,-56.824524,-1.277706,-3.735360,1.024875,-0.110912,0.185519
4353375691,-55.341702,-0.507718,-3.789621,0.984998,-0.014047,0.154720
4353395737,-57.407337,-1.270465,-3.831055,0.898814,0.147251,0.021117
4353415782,-64.903168,-3.628517,-4.327279,1.036437,0.162038,-0.013571
4353435827,-72.144958,-2.101891,-5.712489,1.024874,0.136643,0.040318
4353455873,-78.641640,-2.438624,-5.570022,1.022578,0.076409,0.035918
4353475920,-83.426941,-1.601534,-5.541085,1.032566,0.063828,0.012530
4353495965,-87.635399,-1.092516,-5.736211,1.017368,0.065068,0.005888
4353516011,-91.845947,-0.614250,-6.045815,0.993406,0.042814,-0.006830
4353536056,-95.050003,-0.881875,-6.059166,0.986915,0.016567,-0.028190
4353556102,-98.051659,-1.096628,-6.298223,0.997832,-0.011469,-0.046848
4353576147,-100.252686,-1.165671,-6.240001,0.993561,-0.065193,-0.019816
4353596193,-100.883575,-1.310143,-6.028601,0.985784,-0.123193,0.009916
4353616237,-100.503738,-1.072146,-5.326108,0.957433,-0.086688,-0.004276
4353636282,-103.482651,-2.087053,-5.547660,0.909238,0.085495,-0.084169
4353656328,-111.099594,-4.102066,-5.989183,0.983906,0.156156,-0.160270
4353676374,-119.329361,-4.302759,-6.134481,1.051086,0.105655,-0.170772
4353696419,-126.659454,-4.274930,-6.427902,1.082948,0.069779,-0.164175
4353716465,-131.553177,-3.529495,-6.472971,1.063577,-0.030279,-0.141529
4353736510,-133.450577,-2.463313,-6.577250,1.033386,-0.039184,-0.110589
4353756555,-135.662766,-2.123300,-7.574694,1.009977,-0.067855,-0.099158
4353776601,-136.182877,-2.206297,-7.159328,0.990644,-0.141880,-0.068023
4353796646,-136.179825,-1.818256,-7.428129,1.009791,-0.186081,-0.077445
4353816692,-135.030014,-1.764224,-7.267226,0.960780,-0.173287,-0.055116
4353836737,-134.140549,-2.450480,-7.526726,0.984307,-0.161462,-0.075871
4353856784,-133.375916,-2.761711,-7.089683,0.981051,-0.194127,-0.076215
4353876830,-131.965393,-4.147757,-6.837345,0.972671,-0.227080,-0.081827
4353896875,-129.444061,-4.612159,-6.922931,1.000733,-0.247037,-0.072287
4353936966,-123.513557,-5.043296,-6.211295,1.036046,-0.181587,-0.026429
4353957012,-120.574463,-4.317187,-5.644146,1.042278,-0.147953,0.005907
4353977057,-117.206238,-2.479262,-5.486379,1.090020,-0.206603,-0.018775
4353997101,-111.996254,-1.090559,-5.362854,1.004996,-0.259834,-0.006616
4354017147,-103.784798,-0.805448,-4.965313,1.006585,-0.373894,0.002806
4354037192,-93.052414,-1.173312,-3.819805,0.905735,-0.363713,-0.021272
4354057238,-89.326874,-4.716506,-4.010205,0.911116,0.032091,-0.191684
4354077283,-92.242767,-7.034234,-4.083454,0.980645,0.057578,-0.189190
4354097329,-92.968559,-7.472363,-2.340944,1.017279,-0.110763,-0.087501
4354117374,-90.659668,-10.022596,-1.414433,0.946405,-0.117917,-0.009756
4354137420,-87.780418,-13.481882,-1.474069,0.945963,-0.162805,-0.031188
4354157465,-81.332428,-16.564081,-0.381576,1.117508,-0.260745,-0.153685
4354177511,-74.511002,-11.906063,-0.475958,1.072553,-0.201873,-0.160551
4354197556,-68.548180,-8.574507,-0.648602,1.060271,-0.289809,-0.182799
4354217603,-62.437992,-4.984539,-1.138265,1.090238,-0.283296,-0.177148
4354237649,-56.854351,-1.279284,-1.151966,1.036462,-0.305288,-0.118914
4354257694,-50.548775,1.512142,-0.955031,1.086802,-0.318984,-0.085164
4354277740,-43.852306,4.653340,-1.141277,1.089877,-0.257808,-0.063531
4354297785,-37.261696,7.526959,-1.676085,1.030625,-0.242954,-0.051380
4354317831,-29.452507,8.465714,-1.983570,1.032464,-0.273537,-0.062345
4354337876,-21.213167,9.983985,-2.201993,1.124948,-0.265161,-0.083725
4354357922,-12.713655,13.956102,-2.494764,1.150423,-0.288763,-0.075950
4354398011,4.896907,21.442272,-3.495646,0.846747,-0.246693,0.200855
4354418057,10.948242,7.616403,-1.549695,0.705834,-0.197049,0.147075
4354438103,17.805460,1.546667,-0.554536,0.897611,-0.099969,-0.058155
4354458148,22.507448,0.566855,0.312669,1.035387,-0.031460,-0.168915
4354478194,24.032749,1.694570,0.057715,1.056573,0.034143,-0.179734
4354498239,25.225971,3.082843,0.457861,1.029452,0.024753,-0.116710
4354518284,27.578588,3.549997,1.159517,0.980582,0.010120,-0.015634
4354538330,30.377302,3.003114,1.619008,0.984601,-0.020930,0.016484
4354558376,34.241772,2.897892,1.804181,0.987759,-0.044965,0.003216
4354578421,37.334633,2.693479,2.027581,1.005996,-0.010891,-0.035278
4354618513,38.353745,3.311286,2.128012,1.001887,0.130992,-0.050694
4354638559,36.239681,3.592180,1.908290,1.008263,0.196550,-0.023315
4354658604,33.485897,3.103577,1.856371,0.955145,0.103501,-0.021892
4354678653,34.730766,1.504449,2.257819,0.934801,-0.075920,-0.070539
4354698695,40.440582,0.218917,2.632716,1.011483,-0.116350,-0.104641
4354718741,46.099487,0.836809,2.238119,1.055566,-0.125874,-0.073060
4354738786,51.753605,1.006463,2.441140,0.979064,-0.083226,-0.019539
4354758830,55.687828,0.521357,3.115277,0.995671,0.019200,-0.038420
4354778876,56.123344,0.506194,3.099235,0.989628,0.215282,-0.012498
4354798921,53.084423,0.977386,2.889183,0.970653,0.305115,0.028345
4354818967,49.792099,0.581636,3.496928,1.001643,0.240665,0.030556
4354839012,47.126846,0.893767,3.662228,0.990038,0.220270,0.082530
4354859058,44.317837,-0.204699,3.536997,0.966717,0.208920,0.114356
4354879103,42.218445,-0.510647,3.303660,0.998900,0.152766,0.073595
4354899149,40.499134,-0.595791,2.939950,0.966452,0.136234,0.115207
4354919194,39.147766,-1.129323,3.067287,0.999631,0.108196,0.129213
4354939240,37.447159,-0.407255,2.440717,1.015110,0.108348,0.150916
4354959285,35.515041,0.047761,1.704907,0.980576,0.108413,0.165122
4354979332,33.675034,-0.036211,1.855512,0.992367,0.088563,0.144892
4354999378,31.834702,0.404586,1.545890,0.979788,0.145130,0.144922
4355019423,28.437943,0.326223,1.016029,0.977983,0.240404,0.161679
4355039469,23.556501,0.051141,1.264494,0.999635,0.184192,0.148694
4355059514,19.706995,0.180178,1.483948,0.978366,0.130731,0.131535
4355079560,18.135496,-0.337965,1.699562,0.993103,0.051573,0.060246
4355099605,18.247410,-0.536423,1.552863,0.957887,0.003643,0.044949
4355119649,21.829668,-2.637169,2.269775,0.968923,-0.111463,-0.031120
4355139695,23.899786,-1.508062,2.546788,1.085404,0.133337,0.023950
4355159740,23.299644,-0.595262,1.882946,1.040569,-0.012736,0.025411
4355179786,25.795963,1.060498,2.455594,1.063010,-0.066949,0.010775
4355199831,28.822836,2.165149,1.942337,1.040889,-0.061060,0.015137
4355219877,32.818851,2.700272,2.191598,1.014723,-0.076364,-0.026966
4355239922,36.745224,2.953317,2.404943,0.984732,-0.006232,-0.058253
4355259968,39.312771,2.405149,2.341664,0.967444,0.017925,-0.067802
4355280013,41.433323,1.316351,2.525743,0.977062,0.049265,-0.049862
4355300059,42.311668,1.895611,2.453281,1.065241,0.087270,-0.031095
4355320104,41.802055,4.447641,2.087883,1.089681,0.105063,0.031095
4355340151,40.099026,5.977149,1.298202,1.094916,0.161485,0.089554
4355360197,36.886528,7.819259,0.743089,0.979079,0.150689,0.151279
4355380242,36.778740,6.455094,0.749722,0.847679,-0.110307,0.054733
4355400288,45.634426,2.986785,2.660265,0.900977,-0.313916,-0.101249
4355420333,55.614540,1.084661,2.847373,1.040384,-0.171519,-0.203263
4355440378,61.220356,1.602539,2.056783,1.027486,0.058557,-0.136613
4355460424,63.071793,1.056502,2.985498,0.979572,0.091701,-0.078934
4355480469,62.899940,0.197860,4.084419,0.928183,0.222985,-0.029982
4355500514,59.987137,-0.100076,4.111365,0.964561,0.355174,0.047519
4355520559,54.542946,-0.451117,4.531473,0.974551,0.345402,0.121621
4355540604,50.747604,-0.375325,4.788262,0.963694,0.259626,0.136473
4355560650,48.960201,0.378836,4.858641,1.042739,0.155950,0.141561
4355580695,49.684238,0.578841,5.569864,0.912923,0.072175,0.203463
4355600741,54.040543,-0.553681,6.352588,1.024122,-0.082097,0.224972
4355620787,61.682655,1.307238,6.075840,1.021801,-0.087818,0.232374
4355640832,66.499840,1.316183,6.089317,1.034081,0.072440,0.254139
4355660878,68.387779,3.092149,5.993280,1.038164,0.062262,0.256900
4355680923,70.129387,4.000212,6.292686,1.046502,0.082986,0.240111
4355700968,71.013069,5.687099,7.324444,0.996145,0.078270,0.238345
4355721015,72.611015,4.191951,6.526628,0.976796,0.022606,0.104508
4355741061,78.422531,3.507758,6.584250,0.963324,-0.160314,-0.025860
4355761106,87.937492,2.414420,7.236178,0.978810,-0.137930,-0.036419
4355781152,94.536995,1.218944,6.913423,0.949286,-0.072648,0.019986
4355801197,100.661827,0.450992,6.965244,0.990736,-0.101527,0.065805
4355821243,108.120041,1.208842,7.551580,0.987143,-0.126215,0.101492
4355841288,114.273468,1.073127,7.470837,0.981048,-0.086010,0.051874
4355861333,119.310074,0.907557,7.786295,0.959118,-0.036352,0.010771
4355881378,123.669838,0.063073,7.903187,0.962941,-0.044868,-0.024502
4355901423,129.526489,-0.559247,8.341800,0.963613,-0.103507,-0.055552
4355921469,140.624802,-1.851199,8.612160,0.956559,-0.198285,-0.145144
4355941514,153.800964,-2.714110,9.612556,1.047127,-0.079721,-0.256817
4355961560,161.251953,-2.405805,10.238737,1.111384,0.146952,-0.328006
4355981606,162.663345,0.291773,9.973125,1.122377,0.278895,-0.318154
4356001651,160.196503,1.465004,10.085860,1.001081,0.360514,-0.259304
4356021696,155.710037,1.076375,10.617414,0.927646,0.412403,-0.178073
4356041742,149.640762,-0.671095,10.343646,0.966066,0.503290,-0.154913
4356061787,142.580124,-1.382129,10.177361,0.975372,0.490616,-0.127092
4356081834,135.801041,-1.461765,9.491533,1.034936,0.406570,-0.117256
4356101880,131.970596,-0.716969,9.051403,1.033283,0.273463,-0.072435
4356121925,128.929230,-0.544281,8.292208,0.986480,0.254188,-0.026943
4356141971,125.411644,-1.314938,8.294256,0.937027,0.315449,-0.068867
4356162019,116.165611,-3.269489,7.823009,0.904422,0.542696,-0.146938
4356182062,97.832397,-5.609976,6.306746,1.016235,0.716988,-0.193978
4356202107,78.928909,-5.605122,4.037235,0.993474,0.474604,0.013785
4356222164,65.722214,-5.433681,3.910857,1.094495,0.391778,0.061946
4356242197,55.017639,-4.729882,3.023500,0.993400,0.158462,0.058338
4356262242,51.931438,-6.124873,3.225576,0.956388,0.075229,-0.010973
4356282288,50.598034,-7.863060,3.119690,0.970091,0.110622,-0.071904
4356302333,47.571049,-9.953724,2.390676,0.941105,0.187505,-0.093052
4356342424,35.404007,-13.433163,1.958262,0.974537,0.287072,-0.096601
4356362469,27.007385,-14.243352,1.909928,0.977213,0.244689,-0.092946
4356382515,20.784554,-15.174578,1.995570,0.983177,0.190788,-0.124004
4356402561,15.718120,-12.257975,1.625683,1.261385,0.200575,-0.221720
4356422606,10.352011,-6.354472,1.068272,1.123860,0.242266,-0.144280
4356442651,3.184525,0.453779,-0.198417,1.121245,0.244665,-0.122907
4356462698,-3.690951,6.937601,-0.101873,1.172931,0.231845,-0.109787
4356482744,-12.274343,14.851228,-1.062035,1.177654,0.278890,-0.054844
4356502789,-20.709732,23.183380,-2.309195,1.374875,0.156731,-0.105481
4356522835,-25.786034,36.508076,-3.592308,1.437687,0.026269,-0.110329
4356542880,-27.494228,49.888515,-4.237949,0.657589,-0.173464,0.721299
4356562926,-20.352823,8.590214,-1.931313,0.226265,-0.216873,0.344011
4356582971,-7.936430,2.097290,-0.041586,0.878697,-0.467113,-0.134656
4356603016,-1.009546,-1.588145,0.493438,0.981072,-0.109880,-0.541408
4356623061,-3.297210,0.282670,-0.927918,1.005634,0.138570,-0.507108
4356643106,-10.591726,-1.319597,-0.888019,1.028226,0.237539,-0.270910
4356663152,-18.466059,-1.778804,-0.817752,1.017386,0.246270,-0.054871
4356683197,-25.796703,-1.666232,-0.721730,0.936392,0.215045,0.105059
4356703243,-31.780264,-2.963871,-0.922245,0.891742,0.111184,0.211294
4356723288,-33.830811,-5.029718,-0.929068,0.947253,-0.035011,0.215493
4356743334,-32.374626,-4.845991,-0.743975,1.046023,-0.160140,0.160730
4356763379,-28.276127,-3.441721,-0.354408,1.039035,-0.184034,0.132475
4356783425,-24.239376,-2.192926,-1.262172,1.063099,-0.173145,0.096462
4356803470,-19.988533,-0.599173,-1.334679,1.025651,-0.151057,0.117398
4356823515,-17.301594,0.056322,-1.602960,1.026524,-0.093847,0.162496
4356843562,-15.590688,0.363347,-0.865395,0.986558,-0.026259,0.193203
4356863608,-17.303802,0.392322,-1.313661,0.971804,0.098022,0.212947
4356883653,-18.197407,-0.385067,-1.232602,0.886444,-0.108224,0.173441
4356903699,-10.149051,-3.069282,0.400621,0.929510,-0.350990,0.107296
4356923744,-2.409852,-4.010938,0.941314,0.942080,0.119173,0.003178
4356943790,-9.480702,-7.732339,0.739400,0.905778,0.345572,-0.140461
4356963835,-16.672750,-7.635838,0.465997,1.052259,0.095009,-0.016634
4356983879,-19.296398,-6.849805,1.224944,1.072964,0.088025,0.029956
4357003925,-21.192244,-6.546446,0.809876,1.009048,-0.008587,0.083585
4357023971,-20.325768,-7.932793,0.996356,1.005100,-0.059721,0.030723
4357044016,-19.632685,-8.367317,0.862091,0.990368,-0.086405,-0.025808
4357064061,-17.936707,-8.839506,0.800188,1.008321,-0.109420,-0.092616
4357084107,-17.506157,-8.038946,0.903790,1.037487,-0.038767,-0.135351
4357104152,-19.506958,-5.373042,0.521100,1.079739,0.024740,-0.114118
4357124198,-23.058142,-1.443344,-0.233069,1.137136,0.066738,-0.075678
4357144243,-27.714607,4.230561,-1.284897,1.200914,0.098653,-0.033700
4357164289,-32.780281,13.043418,-2.667817,1.299427,0.080184,-0.012927
4357184334,-35.495483,25.074093,-3.564516,1.369951,-0.040809,-0.020010
4357204381,-34.332012,40.762856,-4.892521,1.002455,-0.261123,0.611533
4357224427,-26.714067,12.208189,-2.049167,0.139930,-0.258474,0.296804
4357244472,-19.616333,0.886574,-1.522601,0.911426,-0.151237,-0.254566
4357264518,-17.459061,-1.612172,-1.372748,1.020703,-0.139094,-0.529235
4357284563,-18.479671,-0.895623,-1.179576,1.065864,0.012795,-0.430312
4357304609,-21.971411,-0.775308,-1.471370,1.058385,0.116839,-0.180265
4357324654,-27.227568,-0.297079,-1.676629,1.002467,0.183643,-0.011757
4357364744,-38.247051,-1.192827,-2.162836,0.939369,0.065354,0.234796
4357384789,-41.313667,-2.549155,-1.724385,0.923290,0.001065,0.264680
4357404835,-42.292439,-3.403899,-2.122827,0.996894,-0.059775,0.162763
4357424880,-40.793892,-2.359519,-2.163023,1.025710,-0.203997,0.068647
4357444926,-36.815311,-1.854167,-1.607666,1.032437,-0.247300,0.010779
4357464971,-32.254532,-0.961862,-1.851964,1.024276,-0.216265,0.025572
4357485017,-28.648994,-0.740339,-2.044927,1.028093,-0.154473,0.086680
4357505062,-26.089201,-0.167341,-1.729716,1.005991,-0.109888,0.162509
4357525108,-25.151220,-0.296956,-1.862107,0.979288,-0.015761,0.220179
4357545153,-26.410683,0.113487,-2.182900,1.013317,0.053878,0.217396
4357565199,-29.238474,0.722511,-2.137698,1.006508,0.079412,0.206576
4357585245,-31.382099,1.431261,-1.892143,1.006147,0.032045,0.223364
4357605291,-32.843338,1.566930,-2.368576,0.982544,-0.030415,0.212705
4357625336,-31.639555,2.169697,-2.202905,1.021572,-0.142603,0.221666
4357645382,-26.858702,2.682813,-1.678425,0.976040,-0.121525,0.191452
4357665427,-30.277107,1.649095,-3.373827,0.905787,0.171491,0.038841
4357685473,-34.352859,0.512510,-3.359729,1.044867,0.051404,0.024777
4357705518,-38.851387,0.809134,-3.097673,0.995660,0.086581,0.101266
4357725564,-44.250309,1.005699,-3.154036,0.986187,0.102196,0.142524
4357745608,-49.304070,0.440464,-3.122864,1.010172,0.087579,0.139597
4357765653,-54.015148,1.649688,-3.654433,1.046896,0.084969,0.125086
4357785699,-57.859875,3.164263,-4.066282,1.031446,0.010656,0.144083
4357805744,-58.997536,3.673733,-4.420334,0.967537,-0.024338,0.163023
4357825790,-60.429108,2.110950,-4.463768,0.893710,0.026557,0.092029
4357845835,-64.127731,0.364168,-4.714766,0.910882,0.075682,-0.026447
4357865881,-72.594292,-1.926514,-5.620298,0.936091,0.109783,-0.107089
4357885926,-81.474976,-3.552516,-5.771145,0.990346,0.053413,-0.081505
4357905972,-88.641441,-4.370105,-5.866248,1.079858,0.008246,-0.026129
4357926017,-94.357704,-3.124504,-7.020314,1.071795,-0.001427,0.015691
4357946063,-97.721848,-2.029061,-7.478302,1.044304,-0.078751,0.040253
4357966109,-98.662170,-1.183439,-7.501078,0.987688,-0.141286,0.066377
4357986155,-97.846436,-1.236872,-7.631351,0.950701,-0.202181,0.077548
4358006201,-95.370621,-2.308881,-6.827621,0.965841,-0.250475,0.019908
4358026246,-92.082085,-2.344016,-5.936135,0.951732,-0.250641,-0.011532
4358046291,-89.046715,-3.851043,-5.462756,0.954756,-0.236402,-0.039295
4358066337,-85.821533,-4.458994,-5.095393,0.994661,-0.244997,-0.045317
4358086382,-81.893944,-4.967824,-4.787839,0.985941,-0.245549,0.010752
4358106428,-77.435883,-5.620922,-4.314343,1.003925,-0.254827,0.048496
4358126472,-73.102982,-5.535248,-4.024273,1.025951,-0.176358,0.058884
4358146518,-70.088577,-4.444484,-3.956492,1.047081,-0.153181,0.081361
4358166563,-67.583260,-3.422026,-3.710493,1.013419,-0.134103,0.094521
4358186608,-65.446556,-2.758030,-3.540204,1.030577,-0.106281,0.071216
4358206654,-63.441658,-1.286551,-3.499950,1.055826,-0.130897,0.071734
4358226699,-61.010750,-0.568660,-3.129230,1.009506,-0.125871,0.071517
4358246745,-58.990761,-0.027877,-3.491168,1.043470,-0.148775,0.054727
4358266791,-56.705280,0.339420,-3.116459,0.980655,-0.120998,0.072545
4358286836,-54.731930,-0.361031,-3.053079,0.991664,-0.101963,0.076229
4358326927,-52.631725,-0.557919,-2.756953,0.987391,-0.079767,0.078716
4358346974,-51.849777,-0.808912,-2.633744,0.990050,-0.081656,0.088841
4358367019,-51.156212,-0.405136,-2.770809,0.988208,-0.058278,0.089469
4358387065,-50.938942,-0.603786,-3.011249,1.005643,-0.061967,0.098347
4358407110,-50.439323,-0.748096,-2.859993,0.981600,-0.066132,0.077612
4358427156,-50.268120,-0.480950,-2.703734,0.997829,-0.061133,0.061714
4358447201,-50.285038,-0.679294,-2.786801,1.000847,-0.010633,0.065028
4358467247,-51.284874,-0.107806,-2.708172,1.020426,-0.035422,0.074902
4358487315,-51.614094,0.356888,-2.749179,1.016560,-0.047332,0.082341
4358507336,-50.609371,0.372802,-2.577692,0.970371,-0.149612,0.053342
4358527382,-46.639244,-0.775566,-2.009023,0.961094,-0.200416,0.037698
4358547427,-41.101410,-2.008292,-1.844926,0.959479,-0.237735,0.027258
4358567473,-35.731430,-2.242752,-1.696177,1.020059,-0.115968,0.055253
4358587518,-33.462334,-1.731807,-1.810682,1.031723,-0.055308,0.086725
4358607564,-31.321878,-0.312911,-1.459584,1.020543,-0.093896,0.087252
4358627609,-29.404007,-0.029615,-1.115669,1.024544,-0.060808,0.068883
4358647655,-28.184288,-0.083101,-1.314912,0.979758,-0.043606,0.058725
4358667700,-27.465063,-0.440998,-1.274186,0.982911,-0.059735,0.040815
4358687746,-25.685570,-0.348345,-0.965159,1.009586,-0.076710,0.039934
4358707791,-23.076796,0.033568,-0.894788,1.014966,-0.092326,0.053031
4358727838,-20.025383,0.445974,-0.871315,1.020966,-0.107952,0.060308
4358747884,-16.772743,1.133082,-0.722757,1.006410,-0.108323,0.068272
4358767929,-13.337792,1.301901,-0.621860,1.008610,-0.093068,0.050145
4358787975,-10.393611,1.561847,-0.603440,0.988452,-0.081731,0.047565
4358808020,-8.136596,1.166385,-0.508373,0.974532,-0.056379,0.042314
4358828066,-6.361071,0.831784,-0.404165,0.991691,-0.038895,0.037816
4358848111,-5.244101,0.748346,-0.364430,1.003319,-0.024119,0.049939
4358868173,-4.071299,0.878592,-0.204226,1.010103,-0.028375,0.055822
4358888201,-3.149954,1.045992,-0.421339,1.002891,-0.031288,0.060761
4358908246,-2.690857,1.198566,-0.407831,0.985656,0.011659,0.079502
4358928291,-2.385359,1.274808,-0.429296,1.003005,0.001931,0.068874
4358948337,-2.109558,1.434980,-0.404615,0.994749,0.000386,0.076642
4358968383,-1.850766,1.236769,-0.462467,0.983953,-0.007794,0.089730
4358988428,-0.886127,1.122885,-0.389108,0.994080,-0.021254,0.083407
4359008473,0.231541,1.054778,-0.311230,1.006301,-0.029989,0.072138
4359028519,1.540953,1.657390,-0.224023,1.018766,-0.023599,0.074820
4359048565,2.856438,2.168356,-0.220684,1.009638,-0.020145,0.080235
4359068610,4.132566,2.374351,-0.269056,0.997729,-0.032250,0.087357
4359088657,5.984062,2.435964,-0.205849,0.988421,-0.036712,0.092426
4359108702,7.738585,2.337838,-0.002683,0.984105,-0.028913,0.081956
4359128748,10.521559,1.966161,0.425965,0.976327,-0.092804,0.072391
4359148794,14.648057,1.533602,0.737048,0.965003,-0.096997,0.077130
4359168839,18.814960,0.726948,0.758217,0.981934,-0.087177,0.060031
4359188884,22.639868,0.674884,0.867566,0.997878,-0.065330,0.054367
4359208930,25.646923,0.584533,0.992912,0.995038,-0.022218,0.051711
4359228975,27.877102,0.456262,1.286288,1.009593,-0.003997,0.054519
4359249020,29.278744,0.502676,1.419406,0.987736,0.028193,0.064824
4359269065,29.679178,0.663180,1.571572,0.999723,0.050196,0.047880
4359289111,29.839237,0.602195,1.545745,0.982453,0.066001,0.048511
4359309156,29.606352,0.221652,1.788416,0.975204,0.067708,0.042005
4359329220,29.338820,-0.532823,1.819043,0.974662,0.059238,0.036945
4359349247,29.177092,-0.974997,1.770163,0.988728,0.039134,0.025936
4359369292,29.476265,-1.241501,1.834018,1.002474,0.013129,0.021842
4359389338,30.417351,-1.004935,1.860819,0.997433,0.011044,0.030555
4359409384,30.997129,-1.012570,1.788462,0.991160,0.020600,0.037545
4359429429,31.173599,-1.035304,1.823321,1.001135,0.025182,0.048533
4359449474,31.682281,-1.118466,2.050612,0.998509,0.032922,0.055101
4359469521,32.069828,-1.210117,1.921134,1.001177,0.047841,0.052216
4359489567,31.994249,-0.928071,1.959869,1.000725,0.056657,0.048124
4359509612,31.687128,-0.471100,1.872609,1.016105,0.060322,0.050216
4359529658,31.511156,-0.059664,1.851730,1.014249,0.039905,0.081419
4359549703,32.483551,0.024598,1.924278,0.999581,-0.009548,0.114431
4359569749,34.533516,0.124323,1.968225,0.975351,0.013507,0.104820
4359589794,35.852917,-0.569207,1.807385,0.998682,-0.014668,0.100293
4359609840,38.619995,-0.567570,2.189250,0.968680,-0.042406,0.130353
4359629884,41.423843,-1.152877,2.511223,0.973228,-0.000583,0.112505
4359649929,42.597340,-1.595058,2.306530,0.977146,0.045970,0.095385
4359669975,42.977409,-1.769520,2.613035,0.935767,0.148652,0.062787
4359690020,39.043713,-3.250392,2.037131,1.049086,0.150310,0.031803
4359710066,36.540096,-1.711205,2.218133,1.036507,0.102803,0.083749
4359730111,35.381279,-0.644232,2.366971,1.034222,0.078758,0.121046
4359750156,34.425602,0.223246,1.916499,1.033153,0.065424,0.092492
4359770202,34.157433,0.520294,1.874865,0.979486,0.034473,0.073396
4359790248,34.610321,0.055806,1.989887,0.965127,0.012936,0.046807
4359810293,35.488232,-0.599485,1.936826,0.972438,0.001267,0.026821
