Timestamp (us),Gyroscope X (deg/s),Gyroscope Y (deg/s),Gyroscope Z (deg/s),Accelerometer X (g),Accelerometer Y (g),Accelerometer Z (g)
4126648866,0.665125,-0.842182,-0.165074,0.957197,0.024053,0.305451
4126668910,0.286872,0.123448,-0.132613,0.955330,0.026516,0.301775
4126688955,0.461309,-0.188315,-0.095564,0.947825,0.020136,0.311696
4126709000,2.635360,-2.888797,-0.886746,0.952766,0.013633,0.305140
4126729045,5.446208,-2.397543,-1.693447,0.956007,0.003528,0.301241
4126749089,9.571328,-2.614256,-2.425753,0.961523,-0.011479,0.305047
4126769134,13.167801,-5.635942,-4.873088,0.968760,-0.023496,0.297187
4126789179,17.722744,-6.127010,-6.400733,0.972736,-0.011305,0.276904
4126809224,23.790569,-1.936576,-6.199814,0.955808,0.046706,0.271021
4126829268,26.647518,-1.314322,-2.954059,0.946741,0.117424,0.286212
4126849314,20.441509,-7.066600,5.220066,0.939869,0.099200,0.273293
4126869359,19.186588,-13.274000,8.069562,0.959769,0.069999,0.247914
4126889404,15.473158,-11.668679,4.447352,1.015172,0.159073,0.249769
4126909449,6.455040,0.932395,2.081964,0.995637,0.210190,0.230813
4126929494,3.257604,7.435441,5.825678,0.955537,0.171904,0.286646
4126949538,-1.894032,2.203601,7.134760,0.920011,0.123452,0.320382
4126969583,-8.113589,-2.809162,3.423747,0.919374,0.100171,0.301997
4126989628,-13.543684,-3.801052,1.455088,0.938434,0.105574,0.294353
4127009671,-18.781830,-1.721967,0.502905,0.942851,0.134605,0.296421
4127029715,-27.056349,-1.851925,-0.142032,0.928768,0.139525,0.304654
4127049760,-34.290752,-7.347886,1.396581,0.941809,0.091245,0.286666
4127069805,-34.141708,-10.630264,4.171602,0.973624,0.052711,0.255988
4127089850,-32.580276,-4.825595,2.142912,0.987946,0.071794,0.251838
4127109894,-34.764343,-0.158135,-0.633052,0.977236,0.098414,0.242253
4127129939,-39.875175,-1.247295,1.418393,0.979528,0.100044,0.245443
4127149984,-47.862095,-2.015077,2.729757,0.990314,0.079814,0.231304
4127170029,-52.192898,0.799742,0.116752,1.001400,0.058858,0.205701
4127190073,-54.860649,5.642741,-1.985259,1.005146,0.057366,0.196272
4127210118,-61.346355,8.224356,-3.362594,0.999115,0.071574,0.207036
4127230163,-68.083801,7.612686,-7.424239,0.991729,0.077538,0.234611
4127250209,-77.216270,4.092628,-10.131569,0.995885,0.078571,0.222250
4127270254,-86.670959,5.435901,-15.926437,0.986917,0.126827,0.220421
4127290298,-97.628769,5.762462,-20.649878,0.995839,0.145763,0.222515
4127310343,-111.448730,0.780240,-21.758133,0.995071,0.103881,0.190807
4127330388,-123.179337,1.958879,-26.186956,0.978875,0.059186,0.154276
4127350433,-130.329926,4.973809,-28.671877,1.003867,0.046088,0.147283
4127370478,-139.229050,8.105145,-29.193213,1.014940,0.068629,0.148179
4127390522,-143.945816,15.426746,-33.498775,0.990812,0.098520,0.159501
4127410569,-151.194946,18.403797,-35.891487,0.964862,0.110046,0.174057
4127430610,-161.484589,12.780518,-36.005352,0.948502,0.084030,0.185897
4127450655,-170.133514,7.177545,-38.508728,0.975140,0.060086,0.157519
4127470699,-176.581253,8.024739,-43.053928,1.006208,0.057137,0.091945
4127490744,-180.108368,18.811810,-46.076782,0.991842,0.035402,0.069713
4127510789,-182.892517,29.546597,-45.631340,0.976338,0.024998,0.111476
4127530834,-187.967072,26.054998,-44.880630,0.976868,0.019024,0.118448
4127550879,-193.863388,14.878687,-46.607540,0.995426,0.022916,0.090146
4127570923,-199.208054,10.891110,-50.653816,1.022595,0.037075,0.037239
4127590968,-200.213913,14.918309,-55.175179,1.066407,0.062883,-0.009269
4127611013,-203.446335,13.946472,-59.027187,1.143085,0.124010,-0.058195
4127631057,-207.042114,18.171993,-66.941872,1.216613,0.209935,-0.150959
4127651102,-204.421158,30.344076,-71.300667,1.196374,0.282264,-0.225541
4127671148,-208.861679,40.224022,-48.245861,1.126284,0.110351,-0.165729
4127691193,-256.408203,28.568573,-12.437601,1.166478,-0.359433,-0.008238
4127711238,-314.288086,33.121693,-4.638856,1.107957,-0.769545,0.103245
4127731282,-284.786163,67.431717,-48.154175,0.880054,-0.899996,0.161380
4127751327,-152.204285,38.093937,-78.740036,0.671458,-0.798844,0.202086
4127771372,-53.231846,-34.702129,-83.901993,0.673666,-0.471296,0.117003
4127791417,-55.052383,-79.384804,-83.365837,0.905789,0.046190,0.347683
4127811475,-183.510559,-67.553139,-65.540443,1.016806,0.228545,0.078225
4127831504,-170.537796,-42.136227,-57.131454,1.051145,-0.106590,-0.265364
4127851549,-133.444595,5.290550,-40.144302,1.202138,-0.212594,-0.214495
4127871594,-148.058624,66.549667,-39.945423,1.164574,-0.144209,0.035221
4127891639,-165.062637,83.290268,-47.068260,0.992232,-0.142744,0.207481
4127911683,-157.655838,47.703907,-49.529259,0.868986,-0.191958,0.306680
4127931728,-136.858841,-2.077254,-52.727058,0.916952,-0.169045,0.259225
4127951773,-129.324219,-19.039917,-50.521389,1.045349,-0.125744,0.147366
4127971818,-128.005112,-4.491514,-46.507565,1.064723,-0.146226,0.041063
4127991862,-127.027534,10.774664,-52.654598,1.043696,-0.119874,0.035958
4128011907,-126.738876,15.554192,-55.007767,1.070663,-0.106913,0.068642
4128031952,-126.321243,16.534046,-55.613743,1.028752,-0.118003,0.099473
4128051998,-132.839035,9.051644,-58.596397,0.993777,-0.152320,0.109971
4128072043,-136.849762,-1.174599,-56.758060,0.975936,-0.181178,0.116452
4128092087,-134.903580,-9.309083,-56.887184,1.000798,-0.134681,0.130453
4128112132,-137.069870,-7.026539,-55.859501,1.025016,-0.078882,0.130806
4128132176,-134.931671,-3.007369,-55.308319,1.012384,-0.050447,0.103530
4128152221,-133.540344,-7.043666,-53.372505,0.986261,-0.014004,0.084192
4128172266,-136.763916,-9.343395,-52.271435,0.966721,-0.025017,0.046357
4128192311,-139.787247,-7.569899,-52.440388,0.991494,-0.053051,0.041034
4128212355,-143.523666,-2.587903,-51.746044,1.001568,-0.040697,0.080701
4128232399,-147.162048,-4.059482,-52.158615,0.993860,0.008168,0.114929
4128252444,-151.861313,-13.709012,-53.720924,1.002732,0.029435,0.086412
4128272489,-153.479553,-16.861984,-53.903614,1.023827,0.022796,0.044377
4128292533,-158.846329,-11.801187,-50.134281,1.050401,0.019370,0.041777
4128312578,-159.019775,-5.203092,-48.935497,1.065533,0.029469,0.057554
4128332623,-157.936325,-2.870660,-49.037430,1.101840,0.020899,0.094672
4128352668,-151.750504,2.490395,-48.358570,1.074316,-0.030105,0.094983
4128372712,-138.321396,7.031841,-47.856361,1.011701,-0.104676,0.104246
4128392757,-125.006363,3.477688,-49.471134,0.970606,-0.159778,0.139726
4128412802,-111.192093,-4.196782,-51.771481,0.942507,-0.148662,0.168745
4128432846,-97.687981,-13.062952,-51.097191,0.927688,-0.116236,0.159265
4128452892,-88.740738,-17.879225,-45.127544,0.914379,-0.125988,0.144863
4128472937,-80.068024,-20.447838,-44.437401,0.904531,-0.099263,0.151399
4128492982,-73.230316,-26.809816,-48.628162,0.933557,-0.036539,0.161199
4128513027,-74.374046,-32.978752,-44.553013,0.990523,0.013531,0.155921
4128533072,-76.174240,-32.107113,-36.556057,1.024550,0.028311,0.127278
4128553116,-75.932938,-28.122051,-31.007938,1.023184,0.029624,0.104496
4128573161,-75.276070,-24.716085,-27.854603,1.031773,0.028782,0.094096
4128593206,-73.760216,-23.218233,-23.822327,1.044298,0.023060,0.085221
4128613249,-73.479851,-23.573942,-19.908335,1.026085,0.039810,0.069472
4128633294,-73.776070,-27.107214,-18.142897,1.004245,0.129944,0.032970
4128653339,-84.434448,-25.842283,-14.573194,1.054200,0.296595,0.060456
4128673383,-110.667770,-9.419919,-3.478183,1.081526,0.346509,0.060335
4128693428,-123.319389,-11.149647,13.152156,1.025370,0.243326,0.059866
4128713473,-128.533920,-31.605682,31.175419,1.009500,0.180490,0.011651
4128733518,-121.134666,-33.843288,38.685772,1.041569,0.176304,-0.059095
4128753562,-131.922516,-22.254755,29.280369,1.048972,0.109619,-0.162372
4128773607,-135.829514,7.338533,13.337251,1.014507,-0.053655,-0.144979
4128793652,-138.003510,25.728373,0.652069,0.959279,-0.184766,0.065193
4128813696,-142.240891,-6.607258,-12.479761,0.962767,-0.178378,0.085833
4128833741,-135.440186,-36.292881,-27.176676,1.106398,0.037072,-0.003665
4128853787,-156.702057,-14.604757,-26.782759,1.190430,0.258412,-0.070339
4128873832,-179.294052,22.168285,-17.555681,1.070892,0.189894,-0.160690
4128893877,-190.450272,36.264915,-11.114576,0.967865,0.032652,-0.081937
4128913922,-205.857269,34.795055,-13.394823,0.957516,-0.022547,0.028698
4128933966,-218.152817,28.939383,-27.038420,0.964339,0.016657,0.093066
4128954011,-219.578613,21.044216,-42.271851,0.965625,0.058902,0.050391
4128974056,-219.903748,14.011982,-46.414680,1.002603,0.078970,-0.022249
4128994100,-221.765884,20.231480,-45.263538,1.064759,0.144627,-0.154898
4129014144,-225.752991,25.053240,-46.425987,1.118598,0.344639,-0.308200
4129034188,-251.970459,34.926579,-45.990520,1.162341,0.459847,-0.447311
4129054234,-286.751862,46.497124,-23.283667,1.153367,0.085690,-0.391937
4129074278,-359.010315,55.836567,19.680193,1.193491,-0.580427,-0.091252
4129094323,-440.680237,112.405144,24.275349,1.099072,-0.990221,0.102725
4129114367,-304.861328,176.260559,-31.457169,0.631157,-1.073234,0.209701
4129134412,-82.128204,58.418747,-78.153793,0.363946,-0.758343,0.123301
4129154457,34.162540,-89.295044,-95.528877,0.549458,-0.336530,0.027216
4129174501,21.233875,-187.614029,-95.367271,0.951324,0.268444,0.465086
4129194546,-217.764893,-169.372055,-63.673126,1.126875,0.509716,0.031004
4129214591,-197.558517,-89.435944,-76.489044,1.167302,-0.048090,-0.669145
4129234636,-123.214767,17.142027,-66.677040,1.357838,-0.062817,-0.521597
4129254682,-186.654266,74.667923,-44.868092,1.247075,0.124321,-0.139651
4129274727,-203.576538,106.382462,-33.729420,1.114263,-0.037307,0.026869
4129294771,-178.338852,87.174446,-21.471704,0.949296,-0.213599,0.179073
4129314816,-159.746521,23.420944,-33.895615,0.868445,-0.359335,0.243507
4129334861,-132.048889,-31.601841,-51.242836,0.986051,-0.314628,0.177353
4129354905,-125.679871,-56.713566,-53.736252,1.081045,-0.135570,0.085797
4129374950,-141.167252,-51.911053,-52.182194,1.087788,-0.045230,-0.051557
4129394995,-152.714203,-32.129448,-47.259506,1.054050,-0.000643,-0.132564
4129415038,-164.207275,-16.423601,-46.188240,1.018240,0.047099,-0.122658
4129435083,-168.243607,-14.284694,-47.020187,1.029236,0.097986,-0.085306
4129455128,-167.679291,-17.590563,-44.987301,1.053632,0.090545,-0.080423
4129475172,-170.032944,-12.929935,-46.375427,1.059129,0.035293,-0.107422
4129495217,-172.925644,-7.609429,-51.873928,1.056728,0.005073,-0.118298
4129515262,-173.414261,-3.678740,-50.304527,1.061781,-0.043015,-0.088821
4129535307,-172.784714,-0.133801,-42.420151,1.078441,-0.117326,-0.043474
4129555351,-165.466843,-2.615135,-36.188816,1.074678,-0.180524,-0.003739
4129575396,-157.368851,-9.569342,-36.579536,1.044174,-0.163025,0.007911
4129595441,-152.504654,-17.532635,-39.161430,1.036201,-0.089358,-0.020432
4129615486,-149.616211,-18.081434,-37.065170,1.041140,-0.051306,-0.055490
4129635530,-148.980667,-10.744763,-31.416588,1.032720,-0.053356,-0.053804
4129655577,-147.679398,-4.701796,-28.011663,1.026222,-0.074763,-0.027272
4129675621,-142.919449,-6.074564,-29.189604,1.026619,-0.066932,-0.002661
4129695666,-142.092529,-8.508087,-30.488754,1.021124,-0.038081,-0.008220
4129715711,-144.591309,-6.551773,-28.764946,1.025120,-0.033141,-0.010143
4129735755,-144.991669,-2.453432,-26.061256,1.026452,-0.049776,0.011855
4129755800,-143.971039,-0.477438,-24.524435,1.004579,-0.055325,0.043606
4129775845,-142.714325,-6.019767,-25.267807,0.980080,-0.046255,0.049452
4129795890,-141.444885,-13.522958,-25.727543,0.987944,-0.047755,0.034864
4129815933,-138.366226,-14.346368,-25.453255,1.016407,-0.056428,0.016661
4129835977,-135.195648,-10.890610,-25.054207,1.003337,-0.058684,0.017950
4129856022,-135.246750,-10.001225,-24.925144,0.987148,-0.078105,0.034380
4129876067,-134.222931,-12.168142,-24.557648,0.995346,-0.081870,0.047582
4129896112,-130.454834,-15.173365,-23.875198,0.998060,-0.045931,0.043208
4129916157,-128.960419,-15.310931,-22.690453,1.019361,-0.010926,0.036519
4129936201,-131.775909,-12.177080,-22.839432,1.049603,-0.009680,0.019523
4129956246,-133.938385,-7.979125,-21.722170,1.018318,-0.031208,0.015921
4129976291,-131.894165,-10.321508,-20.844288,1.012907,-0.050188,0.027510
4129996335,-127.519859,-16.048853,-21.382835,1.043648,-0.041328,0.030484
4130016380,-126.600906,-16.650087,-21.351219,1.071291,-0.030373,0.014298
4130036425,-127.949417,-11.449704,-20.591589,1.067816,-0.034532,-0.000624
4130056471,-126.506386,-5.756736,-17.728317,1.029580,-0.049137,0.005772
4130076516,-124.698624,-5.081282,-16.501034,0.987753,-0.055150,0.033012
4130096561,-122.473534,-6.809387,-18.329615,0.976687,-0.061366,0.045455
4130116605,-119.099464,-8.029236,-20.152250,0.980004,-0.052200,0.046587
4130136650,-117.216019,-7.362386,-21.005333,0.986850,-0.018917,0.049185
4130156695,-117.842178,-5.887053,-20.438173,0.995740,-0.000565,0.058658
4130176739,-117.979256,-6.578474,-20.162210,0.998848,-0.004755,0.065635
4130196784,-117.648643,-8.114231,-20.452787,0.995952,-0.011799,0.056385
4130216827,-115.958298,-8.837302,-19.444212,1.007466,-0.023396,0.052377
4130236872,-115.145203,-7.750486,-18.072561,1.009285,-0.027441,0.064078
4130256917,-114.868271,-8.510248,-16.862658,1.008070,-0.034204,0.071772
4130276962,-113.087097,-10.168128,-15.511071,1.008240,-0.046941,0.075794
4130297007,-112.469627,-10.761195,-14.799126,1.002155,-0.045578,0.075101
4130317051,-111.650810,-12.016016,-14.796599,0.994004,-0.036461,0.070960
4130337096,-110.014793,-15.430136,-14.783060,0.989931,-0.023607,0.062448
4130357141,-108.564568,-16.898230,-14.579479,1.005593,-0.028807,0.044123
4130377185,-106.704826,-14.232018,-14.634350,1.020920,-0.035084,0.039917
4130397230,-106.000916,-11.276064,-14.878709,1.015289,-0.031746,0.048588
4130417275,-104.360641,-12.326379,-14.882673,0.993353,-0.021609,0.055901
4130437320,-104.489342,-14.302856,-15.786396,0.995249,-0.013990,0.066960
4130457366,-105.664368,-15.031850,-16.538528,1.001606,-0.016767,0.061839
4130477410,-103.947983,-15.222624,-14.936427,1.000335,-0.031028,0.053754
4130497455,-100.373604,-15.665429,-12.449377,0.994650,-0.039222,0.056147
4130517500,-96.466324,-15.621474,-8.624517,1.001597,-0.039444,0.077504
4130537544,-95.480911,-15.879242,-5.287396,0.960181,-0.020424,0.087788
4130557589,-94.979355,-25.462107,-0.756914,0.948734,-0.003356,0.066987
4130577634,-96.238174,-33.195576,5.788929,0.985340,0.020245,0.040657
4130597679,-98.455147,-31.109360,9.575010,1.062634,0.071855,0.013209
4130617722,-103.019737,-24.249617,9.512103,1.104781,0.087808,-0.013018
4130637767,-107.207916,-12.322076,6.043758,1.097556,0.004972,-0.060640
4130657812,-104.596634,3.201857,1.537120,1.078316,-0.096242,-0.052844
4130677856,-95.640694,13.651307,-1.504943,1.013434,-0.167745,0.022657
4130697901,-85.189865,11.589285,-3.297238,0.962775,-0.212254,0.103502
4130717946,-74.984825,-3.547694,-9.455808,0.924514,-0.199770,0.124151
4130737991,-66.111458,-18.947828,-11.810008,0.934689,-0.107831,0.088414
4130758035,-63.612625,-24.466295,-7.824343,0.983753,-0.023934,0.054940
4130778080,-67.548996,-18.077669,-6.406054,1.020754,-0.004908,0.027011
4130798125,-69.021347,-8.522281,-6.312379,1.027085,-0.038424,0.007031
4130818170,-66.727112,-0.536069,-6.619397,1.014459,-0.073883,0.006776
4130838214,-60.784157,1.769526,-6.362411,0.997666,-0.097119,0.023871
4130858261,-56.012714,0.382011,-6.511956,0.983259,-0.099118,0.045269
4130878305,-51.811638,-2.312068,-6.076903,0.992509,-0.091829,0.063758
4130898350,-47.187881,-4.633621,-4.632211,1.003667,-0.095269,0.065052
4130918395,-43.901115,-5.479673,-3.605286,1.019495,-0.083716,0.069078
4130938439,-44.055454,-5.114156,-2.385521,1.023421,-0.070088,0.070724
4130958484,-42.834312,-6.246913,-0.611131,1.013075,-0.069844,0.057900
4130978529,-38.806400,-9.176212,0.381607,1.008991,-0.064475,0.048084
4130998599,-37.551239,-9.488773,0.715102,1.025470,-0.046299,0.049056
4131018617,-37.966396,-6.005894,3.823258,1.027979,-0.005808,0.043551
4131038662,-37.141079,-7.000684,7.398470,0.998258,0.039528,0.048513
4131058706,-40.754463,-9.096047,5.866404,1.010754,0.027751,0.021934
4131078751,-40.809532,-0.979529,3.489862,1.065264,-0.027641,0.001485
4131098796,-38.198967,12.729942,3.647343,1.068940,-0.065747,0.021765
4131118841,-37.176800,20.078648,3.015476,1.013686,-0.075888,0.067878
4131158930,-26.297077,10.863216,-0.510316,0.963310,-0.128434,0.109916
4131178975,-19.375931,4.213279,-2.621653,0.959132,-0.096872,0.103798
4131199027,-16.977772,1.672613,-2.538600,0.978289,-0.050655,0.105013
4131219064,-16.128414,6.034381,-3.196791,0.991055,-0.057155,0.102519
4131239110,-11.388345,7.527722,-2.983142,0.989365,-0.057390,0.116803
4131259155,-6.267439,6.711602,0.513256,0.992355,-0.043971,0.125363
4131279200,-4.643670,7.319542,3.364711,1.017857,-0.024238,0.133490
4131299245,-5.911970,7.442384,3.663815,1.016477,-0.041378,0.118052
4131319289,-6.355945,8.650661,2.294783,0.956626,-0.049447,0.101112
4131339334,-2.251813,3.014256,0.645948,0.950608,-0.034890,0.109688
4131359379,-0.750265,-6.647688,0.285510,1.049745,-0.033275,0.097288
4131379424,0.176444,-2.256333,-2.034091,1.126478,-0.029587,0.060581
4131399467,-1.636009,15.658548,-5.412037,1.077137,0.009326,0.044513
4131419512,-10.014360,26.168566,-8.473619,0.994205,0.032274,0.058103
4131439556,-12.129445,28.967564,-8.216263,0.973665,0.012133,0.091988
4131459601,-8.759040,30.813305,-4.488029,0.982657,-0.018306,0.137007
4131479646,-8.729524,29.939281,-4.304590,0.974555,-0.026634,0.153496
4131499691,-8.692435,29.132740,-6.155357,0.946229,-0.002506,0.140981
4131519735,-6.391360,27.458656,-6.026670,0.946550,0.028366,0.149651
4131539780,-4.249326,24.158588,-4.958175,0.980409,0.033578,0.158869
4131559825,-3.169080,23.640997,-4.539344,1.003205,0.047754,0.161923
4131579870,-6.188900,29.815657,-3.904946,0.993211,0.051862,0.142059
4131599915,-8.234140,33.657631,0.213364,0.965436,0.025957,0.133057
4131619959,-6.956155,39.655869,5.507848,0.996838,0.009844,0.188410
4131640005,-4.970842,45.895794,8.762593,1.009332,0.030425,0.248603
4131660050,-7.846816,42.242878,9.953697,0.951739,0.038334,0.252214
4131680095,-1.383118,36.217209,9.201334,0.978762,0.027029,0.245130
4131700140,6.638693,41.263756,7.017172,1.056862,0.015343,0.253354
4131720184,-0.420954,42.501293,7.298679,1.023646,0.012346,0.224092
4131740229,5.694615,29.417488,12.337944,0.980811,-0.097554,0.104781
4131760274,44.851990,24.403063,7.570519,0.932071,-0.088534,0.279247
4131780318,8.896420,42.244247,-5.495070,0.901904,-0.002429,0.461225
4131800362,9.488928,22.096785,0.027463,0.938494,-0.016020,0.360180
4131820407,21.248316,10.107574,-0.767483,0.997733,0.010199,0.251598
4131840451,16.182964,21.977444,1.027576,1.015541,0.067366,0.238875
4131860496,7.930106,33.766247,2.351962,1.014473,0.040409,0.253110
4131880541,3.271099,40.025364,1.741829,0.982770,0.044116,0.321405
4131900586,-2.658586,35.652588,1.966647,0.931281,0.020784,0.329051
4131920630,-4.154288,32.066471,2.225291,0.986113,-0.012664,0.305601
4131940675,-6.121820,38.173100,5.700928,0.970739,-0.026457,0.320351
4131960720,-4.598446,36.575413,5.210806,0.872716,-0.042099,0.349354
4131980764,0.425256,27.312523,3.207907,0.852435,-0.048976,0.389869
4132000809,1.702766,18.676226,1.423596,0.878007,-0.030725,0.369693
4132020854,-1.449753,15.485856,-0.347135,0.917043,0.005367,0.323429
4132040900,-5.480232,15.556708,-2.639880,0.950772,0.021997,0.310428
4132060945,-8.909880,17.185774,-3.628358,0.975552,0.012550,0.328532
4132080989,-13.062062,16.771286,-3.710405,0.974708,-0.007749,0.331060
4132101034,-17.909569,16.135714,-6.590445,0.986296,-0.009652,0.318870
4132121079,-20.091640,19.267498,-10.103947,0.999916,-0.011439,0.326905
4132141123,-19.866756,21.645432,-12.081059,0.967543,-0.038754,0.352750
4132161168,-19.896626,20.260693,-15.263968,0.936483,-0.049458,0.383931
4132181213,-21.272129,16.871874,-15.478766,0.932551,-0.035852,0.391347
4132201256,-18.838959,16.474655,-15.215169,0.923704,-0.038243,0.382835
4132221301,-14.930630,16.319359,-15.008821,0.910931,-0.049176,0.395032
4132241346,-15.487981,17.947559,-12.415867,0.867351,-0.040090,0.438977
4132261391,-17.672321,13.656602,-8.982064,0.809596,-0.018404,0.468785
4132281435,-16.949364,4.854555,-8.575517,0.824672,0.011040,0.474388
4132301480,-23.891705,0.475776,-6.743085,0.839797,0.034905,0.439978
4132321524,-25.595375,-2.858814,-5.317486,0.853582,0.055574,0.439817
4132341569,-18.928061,-7.516130,-5.166126,0.876953,0.020134,0.441008
4132361614,-12.472101,-12.727815,-4.349830,0.928201,-0.038808,0.427120
4132381659,-12.138750,-10.546412,-3.706893,0.981216,-0.052155,0.406040
4132401704,-14.646870,-1.272406,-5.943829,0.957040,-0.017302,0.397655
4132441795,-15.897591,0.568087,-5.844559,0.944575,0.030240,0.402998
4132461840,-14.235902,10.386937,-5.432340,0.902348,0.022975,0.407757
4132481884,-9.246572,14.709417,-1.017978,0.844353,-0.006063,0.457283
4132501929,-2.233580,10.677144,3.754446,0.817291,-0.030125,0.489969
4132521974,7.704548,7.417222,7.650464,0.816282,-0.052089,0.451358
4132542019,12.324109,11.442184,8.944441,0.812607,-0.057146,0.437899
4132562063,8.137321,12.106296,7.246561,0.820516,-0.040879,0.459582
4132582108,1.643459,4.792084,6.472871,0.838318,-0.014377,0.454850
4132602151,-3.077541,-3.374583,6.478697,0.874202,0.018237,0.437817
4132622196,-11.948140,-1.710113,6.164222,0.906629,0.044979,0.420990
4132642241,-21.857126,6.316041,3.642386,0.932369,0.074068,0.424853
4132662285,-31.729343,8.862197,1.422563,0.952040,0.093228,0.429846
4132682330,-43.393349,4.571045,3.123510,0.956072,0.092243,0.390461
4132702375,-55.844952,-6.649400,8.950928,0.964795,0.033659,0.451007
4132722420,-75.357231,-18.686872,9.789940,0.987905,-0.139720,0.488752
4132742464,-86.027870,-22.489752,0.603883,0.974790,-0.346775,0.447028
4132762509,-66.160965,-9.629106,-11.308012,0.923098,-0.495585,0.499956
4132782554,-8.799461,2.519476,-13.511506,0.852566,-0.554570,0.517590
4132802599,67.910812,-11.014288,-11.473783,0.809976,-0.433245,0.439891
4132822643,118.994682,-16.515320,-10.618468,0.829796,-0.170797,0.427855
4132842690,126.469032,-4.250504,-2.314864,0.871218,0.054020,0.475466
4132862735,105.127304,7.684551,11.718019,0.859519,0.204623,0.500995
4132882779,70.796677,10.483365,17.280924,0.816135,0.233149,0.485512
4132902824,32.193924,2.201123,16.350563,0.814743,0.192963,0.485287
4132922868,-0.970690,-0.658937,15.381001,0.830289,0.099853,0.538338
4132942913,-8.759275,5.397140,13.598982,0.828562,0.006104,0.518159
4132962958,10.221959,7.704818,9.741158,0.825887,-0.042335,0.483487
4132983003,30.664598,4.454724,4.993662,0.838165,-0.049548,0.544909
4133003046,33.410427,-0.526681,3.712681,0.850480,-0.058051,0.616994
4133023091,27.054518,-6.174889,6.417921,0.874335,-0.049932,0.604173
4133043136,11.968248,-13.116177,7.126761,0.901883,0.007843,0.569847
4133083225,-0.747547,-2.368201,0.944235,0.943469,0.044272,0.412252
4133103270,2.958492,10.298434,-0.216045,0.937802,0.033425,0.425866
4133123314,2.671880,13.817316,-1.298972,0.889140,-0.016421,0.429017
4133143359,5.226491,8.722853,-0.833790,0.899816,-0.024762,0.444733
4133163404,2.831757,9.833499,-3.322898,0.915400,0.014866,0.422669
4133183449,0.814485,21.349308,-5.512388,0.900221,0.034899,0.413288
4133203493,4.463506,31.447962,-4.445260,0.848878,0.027922,0.476246
4133223538,6.752969,28.763641,-2.890908,0.819972,0.013142,0.527962
4133243584,5.540897,20.017796,0.448231,0.805195,0.031456,0.471164
4133263629,3.160197,28.586559,2.058225,0.857696,0.069916,0.414600
4133283674,5.422321,38.221588,0.515731,0.768161,0.105683,0.497412
4133303719,7.776365,28.779404,0.308534,0.697422,0.014856,0.636579
4133323763,14.229888,3.573821,-7.891548,0.788884,-0.060834,0.684031
4133343808,11.666791,-14.465633,-19.449888,0.927121,0.004317,0.500593
4133363853,7.432420,-1.290972,-21.669659,0.978623,0.113233,0.414762
4133383897,-0.217161,25.837019,-17.019968,0.994074,0.164573,0.598725
4133403941,-5.668147,27.054497,-7.578347,0.911941,0.040232,0.844517
4133423985,-5.964478,3.632688,-0.308932,0.793399,-0.008105,0.760653
4133444030,-1.440937,-19.697226,0.859279,0.827195,0.091202,0.583453
4133464075,-5.741353,-18.385250,2.947950,0.892046,0.118931,0.493382
4133484119,-7.284043,-12.211608,4.157632,0.891888,0.016422,0.400178
4133504164,-6.128039,-1.131340,2.942221,0.855597,-0.059767,0.379237
4133524209,-6.957759,11.333504,0.697019,0.784674,-0.062335,0.456584
4133544254,-8.342257,10.528207,-1.119996,0.739625,-0.023177,0.495627
4133564299,-8.408940,6.256902,-0.612639,0.760590,0.017230,0.504005
4133584343,-8.615094,8.765564,-0.049676,0.787134,0.050044,0.557826
4133604388,-7.750187,8.818696,1.444446,0.792294,0.039075,0.576983
4133624433,-4.848604,3.915383,5.083618,0.819061,-0.000217,0.582055
4133644479,-5.299335,2.571384,7.152903,0.842427,-0.030207,0.580561
4133664524,-3.529472,8.870183,5.716375,0.831842,-0.043155,0.583595
4133684569,0.583993,17.476404,1.692330,0.795788,-0.020435,0.587150
4133704613,1.548825,14.456861,-1.039563,0.759321,0.024630,0.591246
4133724660,-1.066218,6.775613,0.724721,0.728554,0.033748,0.590673
4133744703,0.829999,1.645883,5.994512,0.699609,0.011879,0.595285
4133764747,8.414274,-6.180482,8.876804,0.699459,-0.008093,0.581519
4133784792,11.002072,-18.968487,5.776027,0.747115,0.007964,0.543405
4133804835,4.422596,-27.812067,1.225764,0.837354,0.047148,0.488750
4133824880,-2.371937,-29.243044,0.532618,0.928995,0.113801,0.403287
4133844925,-15.996375,-28.674782,4.179049,0.990735,0.178671,0.424507
4133864970,-47.131191,-12.213515,7.883764,0.896406,0.113151,0.472339
4133885014,-61.336128,-14.103163,4.025329,0.901026,-0.072920,0.506867
4133905059,-68.133354,-40.783913,2.746612,1.053638,-0.267081,0.598808
4133925104,-28.749763,-41.147240,-2.743064,1.130192,-0.324902,0.515446
4133945149,33.535915,-2.629972,-8.231781,1.093364,-0.219161,0.475520
4133965194,62.221039,36.103615,-2.881268,0.932508,-0.023901,0.542655
4133985238,56.265877,39.257206,1.016267,0.741940,0.087045,0.575764
4134005283,20.912714,13.628798,3.246603,0.604451,0.127724,0.570964
4134025327,-19.416033,-16.744225,8.856386,0.598104,0.066219,0.599922
4134045374,-37.474319,-32.833931,10.129943,0.707664,-0.051292,0.587854
4134065418,-23.252625,-32.455025,1.160467,0.813093,-0.131771,0.494511
4134105508,20.754511,-4.063791,-9.838925,0.898379,0.032129,0.605128
4134125554,-14.039045,9.567772,-1.265867,0.826315,0.103765,0.629230
4134145598,-23.170187,2.466517,10.055462,0.735488,-0.062634,0.614918
4134165642,-6.499273,-20.439161,14.520277,0.742255,-0.185234,0.631457
4134185687,-7.072675,-38.783661,4.516338,0.859078,-0.138527,0.562913
4134205730,-16.207935,-34.016178,-8.872038,0.979915,-0.036650,0.454338
4134225775,-8.310555,0.720153,-8.051233,1.026470,0.037390,0.476828
4134245820,-16.912186,11.369513,-5.930793,0.902134,-0.008593,0.504068
4134265864,-8.366767,0.348393,-6.663921,0.815137,-0.057297,0.472424
4134285909,-0.995437,-11.637178,-7.790905,0.814610,-0.029831,0.474743
4134305954,-14.565199,-12.049967,-5.286710,0.865034,-0.042577,0.468206
4134325998,-10.181646,-13.116205,-1.639675,0.870255,-0.089884,0.392521
4134346043,1.146918,-7.934882,-2.013308,0.870553,-0.064209,0.413434
4134366088,2.501854,-0.927730,-0.948523,0.847449,-0.043378,0.434671
4134386133,5.689724,-6.076569,-1.867056,0.819524,-0.020544,0.433186
4134406177,4.472596,-15.326346,-3.601187,0.876907,0.002039,0.460004
4134426222,1.455751,-13.949040,-5.872465,0.969823,-0.023886,0.446238
4134446268,1.655580,-1.471311,-11.279550,0.958559,0.004220,0.389112
4134466313,-5.405166,7.007996,-14.753083,0.930320,0.069894,0.448453
4134486358,-12.205670,5.092677,-10.798563,0.902059,0.032624,0.455201
4134506402,-3.511972,1.521655,-8.111638,0.904410,-0.062711,0.463561
4134526448,-0.278117,4.322330,-10.744538,0.904977,-0.120196,0.457758
4134566537,4.806719,0.207584,-7.153325,0.863862,-0.028839,0.411910
4134586582,5.875947,-0.996517,4.663211,0.905328,0.047576,0.411855
4134606625,9.251887,12.152367,10.414801,1.006879,0.074084,0.467733
4134626670,-5.700871,28.982212,2.857147,0.936855,0.064961,0.548144
4134646714,-13.055825,25.893581,-0.458447,0.847791,0.014832,0.529426
4134666759,5.933026,12.501611,3.202536,0.884078,-0.032969,0.512331
4134706849,12.712781,16.610617,-7.244686,0.883343,-0.072267,0.510101
4134726893,17.502371,15.565393,-6.785231,0.844906,-0.034765,0.498039
4134746938,11.321044,7.856757,-5.161181,0.825387,0.042334,0.504180
4134766983,4.100873,4.071356,-2.702481,0.831290,0.061223,0.481124
4134787028,0.661322,8.651290,0.275460,0.831802,0.042600,0.466259
4134807072,2.593896,17.550087,0.389358,0.804593,0.021821,0.473879
4134827117,5.911162,20.913895,-0.576306,0.788999,0.004093,0.511149
4134847163,8.549271,17.931881,-1.157468,0.790890,-0.008713,0.546685
4134867208,10.066276,15.436762,-2.888475,0.792399,-0.020087,0.565363
4134887253,9.984387,14.896604,-4.167210,0.786890,-0.016894,0.591972
4134907297,11.971128,11.619083,-3.958413,0.777541,-0.011540,0.631919
4134927342,14.361142,4.335651,-3.741303,0.763976,0.000103,0.650388
4134947387,17.161594,-3.762148,-5.156885,0.742724,0.030747,0.620846
4134987476,14.219843,-20.191399,-3.138041,0.741941,0.051556,0.559851
4135007519,5.709260,-29.668934,-1.403040,0.775235,0.029859,0.540789
4135027564,-10.629248,-41.285000,-3.857008,0.826599,0.034126,0.431147
4135047609,-23.242786,-53.163589,-8.281954,0.881371,0.093263,0.326813
4135067654,-31.973619,-49.174484,-10.938517,0.987479,0.087464,0.324632
4135087698,-28.287449,-44.060944,-7.710982,1.151702,0.038439,0.340075
4135107743,-30.235670,-40.570621,-7.889802,1.240163,-0.013643,0.518597
4135127788,-31.085238,-8.283476,-10.869714,1.172625,-0.071960,0.571573
4135147833,12.019482,11.865636,-13.329521,0.953168,-0.105436,0.530733
4135167878,43.473076,13.001240,-13.632702,0.800531,-0.008275,0.526631
4135187922,38.333004,11.007957,-10.841202,0.705349,0.068775,0.508001
4135207967,15.412643,-1.685233,-4.238862,0.641610,0.066791,0.479874
4135228012,-1.866426,-18.608364,4.396401,0.641496,0.020105,0.478529
4135248058,-3.279469,-28.001247,5.185564,0.712613,-0.023083,0.477948
4135268103,9.196215,-27.999577,-0.920927,0.848351,-0.026558,0.455388
4135288147,31.583431,-19.320139,-9.838965,0.956812,0.034494,0.386391
4135308192,52.958099,1.012058,-18.714548,0.992855,0.154612,0.367545
4135328244,32.632542,24.813854,-15.031085,0.957979,0.338651,0.492505
4135348282,-20.334164,16.537539,3.369641,0.850079,0.302518,0.554199
4135368326,-31.889442,-22.682289,14.412337,0.837569,0.086062,0.537412
4135388371,-16.028917,-44.429646,7.172948,0.928965,0.010432,0.492727
4135408415,5.367936,-22.592028,-0.591956,1.038558,0.021388,0.445001
4135428459,1.029559,5.383769,2.705962,0.999802,0.126273,0.433746
4135448504,-20.453430,0.393932,3.743879,0.913284,0.140308,0.417885
4135468548,-27.930405,-5.011446,3.433020,0.902803,0.111671,0.432430
4135488593,-34.943375,-11.921810,3.904711,0.935220,0.104740,0.411146
4135508638,-38.847927,-13.339973,3.448417,0.943210,0.072239,0.333630
4135528683,-34.040089,-6.816196,1.081807,0.956308,0.060631,0.318981
4135548728,-33.548653,2.836553,1.724086,0.938550,0.032355,0.330465
4135568772,-25.244518,4.205037,1.567704,0.930292,0.015822,0.359311
4135588817,-17.401447,4.677551,2.550829,0.924336,0.002096,0.365026
4135608862,-9.827045,7.445807,3.754775,0.914479,-0.016298,0.372754
4135628907,-3.575058,9.416459,3.468810,0.905145,-0.012229,0.374017
4135648953,0.516867,10.218618,3.512861,0.935274,0.010756,0.374867
4135668998,2.527501,16.092264,3.613785,0.931804,0.041222,0.370038
4135689043,4.362126,21.175629,3.792988,0.904107,0.057685,0.382901
4135709087,6.466436,22.686726,4.628675,0.888864,0.040737,0.427906
4135729133,11.642253,19.156097,5.879821,0.901013,0.028194,0.420633
4135749177,16.068012,21.500494,5.005659,0.914598,0.036850,0.372771
4135769221,20.875027,30.729437,1.128074,0.962814,0.091837,0.361107
4135789268,22.941738,39.132957,-1.226915,0.934599,0.098518,0.406732
4135809310,17.444950,33.239944,-0.394514,0.845095,0.036422,0.471414
4135829355,25.671490,24.083618,4.076336,0.823658,-0.035113,0.556884
4135849399,27.451857,7.648583,2.318398,0.841985,-0.054438,0.582306
4135869443,21.853258,0.648940,-7.071128,0.916322,0.004398,0.514535
4135889488,11.737269,17.175310,-4.144712,0.942643,0.125303,0.546141
4135909533,3.246364,20.324816,2.690076,0.864950,0.162670,0.610180
4135929578,4.872279,9.683708,5.506440,0.793331,0.113435,0.612248
4135949623,7.367292,-4.471331,4.647444,0.790738,0.074858,0.567480
4135969667,5.654191,-9.570009,4.444469,0.826086,0.059465,0.504408
4135989712,1.287083,-2.938432,4.441209,0.831143,0.061048,0.469288
4136009757,-2.391683,6.413496,4.209169,0.809789,0.055342,0.480651
4136029801,-5.109046,9.121630,4.075077,0.787575,0.035188,0.496679
4136069892,-1.598119,8.805952,1.823914,0.769806,0.028557,0.551048
4136089937,-0.404956,6.767421,0.681567,0.770500,0.027333,0.584750
4136109982,0.825720,2.684651,0.386496,0.768766,0.015592,0.646472
4136130026,2.593640,-2.584337,-0.010610,0.747192,-0.003421,0.695453
4136150071,6.037646,-12.787047,0.871589,0.722765,0.003787,0.670906
4136170116,9.570148,-25.436153,4.200896,0.734710,0.060242,0.636021
4136190170,11.013351,-35.133949,8.495718,0.752410,0.125386,0.579347
4136210204,12.414401,-39.056019,10.934157,0.775831,0.144855,0.496689
4136230249,13.830317,-37.917171,10.861278,0.799499,0.115945,0.406238
4136250294,12.493822,-36.935551,10.809650,0.859882,0.058343,0.307188
4136270338,-5.192839,-42.976135,15.011520,0.945392,-0.020820,0.178272
4136290383,-23.695736,-34.450748,7.534646,0.864428,-0.070792,0.022498
4136310427,-22.254839,-39.915741,-6.755539,1.139036,-0.072897,0.073048
4136330473,-31.589176,-76.281929,-0.821593,1.483869,-0.015805,0.485252
4136350518,-35.534580,-28.169662,8.167995,1.472499,-0.038189,0.605532
4136370562,28.915367,35.836258,-2.206649,1.118317,-0.112198,0.417643
4136390607,69.009300,34.072685,-10.153540,0.858081,0.021309,0.476004
4136410652,53.520542,17.577991,-8.739317,0.729695,0.130514,0.523147
4136430698,14.516863,-4.472254,-0.557340,0.624139,0.120795,0.398453
4136450742,-13.086919,-21.803534,10.229647,0.572648,0.052726,0.321980
4136470787,-23.744942,-34.425632,12.563076,0.662617,0.011615,0.420212
4136490832,-24.189957,-43.830261,6.031262,0.842352,-0.006041,0.456176
4136510877,-14.555512,-44.793655,-5.019660,1.028538,0.009259,0.361176
4136530922,4.792520,-19.290155,-11.515304,1.132612,0.051143,0.267632
4136550966,26.794260,28.912659,-4.857863,1.079921,0.068912,0.320817
4136571011,31.967159,50.369678,5.603057,0.916622,0.085025,0.495025
4136591066,12.954569,20.926096,6.249001,0.807349,0.082058,0.563900
4136611099,0.636483,-29.676357,6.124647,0.857296,0.020415,0.489298
4136631144,16.712242,-28.875828,8.651801,1.065504,-0.072929,0.405826
4136651189,35.910137,2.915142,5.632927,1.040126,-0.005713,0.432308
4136671233,17.460808,-0.729164,-3.905028,0.926234,0.093726,0.407530
4136691278,5.611248,-12.257522,-5.532629,0.904952,0.132281,0.337498
4136711323,-8.567147,-7.962420,2.586465,0.925399,0.086683,0.352591
4136731368,-12.055358,-3.738160,8.924783,0.909668,0.016366,0.341403
4136751412,-6.731837,-8.084330,5.436989,0.923479,0.041847,0.325998
4136771457,-11.658882,-7.253631,0.933475,0.979676,0.101935,0.292681
4136791502,-17.006632,4.281996,2.601504,0.976301,0.088973,0.321078
4136811547,-16.328978,15.614419,3.423607,0.938450,0.026610,0.392695
4136831591,-10.332962,7.544541,2.623435,0.930512,-0.012830,0.418820
4136851637,-4.767342,-1.649274,3.137972,0.951252,-0.003426,0.388302
4136871682,-4.015931,2.895062,2.625107,0.958547,0.031634,0.372771
4136891727,-3.813707,9.265233,4.758275,0.931276,0.046651,0.388380
4136911772,-1.117667,8.723923,6.238921,0.894018,0.030579,0.395707
4136931817,0.800129,5.765561,6.158449,0.867168,-0.000621,0.387665
4136951861,2.074074,3.871002,4.200188,0.880645,-0.004570,0.373866
4136971906,3.392167,7.844502,3.035963,0.895820,0.023252,0.369741
4136991951,3.493837,14.465326,4.598292,0.881323,0.030908,0.377129
4137011994,4.289841,14.366481,6.039760,0.864526,0.018843,0.388396
4137032039,4.215702,12.998038,5.195991,0.876282,0.020007,0.422249
4137052084,4.436788,15.004970,6.388471,0.902933,0.037666,0.460810
4137072129,0.527314,12.833020,3.007502,0.902349,0.076871,0.447554
4137092173,-3.527813,11.491152,2.902732,0.889363,0.078186,0.438708
4137112218,-4.215597,10.094002,4.638680,0.880351,0.060028,0.468108
4137132263,-4.099444,2.910346,2.648587,0.884793,0.037128,0.487358
4137152307,-3.355311,-3.916158,1.681812,0.891016,0.007116,0.460065
4137172352,-4.154854,-5.237851,1.986305,0.914351,0.000368,0.457833
4137192397,-3.698538,-6.742840,2.746060,0.906708,-0.024315,0.457799
4137212441,-0.072158,-10.112370,4.321284,0.912590,-0.052872,0.429307
4137232488,4.194889,-9.979048,4.753158,0.923478,-0.050994,0.396595
4137252533,8.819164,-5.338906,4.995193,0.918962,-0.039835,0.404846
4137272577,11.996414,-3.381178,3.871947,0.895340,-0.049654,0.422599
4137292622,13.920644,-6.036623,1.345666,0.865827,-0.035181,0.396317
4137312667,15.482910,-7.513551,-0.965642,0.849204,0.015405,0.347979
4137332711,16.591860,-3.538528,0.842871,0.861353,0.042988,0.405016
4137352756,16.331707,-2.404441,3.853020,0.852533,-0.005381,0.467626
4137372801,20.574604,-14.769501,-2.049145,0.884321,-0.022495,0.398623
4137392848,23.186922,-14.491849,-4.972007,0.974561,0.018215,0.378279
4137412889,18.520884,-0.440026,-1.186079,0.991168,0.057333,0.375984
4137432934,17.359203,7.397585,-0.544645,0.925808,0.075249,0.373264
4137452978,19.269686,-0.593112,-2.128726,0.856314,0.080967,0.439536
4137473023,19.472261,-24.968271,-1.139710,0.913247,0.051931,0.462862
4137493068,19.769199,-29.902065,-2.653363,1.010594,0.022366,0.358934
4137513113,13.624820,-16.793447,-3.296675,0.960155,0.031798,0.298489
4137533158,4.005779,-16.045515,1.926337,0.901965,0.037997,0.366569
4137553202,-1.210368,-24.886387,5.989531,0.972661,0.048661,0.423991
4137573247,-2.192898,-22.698118,2.482960,1.032478,0.061612,0.359953
4137593292,-3.194220,-10.849165,-0.605975,0.985169,0.057597,0.287169
4137613336,-7.262838,-2.080477,2.875636,0.910192,0.021730,0.315414
4137633382,-2.751573,-4.250669,2.660260,0.907425,-0.025501,0.371503
4137653427,1.676136,-7.554839,-0.981637,0.945426,-0.044842,0.372669
4137673472,3.602639,-4.106176,-1.845299,0.955593,-0.026749,0.324158
4137693517,3.688177,2.643736,-0.587699,0.951132,0.000623,0.330546
4137713562,5.713149,5.872797,0.551703,0.948699,0.009355,0.360410
4137733606,10.487659,4.766808,1.072278,0.931577,0.024894,0.368350
4137753651,10.670274,3.049281,1.933369,0.937828,0.039790,0.361081
4137773696,7.933311,3.850449,3.553438,0.950047,0.037140,0.347808
4137793739,7.397872,4.831705,4.227026,0.934067,0.029096,0.349488
4137813784,5.765687,4.490542,3.028554,0.917534,0.039185,0.348919
4137833829,4.618918,4.285607,1.460552,0.932014,0.050619,0.346382
4137853874,4.502625,6.201303,1.947204,0.944048,0.045271,0.350337
4137873918,3.636887,8.490380,3.102040,0.923512,0.028206,0.368355
4137893963,3.653714,7.311804,2.097410,0.908752,0.019993,0.386979
4137914008,5.869636,4.580447,0.338413,0.906878,0.022097,0.384035
4137934053,6.997840,2.306810,0.217638,0.912639,0.015958,0.379120
4137954097,7.700236,1.735723,-0.731876,0.928095,-0.001287,0.371454
4137974142,9.050916,2.714525,-1.885902,0.936652,-0.003277,0.366071
4137994187,9.910890,4.172903,-2.358590,0.934357,0.010501,0.375591
4138014231,9.254728,3.078931,-2.443945,0.930199,0.027015,0.381251
4138034277,8.467465,1.027371,-2.557862,0.933630,0.036691,0.377463
4138054322,7.395693,0.412799,-2.206240,0.934964,0.046778,0.375751
4138074367,5.288843,-0.056627,-2.212498,0.921286,0.047851,0.382380
4138094412,4.332011,-1.766356,-3.094886,0.911388,0.043800,0.381521
4138114456,4.107002,-3.012942,-3.686209,0.912049,0.058004,0.380408
4138134501,1.454926,-4.849470,-2.468066,0.906825,0.067054,0.373011
4138154546,-0.992681,-6.025153,-1.777778,0.925009,0.050253,0.369277
4138174591,-1.212645,-3.783181,-2.715262,0.937530,0.038251,0.361910
4138194634,0.735792,-2.090022,-2.967969,0.926284,0.041781,0.360342
4138214679,1.113564,-2.713751,-3.290244,0.922906,0.050301,0.371537
4138234723,1.376962,-3.808562,-3.474068,0.935450,0.046699,0.366014
4138254768,2.626915,-3.794076,-2.668507,0.941077,0.042995,0.357072
4138274813,2.600037,-2.684173,-2.273199,0.939111,0.053366,0.362617
4138294857,2.433828,-2.539523,-2.066367,0.947334,0.060421,0.359250
4138314902,2.672448,-1.642694,-1.726221,0.951092,0.060031,0.350995
4138334948,2.379398,0.219737,-1.710499,0.940287,0.058619,0.360306
4138354992,2.559748,-1.019315,-1.672619,0.926124,0.057886,0.368129
4138375037,2.489854,-1.779334,-1.694219,0.940066,0.055698,0.359327
4138395082,2.640193,0.561742,-1.270961,0.936320,0.060180,0.353618
4138415126,2.071676,1.656697,-1.351438,0.917582,0.057957,0.360327
4138435172,1.042559,0.198242,-1.372642,0.911344,0.055321,0.361123
4138455217,0.614842,-0.295559,-1.650773,0.915753,0.057435,0.360045
4138475262,-0.008529,-0.226623,-1.668913,0.924504,0.057863,0.361653
4138495307,0.471660,0.160658,-1.535832,0.940587,0.053866,0.359164
4138515351,1.692663,1.869931,-1.158276,0.936214,0.054401,0.361039
4138535396,2.663561,0.949340,-1.309598,0.929613,0.058713,0.363778
4138555441,2.745500,0.021984,-1.309349,0.938707,0.057772,0.365946
4138575486,3.141468,0.386470,-1.320348,0.943079,0.056487,0.361163
4138595529,2.815158,0.333631,-1.134957,0.925579,0.055534,0.357037
4138615573,3.204550,-1.286008,-1.921096,0.930094,0.059682,0.360040
4138635618,3.492452,-1.210385,-2.220488,0.944956,0.073144,0.361404
4138655663,2.051588,-0.418406,-1.638817,0.937724,0.063840,0.358332
4138675708,2.170322,-1.535914,-1.867220,0.924245,0.058585,0.360098
4138695753,2.255395,-2.684174,-2.933348,0.926989,0.066032,0.361877
4138715797,2.559794,-2.600813,-2.897670,0.937129,0.072674,0.355797
4138735842,2.539869,-1.703766,-2.570778,0.936344,0.080680,0.351901
4138755887,1.773134,-1.406605,-2.412814,0.927172,0.078037,0.358229
4138775932,0.872914,-1.763349,-3.053130,0.935261,0.071489,0.364624
4138795976,0.971056,-1.999087,-3.122225,0.944111,0.071332,0.361230
4138816021,0.677391,-1.527355,-2.602375,0.940848,0.078567,0.359053
4138836067,-0.439037,-2.316553,-1.915040,0.922650,0.079721,0.354813
4138856112,-1.171442,-4.200787,-1.679095,0.929991,0.082881,0.353202
4138876157,-2.014774,-3.531274,-1.848482,0.940588,0.083414,0.348085
4138896201,-2.763623,-1.714000,-1.714948,0.934699,0.078551,0.344077
4138916246,-3.659288,-1.196318,-1.579059,0.928563,0.077865,0.350046
4138936291,-3.475894,-0.907603,-1.474082,0.934792,0.075459,0.357850
4138956336,-2.037553,-0.999866,-1.058398,0.934395,0.065675,0.353103
4138976380,-1.246910,-1.091742,-1.026282,0.937423,0.065297,0.345025
4138996424,-2.553630,-0.459779,-1.077807,0.941076,0.078928,0.346487
4139016468,-3.174766,0.756877,-1.058958,0.933845,0.083987,0.350308
4139036513,-1.626203,1.104812,-1.855845,0.928982,0.074836,0.347980
4139056558,0.857600,1.489946,-2.644701,0.932493,0.064640,0.344722
4139076603,1.688407,2.674930,-2.659809,0.926647,0.064101,0.346413
4139096647,1.056418,2.568976,-2.860558,0.926201,0.072821,0.353621
4139116692,0.606142,2.705945,-3.375278,0.931245,0.077663,0.365363
4139136737,1.816119,3.556129,-3.484397,0.926370,0.075582,0.369988
4139156782,2.940292,3.722214,-3.835997,0.926036,0.064732,0.369165
4139176827,2.197152,4.200925,-5.552486,0.932629,0.061098,0.371883
4139196871,-0.333816,4.483466,-7.483632,0.933804,0.074429,0.377244
4139216915,-2.717196,5.229792,-8.814503,0.937933,0.104064,0.386498
4139236962,-5.036710,6.341177,-9.521506,0.929012,0.118729,0.391411
4139257006,-7.022565,6.935437,-10.207726,0.916703,0.126628,0.399268
4139277051,-11.593206,6.331296,-10.278768,0.908439,0.131679,0.412276
4139297096,-14.582690,5.041850,-10.079407,0.904904,0.155259,0.425621
4139317141,-17.201469,2.832381,-9.920111,0.894442,0.175744,0.425467
4139337186,-20.347622,2.288131,-9.293628,0.878797,0.157427,0.419221
4139357230,-23.031357,1.234185,-8.776866,0.870844,0.140817,0.438056
4139377275,-25.675770,-2.654987,-8.554838,0.861333,0.156344,0.459982
4139417363,-24.626125,-7.626520,-8.047760,0.877729,0.095549,0.420453
4139437408,-23.229679,-8.015569,-8.507579,0.873063,0.101763,0.425284
4139457452,-25.127411,-10.658951,-8.460056,0.879910,0.100499,0.416058
4139477497,-26.847960,-11.706410,-8.567766,0.894733,0.078260,0.384757
4139497542,-26.319141,-11.000555,-9.791416,0.920389,0.066504,0.375573
4139517587,-26.287334,-8.925874,-10.418321,0.934593,0.085368,0.378708
4139537631,-27.287523,-8.491465,-9.740652,0.933783,0.085356,0.375333
4139557676,-27.577700,-8.506562,-10.066001,0.942094,0.090627,0.365153
4139577721,-28.280029,-6.986485,-11.547621,0.944154,0.099674,0.359813
4139597766,-31.303900,-5.167459,-11.884216,0.929937,0.094735,0.365941
4139617811,-32.727440,-5.698380,-12.108968,0.936961,0.081309,0.389502
4139657901,-35.981087,-6.829589,-15.465475,0.924600,0.105154,0.371097
4139677946,-40.481949,-6.020205,-15.858356,0.912392,0.100834,0.378600
4139697991,-44.546936,-6.989978,-16.732849,0.906611,0.113588,0.390470
4139718035,-46.742779,-10.643967,-16.621141,0.930669,0.130768,0.382947
4139738080,-48.900238,-7.989828,-17.437502,0.926120,0.126202,0.360100
4139758125,-48.213448,-6.501606,-19.478260,0.902691,0.091752,0.350926
4139778170,-50.903343,-8.612545,-20.072723,0.914356,0.094871,0.365007
4139798213,-52.283058,-11.590611,-19.594612,0.945925,0.093081,0.346952
4139818258,-53.812016,-10.571111,-20.292355,0.967344,0.106994,0.323504
4139838303,-61.361153,-3.770089,-21.444595,0.954708,0.148603,0.327621
4139858347,-66.886765,0.969982,-21.300055,0.925659,0.143859,0.355125
4139878392,-70.127464,-2.636997,-20.075724,0.927069,0.121628,0.384908
4139898437,-69.838882,-7.927127,-19.623457,0.931326,0.105094,0.376609
4139918481,-72.519485,-8.723237,-20.402073,0.940776,0.111279,0.356506
4139938526,-73.451591,-7.437832,-20.220921,0.940496,0.108190,0.344876
4139958571,-73.679985,-8.091191,-19.990002,0.937925,0.101703,0.350191
4139978616,-79.183174,-8.938288,-21.257355,0.944736,0.117409,0.342646
4139998660,-89.268738,-6.970431,-25.318623,0.943795,0.154814,0.319387
4140018705,-98.405869,-2.578620,-29.046633,0.929147,0.180974,0.313510
4140038752,-104.052597,-0.613835,-31.420193,0.934760,0.174971,0.326984
4140058796,-109.203308,0.741914,-35.015907,0.924407,0.166521,0.334717
4140078841,-115.646683,0.950399,-40.109055,0.910223,0.150436,0.337569
4140098886,-120.518074,-1.388367,-44.450012,0.921963,0.131246,0.343093
4140118930,-124.729317,-5.292362,-46.387180,0.945562,0.139069,0.351668
4140138975,-129.881210,-6.679111,-46.986298,0.947293,0.156022,0.342163
4140159020,-134.942703,-7.374522,-48.135292,0.946383,0.151794,0.323072
4140199108,-139.452545,-10.287930,-45.111588,0.981752,0.106944,0.321243
4140219152,-143.255783,-10.444446,-45.524136,0.980684,0.119097,0.310300
4140239197,-148.575638,-11.815934,-46.312443,0.965839,0.132226,0.279948
4140259242,-149.522675,-16.610626,-45.142670,0.995879,0.103097,0.247632
4140279287,-149.683502,-15.599051,-43.938702,1.027844,0.072500,0.205509
4140299331,-150.189331,-8.903427,-46.211407,1.042726,0.060554,0.173031
4140319377,-153.477692,2.050981,-48.504898,1.052221,0.050623,0.180921
4140339421,-153.120850,9.469091,-48.194672,1.043871,0.028937,0.215454
4140359466,-150.770584,13.761544,-47.995827,1.001290,0.018403,0.258749
4140379511,-149.851822,16.131517,-49.437351,0.951449,0.009982,0.301792
4140399555,-147.454788,10.246238,-50.036774,0.933885,0.004115,0.323927
4140419600,-145.957275,4.590320,-49.387733,0.954094,0.004403,0.304862
4140439646,-144.229584,6.830769,-49.974468,0.957472,0.015756,0.268284
4140459691,-139.052750,11.880493,-50.567455,0.926374,0.021059,0.269105
4140479736,-135.433411,11.779529,-48.416275,0.933560,0.018486,0.318707
4140499780,-131.974579,12.462204,-44.870464,0.929967,-0.033644,0.326213
4140519825,-127.093803,13.460142,-47.392391,0.880444,-0.059645,0.334351
4140539870,-130.040451,11.706787,-47.703346,0.877044,-0.035581,0.364445
4140559915,-130.021500,8.849072,-47.342724,0.886999,-0.036065,0.356055
4140579959,-124.850403,5.468969,-49.398029,0.918546,-0.024382,0.347631
4140600003,-121.905357,5.063104,-50.471550,0.935210,-0.026958,0.341218
4140620048,-120.609894,6.718035,-52.471424,0.930496,-0.044206,0.341599
4140640092,-119.554886,7.384729,-55.253201,0.926872,-0.055807,0.368618
4140660137,-117.575020,3.186914,-56.407158,0.940118,-0.050713,0.381783
4140680181,-112.459961,-2.030644,-54.331177,0.960660,-0.043813,0.345003
4140700226,-106.995285,-2.999746,-52.322838,0.963546,-0.043623,0.326905
4140720271,-106.548622,-0.263798,-52.138390,0.954372,-0.040328,0.359951
4140740316,-106.293419,-0.856233,-50.722782,0.946850,-0.046574,0.375607
4140760361,-102.910309,-2.393280,-48.027534,0.946161,-0.038861,0.369165
4140780405,-101.893837,-1.504440,-47.061028,0.943467,-0.018923,0.359877
4140820494,-97.630089,-1.545384,-45.417656,0.931675,-0.032365,0.367640
4140840541,-96.063965,-0.710844,-45.826599,0.935841,-0.032555,0.375138
4140860586,-96.583725,1.676279,-45.702980,0.923915,-0.024610,0.377534
4140880631,-96.602081,2.330340,-44.850208,0.915024,-0.026804,0.383405
4140900675,-95.559845,1.653201,-44.354755,0.909347,-0.020463,0.391141
4140920720,-96.002869,0.072737,-44.136551,0.903256,-0.013647,0.388218
4140940764,-94.504395,-1.874728,-45.007069,0.916609,-0.028677,0.392446
4140980854,-90.557358,1.206321,-48.163742,0.937433,-0.027662,0.411891
4141000901,-89.890877,3.364474,-47.873779,0.919900,-0.054535,0.416264
4141020942,-83.129463,-0.554577,-45.331696,0.881061,-0.082446,0.409564
4141040987,-79.889534,-5.899373,-42.471767,0.894205,-0.061290,0.412217
4141061031,-80.067558,-6.095369,-39.217201,0.924365,-0.042026,0.415556
4141081076,-82.249878,-3.173686,-36.712048,0.904872,-0.009848,0.412508
4141101121,-83.810913,-1.546434,-38.141479,0.828771,-0.016285,0.411003
4141121166,-83.303886,-7.126656,-40.075138,0.780817,-0.000941,0.454046
4141141210,-82.922104,-25.630489,-30.789103,0.829199,0.076406,0.433458
4141161255,-92.473579,-50.835285,-17.352406,0.991873,0.123659,0.308888
4141181300,-104.175056,-41.427944,-28.051470,1.066991,0.026058,0.155648
4141201345,-90.218155,13.803614,-41.001816,1.013355,-0.033077,0.275104
4141221389,-88.055748,18.159086,-36.261078,0.975144,-0.117526,0.530720
4141241434,-86.798981,-13.716658,-30.366875,0.983802,-0.269135,0.511094
4141261480,-67.858086,-10.169676,-33.433254,0.978255,-0.268611,0.396242
4141281525,-53.826576,7.155771,-32.597313,0.926309,-0.172432,0.451881
4141301570,-44.327942,1.070454,-24.969910,0.855388,-0.157229,0.465804
4141321615,-32.904991,-8.201333,-17.598032,0.858314,-0.170955,0.402117
4141341668,-21.035696,-5.987997,-8.328241,0.909766,-0.153095,0.381678
4141361704,-9.657496,2.882899,-1.437889,0.921222,-0.094268,0.396116
4141381749,-1.185741,10.881255,3.304358,0.901597,-0.061848,0.463534
4141401794,1.318321,17.394506,6.890074,0.869156,-0.132872,0.458693
4141421837,25.875595,15.900024,9.681956,0.815280,-0.230937,0.452099
4141441882,34.750263,8.642226,11.746279,0.826394,-0.133068,0.519109
4141461927,35.295345,3.786586,15.456800,0.853829,-0.048773,0.495762
4141481971,41.661526,-0.611749,16.265396,0.855594,-0.027592,0.465919
4141502016,40.746426,-7.436137,16.812143,0.890847,0.002615,0.492604
4141522061,39.547642,-8.545174,15.991991,0.934316,0.002075,0.520512
4141542106,41.368603,-11.786181,12.583334,0.937639,-0.020162,0.465729
4141562150,43.153687,-13.475798,10.986639,0.937337,-0.025508,0.394483
4141582195,41.492065,-11.390923,12.871510,0.928356,-0.021629,0.370259
4141602240,41.315979,-8.927921,13.365721,0.896769,-0.006471,0.396397
4141622285,38.948875,-12.802607,12.534285,0.891532,0.009625,0.367456
4141642329,36.253563,-17.087511,11.561002,0.957517,0.024342,0.320746
4141682420,28.426731,8.624224,10.278738,0.954902,0.026882,0.351297
4141702466,22.763746,11.440892,9.214840,0.877638,0.013514,0.397276
4141722510,19.299311,5.613897,8.652685,0.887460,0.035757,0.417194
4141742555,15.064706,9.865440,6.654667,0.904310,0.063662,0.402883
4141762599,11.859759,17.255795,6.009461,0.872613,0.050047,0.420973
4141782644,10.758237,16.959587,4.387871,0.827004,0.034144,0.446901
4141802689,6.645764,8.108514,4.801067,0.829890,0.040388,0.484017
4141822732,1.425825,-6.426294,6.607039,0.856136,-0.036773,0.483298
4141842777,6.134087,-13.294750,4.474784,0.901914,-0.091530,0.431915
4141862822,12.032738,-9.660028,2.445364,0.960379,-0.035005,0.414669
4141882866,8.675850,-4.540747,4.911736,0.931925,0.042753,0.367659
4141902911,9.124856,-4.996126,7.239923,0.925915,0.069182,0.341541
4141922956,11.521458,-2.665981,4.583414,0.978459,0.046295,0.311249
4141943000,1.501593,1.628607,2.683038,1.009054,0.024198,0.194208
4141963045,-7.509345,10.067142,6.187619,1.034904,0.011260,0.148161
4141983090,-10.633741,23.142954,6.001136,1.113747,0.009892,0.197731
4142003135,-8.085362,44.578754,-1.885515,1.111146,-0.001843,0.245880
4142023180,0.457604,52.009651,-8.106005,1.048752,-0.036196,0.307709
4142043224,14.373096,49.021297,-18.007002,1.008647,-0.008258,0.318475
4142063270,20.509310,53.355148,-19.878918,1.029022,0.057384,0.310525
4142083315,8.680925,59.282104,-12.343139,1.046378,0.044217,0.353461
4142103360,-4.392005,73.115227,-3.997752,0.901521,-0.023266,0.403307
4142123405,-0.096163,69.809967,-10.320276,0.804353,-0.029630,0.518914
4142143450,4.578233,49.685673,-12.995876,0.810324,-0.018174,0.526966
4142163494,4.742501,43.711422,-12.915302,0.870053,-0.038359,0.456918
4142183539,2.831549,47.832340,-13.590194,0.951382,0.013839,0.480935
4142203583,-3.186885,55.658218,-14.564683,0.939528,0.073256,0.490919
4142223627,-8.139973,58.086159,-16.692596,0.921391,0.046032,0.483364
4142243671,-9.941189,65.062820,-21.858208,0.844769,-0.015467,0.456181
4142263716,-9.188830,64.481903,-27.645714,0.793001,0.034757,0.536327
4142283761,-9.282771,50.586994,-29.681179,0.797172,0.053888,0.542936
4142303806,-10.561577,53.946697,-31.693398,0.843267,0.040066,0.517439
4142323850,-13.822242,61.299713,-30.982084,0.786931,0.047483,0.581335
4142343895,-13.584400,55.127525,-31.450409,0.727218,0.046083,0.579181
4142363940,-14.134033,46.114361,-29.715937,0.783684,0.056730,0.554923
4142383985,-11.888783,55.127888,-27.410475,0.831843,0.035561,0.563826
4142404029,-6.237147,64.146111,-25.016859,0.803984,-0.009430,0.638013
4142424074,-2.789761,59.072258,-27.697279,0.768070,-0.019275,0.651944
4142444119,-4.886905,58.349613,-33.013321,0.721975,0.088284,0.667380
4142464165,-16.006849,59.696087,-34.887238,0.643863,0.166025,0.728716
4142484210,-26.221313,51.927910,-38.184101,0.611152,0.170654,0.746192
4142504254,-31.110043,50.471294,-41.512527,0.590209,0.122518,0.753265
4142524299,-29.357462,47.452522,-41.027924,0.567345,0.096586,0.775709
4142544344,-28.887445,39.973587,-39.797913,0.584204,0.105257,0.786777
4142564389,-29.622648,41.776367,-38.072243,0.600925,0.045539,0.820714
4142584434,-26.876776,46.676437,-38.090309,0.553231,0.005297,0.905279
4142604478,-26.734232,42.995445,-42.811268,0.449858,0.061939,0.934283
4142624521,-32.529484,30.140821,-41.154839,0.458352,0.128781,0.941532
4142644566,-36.170425,26.892567,-37.398502,0.458488,0.062602,0.917770
4142664611,-35.111141,28.253975,-33.408310,0.374466,0.002155,0.957351
4142704700,-29.253735,0.980299,-27.469929,0.452775,-0.077080,0.941552
4142724745,-27.866177,-5.614623,-19.315134,0.459419,-0.091713,0.936349
4142744790,-20.447056,-18.023726,-15.680650,0.550886,-0.032893,0.926699
4142764834,-17.935066,-18.017929,-14.877139,0.626504,0.002177,0.865416
4142784879,-15.979068,-6.905957,-11.672483,0.651460,-0.016159,0.789909
4142804924,-10.011135,-4.628723,-6.844684,0.648738,-0.016195,0.729254
4142824969,-6.233399,-1.075728,-8.766345,0.648724,0.043931,0.773278
4142845014,-7.017685,9.946136,-8.374601,0.596761,0.108288,0.778194
4142865060,-13.589996,15.048160,0.226313,0.508868,0.117727,0.829370
4142885104,-23.868954,4.547543,5.251707,0.512305,0.092327,0.866478
4142905149,-33.083626,-0.871138,5.822670,0.541536,0.032340,0.864000
4142925194,-33.939407,14.029541,11.528865,0.544981,-0.036545,0.876156
4142945239,-13.338011,21.187710,13.527740,0.502383,-0.056152,0.912971
4142965284,15.656878,13.557969,4.665879,0.481418,-0.018899,0.965316
4142985329,29.333614,-5.359064,-0.411082,0.557714,0.026028,0.906870
4143005373,6.621568,-16.303391,8.145909,0.586245,0.039846,0.797438
4143025416,-12.004448,-11.432320,4.025485,0.571676,0.089790,0.702688
4143045461,-12.624826,-16.407503,-6.752562,0.667423,0.139086,0.595639
4143065505,2.585299,-21.947306,-8.882792,0.754294,0.297412,0.557365
4143085551,23.881752,-5.706692,-6.402643,0.750425,0.609867,0.565683
4143105595,-24.335535,48.759407,1.297680,0.446301,0.697006,0.801643
4143125640,-225.604507,45.353561,18.690117,0.302384,-0.089032,1.257114
4143145685,-350.482819,-48.317566,48.853271,0.448024,-1.106000,0.892379
4143165729,-103.675308,-145.588348,39.221310,0.711143,-1.566559,0.133237
4143185774,286.055267,-169.087234,15.815511,1.270279,-0.729093,0.057937
4143205819,465.851135,-127.358955,7.228722,1.489671,0.371550,0.595811
4143225864,277.111450,68.504768,-30.888332,1.198003,1.163502,0.507298
4143245908,-24.001442,229.331085,-27.421356,0.506536,1.063007,0.783403
4143265954,-118.954086,137.571213,34.035053,-0.049797,0.423822,1.176744
4143285999,-75.938293,9.956479,51.066097,-0.177672,-0.060619,0.815812
4143306044,23.616243,-43.033848,9.625484,0.097924,-0.167208,0.692062
4143326089,67.792702,-38.855400,-11.179914,0.530002,0.001339,0.827207
4143346134,45.026344,17.366127,10.805993,0.703275,0.118262,0.889691
4143366178,1.808529,75.487190,25.899986,0.422479,0.047566,0.994837
4143386223,12.581707,44.870598,10.655451,0.291017,-0.011621,0.997188
4143406268,34.285965,-14.430461,0.717505,0.533656,0.084527,0.853224
4143426311,33.582649,23.189106,7.619980,0.480248,0.217443,0.817868
4143446356,34.974785,64.657440,7.928160,0.386001,0.252512,0.832549
4143466400,19.305557,31.671787,-2.182360,0.432620,0.389436,0.802170
4143486445,-17.965761,39.604488,5.325668,0.440110,0.400625,0.563687
4143506490,-66.349220,48.268658,29.251829,0.699560,0.086009,0.909960
4143526535,-62.348820,71.602562,36.383148,0.287977,-0.260922,1.234391
4143546579,50.565704,117.518021,15.902605,-0.113601,-0.076447,1.228024
4143566624,93.641701,10.825937,-5.162835,0.055057,0.328310,1.534556
4143586669,-0.970942,-49.623772,12.829457,0.442361,0.439759,1.197961
4143606714,-56.135777,2.259915,28.112366,0.338867,0.162098,0.889126
4143626758,-39.888523,42.750256,28.703728,0.005841,-0.086313,0.945009
4143646803,-11.686089,-9.360366,14.747646,-0.012683,-0.077338,0.849932
4143666849,8.701293,-53.801628,3.259233,0.205829,0.095485,0.782182
4143686894,-3.527006,-31.019262,3.521907,0.360572,0.167852,0.797373
4143706938,-40.374352,-18.140152,8.195621,0.313737,0.044504,0.926604
4143726983,-57.432533,-29.686895,6.387041,0.227442,-0.175048,0.996343
4143747028,-49.539234,-33.071999,-1.539978,0.258487,-0.432293,1.001242
4143767072,-21.510340,-69.716843,-2.611575,0.778660,-0.333605,0.274596
4143787117,118.614571,-152.730042,-17.198492,1.116264,0.169245,-0.048476
4143807162,64.006516,-78.655075,9.867529,1.319153,0.751060,1.958649
4143827233,-101.829117,-1.088987,31.536045,0.835860,0.067804,1.156744
4143847250,-104.015587,-38.068726,22.141081,0.806458,-0.386078,0.863289
4143867295,18.091776,-45.757214,27.603886,0.608903,-0.467645,0.572997
4143887339,105.222588,-0.193472,20.539104,0.371105,-0.214339,0.703551
4143907384,125.334297,-14.099924,-2.091157,0.180597,0.139973,1.030728
4143927429,84.756271,-50.352009,-5.212090,0.106752,0.297434,0.855813
4143947474,28.290903,-64.118279,1.496093,0.219750,0.221299,0.723705
4143967518,-9.725341,-63.889061,-1.229492,0.337038,0.101499,0.651076
4143987563,-12.444418,-65.881844,-9.533559,0.484851,0.038471,0.662782
4144007608,6.181376,-76.305649,-14.778388,0.841324,0.097601,0.752665
4144027652,6.014431,-56.459839,-14.224498,1.139794,0.301932,0.731854
4144047697,-7.727708,19.250340,-7.623743,0.955002,0.247333,0.503161
4144067742,-14.886139,48.498577,-2.789365,0.727730,0.109619,0.729521
4144087788,-35.366791,19.613108,-14.565753,0.513300,-0.070565,0.884036
4144107833,-29.520699,-0.548283,-13.006909,0.640878,-0.113463,0.588698
4144127878,-2.744547,-5.812148,-4.720447,0.758903,-0.011108,0.364837
4144147922,26.443733,43.875004,3.724117,0.797416,0.039699,0.347583
4144167976,29.405949,55.395374,-12.513602,1.030250,0.093059,0.454910
4144188012,-29.422901,87.902794,-25.707182,0.796366,-0.003814,0.905491
4144208057,-31.881514,174.185333,2.021639,0.232524,-0.079563,1.199258
4144228101,69.280441,89.234184,-19.281160,0.111061,0.224964,1.404349
4144248145,26.298943,-0.251015,-39.055500,0.375289,0.586081,1.247612
4144268190,-62.098415,4.461747,-5.387357,0.488957,0.314509,0.807024
4144288234,-71.601555,38.940296,14.087182,0.352677,0.074272,0.825310
4144308279,-37.041298,55.671043,-0.416973,0.165646,0.012393,0.806792
4144328323,-5.464459,32.373470,-10.540836,0.064277,0.152244,0.836308
4144348368,-9.132349,1.031442,-10.376426,0.165679,0.225983,0.892705
4144368413,-61.523674,-15.846986,-20.403461,0.323324,0.173330,0.897205
4144388457,-77.758621,-10.062543,-33.936440,0.403579,0.211861,0.769920
4144408502,-50.052010,-11.399954,-30.749847,0.704457,0.310945,0.497984
4144428547,-147.045212,-28.605898,-9.763341,0.958571,-0.135161,0.278096
4144448592,-309.087463,5.215718,-3.151543,0.916098,-0.975520,1.370246
4144468637,-145.414429,23.001719,58.260078,0.543320,-1.309509,1.561019
4144488683,271.825684,-79.117615,73.190086,0.459557,-0.550121,0.733190
4144508728,278.667572,-108.929474,31.463261,0.802145,-0.035601,1.347453
4144528772,71.808708,-30.501905,-2.754678,0.632166,0.263304,0.404528
4144568869,-48.606556,46.286327,49.565178,0.030466,-0.132769,0.875833
4144588907,26.393021,-23.074121,32.440212,-0.064500,-0.301445,0.665399
4144608951,97.991272,-78.114456,9.697871,0.107994,-0.203325,0.773282
4144628996,117.069580,-77.084610,3.996884,0.448890,0.041456,0.861154
4144649039,76.862335,-45.579060,-4.097136,0.821428,0.250462,0.871072
4144669084,2.543571,-9.099910,-4.041763,0.862062,0.286488,0.894197
4144689129,-19.008190,15.790652,-15.403683,0.627280,0.062128,0.974726
4144709173,32.993210,48.638371,-5.617306,0.560026,-0.191378,0.840125
4144729218,69.978455,-18.976818,-17.713875,0.552707,0.189829,0.667673
4144749263,9.849764,-12.210740,-28.496244,0.645105,0.400893,0.759471
4144769308,-51.564262,28.704044,6.073531,0.638957,0.033396,0.533210
4144789352,-29.767982,33.278149,27.583761,0.529597,-0.270934,0.568973
4144809397,5.619362,9.830783,-4.007061,0.718953,-0.237201,0.420310
4144829442,34.383961,2.267975,-33.421379,1.196786,-0.008351,0.567765
4144849487,42.743324,156.963470,-20.695864,0.418487,0.254845,1.057192
4144869531,59.214066,196.520187,-16.875177,-0.117127,0.333005,1.587157
4144889577,27.731573,-0.431940,-16.165712,0.056129,0.449535,1.370320
4144909622,-42.235798,-62.067726,-2.360863,0.534595,0.341251,0.905101
4144929667,-65.960846,42.599411,-1.767490,0.335574,0.061650,0.759464
4144949712,-28.832869,116.177223,-8.117317,-0.223987,-0.056759,0.950188
4144969756,14.964192,31.123884,-11.938067,-0.453366,0.102106,1.048898
4144989801,36.623940,-86.409958,-13.653803,-0.176238,0.333835,1.153620
4145009846,-18.216528,-69.550995,-16.174698,0.121760,0.230119,0.907100
4145029890,-31.234261,-64.296616,-19.157650,0.986183,-0.023046,0.294670
4145049934,-5.658240,-133.097321,-2.101821,1.190955,-0.044952,-0.301998
4145069979,41.269463,-28.176386,22.343391,1.053280,0.658665,1.918958
4145090023,-92.689781,71.294106,19.033041,0.461726,-0.099874,1.598510
4145110068,-50.274792,-52.279343,-3.809285,0.640067,-0.351801,1.059175
4145130113,95.333611,-98.338249,8.282274,0.597285,-0.191791,0.872630
4145150157,120.991287,-18.440351,5.488358,0.496632,0.202591,0.702301
4145170202,70.526871,-24.959831,-2.620579,0.296374,0.432154,0.929651
4145190247,1.473321,-50.025990,2.046444,0.255745,0.315838,0.634874
4145210292,-31.726786,-66.534515,6.278117,0.312952,0.148621,0.612455
4145230336,-25.601406,-60.369663,2.682816,0.340191,0.065323,0.672429
4145250381,5.961849,-55.097687,-10.720966,0.481400,0.094893,0.766992
4145270426,20.715084,-62.123501,-22.300594,0.781303,0.177666,0.782247
4145290472,-9.328552,-41.366535,-13.625941,0.987979,0.171734,0.768419
4145310517,-31.101900,2.043980,1.751785,0.858486,0.021405,0.803220
4145330562,-14.097322,23.172232,-3.121910,0.653047,-0.140172,0.852217
4145350606,10.335735,12.187631,-10.421965,0.551830,-0.121949,0.692546
4145370651,26.713940,-8.242754,-12.128065,0.628817,0.047550,0.716018
4145390696,5.800883,-2.008412,-14.540981,0.712361,0.223601,0.713719
4145410740,-26.247149,15.602795,-7.630668,0.657759,0.137169,0.587936
4145430785,-3.019376,12.763643,-5.931974,0.697275,0.053297,0.569252
4145450828,6.647570,34.936489,-17.538301,0.743757,0.195416,0.575975
4145470873,-15.492153,75.885956,0.632858,0.534753,0.159163,0.701208
4145490918,3.489494,58.691410,16.189650,0.473217,0.121724,0.879333
4145510963,5.165449,23.750208,-16.061268,0.501925,0.016745,1.094910
4145531008,-46.547691,104.820694,-10.751437,0.154645,-0.339327,1.109880
4145551052,1.956248,61.816643,-0.599891,-0.024816,-0.216250,1.342084
4145571097,73.325081,-26.421314,-35.719292,0.117194,0.686588,1.598879
4145591142,-21.992790,-9.278058,-58.377617,0.115953,1.148784,1.142836
4145611186,-35.260735,-3.026011,-23.770920,-0.166356,0.821766,1.149938
4145631231,-50.009163,-43.862080,4.004710,-0.264344,0.502047,1.011197
4145651276,-58.778069,-74.901985,-9.817339,-0.140320,0.389027,0.518573
4145671320,-34.830917,-91.070442,-18.449587,0.343108,0.383698,-0.295796
4145691367,-122.762962,-145.944977,-29.638531,1.057968,-0.128529,0.178891
4145711411,-398.833008,-196.015625,20.756912,1.752710,-0.883407,1.581449
4145731456,-148.562454,26.162086,82.545502,1.467109,-1.558382,0.420474
4145751501,293.890778,41.161583,44.018612,0.857478,-0.436567,0.193990
4145771546,457.656006,-47.422245,-24.879900,0.595835,0.452970,1.713102
4145791590,167.572021,-27.860376,-46.222431,0.492718,0.979029,0.853280
4145811635,-57.088371,-12.143934,-25.408098,0.398739,0.735059,0.257810
4145831680,-160.709854,-78.302399,41.301487,0.392231,0.443828,0.989889
4145851723,-186.827423,-119.002518,62.246750,0.458475,0.002251,0.654967
4145871768,-124.208733,-108.411446,37.819935,0.639334,-0.293286,0.329238
4145891813,-50.703590,-70.076721,19.865637,0.748788,-0.486178,0.356302
4145911858,34.345528,-10.676229,16.536699,0.689597,-0.498263,0.427895
4145931903,124.971161,10.121085,8.721945,0.591495,-0.289836,0.566941
4145951947,146.611740,-4.920165,0.776726,0.535182,0.011797,0.821696
4145971992,88.682770,-33.472992,-2.408911,0.599401,0.336616,0.940391
4145992036,0.348722,-53.017174,7.626869,0.752222,0.471948,0.897326
4146012081,-60.219940,-47.844097,19.803307,0.873025,0.219383,0.815713
4146032126,-80.981232,-48.007423,22.370022,0.950939,-0.104663,0.745120
4146052171,-61.110729,-37.639248,28.546293,0.885420,-0.313839,0.692379
4146072215,8.814255,-13.845024,19.744675,0.726799,-0.331241,0.567816
4146092262,66.344322,-23.700697,0.495709,0.690979,-0.179868,0.586699
4146112306,61.379715,-61.827160,4.790356,0.715420,-0.008476,0.774744
4146132351,43.482635,-66.834694,7.149234,0.761147,0.113623,0.559388
4146152396,32.780975,-49.446968,-2.368970,0.798151,0.199255,0.513975
4146172440,-6.135521,-35.570732,1.512126,0.858588,0.159899,0.592038
4146192485,-26.909882,-21.190506,11.637778,0.751156,0.027777,0.593437
4146212530,-5.963263,-11.442793,9.220564,0.589881,-0.002858,0.611722
4146232574,18.432137,-39.833652,0.375505,0.564252,0.057999,0.603293
4146252618,4.481302,-80.889160,-1.840389,0.725454,0.094032,0.574948
4146272663,-8.099717,-66.312927,3.559862,0.814811,0.101553,0.201346
4146292707,15.943920,-62.802792,12.811266,1.037534,0.320110,0.075436
4146312752,-12.148796,-70.678902,22.442698,1.405514,0.571316,0.187307
4146332797,-124.120094,-8.394786,19.174145,1.549113,0.311381,0.041826
4146352842,-219.886765,90.536346,39.066303,1.448970,-0.331861,0.102851
4146372887,-206.368256,192.098404,68.425629,1.054768,-0.854266,0.027533
4146412976,215.428192,123.811623,11.920514,0.375330,-0.515101,0.749402
4146433021,306.784943,23.747499,-17.482489,0.371603,0.125344,1.004749
4146453065,205.724106,29.933540,-27.668598,0.616802,0.654678,1.161590
4146473110,29.099356,72.309540,-7.301092,0.722038,0.846212,1.001449
4146493156,-83.919701,101.117798,15.798867,0.432400,0.344208,1.151152
4146513201,-110.396370,87.519608,31.281788,0.350511,-0.160381,1.110380
4146533246,-17.178627,42.148270,35.081909,0.362244,-0.383238,0.952886
4146553291,128.440155,0.491239,15.880886,0.355541,0.007786,0.915377
4146573335,156.779968,6.496427,4.161915,0.298838,0.505060,1.081293
4146593380,32.126690,36.306374,18.284355,0.227285,0.667613,1.009689
4146613424,-86.307152,12.859928,48.026974,0.197206,0.290815,0.984355
4146633469,-107.679512,-17.473253,60.302128,0.242276,-0.117069,0.863593
4146653513,-39.039673,-10.799524,57.628807,0.295289,-0.348151,0.700642
4146673557,54.531387,-12.662559,49.523399,0.271135,-0.286432,0.775979
4146693602,88.597267,-35.307514,41.848167,0.390085,-0.109192,0.822181
4146713647,58.423176,-55.365204,35.843853,0.670453,-0.028896,0.807634
4146733692,24.185575,-36.558651,26.238121,0.892695,-0.066272,0.689114
4146753736,19.592016,13.052267,20.047998,0.837904,-0.080038,0.689100
4146773781,42.992222,27.523321,12.823216,0.752276,0.003781,0.818523
4146793826,51.916901,-0.781675,-3.795862,0.842490,0.179126,0.920979
4146813870,10.198989,19.366167,-19.813444,0.865052,0.222577,0.899845
4146833915,-32.020935,57.558670,-18.604033,0.655448,0.059635,0.990794
4146853960,-26.021803,45.120602,-14.501534,0.451345,-0.072505,1.066234
4146874005,21.154644,15.854452,-16.123066,0.415053,-0.061641,1.006063
4146894051,43.192833,7.322414,-16.619175,0.450013,0.041304,0.992814
4146914096,25.598417,17.734724,-18.033016,0.397520,0.091243,0.957148
4146934140,11.916884,16.392515,-20.471359,0.285091,0.107784,0.931699
4146954185,13.522004,4.061975,-22.300400,0.216841,0.128932,0.878493
4146974230,11.799383,-6.882396,-24.196655,0.239077,0.179808,0.849830
4146994274,7.408690,-12.836723,-22.367062,0.290855,0.234819,0.836280
4147014319,-0.726925,-10.120012,-13.866180,0.331205,0.241205,0.844807
4147034364,-8.706224,-7.928167,-5.990702,0.362610,0.157405,0.769159
4147054407,-11.845943,-12.219796,-5.871152,0.458680,0.120166,0.773173
4147074452,-11.993227,-11.519091,-2.960497,0.566209,0.118275,0.884957
4147094497,-11.065929,-2.886494,-5.162219,0.607259,0.144663,0.962518
4147114541,-13.466742,-0.451627,-3.896713,0.651387,0.130574,1.009025
4147134586,-14.616954,-6.111288,0.231337,0.667970,0.077842,0.975349
4147154631,-4.245625,-4.682987,1.841729,0.647642,0.057301,0.942048
4147174676,2.411655,-9.195300,3.280521,0.616733,0.065831,0.898141
4147194720,0.058186,-14.930153,6.915060,0.583008,0.063790,0.861403
4147214765,-0.912008,-17.322664,8.836952,0.550172,0.047139,0.823335
4147234810,2.744526,-19.234131,7.652743,0.523981,0.060429,0.779150
4147254854,0.890048,-21.163521,6.739355,0.521268,0.077020,0.760876
4147274899,-7.433183,-24.447411,6.791038,0.535499,0.061938,0.747083
4147314990,-7.637066,-27.777256,4.761664,0.578670,-0.014314,0.730730
4147335035,0.828163,-30.634714,5.011812,0.627418,-0.003686,0.725535
4147355079,0.513134,-30.642433,4.145749,0.676324,0.023504,0.716564
4147375124,-6.000394,-29.983948,2.374293,0.718745,0.035330,0.700115
4147395169,-11.306788,-33.605873,0.209097,0.777177,0.034595,0.694448
4147415214,-11.617336,-34.769024,-0.922549,0.840015,0.033626,0.678071
4147435258,-7.608603,-30.652651,-0.355331,0.877799,0.038857,0.685406
4147455302,-7.187873,-23.067055,0.677978,0.896618,0.044749,0.556758
4147475346,-23.355595,-24.963655,-5.504217,0.857002,0.039895,0.497147
4147495391,-50.372723,-27.541534,-9.431370,0.878591,-0.037359,0.611839
4147515436,-40.991871,-29.659588,-2.690536,0.901536,-0.119348,0.454448
4147535481,-2.614444,-34.276016,-2.835669,0.977049,-0.110732,0.478509
4147555525,16.010073,-23.349731,-8.664427,1.010728,-0.035636,0.456740
4147575570,2.258962,4.707426,-11.518565,0.966414,-0.008324,0.498071
4147595615,-13.104646,28.064775,-6.326213,0.849710,-0.059454,0.510387
4147615660,-1.082689,31.440704,2.545156,0.723667,-0.123951,0.533215
4147635705,28.059755,19.177588,0.702995,0.670635,-0.132417,0.576053
4147655749,49.706593,7.001013,-8.966715,0.690884,-0.053670,0.552152
4147675794,43.549255,1.372839,-12.014831,0.750550,0.083142,0.658527
4147695840,-8.695997,8.786954,-3.332562,0.750830,0.155034,0.691440
4147715885,-20.063902,12.744070,2.289358,0.704941,0.023439,0.603696
4147735930,0.926353,13.516129,1.655358,0.753632,0.019678,0.750938
4147755974,15.499712,23.673641,2.471069,0.777884,0.063433,0.687386
4147776019,6.488354,31.052261,-1.603550,0.757535,0.053324,0.621860
4147796063,-10.974679,13.562283,-3.060584,0.756240,-0.024457,0.679669
4147816108,-10.336105,4.665431,-10.782021,0.782800,-0.023942,0.642257
4147836153,-3.162986,19.219465,-16.777811,0.824568,0.098011,0.636730
4147856199,-8.363017,28.787195,-13.311137,0.767776,0.151962,0.679936
4147876241,-11.708053,24.079594,-9.014793,0.706602,0.056476,0.687014
4147896286,-12.357869,15.285823,-9.732854,0.729537,0.013930,0.650569
4147916330,-7.841738,17.760126,-8.901333,0.743316,0.000421,0.614090
4147936375,0.540285,23.781183,-6.807695,0.744773,0.004806,0.605779
4147956420,8.662884,25.073044,-8.676730,0.760100,0.037004,0.601984
4147976465,1.626054,22.515934,-12.559019,0.743820,0.032609,0.628395
4147996510,1.523402,25.223536,-8.873536,0.700049,-0.021857,0.620604
4148016554,7.998642,23.704557,-10.750139,0.686184,-0.002518,0.681343
4148036599,2.566428,17.557556,-16.789698,0.681492,0.065424,0.712432
4148056644,-8.013756,14.495216,-18.556927,0.671564,0.120003,0.725474
4148076688,-11.880127,3.895582,-18.562973,0.722203,0.072188,0.723507
4148096733,-11.650535,-4.048148,-20.347523,0.795280,0.037858,0.691458
4148116779,-10.280622,6.294949,-20.939177,0.830873,0.065711,0.658529
4148136824,-7.607269,19.761431,-20.149630,0.801928,0.092561,0.680493
4148156869,-10.517300,23.200731,-17.327036,0.723363,0.065658,0.730489
4148176913,-12.902363,20.786552,-15.592350,0.718249,0.025097,0.808812
4148196958,-6.436510,16.259045,-14.502517,0.716382,0.009358,0.809474
4148217003,2.531510,17.323284,-13.871400,0.660940,0.062645,0.826929
4148237047,-0.893522,5.104714,-13.003193,0.635804,0.076502,0.712462
4148257092,-8.143307,-11.336593,-12.254036,0.713627,0.105726,0.591517
4148277135,-10.741846,-16.981153,-11.124122,0.863477,0.076447,0.459564
4148297180,-12.013154,-6.725529,-8.488141,0.997198,0.035567,0.416540
4148317225,-12.437437,21.155540,-5.494401,0.981105,-0.035079,0.459705
4148337270,4.107848,35.680237,-8.027134,0.916801,-0.023376,0.582505
4148357315,12.681378,35.146416,-12.389083,0.885744,0.115273,0.679279
4148377359,-2.107112,36.756660,-9.458450,0.846795,0.143215,0.755606
4148397404,-11.561796,37.336025,-6.910561,0.759336,0.038161,0.759385
4148417449,-4.029757,39.030533,-10.321962,0.674786,0.052441,0.756100
4148437493,2.693892,41.302979,-14.664764,0.617884,0.139615,0.754236
4148457538,-7.643384,33.506176,-14.265784,0.573626,0.109316,0.721478
4148477583,-18.879547,24.100737,-9.569292,0.584418,0.057988,0.680920
4148497628,-10.642326,26.868582,-8.004749,0.577735,0.054605,0.703296
4148517674,-2.545045,27.376566,-12.150720,0.564918,0.118137,0.775604
4148537718,-16.862207,12.324768,-11.226797,0.657066,0.156057,0.801821
4148557763,-29.769848,12.421524,-6.793112,0.703699,0.090610,0.748895
4148577808,-21.656239,21.225594,-2.650727,0.721730,-0.008999,0.765963
4148597853,-9.129691,22.720856,-0.119871,0.732958,-0.048865,0.810531
4148617897,-0.289591,25.229179,0.168039,0.711714,-0.015105,0.820750
4148637942,8.896773,23.760693,-2.536936,0.674243,0.071703,0.783615
4148657987,7.436517,20.363316,-5.036566,0.693687,0.145526,0.732891
4148678030,-10.206047,24.788212,-2.254314,0.741028,0.162368,0.739471
4148698075,-14.978445,33.101048,0.311310,0.727659,0.153794,0.748912
4148718119,-18.992964,41.242172,-5.645969,0.627162,0.104078,0.800848
4148738164,-35.762985,41.375740,-11.246476,0.518945,0.069370,0.882466
4148758209,-37.032528,21.431536,-13.632886,0.468375,0.127526,0.965105
4148778254,-30.901602,9.391904,-19.024174,0.422210,0.190439,0.946313
4148798298,-41.689697,11.103436,-19.781092,0.338274,0.232480,0.988326
4148818343,-61.260475,5.534882,-17.439322,0.217870,0.150899,0.967634
4148838388,-77.893005,-17.411720,-15.812154,0.322974,-0.133335,0.611122
4148858432,-79.771492,-57.445587,-4.781936,0.734145,-0.390164,0.403474
4148878478,-19.893564,-98.283386,10.376995,1.004376,-0.566945,0.983675
4148898522,59.186661,-74.367210,19.857544,0.869707,-0.404346,1.038798
4148918568,121.282341,-54.570755,13.374748,0.800470,-0.013254,0.919529
4148938613,85.875168,-55.195625,9.411038,0.835706,0.238803,0.914428
4148978703,-1.637846,49.014278,20.016785,0.186176,0.049771,0.823932
4148998747,41.958305,7.006278,4.714201,-0.068311,0.046223,0.839765
4149018792,57.957661,-49.327457,-9.380491,-0.028480,0.132186,0.795463
4149038836,36.450974,-71.137680,-8.501712,0.176782,0.192152,0.776620
4149058881,10.800786,-67.718559,-9.725283,0.433537,0.182688,0.706284
4149078924,-2.992347,-58.670689,-12.507799,0.689516,0.103812,0.654724
4149098969,-4.324139,-50.131454,-6.967160,0.920604,-0.010612,0.703152
4149119014,-9.858047,-29.980978,1.573473,1.050354,-0.109844,0.701277
4149139058,5.091099,3.049748,-7.706709,1.029853,-0.047144,0.693599
4149159103,11.216123,33.003197,-14.806060,0.885030,0.018216,0.782865
4149179148,22.180391,42.964317,-1.346593,0.761289,0.108583,0.606227
4149199193,13.450684,38.490005,4.331635,0.634801,0.171336,0.537959
4149219237,-3.598247,31.051437,10.960174,0.749587,0.123138,0.540196
4149239282,-1.317052,18.520874,5.088441,1.034556,0.061081,0.391474
4149279372,-47.314816,148.488403,8.426502,0.635449,-0.347451,0.757930
4149299416,68.732239,134.136581,-9.080420,0.288057,0.031221,1.115444
4149319461,32.058681,82.213570,-51.443081,0.453894,0.611407,1.206552
4149339507,-45.946438,45.180969,-19.925419,0.527589,0.257455,0.813695
4149359552,-50.247822,54.914482,15.767220,0.522802,-0.084447,0.900334
4149379596,-6.193238,93.207458,0.507094,0.319814,-0.140085,0.741895
4149399641,23.422461,95.158386,-15.621203,0.055832,0.118539,0.960436
4149419689,9.927627,57.989166,-11.764867,-0.058511,0.345151,0.959187
4149439730,-26.123262,3.136905,-9.052073,0.100764,0.501569,0.958058
4149459775,-65.566299,-13.141988,-13.183351,0.339327,0.440522,0.902673
4149479820,-91.623314,11.354592,-13.547626,0.373172,0.152351,0.948272
4149499863,-86.625633,17.804886,-9.958116,0.309954,-0.106614,1.036440
4149519908,-52.641754,-2.487695,-26.304569,0.294563,-0.076123,1.110732
4149539953,-11.453225,-27.117390,-39.312019,0.504657,0.432775,0.955203
4149559997,-26.806091,-42.264988,-16.858377,0.731888,0.597191,0.577033
4149580042,-309.945129,27.972290,12.245332,0.853813,-0.548915,0.608142
4149600087,-333.874695,31.302214,35.630981,0.429189,-1.597150,1.199383
4149620132,79.133209,-13.070944,67.466713,-0.088903,-1.708340,1.026809
4149640176,392.647430,-153.308105,68.410446,0.411935,-0.524946,1.112927
4149660221,290.590820,-206.662186,30.938581,0.824683,0.235952,1.126323
4149680266,66.487991,-56.896378,-23.700190,0.720160,0.427618,0.327064
4149700310,-42.328327,82.836067,-10.244960,0.319734,0.372578,0.883971
4149720355,-31.474913,51.713165,31.693300,-0.124311,0.047038,0.911548
4149740401,35.655197,-56.817284,25.186575,-0.148030,-0.132801,0.716931
4149760446,88.461990,-118.911301,16.475512,0.114268,-0.063141,0.832169
4149780491,77.944778,-100.715286,13.072622,0.473412,0.103253,0.821947
4149800535,17.914930,-54.607590,3.402665,0.766103,0.219337,0.676909
4149820580,-25.122301,-23.340271,0.945254,0.765524,0.129031,0.881681
4149840625,-14.321231,-7.918011,-11.074774,0.646010,-0.140064,0.915168
4149860669,16.330965,-23.182240,-24.284554,0.687846,-0.151315,0.695512
4149880714,42.851814,-33.475681,-28.706318,0.804011,0.221408,0.688732
4149900757,-6.216467,2.439225,-17.972700,0.825253,0.346122,0.644520
4149920802,-26.165165,20.123568,5.726921,0.884818,0.083459,0.514927
4149940847,-37.805981,46.768688,10.666692,0.735776,-0.109842,0.429852
4149960891,-21.221308,73.196739,-7.175137,0.744266,-0.213843,0.475111
4149980936,1.911757,41.432453,-32.424759,1.009778,-0.106614,0.635675
4150000981,24.530275,107.531517,-32.089298,0.561647,0.188315,0.941522
4150021026,24.933187,172.330597,-41.181328,0.240548,0.268873,1.353219
4150061115,-63.012566,5.364809,-10.287383,0.448465,0.120296,0.832549
4150081160,-38.399303,77.790298,-0.275108,0.236612,-0.009579,0.777356
4150101204,-16.373030,97.224983,-9.307202,-0.126465,-0.003959,1.015106
4150121249,-1.010116,24.365017,-12.921472,-0.238729,0.178773,1.164458
4150141294,-9.095707,-31.902653,-10.924562,0.013104,0.246972,1.069956
4150161340,-38.891296,-33.221992,-10.374897,0.238662,0.237367,0.978635
4150181385,-46.507244,-14.648489,-30.697771,0.268806,0.230857,0.872842
4150201429,4.673908,-48.490761,-42.607525,0.819904,0.386112,0.303371
4150221474,-104.954163,-66.467484,-19.009380,0.975007,-0.303898,0.088233
4150241525,-246.573883,58.790184,25.976534,0.641803,-0.514232,2.206415
4150261564,-7.444923,50.186714,63.705425,-0.132405,-0.901991,1.347960
4150281608,209.234390,-138.090240,40.220470,0.371772,-0.479347,1.333040
4150301653,182.907242,-217.344009,20.659214,0.820375,0.074587,1.042314
4150321696,92.228142,-69.197609,1.383975,0.756429,0.325542,0.443525
4150341741,7.194042,61.584087,-0.624594,0.272792,0.464957,0.953972
4150361786,-8.979575,23.764761,22.801445,-0.116628,0.293723,0.975848
4150381830,-0.316758,-76.265686,27.667217,-0.070119,-0.012536,0.716689
4150401875,-3.193229,-121.778343,22.841351,0.182576,-0.211585,0.643701
4150421920,6.407063,-119.010109,11.017716,0.610587,-0.258721,0.747820
4150441965,16.434248,-90.487122,-8.847990,0.972868,-0.266376,0.805066
4150462009,26.638420,-3.595606,-22.195650,0.854803,0.004749,0.373419
4150482054,39.988720,41.063286,-19.689060,0.766490,0.316832,0.620297
4150502099,-22.328899,58.607395,16.395302,0.589438,0.182835,0.721715
4150522143,-17.652872,22.773350,15.684830,0.498099,-0.096942,0.760959
4150542188,-2.581501,-26.143858,-4.070156,0.719618,-0.103169,0.636987
4150562234,-19.301521,-3.886669,2.824898,0.988604,-0.101069,0.414510
4150582279,-15.292336,13.600491,-10.866742,1.400077,0.021062,0.204919
4150602324,-42.409668,102.372162,-38.938072,1.134083,-0.235188,0.411581
4150622369,-67.714127,282.076447,15.991104,0.235371,-0.487705,1.056339
4150642413,114.709595,150.952469,1.704351,-0.214033,-0.203541,1.596432
4150662458,133.365570,-32.133392,-30.628113,0.434020,0.561285,1.155745
4150682503,-8.220249,11.794487,-7.612917,0.654335,0.687116,0.660214
4150702547,-79.234703,146.394516,6.532476,0.120997,0.209961,0.941675
4150722590,-68.393311,128.139313,-2.721053,-0.445200,-0.026142,1.256778
4150742635,2.100563,3.088213,-12.407161,-0.498776,0.046111,1.203349
4150762680,11.660547,-56.816402,-18.762245,-0.138600,0.195607,1.053066
4150782725,16.244522,-75.759552,-31.761059,0.544747,0.452208,0.338326
4150802769,-34.870163,-106.889580,-23.165295,1.016044,-0.113551,-0.066540
4150822814,-194.297058,-15.797855,-14.052706,1.011691,-0.143312,1.209118
4150842859,-65.829956,62.965553,40.760433,0.418134,-0.339311,1.905076
4150862904,132.164261,-2.244582,40.797226,0.429811,-0.455832,1.188601
4150882948,105.348953,-104.040596,-10.271111,0.566667,0.010003,1.253765
4150902993,71.922348,-2.377053,-14.331476,0.387865,0.258343,0.760772
4150923038,38.231194,38.217304,3.273412,0.007424,0.342068,1.047097
4150943083,33.434219,-29.695354,9.956606,-0.022791,0.262623,0.766568
4150963129,22.479950,-76.669388,18.830807,0.186128,0.085721,0.828005
4150983173,12.591784,-62.673729,22.900612,0.290713,-0.003497,0.759856
4151003218,23.003351,-41.270893,7.556342,0.325181,0.102609,1.054672
4151023263,8.345601,-52.150330,6.886708,0.443113,-0.027196,1.049230
4151043308,9.368486,-65.846016,10.533359,0.673938,-0.085939,0.718269
4151063352,31.111197,-38.071602,4.893314,0.892939,-0.019795,0.762387
4151083397,32.366264,59.022003,12.417809,0.533010,0.085538,0.690241
4151103442,7.235078,5.877444,-3.078660,0.334814,0.189564,0.571033
4151123501,-0.437418,-18.408058,-3.758703,0.558116,0.441386,0.582512
4151143530,-39.388336,-9.527555,-4.519781,0.766192,0.357743,0.441145
4151163574,-45.393135,41.114391,-2.472299,0.754369,0.088046,0.513390
4151183619,-55.341904,102.135384,1.081178,0.633815,-0.276689,0.531361
4151203664,-40.218033,80.966278,-6.221674,0.629635,-0.380580,0.916487
4151223708,50.138710,110.372330,-20.883738,0.226841,-0.126867,1.339452
4151243753,53.559246,105.377113,-34.633408,0.128378,0.251612,1.493844
4151263798,-7.479283,5.854401,-31.770601,0.420533,0.496899,1.124949
4151283842,-55.061085,-0.771514,-17.587547,0.554380,0.395348,1.000851
4151303887,-90.505180,101.663643,-16.757465,0.000867,-0.038877,1.114289
4151323932,-83.067032,111.205544,-12.656306,-0.624051,-0.204603,1.182744
4151343976,0.807986,-16.174286,-3.214228,-0.424583,-0.191083,0.833021
4151364021,74.639900,-149.019440,2.904640,0.679155,-0.076628,-0.208877
4151384068,77.917366,-150.904968,7.970316,1.041234,0.439872,0.842891
4151404112,-155.103088,19.168539,17.503918,0.565787,0.602224,2.392299
4151424157,-87.717560,38.961636,30.521500,0.138105,-0.397344,1.121163
4151444202,64.918777,-97.464432,16.856676,0.459795,-0.486758,1.222488
4151464246,121.046623,-80.170967,-6.284918,0.353430,0.060548,0.870314
4151484291,74.080002,-20.535934,-12.022508,0.165168,0.392502,0.910902
4151504336,3.316970,-64.534622,7.988297,0.132106,0.338421,0.777544
4151524380,-16.919466,-105.981834,18.421627,0.305576,0.081258,0.623518
4151564469,21.099586,-72.020370,-6.448129,0.512275,-0.032596,0.549763
4151584513,33.282669,-62.639862,-14.023954,0.716020,0.126805,0.649265
4151604558,5.866490,-42.855518,0.284247,0.916593,0.230407,0.666354
4151624603,-41.836716,-4.022359,12.711135,0.950575,0.127013,0.609552
4151644647,-59.351948,7.380332,-0.314533,0.979450,-0.018650,0.621708
4151664692,-76.296921,12.164660,-8.165492,0.994330,-0.296129,0.631755
4151684737,-15.842021,57.923378,-4.764085,0.934726,-0.422540,0.438984
4151704781,76.618492,80.071159,-14.536851,0.809659,-0.081750,0.508458
4151724826,70.701599,106.756805,-9.869555,0.720872,0.228168,0.694806
4151744871,18.329542,127.687836,4.948873,0.419277,0.238082,0.709637
4151764915,-14.075023,113.289940,5.454721,0.292819,0.104389,0.894456
4151784962,-15.281559,67.937294,-12.114270,0.563872,-0.050123,0.978558
4151805007,-30.614265,127.142601,-0.023396,0.170958,-0.104505,1.215493
4151825051,28.133463,162.335129,-2.624983,-0.461753,0.117698,1.457862
4151845096,40.774757,49.094662,-40.706326,-0.489739,0.596848,1.485022
4151865141,-21.386902,-34.675297,-30.879059,-0.139233,0.792805,1.259992
4151885185,-86.630440,-1.564766,0.047820,-0.237815,0.361852,1.181163
4151905230,-91.390450,16.806177,-8.922642,-0.639814,0.021486,1.049476
4151925274,-48.435837,-31.178068,-30.103603,-0.475884,0.139391,0.338369
4151945336,24.765858,-154.497375,-20.354980,0.669408,0.083529,-0.407381
4151965363,-115.470551,-229.724899,6.830693,1.438760,-0.380386,1.218382
4151985408,-254.095871,-45.069336,70.958450,0.965414,-0.736608,2.481472
4152005452,125.109909,57.982925,60.091511,0.146401,-0.535730,0.763104
4152025497,297.178680,-69.709938,16.245737,0.360075,0.074813,1.954677
4152045541,98.621605,-138.775726,10.634112,0.371540,0.375205,1.025993
4152065586,-30.655994,-65.115456,3.289811,0.164023,0.293196,0.742188
4152085631,-59.878735,-75.982498,19.073082,0.095478,0.200059,0.869008
4152105675,-31.492535,-144.697479,29.357471,0.140991,0.059970,0.579063
4152125720,-6.907910,-170.099457,24.842947,0.286121,0.020453,0.508706
4152145765,-11.898021,-159.282013,18.959181,0.440427,-0.043154,0.454366
4152165810,-23.121990,-145.784271,11.901752,0.618053,-0.117169,0.358219
4152185854,-9.829425,-126.082558,5.229475,0.778048,-0.142476,0.404573
4152205901,15.130997,-83.547935,4.944557,0.831754,-0.170902,0.555241
4152225945,29.995510,-52.765182,16.419386,0.782610,-0.197205,0.585417
4152245990,48.046242,-67.333649,21.856119,0.786137,-0.114968,0.618360
4152266035,56.327583,-86.064247,15.372873,0.927882,0.043581,0.635931
4152286080,30.511883,-75.473969,5.192293,1.027200,0.174448,0.658429
4152306124,-8.216594,-48.076733,8.045930,0.940276,0.109089,0.643402
4152326169,-13.070761,-50.263695,20.114504,0.837436,-0.034277,0.612333
4152346213,-6.120929,-70.084816,19.866646,0.845608,-0.110177,0.597359
4152366257,-8.381250,-67.623741,12.103370,0.903931,-0.150076,0.508891
4152386302,16.651529,-34.580856,15.399853,0.949238,-0.209971,0.439521
4152406346,29.481878,-27.096935,16.978046,0.849258,-0.107208,0.524253
4152426391,17.779558,-35.083931,14.386065,0.829201,-0.035631,0.559751
4152446436,4.529342,-33.612400,16.048014,0.791411,-0.063408,0.510904
4152466480,0.711830,-31.610662,14.848847,0.758563,-0.101411,0.495227
4152486525,3.254395,-34.054474,10.885385,0.740092,-0.077038,0.536681
4152506570,-1.504729,-37.351025,6.536852,0.752636,-0.036207,0.473250
4152526614,-1.527759,-39.108215,3.331387,0.823607,-0.035210,0.430696
4152546659,-5.382379,-32.491009,6.142982,0.895948,-0.032611,0.535814
4152566704,-12.674463,-19.898102,5.828926,0.883321,-0.057994,0.466919
4152586748,-1.143635,-26.022503,-1.887226,0.858580,-0.105506,0.439180
4152606795,3.541449,-35.019619,-5.091470,0.885762,-0.115556,0.529687
4152626839,12.980211,-27.288790,-1.834334,0.861879,-0.039313,0.471798
4152646884,18.321793,-32.167473,-6.312143,0.802714,0.144988,0.357313
4152666929,-21.637440,-55.442757,-2.898354,0.850972,0.317563,0.343495
4152686974,-56.498905,-76.868210,16.610151,0.921268,0.369442,0.113147
4152707018,-63.798363,-88.617744,22.025269,1.133383,0.435547,-0.025239
4152727063,-92.492302,-71.674896,19.616175,1.519197,0.364917,-0.054341
4152747108,-153.240524,10.315821,25.702911,1.768344,-0.044693,-0.042402
4152767153,-187.139282,154.960037,34.762329,1.644422,-0.625054,-0.158878
4152787196,-147.341705,285.030701,43.514267,1.231940,-1.046134,-0.166245
4152807240,-18.917198,341.974304,51.739632,0.537053,-1.015140,0.281916
4152827285,213.998016,240.622086,49.508755,-0.095958,-0.653562,0.809195
4152847330,367.410339,65.627937,32.499542,-0.071706,-0.007592,0.891716
4152867375,356.403229,-73.219673,15.650223,0.318666,0.606506,1.231826
4152887419,103.446388,-62.205379,5.108119,0.767262,1.178474,1.051388
4152907464,-59.688923,67.028107,10.373455,0.663263,0.537160,0.705491
4152927509,-84.119080,103.465073,46.134235,0.558290,-0.020260,1.287276
4152947553,-34.609653,75.483727,49.597862,0.324841,-0.319246,0.737128
4152967598,80.701096,29.927755,23.403131,0.256681,-0.280529,0.818342
4152987643,159.048172,-19.207930,11.154803,0.368111,0.005140,0.991148
4153007688,144.888733,-22.890106,10.116485,0.514934,0.297391,0.901040
4153027734,64.076187,11.027844,15.122631,0.544578,0.486150,0.880488
4153047778,-6.333674,25.193817,28.135469,0.412345,0.339835,0.934901
4153067823,-21.838408,0.249795,35.385799,0.384274,0.067640,0.918643
4153087868,3.650674,-21.724039,33.146584,0.523294,-0.114207,0.870721
4153107913,47.439651,-21.519936,30.266148,0.647432,-0.136614,0.828476
4153127957,77.158432,-1.852004,30.697721,0.624912,-0.016582,0.852449
4153148002,72.486900,-5.289846,33.441284,0.578437,0.105005,0.878146
4153168047,48.472309,-26.869816,34.476204,0.659507,0.137089,0.893677
4153188090,38.478287,-21.564219,32.887028,0.720694,0.064609,0.818883
4153208134,54.885414,-3.597183,28.363722,0.659001,0.033253,0.817871
4153228179,66.376373,-10.206308,24.381298,0.613688,0.074040,0.804640
4153248224,61.939102,-18.959862,21.315334,0.631388,0.146718,0.780953
4153268269,53.039062,-13.510921,19.443371,0.634266,0.208786,0.784649
4153288313,45.619671,-8.837687,19.442511,0.592557,0.222136,0.804446
4153308358,38.239685,-8.869037,20.062878,0.549454,0.175855,0.795227
4153328403,33.339294,-18.791466,19.721296,0.577355,0.148108,0.810682
4153348448,31.209105,-20.949726,16.395239,0.629159,0.134087,0.794515
4153368492,32.461311,-13.473605,12.226600,0.622981,0.129968,0.742062
4153388537,35.630993,-12.389757,11.530861,0.617145,0.175273,0.716791
4153408582,27.748882,-20.743477,12.056292,0.657934,0.239216,0.730491
4153428628,9.582571,-24.634995,11.064127,0.709715,0.177404,0.736751
4153448673,13.798807,-20.620024,6.281807,0.740261,0.065194,0.689100
4153468717,34.567535,-12.103562,3.661427,0.790406,0.096074,0.650973
4153488762,40.006397,-3.762358,4.411761,0.801203,0.230899,0.696827
4153508807,27.369110,2.350419,1.097496,0.747716,0.251024,0.696361
4153528852,24.680489,1.995013,-0.001444,0.703745,0.179649,0.732227
4153548897,31.404934,0.666496,-0.417424,0.678843,0.147234,0.736592
