Timestamp (us),Gyroscope X (deg/s),Gyroscope Y (deg/s),Gyroscope Z (deg/s),Accelerometer X (g),Accelerometer Y (g),Accelerometer Z (g)
5198820469,14.093299,1.064774,-2.082419,1.004960,0.089819,-0.084175
5198840514,10.087884,1.278197,-1.608052,1.005443,0.096472,-0.077476
5198860560,6.091073,1.484127,-1.080337,0.998276,0.108030,-0.069294
5198880607,2.207023,1.285958,-0.645162,0.988688,0.106833,-0.069219
5198900652,-1.715079,1.133525,-0.201760,0.988703,0.101103,-0.068756
5198920698,-5.103688,0.950530,0.147336,0.985903,0.094187,-0.067517
5198940744,-8.497963,0.607763,0.611696,0.986941,0.095457,-0.070532
5198960789,-11.434982,0.333507,0.990540,0.982350,0.088533,-0.072258
5198980835,-14.614655,-0.176782,1.489501,0.983939,0.086620,-0.075278
5199000880,-17.456772,-0.671593,2.050633,0.984948,0.083702,-0.080101
5199020926,-20.584940,-0.823975,2.425139,0.985447,0.085154,-0.082654
5199040970,-23.389374,-1.288366,2.954873,0.988344,0.083964,-0.088965
5199061016,-26.119900,-1.341569,3.328974,0.993189,0.077321,-0.094029
5199081061,-28.515076,-1.379581,3.643028,0.997562,0.067401,-0.100079
5199101107,-30.472744,-1.325812,4.047626,0.998538,0.055299,-0.102345
5199121152,-32.114227,-1.043990,4.170237,0.999753,0.045651,-0.106344
5199141198,-33.601585,-0.975340,4.366981,0.995575,0.038269,-0.110436
5199161244,-34.944115,-0.860985,4.537838,0.994018,0.035983,-0.115671
5199181289,-35.309219,-0.898939,4.644388,0.985949,0.022768,-0.122955
5199201335,-36.018211,-1.074127,4.765709,0.985061,0.028583,-0.126127
5199221381,-36.422237,-1.371271,4.843311,0.984493,0.011484,-0.123365
5199241426,-36.098770,-1.431844,4.974782,0.986637,0.000201,-0.126651
5199261473,-35.366642,-1.622401,4.877154,0.986607,-0.005360,-0.133450
5199281519,-34.617538,-1.500299,4.862212,0.992474,-0.009353,-0.132545
5199301564,-34.038406,-1.439435,4.751433,0.989715,-0.008358,-0.133498
5199321610,-33.060638,-1.233542,4.693568,0.994456,-0.017185,-0.139374
5199341656,-31.736994,-1.019701,4.735945,0.994492,-0.027016,-0.142898
5199361701,-29.996733,-0.874838,4.564148,0.993486,-0.033842,-0.143414
5199381747,-28.243057,-0.867381,4.293209,0.989386,-0.035311,-0.147790
5199401791,-26.657085,-0.806561,4.048272,0.988459,-0.032220,-0.148324
5199421837,-24.973381,-0.700209,3.709589,0.990074,-0.032775,-0.154796
5199441882,-23.335594,-0.700560,3.372152,0.997485,-0.034045,-0.159096
5199461928,-21.925262,-0.365427,3.129709,0.995477,-0.044411,-0.154778
5199481974,-20.149767,0.099111,2.780411,1.001209,-0.060955,-0.152125
5199502019,-18.413111,0.449254,2.401682,0.995976,-0.063868,-0.148854
5199522065,-16.650255,0.723624,2.206091,0.989878,-0.053967,-0.151943
5199542110,-15.195243,0.685217,1.910535,0.981786,-0.028236,-0.153210
5199562156,-14.302307,0.540458,1.824917,0.979044,-0.007223,-0.152018
5199582202,-13.816649,0.189575,1.633267,0.978078,-0.001224,-0.154462
5199602247,-13.351616,0.014255,1.563695,0.979059,-0.003045,-0.155838
5199622294,-12.481318,-0.343841,1.502151,0.982579,-0.011687,-0.158607
5199642340,-11.802695,-0.298179,1.397134,0.986824,-0.016135,-0.156584
5199662385,-10.923664,-0.198911,1.379747,0.992806,-0.011928,-0.149067
5199682431,-10.465053,0.067905,1.362318,0.993804,-0.011464,-0.144546
5199702479,-9.732471,0.189841,1.278924,0.990574,-0.022199,-0.142113
5199722522,-9.097914,0.243347,1.274074,0.987415,-0.024657,-0.140240
5199762614,-6.826411,-0.206549,0.902913,0.976739,-0.042487,-0.131041
5199782658,-5.139462,-0.694162,0.764822,0.974230,-0.048036,-0.128810
5199802703,-3.164922,-1.105877,0.460427,0.979711,-0.050302,-0.128900
5199822749,-1.273171,-1.197389,0.217705,0.991689,-0.050921,-0.128286
5199842794,0.819418,-1.212379,0.085453,0.992562,-0.050915,-0.125578
5199862840,2.999527,-1.334579,-0.277385,1.004675,-0.039428,-0.121900
5199882885,5.039045,-0.838963,-0.402666,1.002647,-0.044801,-0.123218
5199902931,6.381953,-0.290298,-0.575738,1.017877,-0.014649,-0.112907
5199922977,7.426372,0.517339,-0.774446,0.999923,-0.050899,-0.122708
5199943022,9.677556,0.876525,-0.605364,1.014838,-0.002728,-0.108609
5199963068,7.797535,1.257151,-0.570151,0.979069,0.064507,-0.126810
5199983115,5.818548,0.410932,-0.467801,0.943261,0.055496,-0.151784
5200003161,2.538993,-1.006267,0.036116,0.905757,0.135441,-0.183685
5200023206,-3.407789,-3.155578,0.632434,0.920727,0.146901,-0.198120
5200043252,-6.215330,-4.566287,0.599912,0.982547,-0.043144,-0.147661
5200063297,-5.154832,-5.259749,0.497586,1.011381,-0.043355,-0.188185
5200083343,-4.712040,-5.062581,0.029851,0.982078,-0.004771,-0.209173
5200103388,-5.742549,-5.626543,0.143422,0.956289,0.034086,-0.232672
5200123434,-6.841626,-5.701797,0.676976,0.978866,0.057768,-0.235275
5200143478,-9.863150,-4.938770,1.420797,1.029222,0.109126,-0.196640
5200163524,-13.504608,-2.743365,2.080181,1.041267,0.100633,-0.173501
5200183570,-16.065037,-0.616863,2.481932,1.015657,0.059659,-0.172996
5200203615,-17.092058,0.808536,2.718717,0.998116,0.018691,-0.175716
5200223661,-17.338129,1.821793,2.605497,1.002035,0.005785,-0.172130
5200243706,-17.324389,2.728415,2.487590,1.002750,-0.004124,-0.168676
5200263752,-17.378786,3.330294,2.417869,0.996289,-0.019780,-0.168359
5200283797,-17.176359,3.428892,2.192010,0.987059,-0.023152,-0.163929
5200303843,-16.458904,3.108866,2.133306,0.983769,-0.031775,-0.149970
5200323889,-15.889328,2.727501,1.932487,0.982077,0.006192,-0.130759
5200343934,-15.721945,2.354042,1.899917,0.982885,0.012586,-0.116531
5200363982,-15.485310,1.820632,1.897101,0.973542,-0.003534,-0.118887
5200384027,-14.463344,1.538617,1.763587,0.995452,-0.043336,-0.112296
5200404073,-12.595078,1.919489,1.473899,1.010467,-0.050127,-0.106004
5200424118,-11.219246,2.719937,1.421613,1.018399,-0.031738,-0.105625
5200444164,-10.442478,3.527496,1.220457,1.004405,-0.033927,-0.097032
5200464210,-9.246771,2.895711,1.405678,0.971283,-0.043997,-0.105528
5200484255,-7.617145,2.239943,1.062940,0.969307,-0.040357,-0.103503
5200504299,-5.994709,1.172733,0.759919,0.966642,-0.041835,-0.114167
5200524345,-4.116469,0.570886,0.633780,0.969999,-0.033198,-0.119685
5200544390,-3.021065,-0.122999,0.347383,0.984026,-0.020816,-0.125936
5200564436,-1.913411,-0.237137,0.295704,1.000762,-0.021799,-0.129760
5200584481,-1.400303,0.319393,0.322103,1.007977,-0.023889,-0.134782
5200604527,-0.387919,0.982047,0.048084,0.999740,-0.030371,-0.140894
5200624573,0.520799,1.218372,-0.023826,0.989786,-0.018293,-0.144920
5200644618,1.184223,1.180219,-0.120628,0.985714,-0.003392,-0.151684
5200664664,1.443916,1.111671,-0.133080,0.981759,-0.002135,-0.157882
5200684710,1.631570,0.905519,-0.319430,0.974187,-0.012343,-0.162911
5200704755,2.242117,0.653073,-0.796565,0.990396,-0.018329,-0.165900
5200724802,3.860108,0.936069,-0.546170,1.025690,-0.028348,-0.150055
5200744848,3.936209,1.797141,-0.596362,0.998423,0.026521,-0.119997
5200764893,3.373716,2.063139,-0.846142,0.988976,0.005868,-0.113628
5200784939,3.344213,1.629904,-0.347433,0.964003,0.004580,-0.101036
5200804985,3.067858,0.745728,-0.377334,0.961551,0.015967,-0.089848
5200825030,2.479152,-0.039320,-0.348014,0.968797,0.016253,-0.088247
5200845076,2.237207,-0.724862,-0.172925,0.980210,-0.002217,-0.099395
5200865138,2.526096,-1.029813,-0.253930,0.996692,-0.014116,-0.102834
5200885165,2.900329,-0.808777,-0.284852,1.007871,-0.014924,-0.105837
5200905211,3.416558,-0.443342,-0.502405,1.008858,-0.006107,-0.111133
5200925256,3.364782,-0.077353,-0.418563,1.001132,0.008516,-0.117925
5200945302,3.143316,0.250297,-0.415356,0.997095,0.006871,-0.118943
5200965348,3.226423,0.242569,-0.470433,0.994480,0.004678,-0.122163
5201005439,3.158051,0.250228,-0.446207,0.983291,0.007205,-0.124427
5201025485,3.006874,0.067526,-0.343327,0.982046,0.007207,-0.122590
5201045530,2.641606,-0.252401,-0.235835,0.982945,0.010846,-0.123156
5201065576,2.383837,-0.435074,-0.107962,0.978575,0.011296,-0.122356
5201085623,2.031973,-0.671418,-0.107989,0.984595,0.013669,-0.122644
5201105668,1.459024,-0.877257,-0.073262,0.988830,0.013033,-0.125802
5201125714,1.060441,-0.930835,-0.126481,0.990749,0.009943,-0.125920
5201145760,0.710920,-0.930645,-0.005078,0.990622,0.011850,-0.127737
5201165805,0.061683,-0.885010,0.030293,0.994048,0.011123,-0.130154
5201185851,-0.228099,-0.694481,0.065847,0.997903,0.008674,-0.129308
5201205896,-0.287308,-0.442771,0.165497,0.997996,0.006126,-0.129396
5201225965,-0.670611,-0.267737,0.103579,0.991748,0.004567,-0.131466
5201245986,-0.777475,-0.260122,0.113269,0.993881,0.005756,-0.129689
5201266032,-0.936396,-0.138026,0.200002,0.988078,0.003377,-0.132400
5201286078,-0.967943,-0.153400,0.147175,0.989466,0.002289,-0.131514
5201306123,-1.026848,-0.092160,0.270377,0.990351,0.001014,-0.133070
5201326169,-0.905179,0.022091,0.229429,0.991989,0.000098,-0.138362
5201346215,-0.759944,0.044986,0.226534,0.989807,0.000368,-0.137780
5201366260,-0.444844,-0.069024,0.320139,0.988243,-0.008998,-0.134107
5201386305,-0.112246,-0.038950,0.107266,0.985911,-0.015821,-0.132240
5201406351,0.627788,-0.008480,0.016390,0.994690,-0.022912,-0.137008
5201426396,0.468140,-0.191292,0.073586,0.961244,0.050964,-0.157530
5201446443,-0.464983,-0.595462,0.070114,0.986628,-0.003217,-0.156511
5201466489,-0.234749,-0.404780,0.110861,1.001790,-0.008455,-0.147138
5201486535,-0.251278,-0.168715,0.033981,0.993517,0.002438,-0.154096
5201506580,-0.177000,-0.077534,-0.090027,0.988684,0.008692,-0.163011
5201526626,-0.441891,0.166598,0.051846,0.985973,-0.002036,-0.157228
5201546671,-0.426795,0.075133,0.044216,0.984443,-0.005122,-0.151387
5201566717,-0.167218,0.044671,0.023998,0.988304,-0.002558,-0.145012
5201586765,0.222652,-0.084779,0.024505,0.984151,-0.012021,-0.143019
5201606807,0.970815,-0.168550,-0.035582,0.984207,-0.017748,-0.140378
5201626853,1.480889,-0.092496,-0.160355,0.986659,-0.017456,-0.131433
5201646898,2.503979,-0.336262,-0.232885,0.982601,-0.018813,-0.123827
5201666944,3.351680,-0.595255,-0.279038,0.983968,-0.023807,-0.119485
5201686989,3.967767,-0.565028,-0.459205,0.994289,-0.026157,-0.119657
5201707035,5.364040,-0.496451,-0.624073,1.001357,-0.019403,-0.112527
5201727080,5.952007,-0.039173,-0.682853,1.005233,-0.018748,-0.105513
5201747126,6.562109,0.235119,-0.779661,0.998498,-0.012287,-0.098964
5201767172,7.079455,0.387330,-0.927752,0.997976,-0.014552,-0.092869
5201787217,7.674395,0.638774,-1.016548,1.006696,-0.049819,-0.083065
5201807264,9.191377,1.072949,-1.284315,0.999775,-0.005263,-0.088921
5201827310,8.005367,0.241899,-1.304383,0.943469,0.084036,-0.114616
5201847356,4.069964,-1.015229,-0.711857,0.957921,0.125314,-0.140167
5201867401,0.507478,-1.220875,-0.252331,1.017404,0.065752,-0.123381
5201887447,-1.582468,-0.207277,-0.008833,1.024465,0.065864,-0.117057
5201907492,-4.658777,0.379312,0.247585,0.997337,0.114839,-0.128567
5201927538,-8.486707,0.417726,0.818429,1.002834,0.070813,-0.130403
5201947600,-11.287163,1.119764,1.527597,1.014254,0.085040,-0.119728
5201967628,-15.013483,1.363250,1.790129,0.988213,0.111477,-0.118511
5201987673,-18.787731,0.990201,2.384226,0.963718,0.099058,-0.124972
5202007719,-22.655321,0.197803,2.905116,0.958709,0.108878,-0.123541
5202027765,-26.212648,-0.732096,3.252330,0.967295,0.092687,-0.129470
5202047810,-29.232170,-1.387183,3.733382,0.973455,0.071120,-0.138345
5202067856,-31.853966,-1.562064,4.205118,0.983254,0.075586,-0.141606
5202087902,-34.771049,-1.668065,4.835184,0.980803,0.089322,-0.139953
5202107947,-37.960899,-1.790048,5.180220,0.983752,0.077402,-0.144159
5202127993,-39.895496,-1.736256,5.592011,0.988025,0.063751,-0.150927
5202148039,-41.504295,-1.614179,5.836782,0.991830,0.038659,-0.144414
5202168084,-42.465843,-1.408450,5.931171,0.996073,0.026196,-0.147825
5202188131,-43.114086,-1.073114,6.011406,0.998848,0.010455,-0.151840
5202208177,-43.038105,-0.897888,5.978782,0.996393,-0.028306,-0.153640
5202228222,-41.692253,-0.501247,5.974271,0.995513,-0.057964,-0.153667
5202248268,-39.747879,-0.684306,5.684983,0.972021,-0.074286,-0.155599
5202268313,-36.337616,-1.286367,5.292233,0.969822,-0.121609,-0.163744
5202288359,-31.120773,-1.849562,5.017125,0.983172,-0.128992,-0.182932
5202308405,-26.487263,-1.743608,4.170360,0.984443,-0.080150,-0.190024
5202328449,-22.840242,-1.217830,3.723411,1.003431,-0.049818,-0.183863
5202348494,-20.025536,-0.737855,3.338613,1.000011,-0.059974,-0.162364
5202368540,-17.920912,-0.410349,3.013950,0.992814,-0.081091,-0.162660
5202388586,-15.236481,-0.044752,2.616779,0.999893,-0.108553,-0.161918
5202408631,-11.976780,0.861287,1.878063,1.008787,-0.135467,-0.161753
5202428677,-7.825159,1.774842,0.992111,1.000419,-0.148933,-0.155869
5202448723,-3.205148,2.353486,0.228089,0.992608,-0.151744,-0.143930
5202468768,1.386472,2.650454,-0.404539,1.005967,-0.132525,-0.141557
5202488814,5.358822,3.137771,-1.041068,0.970836,-0.092936,-0.103170
5202508859,7.732611,1.193699,-1.623200,0.956263,-0.046547,-0.146662
5202528905,9.635866,0.622609,-1.635306,0.963811,-0.038697,-0.138271
5202548952,11.575889,-0.070586,-1.724132,0.984329,-0.033468,-0.130005
5202568998,13.049419,-0.245735,-1.836198,0.984099,-0.011074,-0.121415
5202589043,13.298649,-0.421336,-2.000920,0.989089,0.006490,-0.122165
5202609089,13.266032,-0.139656,-2.123488,1.005043,0.009703,-0.118720
5202629134,12.934906,0.470569,-1.851644,1.011751,0.012827,-0.106675
5202649180,12.279526,0.965996,-1.748878,1.015745,0.020572,-0.102671
5202669226,10.704019,1.492311,-1.368552,0.991616,0.068301,-0.100524
5202689270,7.166088,1.133483,-1.237576,0.974960,0.122210,-0.108590
5202709315,2.253013,0.554433,-0.613054,0.979772,0.154149,-0.108180
5202729361,-3.437491,0.173623,0.140516,0.984325,0.152053,-0.113883
5202749406,-8.633748,-0.244520,1.167352,0.987786,0.133687,-0.110734
5202769452,-13.760231,-0.495864,1.817849,0.986404,0.132171,-0.092008
5202789497,-19.116270,-0.716812,2.457416,0.995509,0.140743,-0.088183
5202809543,-24.141678,-0.624996,3.188864,0.998728,0.142834,-0.091691
5202829589,-29.252668,-0.518154,3.837868,0.994706,0.142910,-0.096706
5202849635,-34.760124,-0.380792,4.547952,0.988961,0.178741,-0.098846
5202869680,-41.211189,-0.305054,5.085516,0.994690,0.196380,-0.108868
5202909773,-53.433914,-0.235379,6.950086,0.989931,0.185793,-0.124564
5202929818,-60.235031,-0.501444,8.015198,0.985727,0.224446,-0.127189
5202949864,-67.367027,-0.554501,8.956118,0.989649,0.222415,-0.147042
5202969909,-74.292213,-0.561733,9.915797,0.981257,0.217929,-0.156424
5202989955,-81.664970,-0.675310,11.075550,0.981937,0.239571,-0.162644
5203010001,-88.799347,-0.782018,11.886788,0.967857,0.217199,-0.198768
5203030046,-94.631256,-1.253810,12.857366,0.962627,0.169728,-0.236999
5203050093,-99.137070,-2.022002,14.024799,0.954989,0.165188,-0.225696
5203070136,-103.224785,-2.570402,14.625563,0.954332,0.096460,-0.250353
5203090182,-105.349747,-2.935677,15.095934,0.985397,0.010559,-0.289229
5203110227,-105.633499,-2.104256,15.442536,0.993047,0.018245,-0.270491
5203130273,-107.286674,-1.167611,15.318669,1.024227,0.118226,-0.243138
5203150318,-111.977615,0.752921,15.877069,1.035608,0.225862,-0.243330
5203170364,-117.852127,2.749541,16.519310,0.983057,0.159537,-0.307320
5203190410,-121.694885,3.436731,17.516205,0.984242,0.097034,-0.311321
5203210455,-123.977486,3.527029,17.285103,0.978429,0.096829,-0.319301
5203230501,-125.871170,4.098372,17.404003,0.991976,0.073617,-0.338648
5203250547,-127.158897,4.189052,17.222370,0.969084,0.074696,-0.327003
5203270592,-127.806824,4.143414,17.334433,0.932903,0.032625,-0.320415
5203290639,-128.981171,2.619437,17.560972,0.904904,0.047948,-0.326863
5203310685,-129.774979,0.676216,17.705107,0.884078,0.017538,-0.323915
5203330730,-129.080856,-1.305100,17.682951,0.906459,-0.024381,-0.331217
5203350776,-127.064514,-2.188801,17.593279,0.940704,-0.051063,-0.323587
5203370822,-123.982323,-2.737517,17.237280,0.984917,-0.104661,-0.316989
5203390867,-118.540939,-1.754353,16.639368,1.005381,-0.144612,-0.290130
5203410913,-113.349678,-0.902499,15.320811,1.002234,-0.174420,-0.269874
5203430957,-106.906021,0.293397,14.328312,1.007030,-0.206261,-0.274260
5203451002,-99.883896,1.374804,13.195065,1.007373,-0.206351,-0.221978
5203471048,-92.002426,1.946268,12.245518,0.986546,-0.228357,-0.199074
5203491094,-83.608559,1.724377,10.906597,0.951218,-0.185886,-0.229315
5203511139,-78.252594,0.483202,10.738028,0.964661,0.029788,-0.200581
5203531185,-82.834732,0.878933,11.024301,1.047780,0.323807,-0.167991
5203551230,-92.051270,2.838439,12.472738,1.025978,0.349403,-0.130807
5203571276,-100.943741,3.037124,13.722074,0.943654,0.208850,-0.218585
5203591322,-103.701630,1.147831,14.339704,0.934443,0.020622,-0.214848
5203611367,-103.466919,0.421679,13.390027,0.980588,0.010799,-0.200004
5203631413,-103.625351,0.373215,12.239402,0.988840,0.002376,-0.237713
5203651460,-103.885201,0.639871,12.235916,0.990683,-0.010846,-0.257149
5203671506,-104.868141,1.235425,12.826116,0.976556,0.008978,-0.249406
5203691551,-106.452782,1.191011,13.567666,0.943470,0.034810,-0.224557
5203711597,-109.068893,0.017613,13.966202,0.924196,0.079454,-0.221851
5203731642,-112.337135,-1.361998,14.248173,0.929782,0.164116,-0.245054
5203751688,-117.869347,-2.002152,14.884912,0.944100,0.258788,-0.274413
5203771734,-123.153061,-2.198771,16.141951,1.016013,0.199069,-0.305860
5203791778,-126.935837,-1.223137,16.640024,1.014014,0.168358,-0.282899
5203811823,-130.781921,0.034153,17.008488,1.005683,0.112612,-0.316524
5203831869,-133.447998,1.100593,17.102518,0.977501,0.080450,-0.321074
5203851915,-135.335312,0.979311,17.598032,0.952784,0.068283,-0.339332
5203871960,-136.887100,0.240758,18.066164,0.927386,0.066616,-0.334811
5203892006,-139.022095,-0.444884,18.415533,0.941458,0.058886,-0.344752
5203912052,-139.961853,-1.245181,18.482279,0.939062,0.019850,-0.348277
5203932097,-139.623657,-1.801145,18.599833,0.954934,-0.027448,-0.357184
5203952143,-137.234756,-1.685762,18.782335,0.948756,-0.054004,-0.347321
5203972188,-134.291901,-1.601258,18.732594,0.965559,-0.081894,-0.339573
5203992234,-130.138519,-1.441886,17.971382,0.998070,-0.163359,-0.340083
5204012281,-123.406891,-0.588168,17.272449,0.995452,-0.208891,-0.312094
5204032326,-115.820610,0.227456,16.480648,1.011450,-0.226210,-0.293002
5204052372,-107.293381,1.400561,15.279683,1.012274,-0.235720,-0.269217
5204072418,-98.258636,1.474864,13.430644,0.958824,-0.256657,-0.232414
5204092463,-88.725243,0.880913,12.544622,0.972830,-0.164816,-0.215376
5204112509,-87.210060,0.919588,12.614430,0.989488,0.239769,-0.159414
5204132555,-97.207275,0.683133,13.672689,0.971621,0.456116,-0.187882
5204152599,-106.654190,0.867902,15.551787,0.961904,0.106884,-0.225899
5204192690,-102.559120,-0.619355,14.583226,0.967345,-0.073569,-0.209987
5204212736,-99.872917,-0.750835,13.454097,0.975540,-0.077423,-0.235901
5204232781,-98.035789,-0.629135,13.142951,0.988336,-0.054229,-0.248595
5204252827,-97.593994,-0.026234,13.453312,0.984877,-0.016888,-0.221364
5204272872,-99.337563,0.164759,13.853297,0.975875,0.058089,-0.204814
5204292918,-103.148857,0.386240,14.491982,0.974369,0.157873,-0.210764
5204312964,-109.261040,0.386184,15.168411,0.969051,0.232757,-0.250921
5204333009,-115.110329,0.371338,16.007898,0.998548,0.199929,-0.267891
5204353055,-119.588341,1.384958,16.534620,1.012224,0.145730,-0.267762
5204373102,-122.662704,2.138456,16.469503,0.977328,0.094803,-0.280789
5204393147,-124.798447,1.710816,16.344257,0.964519,0.047992,-0.299375
5204413193,-126.654610,1.650580,16.869530,0.951449,0.033796,-0.290959
5204433238,-127.793602,0.774960,17.337749,0.946279,0.017042,-0.294928
5204453284,-129.133881,0.005648,17.664333,0.935988,0.020570,-0.297935
5204473330,-129.444000,-0.771271,17.879257,0.955261,-0.005969,-0.299581
5204493375,-128.420319,-0.999723,17.837231,0.954197,-0.036529,-0.294883
5204513421,-125.764221,-0.809110,17.571095,0.989394,-0.113033,-0.322317
5204533465,-121.817101,0.013200,16.796394,0.979602,-0.155760,-0.296752
5204553511,-115.946121,0.500349,15.870857,0.992148,-0.203661,-0.283451
5204573557,-110.056534,1.162211,14.699853,1.004485,-0.183865,-0.262453
5204593602,-101.742897,3.038378,14.348892,1.115219,-0.312076,-0.268939
5204613648,-94.219727,4.832790,11.721107,0.961106,-0.172277,-0.154343
5204633693,-87.196693,3.507280,11.146039,0.895712,-0.209264,-0.234049
5204653739,-81.343315,1.053669,10.620348,0.864539,-0.015099,-0.242827
5204673785,-85.194313,-1.072115,11.259977,0.999585,0.447208,-0.207135
5204693830,-98.521133,1.495342,12.442282,1.089890,0.350463,-0.098220
5204713876,-103.954422,2.716500,13.835049,0.959281,-0.005213,-0.182821
5204733922,-102.408707,0.994878,13.963617,0.930563,-0.023614,-0.224784
5204774014,-102.016144,-0.480361,12.042908,1.008168,-0.046184,-0.242682
5204794060,-101.383682,0.243462,11.898320,0.981376,-0.046374,-0.224796
5204814105,-101.133347,0.504346,12.626174,0.978930,-0.039725,-0.218411
5204834151,-101.392303,0.048180,13.121771,0.947487,-0.001626,-0.202597
5204854196,-102.032616,-1.262436,13.276103,0.942214,0.040195,-0.213288
5204874242,-104.297279,-1.742324,13.634944,0.976362,0.173854,-0.230069
5204894286,-110.721085,-1.094494,14.391678,1.028561,0.315806,-0.253072
5204914332,-118.536919,0.864591,15.499639,1.040389,0.265796,-0.248924
5204934378,-124.773132,2.259794,16.456560,0.995832,0.152642,-0.254966
5204954423,-128.660294,2.640367,16.698832,0.950877,0.071741,-0.285021
5204974469,-130.683807,2.113376,16.441835,0.927608,0.020915,-0.301515
5204994514,-131.293625,2.296338,16.537115,0.953993,0.011416,-0.293053
5205034605,-133.417755,-0.934075,17.154552,0.920415,-0.030185,-0.332626
5205054651,-132.511185,-2.747898,17.036020,0.913238,-0.051325,-0.346448
5205074697,-130.036926,-3.744898,17.327553,0.960411,-0.112046,-0.357772
5205094742,-125.970100,-3.043834,16.833668,0.993362,-0.132056,-0.331068
5205114789,-120.994026,-2.442660,15.886909,1.014530,-0.172150,-0.334812
5205134835,-114.245872,-1.139180,15.239650,1.000433,-0.249565,-0.321734
5205154880,-105.257568,-0.201881,14.175710,0.990878,-0.278639,-0.292474
5205174926,-95.292938,0.613451,12.986254,1.029979,-0.313698,-0.240795
5205194972,-85.329575,2.106828,11.702863,1.036946,-0.164157,-0.152472
5205215017,-82.801682,3.120632,11.505248,0.979932,0.196479,-0.092186
5205235063,-92.421349,2.648425,12.732720,0.931990,0.451115,-0.153520
5205255107,-105.524803,0.272542,15.027518,0.885032,0.280344,-0.227690
5205275153,-106.974030,-1.616244,15.711451,0.967136,-0.084672,-0.212053
5205295198,-104.275612,-1.709026,14.834123,1.012378,-0.099854,-0.192102
5205315244,-102.366844,-0.918335,13.808704,1.034177,-0.033997,-0.214007
5205355335,-104.483459,0.788222,13.821169,0.952780,0.031050,-0.249491
5205375381,-107.582428,0.758586,14.538566,0.950925,0.062996,-0.239255
5205395427,-110.774780,0.118095,14.763113,0.964750,0.065550,-0.247120
5205415472,-114.340096,-0.217465,15.070299,0.952444,0.085633,-0.249395
5205435518,-116.073631,-0.651026,15.624998,0.952694,0.046409,-0.257958
5205455563,-116.431015,-1.511964,15.764704,0.964997,0.037665,-0.274584
5205475610,-117.028885,-1.976167,16.121714,0.950783,0.034182,-0.277785
5205495656,-118.829338,-2.120918,16.348169,1.000196,0.058850,-0.310441
5205515702,-120.740211,-0.916347,16.763309,1.019025,0.064793,-0.309410
5205535747,-122.953941,0.972375,16.471397,1.013541,0.069740,-0.284996
5205555793,-125.383141,1.809256,16.141315,0.980921,0.059402,-0.291050
5205575838,-127.321548,1.846320,15.918997,0.945661,0.035413,-0.297489
5205595884,-128.979324,1.343114,16.013969,0.964080,0.016032,-0.315019
5205615930,-128.869034,0.445357,16.649059,0.950497,-0.015994,-0.305838
5205635974,-129.187149,-0.119234,16.412584,0.942314,-0.001328,-0.288294
5205656020,-129.053650,-0.903638,16.634209,0.954384,-0.007331,-0.297749
5205676065,-128.192841,-1.595284,17.330462,0.970147,-0.017718,-0.319878
5205696111,-126.951202,-1.160204,17.480675,0.960624,-0.030057,-0.292734
5205716156,-125.691238,-1.030529,17.387020,0.963814,-0.030243,-0.297962
5205736202,-124.335609,-0.870832,17.085093,0.975490,-0.039889,-0.309129
5205756248,-122.415146,-0.139585,16.709169,1.001939,-0.060581,-0.302828
5205776293,-120.497559,0.637012,16.172682,0.988567,-0.059304,-0.290075
5205796339,-118.021683,0.927069,16.085466,0.982373,-0.081841,-0.271141
5205816384,-115.043457,0.858805,15.882715,0.969546,-0.061947,-0.276856
5205836430,-112.685036,0.697878,15.233813,0.934987,-0.095482,-0.280569
5205856477,-107.420609,-0.795756,14.662864,0.927323,-0.215384,-0.326445
5205876523,-97.780296,-2.517506,13.809086,0.869255,-0.458590,-0.403301
5205896568,-83.245087,-4.133047,12.187526,1.034051,-0.205243,-0.182674
5205916614,-80.281891,-1.636201,10.639273,1.081373,-0.148810,-0.101058
5205936659,-67.789558,-0.047964,10.521486,0.998914,-0.404415,-0.120470
5205956705,-58.614532,-1.412531,9.293475,0.820287,-0.060898,-0.228470
5205976751,-56.965176,-6.915244,8.943567,0.873851,-0.079434,-0.208202
5205996795,-50.928352,-8.300973,8.800475,1.039612,-0.201281,-0.158720
5206016841,-43.593346,-6.167955,7.596523,1.083296,-0.169445,-0.145810
5206036886,-38.002983,-3.282162,5.866094,1.072067,-0.121721,-0.157136
5206056932,-34.537254,-1.042562,5.057808,1.010412,-0.062195,-0.192313
5206076977,-31.813604,0.108069,4.687828,1.003429,-0.093970,-0.201309
5206097023,-29.797079,1.120863,4.118067,1.006657,-0.099959,-0.195182
5206117069,-26.580093,2.454040,3.539228,1.010388,-0.136760,-0.173851
5206137114,-22.200603,3.627544,2.984213,1.010217,-0.170107,-0.151008
5206157160,-16.893560,4.625348,2.144333,0.979815,-0.217518,-0.133708
5206177205,-9.784019,4.068834,1.251727,0.970856,-0.249134,-0.102003
5206197251,-1.532554,3.245272,0.093326,0.947007,-0.211221,-0.095305
5206217298,1.511203,-0.062041,-0.176327,0.794400,0.114730,-0.229319
5206237343,-3.048141,-8.084810,1.245541,0.798674,0.115964,-0.308007
5206257389,-2.627870,-12.724523,1.818300,0.932017,-0.074647,-0.276921
5206277435,-1.127264,-15.592082,0.759491,0.964872,0.017227,-0.204740
5206297481,-0.658799,-17.545469,-0.328182,1.009612,0.044890,-0.237956
5206317526,-1.462474,-16.982880,-0.818796,1.013560,0.062281,-0.284440
5206337571,-1.860468,-16.867744,-0.421742,0.970690,0.061221,-0.334724
5206357616,-1.528571,-17.233025,-0.235930,0.957470,-0.014112,-0.328382
5206377661,-0.353438,-16.509083,-0.391048,0.964754,-0.042399,-0.331364
5206397707,0.601942,-14.741949,-0.896881,0.993839,-0.077208,-0.336341
5206417753,1.737477,-11.281502,-0.800531,1.017538,-0.058427,-0.332964
5206437799,2.660466,-7.432273,-0.632578,1.019373,-0.061310,-0.318103
5206457844,3.505683,-4.130908,-0.094502,1.008556,-0.027219,-0.322968
5206477890,2.780727,-1.646691,-0.103988,1.001187,0.013442,-0.318825
5206497936,1.373310,0.829467,-0.222468,0.999130,0.017520,-0.325968
5206517981,-0.451662,3.284029,0.247976,0.994502,0.045621,-0.327479
5206538027,-2.177597,4.214504,0.752139,0.966862,0.042508,-0.316018
5206558072,-3.672921,4.686989,0.917128,0.971296,0.032957,-0.318801
5206578119,-4.996202,5.349534,0.864184,0.989188,0.040261,-0.318937
5206598165,-6.979482,6.148749,0.670764,0.967103,0.035243,-0.308476
5206618210,-8.810781,6.232565,0.874132,0.944307,0.023213,-0.302257
5206638256,-9.744086,5.615994,1.291650,0.947468,0.018756,-0.304482
5206658302,-10.678496,5.235510,1.639631,0.959265,0.023133,-0.308322
5206678347,-12.513910,5.700800,2.025203,0.971958,0.055805,-0.311316
5206698393,-13.466956,6.211456,2.156618,0.960739,0.003814,-0.328286
5206718437,-13.885506,6.516414,2.255421,0.955151,0.000330,-0.339078
5206738483,-13.353305,6.738147,2.504166,0.963051,-0.024526,-0.357690
5206758528,-12.108154,7.675635,2.408110,0.977654,-0.038088,-0.373712
5206778574,-10.161859,8.917830,2.175172,1.008756,-0.092511,-0.360081
5206798619,-7.362310,11.295280,1.730862,1.032834,-0.121543,-0.334663
5206818665,-4.591129,14.769348,0.947227,1.060841,-0.112049,-0.287317
5206838711,-1.853091,18.570753,0.010316,1.041757,-0.101998,-0.193961
5206858756,0.404361,21.710192,-0.418371,1.055513,-0.015594,-0.112821
5206878802,-1.787034,23.889406,-0.329613,1.200945,0.143313,-0.194541
5206898848,-6.323039,33.706894,0.910145,1.182976,0.164301,-0.298845
5206918893,-11.486092,35.977093,1.140318,0.429884,-0.085252,0.216954
5206938940,-6.362623,11.117056,0.359520,1.036535,-0.133545,-0.750920
5206958986,-2.362555,9.243687,0.494458,0.585362,-0.024869,-0.342535
5206979031,-3.737632,0.096094,-0.388304,0.871980,0.047469,-0.261031
5206999077,-2.175363,-2.968521,-0.989166,0.896623,-0.106639,-0.125756
5207019123,1.655683,-3.750348,-0.090437,0.967466,-0.091070,-0.073340
5207039168,2.445549,-4.108980,-0.372021,0.979855,-0.036804,-0.057211
5207059214,1.343822,-4.101748,-0.411798,0.983578,0.024350,0.003717
5207079267,-0.515380,-3.689918,-0.071435,1.025775,0.074509,-0.012790
5207099304,-1.695447,-1.652966,0.983919,1.042082,0.061089,-0.001335
5207119349,-3.020867,-1.248798,1.245177,1.034129,0.086363,0.048504
5207139395,-4.479389,-1.317533,1.350122,1.025644,0.067652,0.072191
5207159441,-5.514433,-1.271466,1.614579,1.073862,0.061196,0.085813
5207179486,-6.859075,1.159196,1.586730,1.116342,-0.048952,0.113322
5207199532,-4.203407,1.691677,0.860979,0.815169,-0.152674,-0.059294
5207219577,-0.734324,-6.202342,1.018623,0.602824,-0.072491,-0.330045
5207239623,-3.073308,-17.968681,1.469971,0.606780,0.060950,-0.237650
5207259669,-2.000167,-30.314968,1.207517,0.969340,-0.081286,-0.254943
5207279714,-1.594806,-24.196705,0.575608,1.342892,0.081406,-0.339288
5207299760,-1.871424,-18.000631,0.705535,1.161068,-0.045828,-0.218692
5207319807,-0.758757,-12.276943,0.726021,1.098790,-0.028593,-0.299359
5207339853,-0.734640,-6.478700,0.163706,1.043378,-0.009923,-0.345104
5207359898,-1.006432,-2.066149,0.200139,1.026395,-0.031871,-0.292581
5207379944,0.116259,2.658597,-0.036054,1.053505,-0.077430,-0.252663
5207399990,2.427574,7.863206,-0.518510,1.078114,-0.097975,-0.213016
5207420035,4.936134,13.852561,-1.114387,1.104985,-0.080415,-0.181912
5207440081,6.524387,18.736359,-1.826271,1.096418,-0.034975,-0.148890
5207460125,8.072079,22.523506,-2.205134,1.083204,-0.018489,-0.126814
5207480170,9.255631,25.420341,-1.970294,1.210258,0.027992,-0.235903
5207500216,9.003018,31.119253,-2.610964,0.800457,0.121772,0.307333
5207520262,5.920215,6.060583,-2.658755,0.737516,-0.088099,-0.576053
5207540307,7.547411,5.459826,-2.290974,0.722467,-0.001900,-0.379951
5207560353,7.394004,-0.858529,-2.519130,0.969439,0.067479,-0.240486
5207580398,7.441511,0.086617,-2.462067,1.051262,0.025487,-0.078866
5207600444,7.839371,1.863289,-2.085988,1.080265,-0.015954,-0.078929
5207620490,7.861629,2.853850,-2.158491,0.936115,-0.006834,-0.049797
5207640535,8.801687,1.787205,-2.142615,0.883631,0.008708,-0.066267
5207660581,8.810558,-0.155820,-2.006413,0.914904,0.044627,-0.101173
5207680628,7.553240,-1.428200,-1.725612,0.922316,0.050240,-0.070899
5207700674,7.106967,-2.403096,-1.423332,0.977661,0.060700,-0.065868
5207720719,6.812727,-3.041778,-0.758332,0.979464,0.055423,-0.067434
5207740765,6.613374,-4.031556,-0.330888,0.993105,0.049871,-0.080729
5207760811,6.233778,-5.082914,-0.144269,0.983910,0.024872,-0.114663
5207780856,6.527612,-5.045299,-0.386981,0.981703,-0.008771,-0.102950
5207800902,6.916663,-5.159615,-0.432357,1.043596,0.012432,-0.098775
5207820946,6.374736,-4.208089,-0.837647,1.035772,0.030563,-0.076522
5207840992,5.924878,-2.546814,-0.826807,1.105669,0.024123,-0.124454
5207861037,5.430185,0.761568,-0.392660,1.083840,0.027781,-0.094948
5207881083,5.162554,2.819976,-0.042813,1.047218,0.034461,-0.094244
5207901128,4.681301,3.772446,-0.051928,1.011944,0.021414,-0.086177
5207921174,4.321505,3.169294,-0.478501,0.950010,0.043441,-0.080165
5207941220,3.653356,1.569453,-0.162194,0.957497,0.037396,-0.109876
5207961265,3.162132,0.631776,-0.233596,0.969064,0.013416,-0.098505
5207981311,3.158973,0.174145,-0.392482,0.978995,-0.000376,-0.086124
5208001356,3.344157,-0.145641,-0.288030,0.975993,-0.003481,-0.090516
5208021402,3.520768,-0.884669,-0.220224,0.961972,-0.006153,-0.097988
5208041449,3.240203,-1.074950,-0.084242,0.980409,0.011216,-0.117122
5208061495,3.150827,-1.074665,0.047396,0.996742,0.013530,-0.108145
5208081540,2.983672,-0.541150,0.087071,0.994558,0.010898,-0.103020
5208101586,2.969220,-0.769655,0.141602,1.005362,0.015795,-0.120823
5208121631,3.302522,-0.472777,-0.041607,1.006145,0.006091,-0.104027
5208141677,3.577286,-0.198435,-0.078418,0.993109,0.015281,-0.092382
5208161723,3.620757,-0.891193,0.236345,0.993446,0.044641,-0.106688
5208181768,2.378004,-0.540533,0.419762,1.024297,0.047117,-0.068820
5208201813,0.856633,0.266836,0.400747,1.041273,0.030798,-0.051108
5208221859,0.286294,1.242489,0.538470,1.033595,0.014742,-0.018362
5208241904,-0.318661,2.141406,0.455519,1.093435,0.059075,0.052985
5208261950,-4.273923,4.922459,0.652913,1.113681,0.139236,0.148640
5208281995,-8.201468,7.055419,0.714382,1.039234,0.020248,0.160546
5208302041,-7.816206,6.690131,0.891517,0.950011,-0.064755,0.059086
5208322086,-6.812901,4.480721,1.062799,0.879644,-0.017222,-0.012688
5208342132,-7.870959,1.637674,1.001097,0.910712,0.040265,-0.042543
5208362178,-9.438114,0.418033,1.058491,1.052776,0.048052,-0.026097
5208382223,-10.097922,1.606336,0.891585,1.086760,-0.043341,0.017139
5208402269,-8.588903,3.024482,0.995129,1.061894,-0.073767,0.014164
5208422316,-7.292443,3.268247,0.801048,1.008245,0.003040,0.022123
5208442361,-7.663360,3.435287,0.578446,0.980628,-0.004595,0.049114
5208462407,-6.685812,2.543823,0.547163,0.968124,-0.056893,0.065844
5208482453,-4.629879,1.645069,0.533185,0.956524,-0.038921,0.052396
5208502507,-4.210157,0.502026,0.528846,0.952851,0.019738,0.045280
5208522544,-4.866973,-0.778271,0.614627,0.989254,0.015330,0.042760
5208542589,-4.231559,-0.915162,0.663884,1.025483,-0.033618,0.062195
5208562634,-3.271174,-0.755267,0.491888,1.010960,-0.014897,0.063410
5208582679,-3.211127,-0.747776,0.429566,1.009522,0.026120,0.057466
5208602725,-4.345921,-0.519885,0.244508,1.028163,0.008042,0.056724
5208622770,-4.158253,0.120814,0.452694,1.050714,-0.014754,0.059646
5208642816,-4.127614,1.195297,0.417956,1.030786,0.020226,0.051213
5208662862,-5.571489,0.974076,0.492559,0.996562,0.080739,0.037081
5208682907,-8.078891,0.493382,0.535172,1.000061,0.041972,0.026464
5208702953,-8.311850,0.463365,0.761394,1.019405,-0.038959,0.030082
5208722998,-6.390272,0.752780,0.463335,1.014139,-0.087440,0.038513
5208743044,-3.824793,0.692044,0.268568,0.997861,-0.088723,0.047144
5208763090,-1.534634,0.349274,0.080083,0.976299,-0.061551,0.048556
5208783137,-0.328114,-0.389774,0.020925,0.962253,-0.009917,0.038270
5208803182,-0.007142,-1.426074,0.048713,0.985441,0.020569,0.024843
5208823228,0.209420,-1.547620,0.190103,1.016351,0.012512,0.021424
5208843273,0.347405,-1.318926,0.201947,1.024454,0.023521,0.015821
5208863319,0.229898,-1.014510,0.035101,1.019350,0.035789,0.012348
5208883365,-0.701859,-0.961282,0.091211,1.008626,0.019948,0.014282
5208903410,-0.992182,-0.991813,0.104588,1.001323,-0.001890,0.017983
5208923456,-0.732955,-1.151865,0.069525,0.998622,-0.017821,0.014242
5208943500,-0.535097,-1.220517,0.020065,1.012174,-0.012703,0.016363
5208963546,-0.318597,-0.968674,0.144931,1.015803,0.012147,0.021434
5208983591,-1.228142,-0.725026,0.154127,1.024148,0.010161,0.023020
5209003637,-1.453027,-0.108248,-0.042240,1.036992,0.000483,0.044876
5209023682,-1.619970,0.554841,0.004640,1.037217,0.006973,0.062109
5209043728,-2.140970,1.004161,-0.070802,1.013472,0.027327,0.068472
5209063774,-3.073664,0.866759,-0.059888,1.003867,0.029751,0.058101
5209083820,-3.114091,0.722668,0.247034,1.004840,-0.008107,0.049251
5209103865,-2.661798,-0.061951,0.340209,0.980639,0.015943,0.036370
5209123911,-3.433268,-1.113665,0.419812,0.961522,0.025292,0.040403
5209143956,-4.211074,-2.050905,0.567929,0.968691,0.043511,0.048783
5209164003,-4.474217,-2.706738,0.414748,0.999014,-0.020968,0.034938
5209184049,-3.627216,-2.981062,0.330453,0.961191,-0.001943,0.021118
5209204094,-3.609143,-4.131368,0.524968,0.966734,-0.011303,-0.029615
5209224140,-3.883240,-4.923805,0.616981,1.014838,-0.029773,-0.071436
5209244188,-2.582371,-4.070834,0.222109,1.033432,-0.026813,-0.058776
5209264231,-1.559021,-3.384885,0.131195,1.022883,-0.029010,-0.109882
5209284277,-0.269511,-3.613493,-0.007687,0.977525,-0.008024,-0.140553
5209304327,0.418657,-4.093385,0.011123,0.965864,0.019439,-0.137222
5209324367,0.377350,-4.192860,-0.155856,1.042778,0.055830,-0.095838
5209344412,-1.048521,-2.805833,0.012382,1.068691,0.060880,-0.038735
5209364458,-3.266099,-0.664155,0.346298,1.079338,0.064980,0.008008
5209384504,-3.842064,1.660558,0.548413,1.072924,-0.054798,-0.019915
5209404549,-2.086833,3.169422,0.310653,0.989705,-0.043515,-0.053555
5209424595,-1.518549,2.216363,0.058272,0.916293,-0.004656,-0.088588
5209444640,-1.551582,0.097584,-0.002806,0.889972,0.003831,-0.103404
5209464686,-1.880120,-2.089510,0.087265,0.925169,0.021501,-0.120192
5209484732,-1.946275,-3.262715,0.275849,0.977981,0.019172,-0.143783
5209504777,-2.754642,-3.697018,0.407603,0.999320,0.024980,-0.169574
5209524824,-2.941713,-3.437448,0.624329,1.003249,-0.001285,-0.209993
5209544870,-3.191171,-2.561798,0.328238,1.053387,-0.017882,-0.274728
5209564916,-3.389518,0.150055,-0.165995,1.095873,-0.008581,-0.297799
5209584961,-3.508205,2.717557,-0.477898,1.069920,-0.001489,-0.278577
5209605007,-3.541874,4.630845,-0.292578,1.013977,0.008427,-0.231525
5209625052,-4.142414,6.390442,-0.584799,1.097579,0.003313,-0.104220
5209645098,-4.668340,10.124477,-0.625233,1.173664,0.046636,0.155941
5209665144,-4.823311,12.799899,-0.409531,1.000800,-0.004113,0.203907
5209705234,-3.027086,5.233315,-0.174668,0.809741,0.027712,0.042170
5209725279,-4.000872,1.636890,0.222991,0.918407,0.069867,0.023635
5209745325,-4.970088,-1.204528,0.847290,0.991399,0.043922,0.056565
5209765371,-4.446581,-1.371570,1.051649,1.072558,-0.037433,0.078374
5209785416,-2.972597,0.098341,0.483252,1.127979,-0.033146,0.038478
5209805462,-1.962100,0.973127,-0.326337,1.002084,0.009470,0.010598
5209825507,-2.012178,0.111470,-0.528816,0.907040,0.035584,-0.063261
5209845553,-2.055524,-2.471507,-0.297774,0.917055,-0.020022,-0.136506
5209865598,-0.539203,-3.804344,-0.116440,0.934878,-0.055404,-0.147826
5209885645,0.573868,-5.153265,-0.248169,0.950755,0.001962,-0.130581
5209905691,0.424272,-6.045445,-0.456257,0.983384,0.022732,-0.089324
5209925737,-1.058427,-6.365818,-0.411137,1.010451,0.063406,-0.002616
5209945782,-2.249312,-5.397119,0.082516,1.101831,0.064768,0.023784
5209965922,-3.757770,-1.899084,0.260611,1.107320,-0.006511,0.044142
5209985968,-2.015495,0.783612,0.110892,1.072804,-0.028995,-0.039292
5210006013,-1.447554,1.872759,-0.232337,0.962740,-0.011755,-0.076932
5210026059,-1.549250,0.555107,0.110247,0.930906,0.017107,-0.140798
5210046103,-1.960726,-0.610733,0.229093,0.976736,0.015872,-0.156737
5210066148,-1.546931,-0.686706,0.282449,0.988181,0.005596,-0.112162
5210086194,-1.116547,-1.135904,0.420780,0.988948,-0.002158,-0.125325
5210126285,-0.833259,-1.966394,0.471538,0.999938,0.015409,-0.181007
5210146331,-0.369553,-1.334131,0.299965,1.019374,-0.041147,-0.180699
5210166377,0.870912,-0.389632,-0.055832,1.027128,-0.036448,-0.205258
5210186422,2.095458,1.477834,-0.055245,1.044637,-0.013102,-0.239365
5210206468,2.079422,3.291373,-0.160310,1.033571,0.012785,-0.253108
5210226514,0.959624,4.076506,0.042200,0.999278,0.062391,-0.261865
5210246559,-0.443604,4.244247,0.236982,0.967333,0.045293,-0.232425
5210266606,-1.778692,3.764190,0.417315,0.977211,0.086517,-0.180555
5210286652,-3.917407,4.754539,0.501367,1.112197,0.053084,0.044868
5210306697,-4.642988,8.549373,0.411115,1.109786,-0.035185,0.188212
5210326743,-2.491473,8.855153,0.567026,0.887170,-0.088758,0.067459
5210346789,-0.908911,4.427152,0.291250,0.722268,-0.045482,-0.018944
5210366834,-0.931494,-1.204236,0.509114,0.843818,0.038633,-0.088060
5210386880,-1.905794,-4.975995,0.884442,0.971820,0.031535,-0.091683
5210406924,-1.268806,-5.149792,1.445769,1.030743,0.013724,-0.077861
5210426969,-1.425829,-4.364480,1.614314,1.062354,0.001704,-0.058772
5210447015,-0.648193,-3.244374,1.450308,1.075512,0.009977,-0.072627
5210467061,-0.102564,-2.040847,1.137697,1.010691,0.013028,-0.095038
5210487106,0.244302,-1.622264,0.854480,0.980147,0.014501,-0.111404
5210507152,0.312588,-2.018572,0.839192,0.972722,0.009583,-0.108274
5210527198,0.564787,-2.308092,0.842903,0.979307,-0.031189,-0.071463
5210547243,1.189533,-2.430138,0.724207,1.015106,-0.009410,-0.080189
5210567289,0.792073,-2.209238,0.723542,0.999314,0.010237,-0.068696
5210587335,1.158085,-1.553920,0.645485,1.025443,-0.050353,-0.091644
5210607380,1.808915,-1.089777,0.256880,0.983193,-0.018592,-0.102051
5210627427,2.049183,-1.882798,0.040898,0.989433,-0.010616,-0.124321
5210647473,1.542640,-1.677433,-0.072220,1.009969,0.003605,-0.124331
5210667519,1.336095,-0.785923,-0.109388,1.041422,-0.003616,-0.118229
5210687564,1.198095,0.638994,-0.180227,1.026886,-0.006897,-0.109352
5210707609,1.110327,1.171919,-0.401900,1.014681,-0.002123,-0.126672
5210727655,0.795709,1.644148,-0.481423,0.994209,-0.000616,-0.132044
5210747701,0.374093,1.651514,-0.542040,0.977441,0.011555,-0.129236
5210767763,-0.499156,1.673932,-0.632150,0.985229,0.008467,-0.132995
5210787791,-0.788205,1.460679,-0.541775,0.974073,0.010468,-0.123821
5210807836,-0.901839,0.828297,-0.461051,0.959354,0.005615,-0.129644
5210827882,-1.043841,0.432426,-0.265941,0.976726,0.013085,-0.138032
5210847928,-1.341278,0.363861,-0.221734,0.975113,0.023557,-0.130851
5210867973,-1.697154,-0.032040,-0.014833,0.992909,0.018023,-0.136864
5210888019,-1.713478,-0.054047,0.352347,0.964043,0.004623,-0.128089
5210908064,-2.128695,-0.054462,0.222859,1.001716,0.012217,-0.135189
5210928110,-2.402656,-0.130571,0.297202,0.984615,0.001926,-0.127164
5210948155,-1.996644,-0.930497,0.368401,0.969244,-0.002748,-0.133703
5210968201,-1.954392,-1.449138,0.185913,0.992438,-0.004278,-0.143900
5210988247,-1.736027,-1.175184,-0.010273,1.004544,-0.000509,-0.131313
5211008293,-1.886231,-0.862439,0.129147,1.013552,0.003314,-0.137827
5211028339,-1.879259,-0.351962,0.073822,0.995392,0.006400,-0.126992
5211048385,-1.710387,-0.298488,0.108574,1.001619,0.005202,-0.140804
5211068430,-1.780008,0.173849,0.047221,0.992330,0.009584,-0.124494
5211088476,-1.952235,0.760048,-0.195915,0.995690,0.003309,-0.125903
5211108522,-2.326866,0.805672,-0.196439,0.991803,0.001777,-0.114124
5211128567,-1.925530,0.371907,0.026461,0.982439,-0.000623,-0.126487
5211148611,-1.903265,0.173696,-0.003877,0.968478,-0.005456,-0.121158
5211168657,-1.828565,-0.199908,-0.088138,0.989991,-0.013452,-0.133676
5211188703,-1.237744,-0.054693,0.022177,0.985761,-0.009805,-0.125258
5211208748,-0.989501,-0.404698,0.232486,0.983737,0.000737,-0.130234
5211228794,-0.959337,-0.877205,0.225832,0.981208,0.007906,-0.138009
5211248839,-1.010327,-0.823548,0.364189,0.998991,0.023123,-0.138610
5211268885,-1.202383,-0.838958,0.314477,0.993172,0.029859,-0.131895
5211288931,-1.919577,-0.305529,0.380108,1.004948,0.030521,-0.127377
5211308976,-2.445517,-0.191154,0.466347,0.990075,0.025505,-0.121941
5211329022,-2.685887,-0.161172,0.279875,0.978477,0.003479,-0.118347
5211349068,-2.619355,-0.009043,0.148173,0.981067,-0.014529,-0.117726
5211369115,-2.270853,-0.344661,-0.017943,0.977858,-0.011979,-0.113318
5211389160,-1.912190,-0.855217,-0.038485,0.986348,0.000853,-0.117660
5211409206,-2.296995,-0.893748,-0.176078,0.986827,0.006497,-0.116135
5211429252,-2.402464,-1.099321,-0.081649,0.972938,-0.001149,-0.107170
5211449297,-2.625653,-1.610132,-0.144391,0.974786,0.020822,-0.133836
5211469343,-3.561319,-2.257491,0.143371,0.959687,0.032443,-0.134597
5211489388,-3.492379,-2.714676,0.166479,0.967171,-0.005494,-0.142105
5211509434,-2.939137,-3.721050,-0.070149,0.857960,-0.067119,-0.280210
5211529478,1.236703,-9.573188,-0.223392,0.690354,-0.242974,-0.455982
5211549524,5.461496,-14.809651,-1.075007,0.997658,0.109918,-0.029163
5211569569,2.117274,-14.916624,-0.811081,1.099312,0.080591,-0.133608
5211589615,0.779174,-15.358971,-0.798927,0.895441,0.066684,-0.216801
5211609660,0.087519,-19.433516,0.420126,0.765529,-0.012457,-0.261840
5211629706,-0.528924,-27.274632,0.855548,0.676847,0.024866,-0.278364
5211649752,-0.930493,-34.302200,0.458815,1.062519,0.030342,-0.485749
5211669797,-0.863034,-33.394547,0.775425,1.009278,0.020117,-0.305902
5211689843,-0.961548,-31.679880,0.763987,1.126077,-0.014032,-0.319184
5211709889,-0.031269,-26.047541,0.849447,1.095717,-0.032492,-0.341602
5211729935,1.407309,-19.828808,0.693849,1.076028,-0.011096,-0.367264
5211749982,1.498839,-14.539310,0.918989,1.052836,0.000400,-0.380686
5211770027,1.233989,-10.385941,0.925584,1.002142,-0.022974,-0.386954
5211790072,1.590462,-6.897098,0.219321,1.002907,-0.024027,-0.365724
5211810118,1.819479,-4.268067,0.106786,0.983638,-0.007007,-0.344998
5211830171,0.422845,-2.805004,0.197789,0.941335,0.018240,-0.334333
5211850209,0.738834,-3.292295,0.353750,0.921612,-0.030208,-0.346716
5211870255,0.814861,-4.581160,-0.048431,0.915666,0.000600,-0.359829
5211890312,0.289042,-6.517632,-0.306873,0.899258,0.035491,-0.370500
5211910344,0.326811,-8.255117,-0.271256,0.905403,-0.020395,-0.392026
5211930390,1.883887,-9.352379,-0.381873,0.929239,-0.040931,-0.398390
5211950436,2.309077,-9.482197,-0.542520,0.959760,-0.004782,-0.405234
5211970481,2.072614,-8.171490,-0.557578,1.001987,-0.001989,-0.403599
5211990527,2.289562,-5.221990,-0.502834,1.021013,-0.013570,-0.383479
5212010572,2.915302,-1.937616,-0.686381,1.003303,-0.027507,-0.378887
5212030618,3.790205,0.949166,-1.454189,0.963934,-0.032395,-0.384108
5212050664,4.868603,3.021237,-1.932859,0.993159,-0.001939,-0.367863
5212070710,4.156539,6.137634,-2.097529,1.006088,0.041699,-0.343102
5212090755,3.212949,8.463160,-1.506211,0.965033,0.045439,-0.354844
5212110801,1.685434,9.104066,-1.012576,0.941068,0.064317,-0.360277
5212130848,-0.803066,9.737407,-0.385647,0.962949,0.088836,-0.351250
5212150893,-3.446607,10.767679,0.533344,0.987152,0.084538,-0.332229
5212170939,-5.458255,12.011140,1.294176,1.010445,0.042754,-0.315309
5212190984,-5.912838,13.338489,1.902253,0.988994,0.035249,-0.271267
5212211030,-8.190378,13.460918,2.373960,0.955183,0.095810,-0.258536
5212231076,-11.970446,12.905216,3.075758,0.943965,0.110981,-0.261547
5212251121,-16.507925,12.036819,3.762729,0.954225,0.101289,-0.246002
5212271165,-20.247370,11.351892,4.601715,0.953007,0.097315,-0.228454
5212291211,-24.697681,9.766611,5.060137,0.925037,0.137577,-0.226955
5212311257,-30.020954,7.502714,5.468984,0.911667,0.147165,-0.247622
5212331302,-35.355648,5.239316,6.092012,0.908259,0.134767,-0.259616
5212351348,-40.695328,3.632601,7.263135,0.947502,0.129808,-0.266632
5212371393,-45.791153,2.917427,8.357785,0.958187,0.127276,-0.266900
5212391439,-50.784992,2.682697,9.578761,0.952713,0.116416,-0.281767
5212411485,-55.580166,1.868857,10.813093,0.938424,0.117913,-0.298411
5212431530,-61.545364,1.227962,11.183145,0.943057,0.155575,-0.302274
5212451576,-67.327255,0.953860,11.953414,0.955642,0.122591,-0.290814
5212471622,-71.993797,0.757128,13.091498,0.964807,0.075495,-0.282359
5212491669,-75.514473,0.551956,13.748890,0.973068,0.042766,-0.277362
5212511714,-78.135040,1.085927,14.264091,0.981274,0.012670,-0.275183
5212531760,-80.001221,2.183673,14.617589,0.983918,0.006552,-0.290378
5212551806,-81.727722,3.792283,15.066014,1.001525,-0.004771,-0.277678
5212571851,-83.265587,5.492064,15.372930,1.010474,-0.008273,-0.258580
5212591897,-85.056679,7.724089,15.186293,1.023444,-0.032199,-0.269836
5212611943,-85.853889,10.200222,14.987200,1.013013,-0.064879,-0.272781
5212631987,-86.080254,12.051300,14.664489,1.015020,-0.066323,-0.268183
5212652032,-85.994026,13.880479,14.717857,1.006047,-0.051045,-0.263517
5212672078,-86.744438,15.335619,14.605310,1.004262,-0.018233,-0.278701
5212692123,-87.547058,17.003290,14.133922,0.978650,-0.024023,-0.290691
5212712169,-89.227570,17.343979,13.363044,0.971773,-0.012637,-0.276794
5212732215,-91.012192,16.260014,12.805248,0.993201,-0.043205,-0.295265
5212752260,-90.826393,15.631529,11.260162,0.849423,-0.083588,-0.118181
5212772306,-89.487312,5.815044,10.816014,0.888571,-0.154967,-0.391970
5212792351,-87.794022,3.759460,11.508297,0.806666,-0.104584,-0.280363
5212812397,-86.727570,-0.584361,11.440933,0.883446,-0.095113,-0.286680
5212832442,-85.650978,-2.899856,11.863315,0.923361,-0.086352,-0.252245
5212852489,-84.864792,-4.027628,11.828890,0.927903,-0.128396,-0.212401
5212872535,-82.879997,-5.178175,11.694866,0.952685,-0.164685,-0.227741
5212892581,-79.449852,-6.527420,11.159031,1.031988,-0.193147,-0.286872
5212912626,-75.355789,-3.806399,10.833644,0.991109,-0.168146,-0.210145
5212932672,-71.722717,-2.976629,10.026806,1.031390,-0.154747,-0.228828
5212952718,-67.942505,-1.360691,9.718830,1.029642,-0.168935,-0.225506
5212972763,-64.119247,-0.773852,9.291183,0.967384,-0.132132,-0.196910
5212992807,-61.320179,-0.682565,8.900341,0.994280,-0.102892,-0.197780
5213012853,-59.023628,-0.332046,8.617727,1.016851,-0.113197,-0.178449
5213032899,-55.422962,0.544194,8.132304,1.011917,-0.169735,-0.148042
5213052944,-50.738304,1.450981,7.549330,1.005385,-0.187192,-0.137008
5213072990,-45.468624,2.014528,6.772752,1.018295,-0.233256,-0.113913
5213093036,-38.999367,3.058370,5.933092,1.011956,-0.248113,-0.073021
5213113081,-31.572710,3.873082,4.769958,0.974964,-0.244519,-0.067857
5213133126,-29.156775,1.091292,4.434323,0.777177,0.106885,-0.227651
5213153172,-37.128532,-6.138196,6.546364,0.872804,0.188401,-0.252202
5213173218,-41.078419,-8.737393,6.807415,0.961619,0.100665,-0.192840
5213193263,-44.306530,-10.139608,7.195663,1.024389,-0.036813,-0.151743
5213213310,-42.869270,-10.527882,7.199633,1.031682,-0.041330,-0.191711
5213233356,-41.133873,-9.592128,6.307001,0.991949,-0.052647,-0.231229
5213253402,-39.736900,-9.408163,6.600223,0.962312,0.003366,-0.273755
5213273447,-41.171047,-9.362400,6.780727,0.960876,0.006971,-0.291620
5213293493,-43.185757,-8.989049,6.979049,0.969089,-0.035571,-0.280069
5213313538,-43.792824,-7.694149,6.764915,0.990770,-0.088372,-0.267007
5213333584,-43.564911,-5.645399,6.188204,1.034956,-0.111419,-0.269719
5213353628,-43.372997,-2.413234,6.540511,1.039739,-0.070789,-0.241092
5213373674,-44.002663,0.284838,6.719499,1.030337,-0.052432,-0.244502
5213393719,-43.422924,2.365170,6.571420,0.987945,-0.072701,-0.251099
5213413766,-41.129486,3.653578,6.507344,0.979433,-0.116130,-0.264408
5213433811,-38.585258,4.835170,6.362344,0.990103,-0.080716,-0.258294
5213453857,-36.510674,6.084799,6.035195,1.010196,-0.073118,-0.248210
5213473902,-34.403423,6.656497,5.847215,1.034143,-0.087375,-0.253133
5213493948,-30.328466,14.402786,6.827440,1.305579,-0.125660,-0.315614
5213513993,-29.422741,18.276283,4.344065,0.813100,-0.067005,-0.125215
5213534039,-25.684307,16.828377,3.947761,0.973618,-0.248714,-0.280701
5213554084,-20.007296,18.169579,3.260029,1.007362,-0.251198,-0.220451
5213574132,-15.520620,19.203979,1.870479,0.999085,-0.141343,-0.236106
5213594177,-13.846082,20.635080,0.977379,1.213608,-0.077160,-0.336367
5213614223,-13.882394,28.743357,0.798260,1.119687,-0.013455,0.016438
5213634268,-18.476019,17.863148,-0.849198,0.753692,0.211740,-0.124483
5213654314,-24.950954,16.772846,-0.322572,0.851842,0.083458,-0.212454
5213674359,-26.646481,8.887568,0.905722,0.746073,-0.019929,-0.252600
5213694405,-22.917282,3.204530,1.417747,0.784677,-0.208492,-0.324387
5213714449,-14.853009,-2.294480,1.913815,0.797890,-0.230938,-0.269110
5213734495,-6.843008,-6.562083,1.054298,0.906067,-0.199699,-0.183043
5213754541,0.396750,-6.630829,0.157542,0.987384,-0.169674,-0.092522
5213774586,6.096128,-5.821134,0.304064,1.085680,-0.099167,-0.068080
5213794632,8.568398,-3.199726,-0.065935,1.064311,-0.019503,-0.014290
5213814678,9.136223,-1.728585,-0.005437,1.031728,0.029136,-0.005009
5213834723,8.883326,-1.590571,0.381084,1.006325,0.008917,0.002901
5213854769,9.371312,-1.727781,0.310940,1.011032,-0.020607,0.023113
5213874814,10.935090,-0.866736,0.079052,1.017717,-0.040237,0.081129
5213894860,7.573220,-1.792371,-1.029416,0.911051,0.416628,-0.088744
5213914905,-7.767749,-5.098181,1.449441,0.903638,0.467782,-0.066916
5213934952,-18.076113,-6.801173,4.383134,0.961723,0.068852,-0.072600
5213954998,-18.888931,-9.296522,3.069960,0.907540,-0.159018,-0.175056
5213975044,-13.614836,-16.089993,1.102799,0.811777,-0.167538,-0.128929
5213995089,-8.694397,-20.928043,1.076919,0.881316,-0.129360,-0.256358
5214015135,-7.856868,-21.987503,0.919007,1.119401,0.063611,-0.392638
5214035180,-11.566374,-17.887924,1.130167,1.057861,0.081409,-0.307558
5214055226,-15.595638,-16.186676,2.348906,1.005807,0.051122,-0.260233
5214075270,-19.637712,-13.267842,2.814977,1.113685,0.028350,-0.314958
5214095316,-22.019802,-4.557000,3.122574,1.120046,-0.026696,-0.324960
5214115361,-20.885765,3.010616,2.991319,1.159482,-0.074737,-0.309758
5214135407,-17.481157,9.816771,2.872030,1.079054,-0.151537,-0.253792
5214155453,-12.717854,14.235846,1.863199,1.117970,-0.164795,-0.220392
5214175498,-6.770844,19.174231,1.181177,1.082556,-0.179447,-0.142059
5214195544,-2.721622,22.824059,0.456214,1.119591,-0.044315,-0.150994
5214215589,-2.692883,30.528980,0.506419,1.368268,0.105901,-0.294918
5214235635,-8.702899,31.494116,0.031434,0.294205,0.271365,0.489827
5214255681,-15.656035,3.952962,1.259074,1.108521,0.165814,-0.620201
5214275726,-17.773155,7.111285,2.886704,0.589865,-0.061549,-0.304424
5214295774,-17.437672,-2.123602,3.583386,0.931161,-0.053885,-0.316339
5214315819,-16.162346,-4.000048,2.716686,1.010476,-0.105286,-0.123524
5214335865,-13.373539,-1.249603,2.087947,1.053788,-0.166408,-0.048634
5214355910,-9.561002,0.685632,1.442058,1.053778,-0.185987,-0.060130
5214375956,-6.575845,1.218294,0.755761,0.961254,-0.132541,-0.061364
5214396001,-5.116319,1.491916,0.275683,0.921372,-0.030258,-0.062942
5214416047,-5.500184,-0.268688,0.250786,0.924253,0.034504,-0.070906
5214436091,-5.770690,-2.013202,0.575143,0.949117,0.005766,-0.086260
5214456137,-5.532355,-2.842593,1.100539,0.992328,0.021453,-0.099550
5214476183,-5.801594,-2.140814,1.409085,1.035324,0.037842,-0.075619
5214496228,-6.374611,-2.704817,1.452648,1.013608,0.009682,-0.085823
5214516273,-6.210880,-2.240514,1.188115,1.003295,-0.036866,-0.112531
5214536319,-5.396833,-1.623576,0.941022,1.006273,-0.047741,-0.090868
5214556365,-4.455678,-1.845213,0.564349,0.983381,-0.062931,-0.070481
5214576410,-3.147627,-1.792434,0.172002,1.006693,-0.075212,-0.089649
5214596456,-1.548106,-1.052635,0.230199,1.015210,-0.044528,-0.081675
5214616502,-0.935884,-0.550450,-0.180708,1.013718,-0.014128,-0.071715
5214636548,-0.713976,-0.108388,-0.186485,1.012712,0.008963,-0.080088
5214656595,-0.489204,0.036853,-0.023218,0.996558,0.018377,-0.093354
5214676640,-0.527460,0.448338,-0.039129,1.000445,-0.000611,-0.082132
5214696686,-0.351002,-0.077340,0.012687,0.979424,0.003725,-0.082507
5214716731,-0.098501,-0.321099,0.031524,0.983966,0.000619,-0.093745
5214736777,-0.203801,0.006773,0.116531,1.015981,-0.009884,-0.092004
5214756823,0.308680,0.089769,-0.298686,1.002041,-0.030404,-0.057328
5214776868,0.858620,0.638507,-0.349391,1.055519,-0.006311,-0.058461
5214796912,0.716048,2.024728,-0.672181,1.025609,0.025775,-0.048926
5214816958,-0.201953,2.534981,-0.717198,1.019890,0.006647,-0.057966
5214837004,-0.592336,2.352923,-0.311662,0.998565,0.044023,-0.048133
5214857049,-3.193534,2.200605,0.029695,0.993287,0.118946,-0.013308
5214877095,-6.067680,2.292364,0.490157,1.025696,0.087935,0.017872
5214897140,-9.064981,3.627090,1.285094,1.020980,0.105294,0.064492
5214917186,-11.893898,3.101530,1.731451,0.976457,0.030993,0.062651
5214937232,-11.471070,2.460841,1.457928,0.990550,-0.088768,0.027479
5214957277,-9.118502,2.636432,1.319996,0.997023,-0.081489,0.022455
5214977323,-7.769669,1.874177,1.097683,0.973829,-0.045371,-0.008982
5214997369,-6.455307,0.326513,0.687618,0.907013,-0.201691,-0.074486
5215017416,-0.156708,-1.820945,0.671887,0.934677,-0.123260,-0.089794
5215037461,1.252246,-2.790061,-0.024674,1.074342,0.018379,-0.105210
5215057507,2.832777,-1.296333,-0.197862,1.056159,-0.075340,-0.048099
5215077552,5.692835,0.320008,-0.228174,1.035165,0.001073,-0.032890
5215097598,5.605535,0.708207,-0.418809,1.031338,0.059734,-0.038460
5215117644,4.289577,0.814428,-0.470042,0.956944,0.037465,-0.017728
5215137690,4.207301,0.105951,-0.343824,0.969482,-0.009916,-0.019406
5215157735,4.740273,-0.351417,-0.451982,0.995440,-0.006377,0.006017
5215177779,4.691222,-0.146093,-0.635108,1.020180,0.001451,0.039805
5215197825,4.384264,-0.123459,-0.698001,1.017607,-0.022614,0.066668
5215217870,5.253794,0.341341,-0.831042,1.029073,-0.031466,0.092995
5215237916,5.505768,0.859547,-0.868223,1.053593,0.008679,0.087880
5215257961,5.213587,1.674633,-0.987530,1.024554,0.018060,0.118044
5215278007,4.411074,1.964030,-0.980563,1.015466,0.056030,0.093717
5215298053,2.737840,2.116147,-0.918036,1.050702,0.037642,0.057380
5215318098,2.669340,3.099193,-0.935262,1.045504,-0.016440,0.088514
5215338144,3.372341,3.747055,-0.981626,1.044161,-0.004612,0.090696
5215378237,3.137989,4.174077,-0.848595,1.013366,0.024920,0.096709
5215398282,3.348958,4.022314,-0.592375,1.006817,-0.016913,0.110144
5215418328,3.980765,3.846853,-0.741596,0.981206,-0.007964,0.099128
5215438373,4.225193,2.856243,-0.720117,0.964147,0.025452,0.078030
5215458419,3.240130,1.812156,-0.613471,0.977291,0.035015,0.073251
5215478465,2.977949,1.256506,-0.293234,0.998384,0.019752,0.067107
5215498510,2.297993,0.806792,-0.247977,0.987693,0.038288,0.063174
5215518575,1.182817,0.174152,-0.163100,0.984047,0.058274,0.050222
5215538600,-0.335989,-0.313603,0.005541,0.995200,0.034363,0.049254
5215558646,-0.900660,-0.854652,0.087072,1.001114,0.020531,0.042277
5215578691,-1.708691,-0.945996,0.225319,0.997792,0.025974,0.035971
5215598737,-2.402847,-1.182202,0.323631,1.006554,0.021172,0.040186
5215618782,-3.014071,-1.250891,0.351003,0.999150,0.006513,0.038975
5215638828,-3.113720,-1.510042,0.346158,1.007848,0.001234,0.030030
5215658874,-2.829142,-1.776459,0.448503,0.998393,0.008329,0.037714
5215678919,-2.920715,-1.761220,0.457871,1.018549,0.005916,0.045635
5215698965,-2.714960,-1.867939,0.423667,1.011389,-0.007719,0.057490
5215719010,-2.370033,-2.081104,0.478816,0.999969,0.001751,0.072557
5215739056,-2.370687,-2.020226,0.440419,1.011036,0.005525,0.088157
5215759103,-2.451436,-1.989331,0.625277,1.030093,0.013234,0.111149
5215779149,-3.007736,-1.265308,0.702435,1.041275,0.037754,0.129255
5215799194,-3.379465,-0.487754,0.836964,1.041069,-0.000743,0.120789
5215819240,-3.497344,0.472954,1.050013,1.058179,0.035115,0.114810
5215839286,-3.757663,0.891957,1.015462,0.997504,-0.018209,0.105403
5215859331,-2.795134,0.121458,0.571429,0.995386,-0.035659,0.064527
5215879377,-1.281389,-0.655430,0.590491,1.012061,-0.022670,0.038894
5215899421,0.218744,-1.021597,0.264585,0.973424,-0.079806,0.015955
5215919467,3.141667,-2.515108,0.014162,0.926853,-0.096278,-0.052396
5215939512,6.033642,-4.900254,-0.225050,0.895387,-0.101186,-0.128013
5215959558,9.050884,-6.903968,-0.315133,0.944650,-0.065697,-0.163135
5215979603,10.708871,-7.811488,-0.772205,0.955021,0.000691,-0.132104
5215999649,10.387184,-8.841385,-1.190455,1.002242,0.033721,-0.115626
5216019695,9.345149,-8.483793,-1.324255,1.044781,0.074270,-0.061044
5216039741,8.152678,-6.813237,-0.519608,1.089538,-0.018421,0.010969
5216059786,9.020754,-3.977709,-0.393064,1.154999,-0.070802,-0.032817
5216079832,12.664052,0.144384,-1.172854,1.110892,-0.142759,-0.046379
5216099878,16.795797,3.145311,-2.386311,1.010967,-0.132748,-0.065026
5216119924,19.841328,3.160695,-2.674702,0.958960,-0.105501,-0.099134
5216139970,21.042250,1.079740,-2.996735,0.899640,-0.063128,-0.113171
5216160015,21.106007,-0.855473,-2.785210,0.923377,-0.006512,-0.115213
5216180061,19.699509,-2.052197,-2.723368,0.963240,0.021729,-0.126016
5216200107,18.039579,-2.744208,-1.894144,0.990826,0.027532,-0.159629
5216220152,15.548590,-2.842743,-1.379352,0.994510,0.044023,-0.200751
5216240198,14.217010,-2.599404,-1.453663,1.027422,0.016703,-0.244658
5216260244,13.942451,-0.839090,-1.477120,1.022908,-0.008692,-0.248261
5216280288,14.476537,0.295345,-2.003237,1.031627,-0.026360,-0.266627
5216300334,14.810162,1.872482,-2.213639,1.019522,0.009408,-0.247507
5216320379,14.130342,2.963086,-1.791441,1.024055,0.046327,-0.208158
5216340425,10.413035,4.015499,-1.058007,1.017128,0.232771,-0.074271
5216360470,0.542610,5.372307,0.191165,1.054266,0.304305,0.015573
5216380516,-6.187986,7.392583,1.270222,1.148017,-0.057176,0.170076
5216400562,-1.485018,10.821105,0.342274,1.043955,-0.236734,0.269553
5216420607,3.670149,9.256586,-1.196783,0.873438,-0.059063,0.048218
5216440653,4.026492,5.567058,-1.657543,0.844166,0.079394,-0.033031
5216460698,1.647169,1.618898,-1.598230,0.901916,0.062528,0.054611
5216480744,0.026754,-1.130426,-0.625377,0.996087,0.046249,0.082625
5216500791,-1.085449,-1.661632,0.467776,1.078701,-0.005017,0.037820
5216520836,-1.016431,-0.441341,0.859729,1.075752,0.035952,0.058408
5216540882,-2.106829,-0.122186,0.589450,0.965657,0.011429,0.016572
5216560928,-0.765269,-2.637072,0.449528,0.847016,-0.078565,-0.104986
5216580973,0.978137,-6.241998,0.160249,0.858257,-0.040613,-0.209271
5216601019,1.027696,-8.543839,0.021763,0.930328,-0.015727,-0.188210
5216621064,0.966235,-9.092559,0.024783,1.001320,-0.014516,-0.075315
5216641109,1.239451,-8.391679,-0.112757,1.112271,0.007592,0.041130
5216661154,0.378563,-4.002193,-0.095383,1.220337,-0.011220,0.118204
5216681200,1.973089,1.584481,-0.060867,1.201335,-0.056414,-0.011118
5216701246,3.180352,6.110190,-0.687751,0.990292,-0.037298,-0.036509
5216721291,4.114890,3.938870,-0.515262,0.857189,-0.006224,-0.103554
5216741337,4.456913,0.113288,-0.493879,0.864899,0.016906,-0.148750
5216761382,4.241554,-1.990148,-0.490339,0.957979,0.023362,-0.123931
5216781428,3.897095,-2.401789,-0.497568,1.026044,0.017938,-0.108925
5216801474,3.327497,-1.334596,-0.321956,1.034952,0.022505,-0.106089
5216821519,2.553056,-1.456023,-0.016149,0.986390,0.018821,-0.143472
5216841565,2.015723,-1.867940,-0.118973,0.968536,0.007103,-0.170744
5216861612,1.467083,-1.113431,-0.042066,1.026218,-0.014596,-0.194023
5216881658,1.149830,0.051906,-0.291958,1.042883,-0.008629,-0.176888
5216901703,1.555473,1.728541,-0.328335,1.027606,-0.000903,-0.167925
5216921749,1.095834,2.551300,-0.406211,1.000012,0.007194,-0.197062
5216941795,0.926785,3.389383,-0.482136,0.972950,-0.007712,-0.218725
5216961840,1.586569,2.535380,-0.751904,0.941708,-0.051671,-0.255611
5216981886,2.825684,0.996466,-0.671486,0.931103,-0.040877,-0.265161
5217001930,3.798342,0.097738,-0.549821,0.954827,0.017526,-0.233709
5217021975,0.621714,-0.124567,-0.739609,1.059011,0.252660,-0.128849
5217042021,-8.032832,3.236739,0.448730,1.213389,0.272957,0.164601
5217062067,-13.640074,8.947465,2.212000,1.103309,-0.011345,0.248468
5217082112,-10.773502,7.945918,0.516799,0.866779,-0.204663,-0.023504
5217102158,-5.583856,3.069052,0.157242,0.737496,-0.094331,-0.081669
5217122203,-5.447140,-2.472997,-0.545257,0.809307,0.058136,-0.090862
5217142249,-5.710001,-6.818027,-0.976536,1.020464,-0.015535,-0.101693
5217162294,-4.208575,-6.304712,0.008934,1.041921,0.005472,-0.071684
5217182340,-5.308562,-5.564709,0.463377,1.071523,0.065101,-0.072469
5217202386,-6.823289,-3.994442,0.785558,1.053608,0.086281,-0.066934
5217222433,-8.238235,-2.996616,0.725636,1.035895,0.089853,-0.090603
5217242479,-9.345298,-1.989830,1.202253,1.009052,0.064340,-0.091555
5217262524,-10.422774,-1.121323,1.204986,1.031292,0.037554,-0.081178
5217282570,-10.603912,0.135299,0.868093,1.009462,0.014065,-0.072869
5217302616,-10.941111,1.081021,1.215353,1.046152,0.021486,-0.073961
5217322661,-9.361686,2.910891,1.392575,1.018627,-0.047661,-0.055585
5217342707,-8.413054,1.919580,1.033602,0.976415,-0.003293,-0.087528
5217362751,-8.183002,1.553953,1.083846,0.961420,0.017220,-0.101649
5217382796,-8.330115,0.662095,1.013255,0.956757,0.024119,-0.106301
5217402842,-8.413382,-0.328462,1.094583,0.989778,0.012492,-0.124002
5217422888,-7.862803,0.372766,1.073923,1.009962,0.007087,-0.109903
5217442933,-7.911207,0.982052,0.912364,1.023168,0.035208,-0.115077
5217462979,-7.976001,1.935098,1.101484,1.011938,0.030916,-0.115060
5217483025,-7.938912,2.133089,1.031332,0.997244,0.010300,-0.135109
5217503070,-8.356760,2.353322,0.748332,0.991886,0.018847,-0.132944
5217523116,-8.448890,1.880787,0.744051,0.977750,0.022368,-0.136431
5217543161,-8.824027,1.286237,0.738027,0.991723,0.020097,-0.146379
5217563207,-8.792925,1.248211,0.768116,1.000851,-0.001461,-0.152944
5217603300,-8.471422,1.270215,0.364449,0.972907,0.006076,-0.137502
5217623345,-8.586736,0.591893,0.353662,0.971768,0.015978,-0.144035
5217643391,-8.763625,1.087034,0.279031,0.991643,0.015847,-0.131483
5217663437,-9.428505,1.231682,0.291451,0.988457,0.039781,-0.124569
5217683482,-10.094643,1.109456,0.243652,0.978193,0.040399,-0.126302
5217703528,-10.773073,0.675182,0.372884,0.981901,0.038647,-0.142974
5217723573,-11.964141,0.127410,0.909797,0.917224,0.105143,-0.144070
5217743618,-15.886247,-1.816795,0.992375,0.923564,0.125137,-0.160278
5217763664,-19.530176,-3.439500,1.649235,0.961964,0.144880,-0.191195
5217783709,-23.007040,-3.935490,1.779483,1.008385,0.091214,-0.174014
5217803755,-24.541420,-3.005903,1.882576,1.000747,0.051969,-0.135692
5217823800,-24.916681,-2.853676,1.843503,0.986785,0.039162,-0.164936
5217843846,-25.435276,-3.365197,1.511403,0.925247,0.063532,-0.171734
5217863891,-26.215378,-4.935225,1.554692,0.931350,0.098624,-0.189961
5217883937,-28.202042,-5.734735,2.077314,0.982494,0.119186,-0.179338
5217903982,-30.874712,-5.894045,2.695173,0.966218,0.129799,-0.130966
5217924028,-33.359158,-7.569140,3.627726,0.897616,0.149465,-0.168863
5217944074,-36.888863,-11.127439,4.327020,0.877206,0.128057,-0.220949
5217964121,-37.298317,-15.013476,4.653561,0.870732,0.019458,-0.202775
5217984166,-35.885021,-18.884382,4.723080,0.879715,0.061937,-0.213075
5218004212,-35.986557,-21.832766,5.132221,1.091808,0.112942,-0.355938
5218024258,-37.984917,-19.751326,5.752461,1.013556,0.121521,-0.222628
5218044303,-38.798065,-19.422234,6.439591,1.025634,0.044203,-0.279804
5218064349,-37.920441,-17.348488,6.698391,0.987300,0.017111,-0.289636
5218084394,-36.349178,-15.221496,6.836574,1.014032,0.038420,-0.299659
5218104439,-36.648468,-12.652673,7.108922,1.031307,0.124822,-0.274316
5218124484,-39.767159,-9.855745,7.481067,0.999204,0.173919,-0.263774
5218144530,-42.966866,-7.865201,8.476426,0.966231,0.115236,-0.291618
5218164576,-44.457775,-8.108454,8.911162,0.957321,0.114778,-0.338034
5218184621,-47.678883,-8.058242,7.941903,0.987432,0.201773,-0.348950
5218204667,-49.793789,-6.912392,9.339304,1.001485,0.069563,-0.323825
5218224712,-49.217636,-5.713509,10.294598,0.975035,0.009298,-0.325452
5218244758,-48.609409,-5.111787,10.082114,0.968368,0.031116,-0.328915
5218264804,-49.179897,-4.387624,10.220678,0.955563,0.087968,-0.321438
5218284849,-50.224693,-4.066508,10.782426,0.937915,0.059892,-0.338792
5218304895,-50.392376,-4.591297,11.253553,0.939866,0.014092,-0.364167
5218324942,-49.401432,-4.454257,11.081040,0.948985,0.021672,-0.354804
5218344987,-49.093472,-4.028152,10.760346,0.968112,0.035524,-0.356878
5218365033,-48.446270,-3.540627,10.593336,0.943703,0.006728,-0.364584
5218385079,-47.032963,-3.548023,10.527730,0.935900,-0.010045,-0.377404
5218405124,-45.241035,-3.967292,10.272753,0.933492,-0.036445,-0.385670
5218425170,-42.896427,-4.440464,9.716855,0.948665,-0.050615,-0.385996
5218445216,-40.728664,-3.877448,9.069242,0.986003,-0.026972,-0.371059
5218465260,-39.225311,-2.239048,8.851222,0.993788,-0.007282,-0.354158
5218485305,-38.518932,-0.380105,8.525668,0.985667,0.001450,-0.348315
5218505351,-38.569633,1.516719,8.191755,0.982072,0.019945,-0.329493
5218525397,-39.338531,3.018152,8.323939,0.989866,0.048926,-0.306617
5218545443,-41.242008,4.748497,8.706620,1.000335,0.072900,-0.287591
5218565488,-44.168930,6.585394,9.147015,1.021046,0.128924,-0.261076
5218585534,-48.528244,8.535875,9.439070,1.021257,0.141963,-0.244216
5218605579,-52.426140,10.128670,9.891476,0.993194,0.107629,-0.242592
5218625625,-55.232254,10.342270,10.304362,0.940010,0.062206,-0.266028
5218645671,-56.165283,9.145598,10.334092,0.921917,0.043328,-0.277308
5218665716,-57.392780,7.766443,10.576464,0.954467,0.084611,-0.263317
5218685762,-60.582611,7.187241,10.938305,0.967058,0.145893,-0.240848
5218705809,-65.261101,7.172836,11.831487,0.977597,0.183925,-0.246356
5218725854,-71.581223,7.409750,12.839744,0.971912,0.217032,-0.245497
5218745900,-78.148903,7.647219,14.112610,0.970196,0.195898,-0.260320
5218765946,-83.288918,7.900033,15.266027,0.961321,0.124992,-0.275211
5218785991,-87.579010,8.204592,15.638634,0.968189,0.107401,-0.299718
5218806037,-92.064430,9.041981,15.761089,0.982886,0.103137,-0.305317
5218826082,-96.090256,10.169174,15.919512,0.975484,0.078908,-0.316679
5218846127,-99.088318,11.053210,16.265116,0.969084,0.095912,-0.315963
5218866172,-102.710464,12.211782,16.759466,0.992122,0.113308,-0.323556
5218886218,-106.312195,13.354795,17.115925,0.982453,0.103204,-0.318654
5218906264,-108.304825,13.597505,16.848122,0.962916,-0.044166,-0.351482
5218926309,-105.991562,13.580451,15.809904,0.924258,-0.259570,-0.360996
5218946355,-96.968628,13.120790,13.748915,0.942737,-0.447230,-0.419732
5218966400,-84.472298,11.922170,11.409025,0.901151,-0.386674,-0.402784
5218986446,-77.819725,10.244586,10.231002,1.012491,-0.001275,-0.316088
5219006491,-81.273888,10.004686,9.068552,0.931839,0.162071,-0.271774
5219026537,-82.725395,4.633111,9.748840,0.877157,-0.100642,-0.373801
5219046583,-79.013504,1.282619,10.490322,0.815884,-0.170493,-0.313998
5219066628,-73.987663,-3.327999,9.942020,0.865495,-0.180118,-0.241026
5219086675,-67.729874,-5.265410,8.505072,0.946565,-0.262264,-0.151131
5219106721,-60.422089,-8.171981,6.393811,0.873398,-0.225885,-0.095478
5219126766,-52.193825,-12.340911,5.338695,0.916763,-0.360280,-0.148736
5219146812,-40.202515,-12.918501,4.649449,1.099465,-0.468431,-0.188527
5219166858,-26.527176,-10.381645,2.686885,0.934662,-0.201428,-0.207221
5219186903,-24.895050,-13.435511,3.414244,0.787415,0.209174,-0.371605
5219206949,-31.714258,-18.515018,5.764213,0.983149,0.028338,-0.368832
5219226993,-27.864061,-16.099766,5.070146,1.145133,-0.124714,-0.264677
5219247039,-23.352461,-11.705526,3.248647,1.107197,-0.141914,-0.184662
5219267084,-16.846985,-7.931871,3.048719,1.089884,-0.184437,-0.296860
5219287130,-11.548542,-4.654721,2.499434,0.987337,-0.080790,-0.298552
5219307176,-9.150587,-4.205841,1.901224,0.928455,-0.034853,-0.303615
5219327221,-8.004921,-5.022060,1.438507,0.926983,-0.045982,-0.319458
5219347267,-6.477450,-4.435107,1.322857,0.957441,-0.078158,-0.329001
5219367312,-4.365680,-2.575977,0.916543,0.975519,-0.113004,-0.346136
5219387359,-1.657008,-1.128117,0.553505,0.976056,-0.105478,-0.360864
5219407404,1.301355,-0.495907,0.073716,0.959696,-0.099325,-0.365860
5219427449,3.733825,-0.625654,-0.286352,0.946648,-0.082073,-0.373746
5219447496,6.007050,-0.580996,-1.003058,0.966073,-0.066896,-0.398794
5219467542,8.331465,0.340703,-1.456227,0.982333,-0.048790,-0.358705
5219487588,9.804136,1.788574,-1.673018,1.008632,-0.019709,-0.294114
5219507634,9.950859,4.774981,-2.121370,1.099839,0.034474,-0.234757
5219527679,9.231403,11.070081,-1.960256,1.136627,0.058425,-0.147007
5219547725,7.762704,17.966995,-1.817172,1.129534,0.038207,-0.049357
5219567770,7.107222,23.904322,-1.487996,1.076021,0.027583,-0.097901
5219587829,6.441813,28.507793,-1.238242,0.989139,-0.021470,-0.296230
5219607860,8.956138,28.454969,-1.302137,0.877827,-0.102511,-0.454964
5219627906,13.510581,23.844568,-1.703746,0.995131,-0.061575,-0.397845
5219647951,14.063025,15.970183,-2.589942,0.649763,0.044514,0.055763
5219667997,14.564474,5.125175,-2.808093,1.108560,0.029195,-0.295990
5219688043,15.350772,4.524212,-2.431635,0.778033,0.009150,-0.037415
5219708088,15.655145,1.545544,-1.984421,0.921429,0.045757,-0.084402
5219728134,16.447409,-1.357970,-2.043618,0.953858,-0.006428,-0.092312
5219748179,17.320694,-1.799501,-1.936830,0.926592,0.001440,0.007813
5219768225,17.202541,-2.507681,-1.680012,0.982586,0.060024,0.011482
5219788271,15.569591,-2.599138,-1.495192,1.040073,0.098238,-0.033044
5219808316,13.915508,0.333915,-1.740312,1.087557,0.064546,0.012771
5219828363,12.279444,1.781361,-1.782157,1.065089,0.070728,0.081318
5219848409,12.074425,2.552137,-1.306975,1.083153,-0.007791,0.060715
5219868455,10.481666,2.780999,-1.024663,0.911786,0.180454,0.008676
5219888500,-0.292574,-2.645733,-0.048669,0.645852,0.399160,-0.232524
5219908546,-8.395165,-12.017674,1.668047,0.662433,-0.156171,-0.371228
5219928591,1.072183,-19.835358,1.189427,0.884357,-0.250899,-0.311038
5219948637,3.098049,-28.490883,-1.487934,0.946618,0.012911,-0.160485
5219968681,5.870918,-25.335655,-1.743280,1.229777,-0.017901,-0.381222
5219988727,6.041998,-20.961164,-1.738239,1.133053,0.023796,-0.334525
5220008772,4.559875,-15.618563,-1.436891,1.015519,0.048041,-0.365786
5220028818,2.280743,-12.165262,-0.746998,1.012133,0.030451,-0.381767
5220048863,1.375615,-8.316620,-0.619985,0.999574,0.010852,-0.341669
5220068909,1.022700,-3.324559,-0.438720,1.050082,0.039025,-0.296371
5220088955,0.672290,2.666092,-0.153848,1.117512,0.056397,-0.250527
5220109000,0.309254,8.625611,-0.143720,1.126236,0.029380,-0.152500
5220129046,0.470889,14.181018,-0.279973,1.117363,-0.023657,-0.093256
5220149092,1.965074,18.784523,-0.263161,1.091894,-0.066156,-0.080496
5220169137,4.806228,21.063358,-0.516915,1.027561,-0.084179,-0.136559
5220189184,8.008060,20.820131,-0.608800,1.020882,-0.066449,-0.345081
5220209230,9.953957,22.085135,-0.864730,0.976150,0.058440,-0.316566
5220229276,6.677054,16.745474,-2.617316,0.776576,0.112043,0.017813
5220249321,4.713137,5.179404,-1.302787,1.000809,0.020801,-0.323914
5220269367,4.545725,7.047436,-0.900760,0.940820,0.000584,-0.129502
5220289412,4.096519,6.383601,-1.195492,0.987543,0.060054,-0.079562
5220309458,3.513873,5.347870,-0.821590,0.964080,0.015928,-0.062204
5220329503,3.457134,4.380646,-0.542176,0.872830,0.024646,-0.047046
5220349548,3.239022,1.804392,-0.674555,0.888786,0.031960,-0.091902
5220369594,2.842123,-0.596031,-0.551881,0.903795,0.031282,-0.075817
5220389639,2.656626,-1.913665,-0.192389,0.952222,0.010792,-0.076245
5220409685,2.721566,-2.271314,0.029144,0.984626,0.003303,-0.068161
5220429730,3.093397,-2.629736,-0.114424,0.999754,-0.016604,-0.071291
5220449776,3.905189,-3.193252,-0.021320,0.992611,-0.005129,-0.110404
5220469821,3.561673,-3.162791,0.008169,1.000817,0.033449,-0.113695
5220489867,3.178112,-2.957309,-0.069129,1.047312,0.037000,-0.098789
5220509913,1.889168,-0.785442,0.032708,1.115229,0.094741,-0.014803
5220529958,-2.593026,2.408043,0.674517,1.169983,0.218306,0.058133
5220550005,-8.967105,5.356735,1.139890,1.068333,0.127188,0.111579
5220570051,-12.010401,6.111295,1.525013,1.003185,0.020608,0.084453
5220590097,-12.472685,5.691596,1.344344,1.000175,-0.029123,0.052452
5220610142,-11.686258,5.583986,0.863314,0.990680,-0.066687,0.064931
5220630188,-10.261183,5.454212,0.606850,1.001839,-0.056917,0.076072
5220650234,-9.941483,5.080716,0.540759,0.998784,0.018235,0.083443
5220670279,-11.432183,4.379278,0.579661,0.987576,0.008312,0.089097
5220690323,-11.814763,3.519033,1.017870,0.979095,-0.017620,0.093098
5220710369,-12.021093,2.727468,1.475355,0.985583,0.024853,0.081297
5220730414,-12.633395,2.224281,1.458345,1.021541,0.012199,0.098316
5220750460,-12.181906,2.437820,1.471798,1.018131,-0.009181,0.100225
5220770506,-11.257416,2.559907,1.430528,0.993122,-0.006313,0.096561
5220790551,-10.721454,2.026724,1.490676,1.005472,0.006964,0.083802
5220810597,-10.616678,1.744506,1.374961,0.997861,-0.002594,0.086489
5220830642,-10.047405,1.073528,1.167471,0.986277,-0.012336,0.091605
5220850688,-9.498869,0.379969,1.082721,0.988678,-0.019171,0.082860
5220870734,-8.835181,-0.161093,1.018154,0.993083,0.003674,0.085380
5220890779,-8.497163,-0.534191,1.119818,1.013259,-0.010400,0.083970
5220910826,-7.962905,-0.435108,1.063272,1.014637,-0.019859,0.083781
5220930872,-7.199958,-0.435117,0.972053,1.016721,-0.015126,0.083193
5220950917,-6.765377,-0.160828,0.893935,1.016945,-0.025594,0.079847
5220970963,-5.721503,-0.061953,0.689955,1.016650,-0.028880,0.073685
5220991009,-4.958004,-0.061890,0.629291,1.004665,-0.014905,0.063790
5221011054,-4.353953,-0.374159,0.641534,1.001352,-0.009015,0.053125
5221031100,-3.860589,-0.374497,0.440926,1.013939,-0.023837,0.046399
5221051145,-2.410800,-0.283045,0.274943,1.003842,-0.042144,0.042607
5221071190,-0.875406,-0.648595,0.208160,0.989842,-0.034641,0.027220
5221091235,0.025016,-1.067705,0.123310,0.989079,-0.014927,0.012131
5221111281,0.919413,-1.311339,0.122049,0.997450,-0.009368,0.010708
5221131327,1.506081,-1.433376,0.011733,1.000244,-0.021130,-0.006568
5221151372,2.314675,-1.562947,-0.087582,1.000909,-0.012500,-0.014400
5221171418,2.313851,-1.555434,-0.133440,1.012483,0.014454,-0.009286
5221211509,1.280134,-0.984383,-0.237546,1.017752,0.003202,0.003079
5221231555,1.905201,-0.550103,-0.358101,1.030210,-0.023457,0.042217
5221271646,2.826714,-0.329338,-0.567753,0.979735,-0.006752,0.064655
5221291693,3.308416,-1.220787,-0.535925,0.981349,-0.019681,0.057387
5221311739,3.382804,-1.419165,-0.643689,1.034594,0.003821,0.082766
5221331784,3.864605,-0.938940,-0.654636,1.029161,-0.001459,0.084955
5221351830,4.406521,-1.053223,-0.702978,1.002681,-0.006063,0.075428
5221371875,5.140501,-1.616934,-0.684778,1.009507,0.015971,0.080359
5221391921,4.308903,-1.616923,-0.584586,0.999787,0.014622,0.097684
5221411967,3.717238,-1.928903,-0.312257,1.004117,-0.015699,0.078325
5221432011,2.692116,-1.860669,-0.346083,1.027503,0.030762,0.095914
5221452056,0.174009,-1.191092,-0.513411,1.045075,0.062387,0.114262
5221472102,-2.054540,-0.656748,0.116445,1.027896,0.074842,0.124429
5221492148,-5.177794,-0.656084,0.757797,1.022079,0.096414,0.083551
5221512193,-7.479120,-1.267307,0.361283,0.965967,0.058802,0.055431
5221532239,-7.820710,-2.068205,0.103127,0.997521,0.035808,0.041587
5221552284,-7.528690,-2.685182,0.206495,0.986729,0.023242,-0.008499
5221572330,-6.845423,-3.567605,0.815132,0.934322,0.017647,-0.095105
5221592376,-6.647881,-5.281299,1.229643,0.932142,0.040362,-0.161101
5221612421,-7.118419,-6.660250,1.472608,0.963655,0.050581,-0.170188
5221632467,-8.238371,-7.102012,1.709770,0.996914,0.065034,-0.100699
5221652512,-9.409584,-6.866275,1.624732,1.051301,0.075269,-0.015405
5221672560,-10.361753,-5.311519,1.767937,1.067089,0.011028,0.067403
5221692605,-9.043046,-3.276067,1.896042,1.122469,-0.099218,0.027970
5221712651,-6.700220,-0.725190,0.711154,1.056240,-0.017633,-0.030495
5221732696,-5.472933,1.728406,0.419362,1.014189,-0.043166,-0.082477
5221752742,-4.723150,2.544046,0.417381,0.983647,-0.008467,-0.087007
5221772788,-5.087417,2.421386,0.149765,0.962078,0.018812,-0.076245
5221792833,-5.625116,0.653002,0.074389,0.977829,0.025239,-0.107752
5221812877,-5.770200,0.996894,0.496339,1.024841,0.030374,-0.123540
5221832923,-6.488973,0.943352,0.495181,1.021510,0.034997,-0.130390
5221852969,-6.727154,1.767126,0.825643,1.017646,0.031986,-0.132044
5221873014,-7.117568,2.147977,0.786102,0.996227,0.027294,-0.144470
5221893060,-7.301087,2.246990,0.781692,0.977010,0.021994,-0.141774
5221913105,-7.632154,1.659838,0.675449,0.959253,0.024967,-0.143564
5221933151,-7.684304,1.134199,0.769908,0.978259,0.022778,-0.162766
5221953197,-7.293460,1.020115,0.823836,0.985729,0.019040,-0.173780
5221973242,-7.315766,1.385967,0.845975,0.990905,0.003262,-0.200713
5221993288,-6.939909,1.553872,0.906896,0.973975,0.001273,-0.231648
5222013333,-6.380956,1.127387,0.966242,0.934386,-0.004102,-0.306945
5222033381,-6.577685,-1.022324,0.732690,0.881945,-0.011020,-0.317659
5222053426,-4.582545,-1.920055,1.163093,1.110384,-0.034594,-0.202868
5222073472,-3.579757,4.937676,0.562978,1.357187,0.000112,0.085895
5222093518,-5.480524,13.498854,-1.262589,1.220120,0.184195,0.434696
5222113563,-7.087436,15.049155,0.307004,0.887419,-0.025107,0.206148
5222133609,-7.114758,9.433383,0.685378,0.552381,0.101708,-0.087098
5222173717,-6.528205,-6.714234,1.132752,0.987663,-0.060856,-0.032068
5222193744,-6.109483,-6.478126,1.024502,1.089024,-0.003498,0.013676
5222213790,-4.940929,-5.822628,0.930872,1.106405,-0.084677,-0.019075
5222233835,-2.515433,-4.206241,0.970124,1.058697,-0.052428,-0.057440
5222253881,-1.908567,-3.322743,0.672673,0.982456,0.043010,-0.093699
5222273927,-2.954835,-4.229685,0.772409,0.963848,0.054142,-0.111102
5222293972,-3.927836,-4.541643,1.097986,0.959819,0.059727,-0.086986
5222314018,-5.163614,-5.113128,1.276696,1.051998,0.026399,-0.078517
5222334063,-4.606356,-1.911562,1.537958,1.098671,-0.003092,-0.022165
5222354109,-4.679174,0.434962,1.233543,1.107366,0.010323,-0.005814
5222374155,-4.287939,3.399545,1.200798,1.080953,0.011679,-0.040587
5222394200,-4.357227,4.451071,1.137511,0.984941,0.024290,-0.084178
5222414247,-4.794219,3.238177,0.691541,0.893675,0.021872,-0.089971
5222434293,-4.821575,-0.038156,0.985713,0.910521,-0.013213,-0.138675
5222454338,-4.311121,-1.219408,0.926251,0.962397,-0.003369,-0.118970
5222474384,-3.800589,-1.783402,0.849449,1.014192,-0.005212,-0.123753
5222494430,-3.122746,-1.310111,1.109812,1.030447,0.002173,-0.128309
5222514475,-2.753247,-0.449582,0.794120,1.007707,-0.001607,-0.138082
5222534521,-2.488230,0.243604,0.626199,1.023500,0.001193,-0.162685
5222554565,-2.481750,2.057094,0.497772,1.014500,0.014319,-0.140131
5222574611,-2.726557,2.628536,0.470054,1.020890,0.011664,-0.155123
5222594656,-3.123934,3.954395,0.435144,1.028409,0.008129,-0.153793
5222614702,-3.227161,4.770238,0.617826,1.021194,-0.003601,-0.144754
5222634748,-3.170839,5.013475,0.340831,0.970322,0.015275,-0.128667
5222654793,-3.477553,3.542555,0.344038,0.943874,0.017763,-0.140929
5222674839,-3.717692,2.400028,0.635235,0.951681,0.030953,-0.147530
5222694884,-4.566413,1.363431,0.670438,0.957827,0.041991,-0.135761
5222714930,-5.374629,0.471927,0.826635,0.964766,0.023011,-0.122503
5222734976,-5.624524,-0.266998,0.986772,0.954716,0.025461,-0.117616
5222755021,-6.031473,-1.097946,0.921021,0.968181,0.019454,-0.130544
5222775068,-6.140236,-0.693329,1.235084,0.971372,0.006672,-0.107338
5222795114,-5.880641,-1.037214,0.803270,1.002084,-0.004489,-0.116649
5222815159,-5.331758,-0.648640,0.699628,0.995942,-0.010215,-0.108455
5222835205,-5.056076,-0.694233,0.724997,0.996094,-0.001947,-0.114463
5222855251,-4.755391,-0.731930,0.864475,0.990446,-0.002326,-0.118542
5222875296,-4.077617,-1.440791,0.739062,0.954630,-0.014952,-0.129530
5222895342,-3.104537,-3.492119,0.077486,0.655073,-0.141442,-0.266188
5222915387,8.532213,-12.238180,-0.058066,0.793796,-0.569137,-0.609983
5222935432,19.761683,-20.130146,0.086533,0.772827,0.184353,-0.298784
5222955478,3.963175,-27.531332,-1.882347,0.810546,0.544071,-0.218506
5222975523,-4.891319,-34.242329,0.443775,0.969246,0.018191,-0.229508
5222995569,-2.633478,-33.369732,1.810726,1.217664,-0.119701,-0.424510
5223015614,-1.468056,-28.913088,0.986206,0.968622,-0.008156,-0.312968
5223035660,-1.231379,-31.018265,0.193911,0.912462,0.011953,-0.315766
5223055705,-0.511414,-31.392298,-0.147396,0.939457,-0.008599,-0.333894
5223075751,0.427305,-28.793736,-0.334733,1.047382,-0.027742,-0.342147
5223095796,1.372095,-23.206221,0.132668,1.134620,0.016407,-0.295324
5223115842,-1.450556,-14.754211,0.610146,1.132682,0.064384,-0.273947
5223135888,-5.816212,-6.835848,1.188115,1.144641,0.164316,-0.258431
5223155935,-13.124123,0.062769,2.728261,1.096355,0.233676,-0.247465
5223175981,-21.522545,5.025900,4.494690,1.050934,0.236363,-0.233986
5223196026,-26.999218,6.489234,5.169198,0.898455,0.058910,-0.295089
5223216072,-26.749754,3.364594,5.121269,0.870239,0.081112,-0.268955
5223236118,-31.494236,-0.873114,5.471967,0.889276,0.113912,-0.308641
5223256163,-31.242184,-3.570678,5.552471,0.930071,-0.080810,-0.366294
5223276209,-28.242161,-4.994510,5.758808,0.964974,-0.098705,-0.328006
5223296270,-27.591318,-4.371330,4.941752,1.018886,0.059570,-0.278262
5223316298,-29.353407,-1.979475,4.662323,1.031290,0.028875,-0.310286
5223336344,-27.746399,0.542472,4.225389,0.973364,-0.049316,-0.340214
5223356390,-24.400043,1.480339,4.050353,0.907475,-0.067813,-0.406235
5223376435,-20.333771,1.480261,3.551170,0.936078,-0.035275,-0.447264
5223396481,-19.942183,3.965801,3.978501,1.068887,0.238464,-0.347858
5223416527,-26.776884,9.318501,5.950175,1.096123,0.308712,-0.308679
5223436572,-35.173668,13.878960,8.245173,1.024864,0.394645,-0.269934
5223456618,-46.675560,15.771355,10.586381,0.994539,0.306049,-0.289967
5223476663,-51.643143,16.900112,11.519575,0.980364,0.020323,-0.216175
5223496709,-52.948318,16.165527,10.401128,0.927051,0.076705,-0.235330
5223516755,-56.728783,14.364683,9.853882,0.919608,0.127532,-0.244275
5223536802,-61.992363,12.938848,10.151800,0.920731,0.153350,-0.255866
5223556847,-67.741676,11.102843,11.087108,0.929904,0.170835,-0.252692
5223576893,-74.410713,9.282537,12.322945,0.951390,0.185525,-0.245821
5223596939,-81.885475,7.941721,13.381783,0.957422,0.220545,-0.253244
5223616984,-89.416489,6.965320,13.852108,0.928397,0.195815,-0.273042
5223637030,-95.446297,5.677223,14.477736,0.932306,0.157274,-0.310445
5223657075,-100.034943,4.580507,15.304006,0.936255,0.145719,-0.314851
5223677120,-104.211746,3.590452,16.068436,0.943816,0.139723,-0.316331
5223697165,-107.700493,3.575971,16.793346,0.966497,0.112182,-0.321393
5223717211,-110.327888,4.574887,17.337696,0.984927,0.109594,-0.308086
5223737256,-113.511269,5.984438,17.562887,1.001779,0.130731,-0.304414
5223757302,-116.273087,7.599992,17.840343,1.026356,0.048554,-0.289719
5223777348,-117.369896,9.421501,18.008390,1.005002,0.052189,-0.273838
5223797394,-118.736061,11.081694,17.662582,0.998141,0.074949,-0.258417
5223817439,-120.581802,12.757273,17.433010,0.996467,0.075166,-0.289162
5223837485,-123.204277,13.830055,16.975990,0.936101,0.065122,-0.259975
5223857530,-125.920349,4.047248,15.105051,0.761657,0.049042,-0.362004
5223877576,-125.837051,2.526074,16.384621,0.887250,0.037315,-0.358044
5223897623,-127.676323,-0.806049,15.843012,1.009861,0.032475,-0.366481
5223917668,-128.841949,-0.676270,16.071518,0.975491,0.046024,-0.289210
5223937714,-131.017609,-0.623069,16.258743,0.955694,0.061985,-0.301517
5223957759,-132.517029,-0.311143,16.202745,0.992390,0.027329,-0.329228
5223977805,-132.705841,0.699639,15.026261,0.978590,-0.046683,-0.295282
5223997851,-129.918427,1.591531,14.808733,0.993057,-0.085434,-0.305541
5224017896,-126.881721,1.484835,14.459789,0.948508,-0.055663,-0.307191
5224037942,-123.715439,0.401726,13.698943,0.787029,-0.307351,-0.414314
5224057986,-103.330269,-6.811102,13.166927,0.683477,-0.799057,-0.588929
5224078032,-84.227783,-12.375384,10.560556,1.061321,-0.182028,-0.300099
5224098077,-80.464828,-10.949222,10.574490,1.078412,-0.097413,-0.099913
5224118123,-67.996666,-10.062219,10.413657,1.115610,-0.412087,-0.079328
5224138169,-54.731911,-7.667980,9.429998,0.940301,-0.369910,-0.160559
5224158214,-47.484447,-11.678415,7.827918,0.698641,0.020493,-0.300061
5224178260,-48.007286,-19.795582,7.528864,0.835416,0.004134,-0.352657
5224198305,-45.070637,-21.265436,7.614320,1.041041,-0.170774,-0.246032
5224238397,-34.299316,-13.248173,6.385231,1.129369,-0.033774,-0.218172
5224258442,-31.558922,-8.355765,5.964261,1.074472,-0.004097,-0.264943
5224278489,-29.465244,-5.384434,5.363559,0.978529,-0.014242,-0.315941
5224298535,-26.764267,-4.400430,5.437778,0.946405,-0.051367,-0.345924
5224318580,-23.998463,-3.735990,5.725762,0.945419,-0.058554,-0.345350
5224338626,-22.416409,-2.914638,4.813563,0.969111,-0.052643,-0.313992
5224358672,-21.005861,-2.793838,4.166833,0.987659,-0.078585,-0.286124
5224378718,-18.376638,-1.452080,4.065499,1.012999,-0.139659,-0.273292
5224398763,-16.752583,-0.659717,3.786821,0.947075,-0.031106,-0.309023
5224418807,-16.143080,-0.841731,4.096541,0.972840,-0.008902,-0.326746
5224438853,-15.606330,0.096905,4.572054,0.982196,-0.006510,-0.319648
5224458899,-15.248209,2.001925,4.436499,0.984377,-0.001373,-0.349105
5224478944,-15.971206,3.127993,3.736125,0.969989,0.009420,-0.355777
5224498990,-16.872053,4.484349,3.764372,0.978807,-0.030902,-0.375105
5224519035,-15.998527,6.146062,3.810663,0.971390,-0.081608,-0.388965
5224539081,-15.212067,6.579502,3.312548,0.951842,-0.069346,-0.383387
5224559127,-14.545061,6.806541,2.557629,0.943364,-0.140306,-0.377133
5224579172,-11.792258,5.968087,2.178422,0.899083,-0.095062,-0.426744
5224599218,-9.683887,4.793881,1.690574,0.931850,-0.099341,-0.404057
5224619263,-8.187060,4.671135,1.172885,0.972363,-0.063959,-0.389556
5224639311,-6.697739,4.892312,1.074477,0.934284,-0.042591,-0.363343
5224659356,-4.997903,4.549177,0.798109,0.955675,-0.026082,-0.356563
5224679402,-3.715613,5.776107,0.631596,1.028711,-0.039774,-0.339994
5224699448,-1.187267,8.694063,-0.030853,1.040408,-0.082001,-0.254792
5224719493,1.894519,12.252656,-0.553346,1.076959,-0.090860,-0.201116
5224739539,4.662814,17.045662,-1.119713,1.110564,-0.055657,-0.126493
5224759585,5.398358,22.319328,-1.220316,1.115592,0.057393,-0.094994
5224779630,1.898787,26.869015,-0.831333,1.239825,0.174222,-0.291570
5224799674,-3.968957,38.704365,-0.160844,1.011305,0.128549,0.105196
5224819719,-7.695713,12.020190,-1.092419,0.501327,-0.116592,-0.494001
5224839765,-1.186137,12.544463,0.743375,0.838220,-0.122217,-0.454256
5224859811,1.029288,1.760053,0.170823,0.770159,0.046182,-0.235419
5224879856,3.272231,-0.909090,-0.857202,0.916327,-0.041833,-0.123113
5224899902,4.921907,-2.974989,-1.310256,0.959131,-0.038803,-0.090805
5224919948,6.943220,-3.614194,-1.133389,0.946233,-0.050237,-0.063333
5224939993,7.974870,-2.881444,-0.766133,1.009904,-0.019764,-0.066012
5224960039,7.778113,-1.960164,-1.109247,1.015317,0.021421,-0.033039
5224980084,6.634887,-1.083657,-0.937153,1.009486,0.028189,-0.007533
5225000130,5.247508,-0.176667,-0.737498,1.013798,0.066501,-0.004130
5225020177,3.751150,-0.542554,-0.600264,1.026043,0.100893,-0.011477
5225040223,1.142941,-0.793855,-0.220235,1.020481,0.101764,0.023112
5225060268,0.326542,-0.602351,0.291663,1.043670,-0.005511,0.045044
5225080314,1.296094,0.289296,0.178184,1.109569,-0.024515,0.099508
5225100360,1.789372,2.536946,-0.106321,0.940455,0.008077,0.045965
5225120405,0.254627,-3.743343,-0.193179,0.546922,0.007790,-0.310525
5225140451,2.710593,-13.336477,0.234307,0.784697,-0.141943,-0.348372
5225160495,3.968117,-19.035685,0.633877,0.844284,0.006534,-0.079844
5225180540,3.172246,-25.800184,-1.284371,0.948152,0.057965,-0.148967
5225200586,3.681796,-26.667137,-0.557793,1.257517,-0.005689,-0.391700
5225220632,4.328317,-19.479439,-0.151063,1.115491,0.003769,-0.327293
5225240677,4.124547,-17.088348,-0.934498,1.003211,-0.022964,-0.330055
5225260723,6.103038,-13.506495,-1.160567,1.041808,-0.043922,-0.382149
5225280769,7.569544,-9.010300,-1.402670,1.006983,-0.011907,-0.357099
5225300814,8.301228,-4.933525,-1.674966,1.096685,-0.022825,-0.328381
5225320860,9.313414,2.443612,-1.772657,1.123063,-0.019940,-0.261206
5225340906,9.667173,10.772999,-1.952440,1.161658,0.057856,-0.180930
5225360951,8.081835,18.386932,-1.519105,1.127923,0.116905,-0.096211
5225401044,3.955871,28.418524,-0.020565,1.059309,0.012203,-0.191000
5225421090,6.000947,32.931770,0.444345,1.257394,-0.077363,-0.436696
5225441135,8.637619,36.467167,-0.168772,0.487375,0.008785,0.360789
5225461181,9.098094,1.676715,-0.543294,0.906283,-0.028904,-0.681153
5225481226,9.799786,6.043130,-0.793048,0.672734,0.001409,-0.318832
5225501272,9.142082,-1.097320,-0.550195,0.935178,0.090753,-0.220060
5225521335,9.222440,-2.766638,-0.699026,0.929213,0.017344,-0.055893
5225541362,10.256948,-2.202156,-0.591074,1.015611,-0.043074,-0.031122
5225561408,10.263895,-2.317542,-1.049312,1.046663,-0.021733,-0.078618
5225581453,10.054923,-0.954878,-1.661110,0.988697,0.005491,-0.016673
5225601499,9.702943,0.043257,-1.711093,0.981800,0.006759,-0.014197
5225621545,9.980144,-0.102195,-2.021645,1.001986,-0.002188,-0.048840
5225641590,9.941206,0.080591,-2.067347,0.977589,0.015401,-0.062796
5225661636,9.602440,0.218354,-1.778499,1.004324,0.042468,-0.057760
5225681681,8.498018,-0.520565,-1.517723,1.002739,0.069169,-0.082105
5225701727,7.398053,-0.566447,-1.458019,1.010821,0.060971,-0.094848
5225721772,6.361496,-0.512955,-1.277613,1.021461,0.077722,-0.096328
5225741818,5.984420,-0.779091,-0.979035,1.006363,0.037046,-0.090556
5225761865,6.131179,-0.504527,-0.906383,1.023535,0.019810,-0.077022
5225781911,5.624504,1.148685,-1.077808,1.062052,0.055124,-0.047236
5225801956,5.056113,3.115235,-0.867007,1.031641,0.022486,-0.010080
5225822002,3.993836,3.695153,-0.435687,1.029532,0.059711,0.001513
5225842048,1.154304,4.716133,-0.208234,1.027697,0.150470,0.089357
5225862093,-5.128505,5.547326,0.728547,1.076196,0.254652,0.163612
5225882139,-12.066921,6.377603,1.349470,1.007251,0.132688,0.186232
5225902183,-13.402904,5.646951,1.912728,0.972962,-0.061137,0.080021
5225922228,-10.357498,4.244936,1.667265,0.943736,-0.144132,0.036176
5225942274,-6.714708,2.926043,1.050786,0.965180,-0.134384,0.025900
5225982365,3.343193,1.158303,0.036230,1.069368,0.017582,0.067535
5226002411,-0.452037,3.144830,-0.615037,1.050237,0.113331,0.110186
5226022457,-1.190906,4.045185,-0.068796,1.082066,-0.014093,0.099687
5226042502,0.077726,4.610346,0.302061,1.032520,0.061722,0.160683
5226062548,-1.335847,5.356879,0.327005,0.972726,0.068131,0.182389
5226102639,1.072810,2.835219,0.426209,0.964203,-0.049537,0.061814
5226122686,1.884717,1.889710,0.115585,0.993174,-0.025630,0.078709
5226142732,2.613166,1.538648,-0.180115,1.019956,-0.044852,0.093081
5226162777,3.656411,1.264045,-0.405763,0.988833,-0.042067,0.099417
5226182823,4.478198,0.372171,-0.594493,0.972243,-0.008450,0.088751
5226202868,4.333324,-0.222203,-0.551496,0.994496,0.009421,0.092881
5226222914,4.219582,-0.084944,-0.503897,1.027940,0.008305,0.103206
5226242960,3.838927,0.380007,-0.429286,1.013491,0.036305,0.104041
5226263004,2.855676,0.090569,-0.248772,1.003655,0.054009,0.092106
5226283050,1.946985,-0.100030,-0.177015,1.016738,0.022732,0.091299
5226303095,1.941725,-0.031139,-0.047238,1.011776,0.012077,0.089041
5226323141,1.482456,-0.244699,-0.068181,0.991186,0.029123,0.073478
5226343186,0.636773,-0.793198,0.118167,0.999207,0.027296,0.062724
5226363232,0.201494,-0.838967,0.149690,1.015871,-0.000235,0.068022
5226383278,0.399107,-0.854308,0.084775,1.000171,0.005532,0.049490
5226403323,-0.018676,-1.136017,0.246648,0.988812,0.028588,0.029765
5226423369,-1.359939,-1.563534,0.083062,0.996778,0.023126,0.020742
5226443415,-1.174141,-1.776556,0.217712,1.000994,0.001380,0.015259
5226463460,-1.780208,-1.853186,0.107464,0.998336,0.014906,0.001030
5226483505,-1.991891,-2.119643,0.250004,1.007183,0.014389,0.010049
5226503553,-2.238762,-2.020930,0.124561,1.020680,0.011339,0.023259
5226523598,-2.274400,-1.852956,0.262240,1.021952,0.000621,0.031970
5226543644,-2.158243,-1.387894,0.327211,1.016628,-0.001414,0.069373
5226563689,-2.295686,-1.151677,0.329091,1.024949,0.002943,0.108985
5226583735,-1.896487,-0.747483,0.404055,0.993315,-0.035557,0.124475
5226603780,-0.802698,-1.029087,0.437259,1.022817,-0.065399,0.098241
5226623826,0.721479,-0.655932,0.146632,1.051486,-0.059419,0.112539
5226643870,1.950413,0.586245,-0.011255,1.072741,-0.060431,0.140138
5226663916,3.526056,1.492572,-0.434560,1.062336,-0.018958,0.143151
5226683962,3.481858,2.360504,-0.795740,1.024883,0.015461,0.140283
5226704007,3.503632,2.268914,-0.856989,0.984619,-0.008467,0.120312
5226724053,3.942935,1.400766,-0.633380,0.998076,-0.002574,0.097923
5226744098,3.988608,0.356766,-0.607866,0.909152,0.027887,0.111825
5226764144,2.099877,-2.554733,-0.515675,0.935360,0.127573,0.078715
5226784189,-0.995245,-4.742408,-0.356636,0.927212,0.035879,-0.015403
5226804235,2.045738,-7.600482,-0.795843,0.867249,-0.106272,-0.099384
5226824281,5.094951,-9.917435,-1.221728,0.993329,-0.058976,-0.158167
5226844326,6.897952,-10.259061,-0.865862,0.986228,-0.024641,-0.130506
5226864373,7.697397,-10.402087,-0.200809,1.000000,0.027196,-0.099237
5226884419,6.546914,-10.531416,0.028265,1.052047,0.060604,-0.078665
5226904464,3.989254,-9.069506,-0.240273,1.037762,0.117989,0.078528
5226924510,1.593604,-12.087131,0.152483,0.939452,0.021478,0.114950
5226944563,1.116499,-13.991747,0.473740,1.020337,0.039682,-0.051583
5226964601,1.781938,-11.828354,-0.012503,1.066606,-0.083737,-0.124607
5226984647,3.874007,-9.869743,-0.243014,0.976425,-0.098781,-0.068578
5227004697,5.611545,-9.908123,-0.559335,1.006385,-0.041759,-0.103952
5227024737,6.925760,-8.490502,-0.658329,1.081852,-0.010634,-0.159393
5227044782,7.173231,-4.908515,-0.629207,1.086963,-0.009450,-0.110916
5227084874,6.929320,0.441985,-0.351912,1.012216,0.015482,-0.149807
5227104919,6.138933,2.294137,-0.151705,0.983045,0.014848,-0.175906
5227124965,5.829713,3.041400,0.058126,0.983147,0.007883,-0.204945
5227145011,5.386989,3.474744,-0.339723,0.999738,-0.045414,-0.263509
5227165056,7.072526,4.953987,-0.201601,1.068099,-0.119779,-0.343891
5227185101,10.147848,8.406047,-0.654840,1.135980,-0.072874,-0.369455
5227205147,11.656086,12.916957,-1.127045,1.115492,-0.061747,-0.336172
5227225193,11.718884,17.230297,-1.188472,1.160573,0.080548,-0.261559
5227245240,7.974886,26.023485,-1.359058,1.424731,0.101774,0.055526
5227265285,4.739856,26.531090,-2.268439,0.747856,0.059855,0.892394
5227285331,3.071459,22.385967,-1.786703,0.787919,0.039405,0.140562
5227305377,4.067616,7.746860,-1.573901,0.305530,-0.111585,-0.224148
5227325422,6.389865,-3.866183,-1.282283,0.876886,-0.025256,-0.130820
5227345468,3.998394,-5.474494,-1.131185,1.130861,0.126590,0.133662
5227365513,2.025513,-4.438688,-1.180408,1.048109,-0.091727,0.003717
5227385557,4.283344,-5.229309,-0.602629,1.071399,-0.031457,-0.041261
5227405603,2.744853,-3.430546,-0.334238,1.034262,0.123145,-0.039341
5227425648,-0.693287,-2.942447,0.212262,1.002004,0.044492,-0.147048
5227445694,-2.077082,-3.339061,0.232793,0.949587,0.050777,-0.150795
5227465740,-2.511509,-4.062929,0.335330,0.953753,0.004165,-0.121558
5227485785,-2.135720,-4.253188,0.405086,0.997972,0.010453,-0.047794
5227505831,-2.541873,-2.980820,0.309392,1.065323,0.042193,-0.005241
5227525876,-2.906555,-1.083153,0.371282,1.056910,0.048484,0.009235
5227545922,-3.780546,0.868105,0.595706,1.053607,0.047443,-0.011041
5227565968,-5.339686,1.492635,0.608598,0.973269,0.059567,-0.085763
5227586014,-6.309718,0.486621,0.699543,0.922701,0.016775,-0.115694
5227606060,-6.275547,-1.410368,0.965004,0.915121,-0.000903,-0.126428
5227626106,-5.841183,-2.713518,0.930349,0.994291,-0.007978,-0.128130
5227646152,-5.525214,-2.378808,0.632728,1.007260,-0.013202,-0.109097
5227666197,-5.687802,-1.921894,0.504457,1.024845,0.016480,-0.109628
5227686243,-5.710312,-1.670373,0.519339,1.014910,0.016607,-0.132789
5227706288,-6.279026,-1.464163,0.774215,1.003533,0.034484,-0.148964
5227726334,-6.880109,-1.129639,0.502031,0.986364,0.020638,-0.144745
5227746378,-6.951577,-1.129011,0.778508,0.997244,0.031209,-0.143586
5227766424,-7.075467,-0.206193,1.083498,1.018534,0.036708,-0.137967
5227786469,-7.650323,0.105903,0.994274,1.001901,0.021679,-0.134482
5227806515,-7.551580,0.707851,0.936864,0.985141,0.004026,-0.123364
5227826561,-6.995002,0.707796,0.849650,1.006353,-0.002816,-0.151855
5227846606,-6.352966,0.951790,0.828738,0.987578,-0.003451,-0.135103
5227886697,-5.909592,-0.237867,0.442023,0.976300,-0.010395,-0.142706
5227906743,-5.191871,-0.573098,0.398646,0.978021,0.006563,-0.122974
5227926789,-4.733910,-0.717865,0.359676,0.990260,-0.003708,-0.128522
5227946834,-4.314365,-0.969350,0.314165,0.977429,-0.011812,-0.121572
5227966881,-4.364243,-0.764134,0.085206,0.969420,0.018402,-0.108414
5227986927,-4.387420,-0.954680,0.078649,1.031709,-0.003212,-0.139306
5228027018,-3.277909,-0.237960,0.100582,1.003318,0.007171,-0.108610
5228047064,-2.812725,0.325912,0.013264,1.014364,0.023654,-0.107918
5228067109,-3.252812,0.653906,0.188823,1.002865,0.028816,-0.111906
5228087155,-3.517888,0.577960,0.331766,0.985101,0.032599,-0.118872
5228107199,-4.059502,0.257923,0.412114,0.985664,0.019474,-0.133475
5228127245,-4.133378,0.387784,0.550661,1.006681,0.007140,-0.128911
5228147291,-3.981898,0.136166,0.479787,0.985981,0.008578,-0.122115
5228167336,-4.518887,0.082450,0.383405,0.982005,0.041494,-0.127548
5228187382,-5.290597,0.051830,0.413764,1.000987,-0.017501,-0.117516
5228207427,-4.958876,0.478048,0.138458,0.997812,0.024777,-0.128335
5228227473,-5.698759,0.470459,0.236896,0.985251,0.045845,-0.139231
5228247532,-6.845059,0.317821,0.274930,0.962659,0.038804,-0.141285
5228267564,-8.095607,-0.178389,0.056321,0.975258,0.011021,-0.172499
5228287610,-7.731795,-0.848303,0.326584,0.932509,-0.007124,-0.212590
5228307655,-6.862641,-2.851548,0.683178,0.899751,-0.024187,-0.318757
5228327702,-5.158479,-5.366908,0.299336,0.868457,-0.065577,-0.343663
5228347747,-2.545304,-10.008209,-0.056860,0.805021,-0.052090,-0.277154
5228367793,-2.077110,-16.783321,-0.142728,0.825506,0.070601,-0.312021
5228387839,-4.896362,-21.569374,0.141872,0.850720,0.105518,-0.290268
5228407884,-7.405014,-26.278526,0.687640,0.844398,0.071275,-0.254519
5228427930,-8.265623,-30.171318,1.435595,1.083551,0.018891,-0.392860
5228447976,-7.520298,-28.852324,1.592495,0.961548,-0.015984,-0.257279
5228468022,-6.552287,-28.722910,1.420452,1.016423,-0.018828,-0.316943
5228488065,-3.758404,-25.781300,1.066070,1.062655,-0.081452,-0.271512
5228508111,-1.586372,-20.424534,0.486471,1.102598,-0.026851,-0.242418
5228528157,-0.724025,-14.122499,0.173665,1.147215,0.021615,-0.188612
5228548202,-2.487841,-7.095721,0.482514,1.134164,0.070221,-0.214160
5228568248,-4.980950,-0.808690,0.655147,1.069661,0.010564,-0.252721
5228588294,-3.146117,3.917378,0.901826,1.026120,-0.147029,-0.285214
5228608340,0.454869,6.774946,0.363951,1.008442,-0.061659,-0.248471
5228628385,2.249610,8.167698,-0.645975,0.969707,-0.098077,-0.285060
5228648431,7.588210,6.939507,-1.777073,0.927344,-0.181761,-0.347561
5228668476,12.002202,5.247290,-2.437840,0.926550,-0.009829,-0.350012
5228688522,11.099914,3.996312,-2.821164,0.928854,0.078819,-0.328865
5228708569,9.755138,2.221522,-2.284825,0.915545,0.051996,-0.309621
5228728614,8.984776,-0.635075,-1.656692,0.885914,0.042885,-0.292670
5228748660,7.709939,-4.246200,-0.993333,0.851216,0.031156,-0.312212
5228768705,7.201680,-8.224623,-1.054282,0.862497,0.030961,-0.329198
5228788751,7.432086,-11.197351,-1.316307,0.903026,-0.005094,-0.328013
5228808797,8.030288,-12.569607,-1.590797,0.935446,-0.000052,-0.332932
5228828842,8.035522,-12.684223,-1.720421,0.961206,0.013426,-0.346556
5228848886,7.143119,-12.089794,-1.621028,0.977297,0.032366,-0.349494
5228868932,6.040428,-10.298537,-1.353427,0.996525,0.018825,-0.357607
5228888978,4.948429,-7.760088,-0.943333,1.006184,0.025570,-0.358418
5228909023,3.944010,-5.466009,-0.755727,0.998132,0.022836,-0.354464
5228929069,2.787984,-3.621398,-0.479627,0.989485,0.018650,-0.348227
5228949114,1.596283,-1.777459,-0.485567,0.990446,0.019929,-0.345613
5228969160,0.796607,0.089717,-0.376927,0.995258,0.016129,-0.337700
5228989206,-0.023991,1.850464,-0.152905,0.992690,0.017151,-0.323588
5229009251,-0.523993,3.359757,0.050450,0.985644,0.015263,-0.304946
5229029297,-1.226795,4.495079,0.045025,0.983453,0.026749,-0.289586
5229049343,-2.147575,5.310776,0.258854,0.980247,0.026951,-0.275461
5229069390,-2.625024,5.684595,0.480834,0.971183,0.026879,-0.257151
5229089436,-3.306274,5.967258,0.852261,0.974979,0.022439,-0.249856
5229109481,-3.678690,6.508492,0.957024,0.981356,0.008999,-0.241863
5229129526,-3.983078,7.163947,1.014238,0.992710,0.009763,-0.230620
5229149572,-4.311923,8.040188,0.979495,0.996619,0.009767,-0.231594
5229169618,-4.004625,8.848216,1.031973,0.991164,-0.007145,-0.221578
5229189663,-3.895838,9.685717,0.675568,0.988544,-0.007419,-0.220081
5229209709,-3.123855,10.188831,0.643630,0.987341,-0.008588,-0.211253
5229229753,-2.370938,10.356157,0.414503,0.979125,-0.014041,-0.201572
5229249799,-1.366012,10.142496,0.181754,0.975447,-0.020947,-0.193600
5229269844,-0.581280,9.829909,0.037663,0.972228,-0.016396,-0.189650
5229289890,0.289891,9.311900,0.030124,0.974979,-0.011651,-0.183895
5229309935,0.897733,9.014372,-0.171716,0.976851,-0.012827,-0.181565
5229329981,1.481901,8.861530,-0.419428,0.978451,-0.018908,-0.174592
5229350027,2.351225,8.488067,-0.534392,0.977725,-0.019264,-0.169495
5229370072,3.289822,8.236608,-0.628182,0.977957,-0.011252,-0.166335
5229390118,3.799046,7.794369,-0.781778,0.976626,-0.002152,-0.163695
5229410163,4.135725,7.489679,-0.756731,0.981180,-0.001055,-0.164319
5229430209,4.462510,7.344723,-0.861928,0.985952,-0.004404,-0.158495
5229450256,4.876000,7.459218,-0.832126,1.013527,-0.003446,-0.154155
5229470302,5.249537,8.388854,-0.926525,1.005696,0.005486,-0.137697
5229490347,5.072130,9.181120,-1.040341,1.033672,0.009789,-0.145806
5229510393,4.702267,10.940948,-1.260625,1.046199,0.011818,-0.140123
5229530438,4.307525,13.250173,-1.184239,1.067836,0.013404,-0.135774
5229570530,3.561182,19.721014,-0.824510,1.081361,0.007883,-0.130912
5229590574,3.147115,21.961128,-0.969121,0.801832,0.000018,0.183419
5229610619,2.020716,6.984564,-1.424664,0.867456,0.032315,-0.235330
5229630665,2.540897,6.414204,-0.966730,0.833176,0.005080,-0.121773
5229650710,2.302257,2.260847,-0.910065,0.936961,0.044754,-0.098826
5229670756,2.427510,-0.024842,-0.668001,0.903852,0.017938,-0.059002
5229690802,2.286747,-1.860795,-0.353499,0.941808,0.004937,-0.086406
5229710847,2.525250,-2.980729,-0.232136,0.982137,0.001964,-0.103520
5229730893,2.287961,-2.866522,-0.250836,1.000057,0.011107,-0.092312
5229750938,2.008388,-2.050789,-0.095298,1.021968,0.021228,-0.097150
5229770984,1.536503,-0.976168,-0.013304,1.035330,0.026328,-0.105194
5229791030,1.262467,0.014560,0.019281,1.023667,0.023303,-0.108711
5229811077,0.683576,0.609076,0.120232,1.010669,0.019278,-0.110390
5229831123,0.268805,0.905913,0.005029,0.998243,0.013792,-0.115797
5229851168,0.252306,0.715243,-0.055148,0.989027,0.011150,-0.110552
5229871214,0.007430,0.448439,-0.057150,0.989042,0.010167,-0.100111
5229891259,-0.046937,0.143501,-0.093287,0.988837,0.008263,-0.096564
5229911305,-0.175102,0.105601,0.008665,0.990859,0.005347,-0.100951
5229931351,-0.359065,0.151214,-0.018483,0.991456,0.010803,-0.102876
5229951395,-0.694208,0.250354,0.048822,0.990261,0.011437,-0.103220
5229971440,-0.677125,0.258211,0.147803,0.989076,0.012709,-0.103021
5229991486,-0.952232,0.105750,0.161290,0.984578,0.012064,-0.104214
5230011532,-1.128314,-0.153418,0.157928,0.984709,0.008974,-0.102304
5230031577,-0.891130,-0.450527,0.177240,0.985174,0.010159,-0.101770
5230051623,-1.095184,-0.503614,0.311280,0.986282,0.007250,-0.101330
5230071668,-1.032377,-0.731995,0.410161,0.988528,0.009706,-0.103188
5230091714,-1.042529,-0.778045,0.272965,0.995611,0.010895,-0.105308
5230111760,-1.065423,-0.717083,0.273206,0.999245,0.005804,-0.106723
5230131805,-1.018679,-0.617893,0.317818,0.998772,0.002808,-0.102897
5230151851,-0.768006,-0.442771,0.220673,0.998892,-0.005469,-0.101887
5230171898,-0.180228,-0.313192,0.162988,0.998648,-0.009379,-0.100515
5230191943,0.147224,-0.016083,0.079230,0.997172,-0.006562,-0.101130
5230211989,0.465629,-0.001110,-0.072186,0.994908,0.000533,-0.099650
5230232035,0.436448,0.021925,0.004719,0.993230,0.008989,-0.100907
5230252080,0.604199,0.044772,-0.021537,0.995193,0.008806,-0.103391
5230272126,0.642950,0.014368,0.008378,0.992635,0.004526,-0.103703
5230292171,0.899360,-0.008885,-0.187556,0.993467,0.004346,-0.103172
5230312216,0.860577,0.204402,-0.225721,0.995794,0.004072,-0.105753
5230332261,1.075380,0.143590,-0.183838,0.992081,0.003342,-0.104055
5230352307,1.260683,0.029569,-0.080074,0.989880,0.007068,-0.104296
5230372352,1.061549,0.037092,-0.099159,0.991414,0.012800,-0.104967
5230392398,0.779776,0.143847,-0.040557,0.993251,0.014897,-0.104276
5230412444,0.642700,0.060058,-0.007052,0.995099,0.015985,-0.107940
5230432489,0.267215,0.059849,-0.053256,0.991994,0.015616,-0.107977
5230452535,-0.061070,-0.008759,-0.023733,0.991639,0.012523,-0.107603
5230472580,-0.091070,0.029411,0.007288,0.993068,0.009156,-0.109528
5230492626,-0.221178,-0.031604,0.002375,0.994078,0.005701,-0.109449
5230512672,-0.244211,0.029341,-0.005023,0.993599,0.006517,-0.110622
5230532718,-0.197497,0.075184,0.039767,0.989916,0.007600,-0.112104
5230552764,-0.229084,-0.008778,-0.012831,0.991566,0.006975,-0.106957
5230572810,-0.077620,-0.047028,-0.092057,0.990428,-0.000491,-0.109648
5230592856,0.083631,0.044548,-0.057284,0.999100,0.005079,-0.104722
5230612901,0.274150,0.265507,-0.099923,0.986859,-0.035989,-0.117063
5230632947,2.430440,-0.099672,-0.079417,0.984108,-0.041816,-0.118005
5230652993,3.557788,0.151550,-0.323731,1.011973,-0.012661,-0.115896
5230673037,4.596877,0.426063,-0.375373,1.006194,-0.008842,-0.112082
5230693083,5.426621,0.799207,-0.591394,0.997528,-0.011393,-0.106756
