Timestamp (us),Gyroscope X (deg/s),Gyroscope Y (deg/s),Gyroscope Z (deg/s),Accelerometer X (g),Accelerometer Y (g),Accelerometer Z (g)
5656718794,-8.209179,-0.730363,-4.022328,0.900040,-0.114480,0.431272
5656738839,-7.752431,-0.403930,-4.026139,0.895948,-0.113781,0.431236
5656758883,-7.071776,-0.632015,-2.865543,0.895315,-0.113878,0.429229
5656778928,-5.822758,-0.716427,-2.257957,0.903500,-0.115657,0.427028
5656798972,-4.466823,0.133809,-1.972044,0.896515,-0.119369,0.428737
5656819017,-3.037655,-0.422174,-1.746309,0.893179,-0.123617,0.426927
5656839062,-1.634900,0.116603,-0.995744,0.894619,-0.118723,0.425896
5656859107,-0.242143,0.168765,-0.640793,0.894059,-0.112115,0.430844
5656879152,0.854199,-0.082768,-0.115680,0.900477,-0.109381,0.431324
5656899197,1.784178,0.570236,0.211777,0.898206,-0.108423,0.433029
5656919242,2.796239,0.151520,0.646274,0.893937,-0.106600,0.436716
5656939287,3.808751,-0.434322,1.279002,0.894364,-0.102985,0.433320
5656959332,3.778189,-0.198743,1.126648,0.900724,-0.099294,0.427419
5656979376,3.826046,0.568985,1.346485,0.894357,-0.098944,0.424820
5656999421,2.996001,-0.053579,1.292492,0.897098,-0.090265,0.432962
5657019468,2.768116,0.562164,1.049871,0.908001,-0.093180,0.430608
5657039513,2.746588,1.360235,1.003572,0.895272,-0.089288,0.438222
5657059557,1.975938,0.273908,0.797196,0.893923,-0.094466,0.437981
5657079602,1.047245,0.183385,0.537761,0.893041,-0.085974,0.437996
5657099647,0.482405,-0.287534,0.176859,0.894838,-0.081254,0.438880
5657119692,-0.377703,0.077846,-0.258753,0.895857,-0.087220,0.435477
5657139737,-1.245763,-0.020351,-0.564355,0.895712,-0.085137,0.433274
5657159782,-2.014358,0.276591,-0.893948,0.894188,-0.089576,0.433937
5657179825,-2.432044,0.239011,-0.753580,0.895926,-0.095056,0.436089
5657199871,-2.379247,0.231317,-0.860634,0.894377,-0.095504,0.434078
5657239961,-2.234394,-0.232303,-0.533720,0.896600,-0.098707,0.436943
5657260005,-2.516551,-0.482929,-0.637975,0.901763,-0.102195,0.431729
5657280050,-1.762485,-0.232647,-0.392590,0.897884,-0.105690,0.432094
5657300096,-1.328894,-0.384975,-0.258641,0.898216,-0.108634,0.429116
5657320140,-1.304615,0.215503,-0.160357,0.899555,-0.104186,0.429271
5657340185,-0.831678,0.093695,0.308467,0.897323,-0.107251,0.429371
5657360231,-0.100410,0.252810,0.599823,0.897701,-0.105970,0.430911
5657380276,0.173402,0.366573,0.574761,0.896242,-0.106133,0.430447
5657400320,0.585191,0.495548,0.838122,0.897827,-0.103227,0.432164
5657420367,1.043706,0.548623,1.428784,0.895942,-0.101099,0.432679
5657440411,1.044777,0.753923,1.611421,0.898638,-0.097214,0.433395
5657460456,0.421296,0.921635,1.517004,0.898813,-0.098046,0.432129
5657480501,-0.109435,1.636577,1.558489,0.899583,-0.095327,0.431475
5657520591,-0.804756,1.348003,0.787027,0.897317,-0.113901,0.430064
5657540636,-0.166458,1.461398,0.644897,0.890901,-0.121795,0.434634
5657560680,0.622560,0.875392,0.487035,0.886522,-0.114298,0.441004
5657580725,1.077617,0.449321,0.400148,0.889885,-0.115272,0.439398
5657600770,1.922940,0.745121,0.629554,0.891156,-0.110407,0.434087
5657620814,1.915779,1.003548,0.621746,0.891832,-0.101014,0.435835
5657640859,1.954090,0.433621,0.972433,0.892755,-0.099738,0.437743
5657660904,2.002067,0.980990,1.329608,0.895810,-0.102698,0.438154
5657680949,2.072276,1.148320,1.717444,0.890482,-0.105720,0.437867
5657700994,1.363279,0.502783,1.517796,0.901943,-0.100309,0.440728
5657721039,1.174627,1.437798,1.442176,0.904247,-0.099934,0.434369
5657741084,1.411838,2.007702,1.569329,0.888915,-0.105373,0.444681
5657761129,1.356714,0.753680,1.669976,0.883685,-0.101371,0.445156
5657781174,0.769787,0.168881,1.553136,0.886320,-0.095860,0.443764
5657801220,0.539135,-0.097191,1.006638,0.890335,-0.102221,0.442298
5657821265,0.158663,0.351443,0.704399,0.886627,-0.100630,0.440346
5657861355,-0.771434,0.526721,-0.050465,0.891973,-0.108525,0.443728
5657881400,-1.008936,0.450721,-0.490433,0.888422,-0.108197,0.443972
5657901445,-1.444208,0.078516,-0.814331,0.887736,-0.111465,0.444450
5657921490,-1.383821,0.048016,-0.913803,0.883717,-0.111572,0.446606
5657941535,-1.355581,-1.016133,-0.973959,0.885572,-0.110545,0.441148
5657961578,-1.720705,-0.871458,-1.093189,0.894738,-0.107227,0.439913
5657981623,-1.620353,-0.483813,-0.881013,0.896070,-0.110275,0.437217
5658001668,-1.383213,-0.096294,-0.685122,0.891811,-0.114575,0.438951
5658021713,-1.110308,-0.066228,-0.908173,0.889621,-0.114537,0.439663
5658041758,-0.699624,-0.081765,-0.865598,0.889869,-0.116176,0.440407
5658061803,-0.448753,-0.264361,-0.783547,0.889808,-0.114456,0.438571
5658081847,0.151351,-0.553704,-0.780256,0.895589,-0.111716,0.438682
5658101893,0.609227,-0.500704,-0.357193,0.897277,-0.108557,0.437849
5658121938,1.030073,0.091978,0.065645,0.897000,-0.103103,0.434980
5658141982,1.266596,0.076675,0.292395,0.892891,-0.109216,0.438460
5658162027,1.776462,0.380253,0.272962,0.895817,-0.109093,0.436295
5658182074,1.944798,0.319443,0.584079,0.893805,-0.102101,0.440866
5658202119,1.998679,0.539847,0.652022,0.895367,-0.101777,0.438507
5658222164,2.394358,0.714323,0.656442,0.895103,-0.101325,0.437409
5658242209,2.265177,0.668848,0.695567,0.893178,-0.102024,0.437674
5658262253,2.204567,0.592935,0.787523,0.895962,-0.098225,0.439211
5658282298,2.045564,0.950306,0.788404,0.892602,-0.097355,0.439088
5658302343,1.879004,1.125311,0.888554,0.895677,-0.099513,0.437034
5658322388,1.308568,1.277757,0.755654,0.891621,-0.095223,0.441886
5658342432,1.117332,0.905431,0.627961,0.900969,-0.098854,0.438251
5658362477,1.333204,2.584990,0.609481,0.899307,-0.102170,0.430163
5658382522,0.710401,2.646394,0.743709,0.895166,-0.097046,0.436737
5658402567,-0.727043,2.449998,0.701588,0.906266,-0.100279,0.428742
5658422612,0.247362,3.725946,0.418652,0.906017,-0.102663,0.438866
5658442656,1.106074,3.694761,0.328296,0.900906,-0.103134,0.438832
5658462702,2.119419,3.549761,0.968219,0.894067,-0.102362,0.443146
5658482747,2.278845,2.675705,1.325883,0.899854,-0.095139,0.432841
5658502791,3.040175,2.340814,1.762224,0.903728,-0.098106,0.433986
5658522836,7.810300,1.697851,0.911101,0.909380,-0.100245,0.452345
5658542881,10.892561,3.163079,3.026824,0.896074,-0.094437,0.421336
5658562928,7.103138,2.482952,4.496380,0.903256,-0.076846,0.448101
5658582972,6.281718,0.827030,5.205127,0.899491,-0.069020,0.463304
5658603017,8.285866,-0.990328,7.286510,0.919925,-0.104229,0.415126
5658623063,10.087751,3.036518,7.360307,0.933539,-0.120390,0.389776
5658643108,7.862055,9.674440,8.673824,0.928464,-0.108439,0.405482
5658663166,4.263409,13.181312,8.324804,0.919417,-0.104005,0.432328
5658683197,2.865499,13.424908,6.476428,0.916644,-0.089438,0.423994
5658703242,-1.573581,16.612854,5.197102,0.909500,-0.110299,0.398986
5658723286,-1.477822,21.120445,6.220576,0.877749,-0.131960,0.426337
5658743330,3.716398,22.180910,8.107178,0.873111,-0.152725,0.444683
5658763375,9.236328,24.252523,11.186398,0.873112,-0.190356,0.447543
5658803465,27.881414,28.740826,21.811470,0.875524,-0.257765,0.447480
5658823510,38.906677,30.040289,25.504383,0.873396,-0.259165,0.451118
5658843555,46.808449,31.714952,29.342785,0.880279,-0.262089,0.451829
5658863600,59.262207,35.111320,33.807442,0.864679,-0.265746,0.468498
5658883645,73.187462,37.610226,39.792953,0.841578,-0.249163,0.469649
5658903690,83.508316,40.734383,43.306702,0.811804,-0.235703,0.491626
5658923735,88.817795,36.298981,44.153915,0.846211,-0.206673,0.492639
5658943781,89.681351,33.491108,38.687626,0.916745,-0.144798,0.458775
5658963826,92.685532,47.028358,28.504223,0.863509,-0.142635,0.470933
5658983871,100.201080,54.515007,25.971197,0.771714,-0.136806,0.556889
5659003916,106.298370,50.388340,21.928741,0.683709,-0.012929,0.611216
5659023961,107.023674,44.138050,17.739029,0.666713,0.144163,0.640477
5659044006,79.213837,30.212532,12.731647,0.734808,0.330733,0.698886
5659064051,49.529579,25.361416,2.298214,0.744935,0.370064,0.699910
5659084096,24.756615,22.452301,-7.100533,0.666022,0.372422,0.761225
5659104139,-5.364082,-4.079807,-9.960392,0.692232,0.410822,0.830293
5659144229,-61.928379,-20.912924,-11.781042,0.788636,0.329071,0.731614
5659184319,-91.287445,-30.810802,-38.203003,0.740055,0.085122,0.558194
5659204363,-107.484726,-30.901402,-51.006981,0.753177,0.029378,0.567035
5659224408,-120.357384,-34.108421,-57.754101,0.771384,0.015092,0.595783
5659244454,-132.243729,-40.452251,-57.557934,0.885474,0.112722,0.553748
5659264498,-151.409180,-34.158745,-60.266174,0.966597,0.163727,0.438475
5659284543,-176.455078,-23.341841,-72.045097,0.941957,0.074513,0.392963
5659304588,-197.455902,-15.218445,-82.427864,0.866322,-0.009543,0.412588
5659324635,-214.466064,-10.152515,-89.570091,0.851606,-0.020403,0.405833
5659344680,-230.103943,-8.747362,-87.973564,0.860996,-0.037296,0.358788
5659364724,-244.228302,-7.946476,-91.926582,0.914569,-0.094617,0.309396
5659384769,-253.713806,-2.128284,-101.968842,0.981706,-0.116904,0.278933
5659404814,-261.850586,5.019837,-109.859093,1.002543,-0.158966,0.216885
5659424859,-264.969025,15.418783,-113.181824,0.985981,-0.207607,0.163541
5659444905,-267.393127,22.099682,-118.068115,1.026161,-0.206830,0.114937
5659464950,-264.938263,22.534613,-126.467484,1.037438,-0.090534,0.071086
5659484993,-270.025635,26.135027,-124.489220,1.093985,0.010578,0.025780
5659505038,-288.007599,22.568129,-113.187164,1.244730,-0.020204,-0.022667
5659525082,-287.037170,20.942568,-109.140129,1.389549,-0.188242,-0.140492
5659545128,-279.094788,31.293827,-112.753326,1.358473,-0.488940,-0.283726
5659565172,-278.834229,70.085716,-116.829697,1.088759,-0.867621,-0.284391
5659585218,-257.224365,104.104454,-130.382416,0.855474,-1.024060,-0.000107
5659605262,-206.430099,75.262390,-128.504822,0.801777,-0.662122,0.416410
5659625307,-188.314407,27.979532,-108.311493,0.822980,-0.348921,0.228067
5659645352,-175.938095,27.673264,-106.440567,0.975427,-0.241352,0.064777
5659665397,-183.643723,52.223984,-103.288826,1.011223,-0.307402,0.119755
5659685442,-172.200058,49.695393,-109.666885,0.947120,-0.413126,0.254814
5659705487,-156.523453,31.635365,-115.064728,0.969826,-0.385012,0.206130
5659725533,-151.633514,37.642159,-117.583832,0.982275,-0.367296,0.098005
5659745578,-154.063873,48.942547,-126.321701,0.922204,-0.231376,0.248671
5659765623,-161.442245,33.966248,-130.090576,0.926922,-0.127932,0.316954
5659785668,-169.479111,21.776621,-124.440849,1.049529,-0.094225,0.177636
5659805713,-180.799683,32.616837,-125.659409,1.034657,-0.072177,0.195099
5659825758,-184.051620,33.023540,-123.318893,0.992143,-0.100008,0.254470
5659845803,-186.900085,22.805578,-117.748901,0.994823,-0.105342,0.190985
5659865847,-195.109619,24.539623,-114.213646,1.020941,-0.069718,0.191519
5659885892,-199.484604,27.053389,-110.320007,1.006190,-0.052170,0.179795
5659905937,-201.682663,26.661835,-106.364120,1.036673,-0.055728,0.179591
5659925982,-203.783936,28.389191,-105.961105,1.045727,-0.071879,0.183615
5659946026,-202.993774,30.197021,-106.959259,1.030541,-0.072174,0.199530
5659966071,-201.991470,31.327364,-109.832489,0.972980,-0.047435,0.210832
5659986116,-202.912628,26.516916,-109.843727,0.987375,-0.040321,0.215886
5660006161,-201.545761,22.799606,-108.487022,1.022428,-0.047274,0.196989
5660026206,-199.631744,26.598154,-108.810020,1.026955,-0.019207,0.217185
5660046251,-202.606689,25.917442,-107.087692,1.008556,0.013358,0.244459
5660066296,-205.323685,21.139650,-105.531075,1.011612,0.011973,0.223279
5660086341,-206.923691,22.410570,-105.040047,1.007643,-0.016295,0.226761
5660106387,-210.710037,20.103704,-103.980362,1.022206,-0.046777,0.239774
5660126432,-210.553528,21.525120,-103.495331,1.045701,-0.049355,0.234596
5660146477,-208.475998,24.753159,-104.519928,1.029388,-0.063564,0.227856
5660166522,-205.708801,26.088177,-105.220436,0.979059,-0.118197,0.246058
5660186573,-200.202499,22.253725,-102.882118,0.974113,-0.125952,0.247724
5660206612,-194.764099,21.467508,-99.883369,0.986604,-0.110310,0.230479
5660226657,-188.669861,23.325439,-97.615891,0.972419,-0.108354,0.257126
5660246728,-183.070984,23.215500,-94.725677,0.979802,-0.088452,0.288609
5660266745,-178.700958,22.726103,-92.907478,0.985402,-0.081758,0.305528
5660286790,-175.162689,24.212814,-92.836967,0.979457,-0.065370,0.327838
5660306835,-174.715164,20.914318,-91.526939,0.977134,-0.051432,0.346643
5660326880,-175.314972,20.169323,-92.953865,0.970423,-0.049427,0.345212
5660346925,-173.292786,20.752686,-93.274651,0.963582,-0.035065,0.325378
5660366970,-175.932587,18.681129,-90.715569,0.950947,0.022883,0.344746
5660387015,-179.316666,14.959517,-91.150818,0.938389,0.004358,0.341529
5660407060,-178.898010,14.715143,-92.898392,0.955411,-0.031621,0.330843
5660427105,-177.868149,14.599783,-93.919418,0.973690,-0.051800,0.339064
5660447150,-178.084488,14.819933,-94.931183,0.969170,-0.050781,0.332012
5660467195,-177.119812,15.084963,-95.289276,0.936086,-0.040972,0.346530
5660487241,-175.260590,13.351262,-93.374466,0.914863,-0.048093,0.339059
5660527331,-175.941559,8.101291,-90.004608,0.968613,-0.072436,0.324175
5660547376,-173.877167,9.195152,-87.469345,0.975123,-0.086965,0.332992
5660567421,-172.652374,8.069521,-86.738693,0.951283,-0.084053,0.333249
5660587466,-173.293610,5.052943,-85.976723,0.944288,-0.083246,0.329549
5660607511,-172.918396,3.145573,-84.362709,0.962969,-0.085409,0.321328
5660627555,-171.968140,4.079427,-84.827972,0.978017,-0.081543,0.307294
5660647599,-171.465500,5.834476,-85.442947,0.988083,-0.092035,0.276772
5660667644,-171.430511,9.885282,-86.186028,0.979491,-0.084711,0.288484
5660687689,-167.491348,11.880542,-86.896149,0.984281,-0.123354,0.299946
5660707734,-162.471893,12.932669,-86.973709,0.969847,-0.161364,0.283584
5660727779,-160.206100,14.563629,-89.704742,0.918489,-0.137558,0.317245
5660747824,-157.373932,8.001865,-89.522179,0.914634,-0.133502,0.315454
5660767869,-154.554626,3.523434,-87.718781,0.959905,-0.158744,0.297420
5660787914,-148.914307,6.771747,-87.528931,0.968341,-0.185248,0.305712
5660807958,-143.067352,8.279858,-86.150574,0.946125,-0.159032,0.329733
5660828004,-141.553085,4.547571,-84.017906,0.963372,-0.146208,0.323471
5660848049,-141.002960,4.479925,-81.279480,0.975343,-0.144206,0.322450
5660868095,-136.125534,5.328187,-78.628410,0.976945,-0.093657,0.331695
5660888140,-134.853119,7.015304,-76.719955,0.964535,-0.076735,0.326366
5660908185,-134.373276,2.745224,-72.453346,0.955123,-0.078605,0.325584
5660928229,-134.222137,-0.452416,-67.172005,0.942982,-0.070770,0.337540
5660948274,-135.743332,-5.032509,-63.156414,0.970459,-0.061522,0.336936
5660968319,-137.609207,-6.875146,-57.129528,0.975595,-0.100739,0.295325
5660988365,-130.746689,1.384170,-49.845917,0.944259,-0.145436,0.290003
5661008409,-122.108124,4.965478,-47.096764,0.947863,-0.157873,0.304608
5661028453,-117.137733,3.771519,-39.027882,0.969201,-0.179349,0.291375
5661048497,-112.481071,4.508650,-30.417509,0.958011,-0.216546,0.318277
5661068543,-103.144989,-0.714177,-31.939251,0.988537,-0.250579,0.339721
5661088588,-95.181061,5.589314,-27.968573,0.974395,-0.319319,0.323069
5661108632,-79.485313,12.930775,-16.576990,0.921765,-0.345725,0.331825
5661128677,-60.084801,13.250872,-11.210396,0.934308,-0.249674,0.314826
5661148722,-50.511158,18.647539,-9.346233,0.908980,-0.240569,0.323762
5661168768,-41.871284,15.592327,-9.059147,0.886828,-0.296965,0.358207
5661188813,-34.550735,9.461060,-6.366891,0.866777,-0.281137,0.399811
5661228902,-9.049107,2.048087,3.668345,0.880210,-0.248978,0.361678
5661248949,-0.387498,2.012254,8.211039,0.877678,-0.272346,0.365039
5661268993,9.534081,1.215180,12.569571,0.852957,-0.277611,0.404961
5661289039,21.370724,-4.897185,15.265274,0.862172,-0.261175,0.389870
5661309083,29.276871,-5.861580,15.533155,0.904387,-0.223320,0.354359
5661329128,31.399391,-2.381987,16.214474,0.909914,-0.196768,0.368838
5661349173,36.616474,-5.571208,16.162252,0.900052,-0.199468,0.390912
5661369218,38.929756,-8.219234,13.975806,0.918732,-0.196755,0.376277
5661389263,40.256607,-6.366641,12.135490,0.930290,-0.168662,0.364385
5661409307,42.507889,-4.186655,13.312241,0.919066,-0.155883,0.368477
5661429352,43.997089,-4.460719,15.190419,0.911879,-0.160653,0.399692
5661449396,38.606892,-6.067044,16.002712,0.928895,-0.164995,0.389382
5661469441,37.422012,-5.078906,13.839649,0.932439,-0.120358,0.391862
5661489486,35.188194,-2.721105,13.077482,0.920834,-0.118037,0.411241
5661509531,33.100529,-2.757832,11.912687,0.900996,-0.153924,0.412576
5661529576,34.021683,-2.675793,10.199047,0.894144,-0.164563,0.427272
5661549621,36.170124,-4.586283,8.295044,0.916174,-0.160533,0.425123
5661569666,35.876316,-2.132114,5.834267,0.913356,-0.147016,0.397587
5661589711,34.450905,3.926925,5.953742,0.889300,-0.139145,0.402354
5661609757,30.055645,4.911796,7.251147,0.883832,-0.124982,0.408115
5661629803,32.549648,3.663433,7.926471,0.884906,-0.092670,0.415595
5661649848,29.720301,3.072118,5.922256,0.898056,-0.085702,0.410535
5661669892,24.328125,1.662236,4.128922,0.904011,-0.077979,0.406691
5661689937,23.985516,1.480996,6.082004,0.929353,-0.075954,0.386283
5661709982,21.853102,3.923504,7.947290,0.955500,-0.070447,0.357567
5661730027,17.574209,9.186817,7.807518,0.948349,-0.068002,0.353034
5661750072,14.458934,11.036298,7.410649,0.920856,-0.073916,0.373276
5661770117,13.813334,7.045628,5.499561,0.933350,-0.094588,0.364615
5661790161,12.561481,7.394773,2.027267,0.969732,-0.095468,0.356148
5661810205,10.957078,10.534543,0.467231,0.985592,-0.105772,0.338322
5661830251,9.879233,16.114286,0.249289,0.976311,-0.100791,0.327197
5661850295,6.612638,20.182907,-1.017004,0.978861,-0.055566,0.358343
5661870340,-0.519813,21.837938,-2.083772,0.966060,-0.036721,0.340978
5661890385,-6.294373,27.596729,-1.915432,0.937030,-0.061429,0.330955
5661910430,-6.678871,32.955673,-1.635673,0.899561,-0.078537,0.370973
5661930475,-6.716699,34.392849,-0.280685,0.867683,-0.081181,0.380504
5661950520,-9.014068,32.792171,2.130587,0.886572,-0.082277,0.368997
5661970565,-13.019776,36.049938,4.809387,0.934310,-0.108868,0.371113
5661990610,-9.413207,46.035023,6.760670,0.939264,-0.129457,0.383246
5662010657,-5.871741,53.625053,6.741578,0.886800,-0.129173,0.401980
5662030702,-4.131873,57.645111,8.499499,0.823518,-0.127352,0.446843
5662050747,-1.043507,56.761150,9.352760,0.862140,-0.131992,0.490045
5662070791,2.673357,65.567841,10.885304,0.860357,-0.134765,0.493697
5662090836,7.956430,74.547958,12.344732,0.759990,-0.118500,0.542722
5662110881,9.727733,68.314285,13.296950,0.720139,-0.086942,0.575402
5662130926,8.881240,65.525864,13.953631,0.746924,-0.101292,0.600389
5662150971,14.149151,67.520660,14.779841,0.713654,-0.120832,0.627894
5662171015,18.176825,63.649055,16.162006,0.646642,-0.083414,0.658324
5662191060,15.183019,53.786461,17.337029,0.676217,-0.096714,0.670485
5662211104,14.773526,49.484978,17.679441,0.745925,-0.155277,0.671569
5662231150,22.653936,52.150810,11.453297,0.702637,-0.154550,0.644753
5662251194,21.094692,56.399048,7.248319,0.579963,-0.063211,0.678883
5662271239,17.244625,53.212208,11.958485,0.506464,-0.123584,0.762788
5662291284,26.207201,41.847752,9.135071,0.553074,-0.197830,0.791145
5662311329,28.704201,52.020218,3.133564,0.547972,-0.170678,0.740901
5662331374,26.651001,54.551521,-0.189901,0.501821,-0.080032,0.812287
5662351419,19.135050,51.419083,0.152563,0.468379,-0.030886,0.857250
5662371464,7.770481,41.730881,1.216380,0.530095,-0.050208,0.909847
5662391510,10.564592,41.265392,2.460035,0.544676,-0.099123,0.920463
5662411555,11.658359,38.443275,-0.448254,0.507134,-0.115542,0.929702
5662431600,9.718598,29.984385,-2.657545,0.520726,-0.088676,0.903723
5662451645,10.737131,28.577648,-2.046942,0.570653,-0.075464,0.855179
5662471690,11.474876,33.935272,-2.545235,0.509643,-0.088263,0.837358
5662491735,9.043744,34.369827,-4.286831,0.425561,-0.099025,0.889183
5662511780,11.349203,26.546831,-4.053327,0.424454,-0.097823,0.926858
5662531825,14.191471,24.462996,-1.368654,0.446197,-0.066302,0.880779
5662551868,14.233784,27.967531,0.075185,0.439135,-0.038020,0.906533
5662571913,12.498919,27.535713,-0.093945,0.416582,-0.037837,0.947883
5662591958,12.828094,22.831882,2.749603,0.425230,-0.059607,0.968337
5662612003,13.472264,23.538696,3.863886,0.419817,-0.044160,0.962617
5662632048,11.669012,22.377430,4.054030,0.410371,-0.022757,0.990413
5662652093,11.395616,18.174522,4.151520,0.399524,-0.028592,0.993113
5662672138,11.328479,15.407781,3.819445,0.388539,-0.020916,0.985504
5662692183,9.346876,10.977766,2.665609,0.394710,-0.015417,0.989600
5662712228,8.222709,8.234702,2.257815,0.395029,-0.020119,0.983086
5662732273,6.345444,7.369204,0.840787,0.372141,-0.013453,0.987507
5662752318,4.289903,2.825514,0.289471,0.371644,-0.003036,0.989876
5662792409,5.100974,1.411103,0.330299,0.370766,0.000102,0.993303
5662812454,2.564167,-3.330018,-0.727566,0.371258,0.010983,0.973734
5662832499,-0.908559,-7.173735,-2.419041,0.379144,-0.020591,0.960668
5662852544,-0.238567,-7.280587,-2.119346,0.384705,-0.018513,0.969614
5662872589,-0.843320,-9.308601,-0.238691,0.386644,-0.003106,0.973507
5662892634,-1.002542,-11.619425,-1.012351,0.390692,-0.023225,0.985812
5662912679,-1.298505,-13.876025,0.210979,0.388971,-0.016371,0.984559
5662932722,-4.515735,-17.057400,1.404253,0.396839,-0.024237,0.997245
5662952767,-5.217436,-19.959898,2.204680,0.395705,-0.032673,1.000675
5662972812,-5.383611,-22.870964,1.888738,0.401849,-0.013524,0.988909
5662992857,-9.508063,-25.489523,2.159003,0.405616,-0.013817,1.006419
5663012902,-8.949926,-29.464836,2.889839,0.416433,-0.046317,0.985007
5663032947,-10.134733,-31.485916,2.184714,0.406221,-0.048291,1.005889
5663052992,-10.849805,-37.284325,2.858470,0.412370,-0.017428,0.987652
5663073037,-13.285370,-44.274570,3.508453,0.414304,-0.062456,0.980299
5663093082,-11.345400,-50.555614,0.863587,0.428295,-0.092518,0.974640
5663113126,-9.862830,-54.614784,2.813960,0.466471,-0.041676,0.949007
5663133172,-8.600007,-55.451683,3.414533,0.474928,-0.066769,0.900840
5663153216,-8.635485,-56.714600,0.696267,0.442957,-0.081510,0.914021
5663173263,-9.659551,-66.252037,1.878735,0.480671,-0.042183,0.896127
5663193308,-12.097932,-69.768951,2.121686,0.524710,-0.031295,0.854387
5663213353,-14.318301,-70.177422,2.222897,0.518448,-0.051441,0.841671
5663233398,-13.751226,-72.685966,2.601836,0.519900,-0.074454,0.826849
5663253442,-15.268920,-77.928566,3.867829,0.529264,-0.083046,0.767900
5663273487,-18.081186,-84.593117,1.274998,0.596062,-0.085113,0.734081
5663293533,-17.099056,-84.724792,-2.290152,0.643166,-0.062467,0.698367
5663313576,-16.831032,-81.418312,-1.373519,0.622192,-0.061765,0.676448
5663333621,-21.797232,-86.636559,-3.280792,0.638852,-0.066028,0.663677
5663353666,-22.838047,-90.801643,-5.074410,0.693690,-0.084112,0.621618
5663373711,-21.996572,-88.675827,-8.724418,0.718840,-0.095603,0.572641
5663393756,-20.991978,-84.830551,-8.301513,0.705836,-0.103385,0.528818
5663413800,-22.877684,-86.539635,-9.534840,0.715451,-0.132741,0.498449
5663433846,-21.190571,-87.561249,-13.218828,0.776446,-0.151297,0.467000
5663453890,-16.387386,-83.422318,-11.674961,0.798011,-0.164334,0.448783
5663473935,-11.728792,-82.066345,-12.824233,0.799458,-0.144552,0.426506
5663493980,-8.383225,-81.021408,-15.227781,0.818424,-0.071679,0.407106
5663514025,-12.409259,-81.351891,-14.168131,0.821568,-0.037410,0.374707
5663534070,-16.301491,-82.289871,-11.623363,0.833467,-0.075456,0.332499
5663554117,-15.297003,-80.367165,-10.307299,0.853930,-0.121115,0.314089
5663574162,-11.776283,-79.512337,-12.544406,0.877310,-0.104046,0.289992
5663614251,-16.977682,-74.642784,-11.175929,0.923798,-0.066467,0.200342
5663634296,-16.786802,-69.610474,-9.384233,0.947031,-0.097392,0.207869
5663654341,-12.737924,-62.887424,-9.505432,0.952522,-0.104758,0.196589
5663674386,-8.106819,-59.114574,-11.045312,0.942462,-0.084015,0.157468
5663694431,-8.921179,-54.841503,-9.328991,0.953127,-0.066946,0.119713
5663714475,-13.584933,-45.678299,-8.585777,0.936446,-0.080954,0.114790
5663734520,-13.561825,-37.591984,-10.383899,0.924213,-0.091599,0.130175
5663754565,-9.408438,-33.316135,-9.840796,0.944134,-0.086375,0.137288
5663774610,-9.330816,-26.801826,-8.552440,1.111153,-0.103443,0.190362
5663794654,0.799151,-31.356245,-9.555234,1.223760,-0.132342,0.134156
5663814700,0.764914,-6.575252,-20.426853,0.956949,-0.011117,0.057187
5663834744,3.985018,-5.308501,-19.949932,0.712195,0.062582,0.109600
5663854789,-10.273516,-48.760075,-9.994783,0.739679,0.020929,0.079827
5663874834,-17.646553,-77.344757,-3.854682,1.051525,-0.007209,-0.000240
5663894879,-17.125299,-53.551159,-12.131788,1.248666,-0.000833,-0.083798
5663914924,-23.058809,-17.269848,-16.417316,1.170545,-0.016695,-0.094161
5663934970,-27.490025,-8.797833,-14.174427,1.001544,-0.086298,0.028089
5663955015,-16.587788,-23.407747,-13.200498,0.959154,-0.098481,0.033069
5663975060,-9.090537,-29.212191,-10.182318,1.012176,-0.052576,-0.039029
5663995105,-10.502641,-27.508545,-10.470216,1.061973,-0.013911,-0.047816
5664035195,-7.182884,-21.604559,-8.010068,1.064728,-0.075012,-0.069962
5664055240,-2.584185,-16.766251,-6.594806,1.051808,-0.080209,-0.071561
5664075285,3.050149,-14.573109,-3.478486,1.031600,-0.072729,-0.074866
5664095329,5.787133,-15.722030,-0.938637,1.028582,-0.064134,-0.090163
5664115374,7.332832,-16.232225,-0.081520,1.033027,-0.048872,-0.101000
5664135419,9.156971,-15.252686,1.305334,1.050600,-0.040296,-0.114053
5664155464,10.367854,-14.211519,3.336769,1.063121,-0.047612,-0.128923
5664175509,11.931130,-10.297899,4.692377,1.066586,-0.062409,-0.138245
5664195554,13.864299,-6.506496,5.412945,1.056027,-0.053353,-0.130749
5664215599,12.592535,-6.786812,4.996336,1.045962,-0.029936,-0.128193
5664235643,10.504410,-5.500456,5.072077,1.056982,-0.041437,-0.119824
5664255688,11.062922,-2.415307,4.516360,1.058539,-0.045222,-0.110586
5664275733,10.884824,1.096127,3.981125,1.043831,-0.040135,-0.105910
5664295778,9.207170,2.283331,4.084285,1.029109,-0.055573,-0.102794
5664315823,10.881569,3.642327,3.902560,1.029771,-0.060701,-0.104568
5664335870,11.437249,5.442904,3.218569,1.019643,-0.040811,-0.098160
5664355914,9.054572,5.475001,2.414030,1.011403,-0.035252,-0.090436
5664375960,7.645931,6.532234,1.349651,1.008540,-0.040866,-0.103521
5664396005,6.933639,8.379700,1.086726,1.021054,-0.028243,-0.084506
5664416049,5.187699,9.498588,1.259039,1.030997,-0.030111,-0.095252
5664436094,2.656117,12.358034,-0.072693,1.042272,-0.020945,-0.102893
5664456139,-1.246125,15.409286,-0.068514,1.047412,-0.047928,-0.091980
5664476183,3.352626,18.203455,2.339058,1.053194,-0.028096,-0.073347
5664496228,1.887944,19.345791,4.482331,1.058062,-0.004027,-0.063222
5664516273,0.747713,21.909479,7.292183,1.034849,-0.033193,-0.059873
5664536318,6.818825,19.580311,11.475990,1.029242,-0.020609,-0.045997
5664556363,8.320465,18.676088,14.924040,1.040178,-0.011687,-0.062652
5664576408,11.222971,22.787163,18.478497,1.061557,-0.022520,-0.041648
5664596453,16.366547,25.528265,22.230381,1.068015,-0.020704,-0.029325
5664616498,21.016487,29.912155,27.332935,1.071462,0.001250,-0.012091
5664636542,23.692976,34.495705,33.197021,1.047498,-0.016951,0.018293
5664656587,29.735432,34.257408,38.834164,1.044842,-0.022484,0.054190
5664676633,35.644451,37.887550,43.516392,1.008079,-0.018662,0.052798
5664696677,37.380867,37.949001,48.256836,0.987529,0.007492,0.096679
5664716724,36.330353,35.633835,53.005661,0.978215,0.004406,0.116849
5664736769,41.551510,36.627270,58.000385,0.948598,-0.010524,0.134054
5664756813,41.974785,33.800663,60.696690,0.930994,-0.046437,0.148880
5664776859,41.008572,31.764874,61.498322,0.908044,-0.070116,0.180045
5664796903,41.522446,29.218384,61.900566,0.888995,-0.078345,0.200186
5664816949,40.908585,24.331152,60.767143,0.883566,-0.076916,0.222531
5664836993,34.937599,20.899405,57.685051,0.891545,-0.104258,0.227459
5664857037,29.645498,20.424265,55.768169,0.879852,-0.135639,0.238284
5664877082,29.845449,18.668081,55.212162,0.898370,-0.171587,0.272494
5664897127,27.778452,18.092451,55.738979,0.900041,-0.219813,0.276091
5664917172,28.746822,19.595659,53.764614,0.883098,-0.260192,0.292415
5664937217,29.494530,18.059420,53.196579,0.857880,-0.302559,0.294129
5664957262,30.815538,15.504774,53.927837,0.865327,-0.320530,0.307897
5664977307,30.804907,15.770391,53.005859,0.840816,-0.344021,0.286698
5664997352,29.337017,15.248158,55.105019,0.798142,-0.373151,0.304927
5665017397,29.082708,9.685467,56.872059,0.760273,-0.423726,0.292777
5665037441,29.107588,4.546930,55.886345,0.784313,-0.445638,0.287762
5665057486,27.609232,2.450813,56.730209,0.823806,-0.442168,0.294577
5665077531,24.818838,2.627980,56.599075,0.839367,-0.449580,0.297847
5665097578,23.156061,7.303098,54.946606,0.810950,-0.482670,0.314938
5665117622,23.329094,8.297308,51.996059,0.776251,-0.531808,0.343860
5665137668,23.065758,4.845192,48.390274,0.793658,-0.491456,0.324808
5665157712,17.682581,7.083913,47.210503,0.787908,-0.473524,0.321705
5665177757,13.456519,8.136360,46.990501,0.757282,-0.522306,0.332718
5665197802,13.593122,8.098218,46.943783,0.759658,-0.572466,0.335061
5665217847,13.852705,9.069901,44.769661,0.800580,-0.567467,0.329583
5665237891,13.205556,14.777243,41.798088,0.774436,-0.558007,0.310286
5665257936,10.308016,16.527422,40.729237,0.726987,-0.563718,0.329925
5665277981,7.398972,13.869699,40.746429,0.736277,-0.552025,0.327165
5665298025,4.159053,17.291935,38.810135,0.728510,-0.573898,0.349777
5665318070,4.126374,17.816029,37.964260,0.714810,-0.609363,0.371456
5665338115,4.009345,15.109615,36.482147,0.708197,-0.629346,0.355458
5665358160,3.769911,16.173244,34.989792,0.730049,-0.639028,0.347868
5665378205,5.223781,19.591768,33.809814,0.722041,-0.643431,0.352671
5665398251,8.073890,21.709333,32.551796,0.679563,-0.661410,0.387834
5665418295,9.638453,21.349737,30.307983,0.649035,-0.661044,0.387790
5665438340,9.007945,19.540869,29.316528,0.650488,-0.636920,0.411000
5665458385,7.706110,17.823498,27.682585,0.640275,-0.662933,0.410867
5665478431,8.917610,16.057987,25.237108,0.632663,-0.670666,0.447566
5665498477,9.454418,14.126111,23.383574,0.613224,-0.702022,0.458335
5665518521,10.357079,11.927160,19.904787,0.609974,-0.701267,0.480247
5665538566,9.049616,9.783582,16.999031,0.628408,-0.685948,0.455946
5665558611,6.447364,10.803853,15.959076,0.630832,-0.694729,0.456947
5665578656,6.579923,12.611806,13.967977,0.595590,-0.686179,0.456892
5665598701,5.160414,10.286182,11.672714,0.587502,-0.673416,0.477759
5665618745,3.540454,8.408748,8.433896,0.591008,-0.685484,0.467778
5665638790,1.887686,8.097363,5.810933,0.597066,-0.681252,0.473068
5665658834,-0.697580,6.176097,4.651736,0.597878,-0.693088,0.451776
5665678879,0.202099,7.610943,2.639869,0.610206,-0.688058,0.466756
5665698924,-0.443490,7.002753,1.106498,0.604592,-0.693027,0.461476
5665718969,0.718532,6.142015,-0.790936,0.598674,-0.697259,0.469024
5665739014,2.975974,4.474904,-2.139869,0.591343,-0.699974,0.469175
5665759059,4.617999,3.484688,-3.705656,0.572996,-0.687334,0.477131
5665779104,3.096487,-2.259896,-3.200988,0.595340,-0.667439,0.475855
5665799149,3.054014,-2.571948,-4.221219,0.623342,-0.681248,0.465066
5665819194,3.821269,-0.064997,-5.585527,0.615376,-0.696816,0.464135
5665839239,5.788465,0.920954,-6.561448,0.601927,-0.683726,0.481227
5665859286,5.182252,0.343287,-7.752327,0.593017,-0.632874,0.472821
5665879330,2.358303,-1.189676,-7.889210,0.606947,-0.616267,0.465958
5665899375,0.735168,-1.325501,-8.806068,0.611034,-0.628869,0.471554
5665919420,0.244463,-2.846276,-11.154922,0.604097,-0.629776,0.470419
5665959510,-0.413745,-3.294569,-12.086503,0.653141,-0.644258,0.460426
5665979555,2.051970,-0.796324,-12.648668,0.634815,-0.637955,0.462061
5665999598,0.736733,-2.703445,-13.718579,0.620714,-0.601748,0.472585
5666019643,-2.908529,-6.531539,-14.806900,0.628911,-0.615376,0.470754
5666039688,-2.636927,-8.652158,-14.342262,0.652024,-0.663517,0.467496
5666059733,-0.027935,-4.277209,-16.110992,0.651984,-0.626573,0.445341
5666079778,-1.874387,-3.538385,-16.196571,0.645348,-0.571413,0.457401
5666099823,-3.945934,-6.500653,-15.720790,0.637054,-0.605074,0.449970
5666119868,-4.708280,-6.659820,-16.187130,0.660246,-0.634420,0.448925
5666139913,-3.716554,-5.749291,-17.734489,0.674313,-0.619406,0.448995
5666159957,-2.558819,-4.602583,-17.729212,0.667066,-0.581014,0.435515
5666180003,-4.108566,-7.558033,-17.988794,0.677145,-0.589819,0.436481
5666200048,-3.827606,-7.885075,-17.922075,0.695458,-0.622558,0.435246
5666220093,-1.973604,-4.793988,-19.683802,0.689495,-0.594236,0.431236
5666240139,-1.710135,-6.519512,-19.547060,0.695058,-0.574810,0.431207
5666260184,-0.136647,-6.619692,-19.574266,0.690831,-0.588087,0.439571
5666280229,1.515833,-6.697692,-20.828646,0.683796,-0.576022,0.441878
5666300274,-0.283005,-8.521355,-23.151947,0.686428,-0.565065,0.437073
5666320325,-4.265152,-10.176107,-25.900530,0.684986,-0.565811,0.456916
5666340364,-4.942408,-14.037714,-28.200029,0.687410,-0.598891,0.463671
5666360409,-5.620032,-15.726035,-31.636707,0.697975,-0.604407,0.441579
5666380478,-7.363223,-15.497712,-34.305199,0.704875,-0.598635,0.447226
5666400497,-9.241899,-16.911409,-37.824348,0.694289,-0.600983,0.440977
5666420542,-13.308559,-19.319399,-42.438053,0.693489,-0.603915,0.449827
5666440587,-16.064690,-22.177427,-48.082230,0.709885,-0.591406,0.423622
5666460632,-19.704439,-22.958555,-51.177090,0.742188,-0.567317,0.405360
5666480677,-23.750526,-22.402296,-55.801373,0.742898,-0.548258,0.382355
5666500722,-26.543749,-22.410534,-62.567848,0.750050,-0.540393,0.375514
5666520767,-28.975840,-25.382273,-66.919289,0.783512,-0.548732,0.363354
5666540812,-29.592445,-25.383633,-71.112236,0.818913,-0.534179,0.331354
5666560857,-31.776421,-20.427397,-74.002754,0.815641,-0.513618,0.306214
5666580902,-33.734238,-18.056164,-78.157196,0.817823,-0.479942,0.315603
5666600947,-36.618568,-19.689610,-82.117905,0.845200,-0.440085,0.311741
5666620993,-39.820244,-19.102726,-84.630806,0.857143,-0.408113,0.282430
5666641038,-42.656490,-17.026684,-87.726898,0.854543,-0.392517,0.252966
5666661083,-46.215294,-15.633967,-90.573029,0.873367,-0.359790,0.241271
5666701173,-51.030178,-6.958663,-93.340233,0.913250,-0.293044,0.237370
5666721218,-53.093334,-3.673523,-93.655106,0.919219,-0.247630,0.226386
5666741262,-57.491909,-0.553707,-94.249031,0.928128,-0.218917,0.219022
5666761308,-59.002697,3.141894,-93.456253,0.936878,-0.196637,0.204334
5666781351,-59.153675,7.870564,-91.448341,0.964943,-0.156505,0.214587
5666821441,-58.223320,19.735815,-88.411758,0.944364,-0.073184,0.209106
5666841486,-62.886158,16.997206,-85.722252,0.937579,-0.040255,0.197586
5666861531,-65.181046,16.886238,-83.373352,0.941281,-0.044280,0.190727
5666881576,-61.094215,19.642557,-81.609367,0.937524,-0.035062,0.209470
5666901621,-57.437523,17.397648,-80.599197,0.958158,-0.011707,0.216711
5666921666,-54.532066,18.558836,-78.847504,0.984599,0.015933,0.223231
5666941711,-51.904602,23.984627,-76.274948,0.969720,0.046167,0.250642
5666961755,-48.066360,24.887262,-73.021744,0.949512,0.054050,0.277560
5666981801,-43.222000,22.406849,-69.475937,0.941253,0.072697,0.292368
5667001847,-38.197102,21.141006,-69.010460,0.946247,0.108973,0.289010
5667021892,-35.141132,22.446262,-67.732399,0.949164,0.116157,0.292432
5667041937,-34.210083,25.289722,-64.184486,0.937197,0.125517,0.313845
5667061982,-28.653551,24.754660,-60.226974,0.910965,0.141470,0.322262
5667082027,-25.612843,25.293320,-56.601639,0.876574,0.160814,0.303824
5667102072,-21.949478,23.315163,-53.969067,0.868263,0.165126,0.328127
5667122117,-16.683105,19.655191,-52.832771,0.877353,0.159791,0.340347
5667142161,-8.830641,21.648621,-50.114182,0.870981,0.191684,0.337579
5667162205,-7.086873,22.650515,-49.877090,0.844900,0.239802,0.356657
5667182250,-6.170079,20.697292,-47.772007,0.837565,0.278021,0.369307
5667202295,-5.502298,16.837149,-44.261444,0.843431,0.302932,0.384531
5667222340,-3.813775,14.046921,-42.740467,0.861170,0.316066,0.396752
5667242385,-0.685536,14.958321,-38.270523,0.884124,0.300061,0.386946
5667262430,5.807539,16.254887,-32.828743,0.891854,0.327390,0.399978
5667282475,7.117797,17.577194,-30.790716,0.856647,0.359241,0.407288
5667302520,5.735149,16.955391,-30.215773,0.801646,0.348460,0.428644
5667322565,8.310790,10.402582,-27.524832,0.775807,0.354594,0.441697
5667342610,11.178407,3.622813,-21.925724,0.803267,0.389005,0.416121
5667362654,10.476916,5.532340,-19.385256,0.819358,0.404582,0.384882
5667382701,8.029999,9.949642,-21.191444,0.811569,0.411369,0.399518
5667402746,8.590199,10.595694,-20.137405,0.817441,0.410928,0.413676
5667422791,11.271914,11.733892,-19.229612,0.825286,0.429747,0.410119
5667442836,5.930051,16.024712,-20.525911,0.812522,0.462989,0.416761
5667462881,2.117157,15.283735,-19.200869,0.801978,0.460121,0.451942
5667482926,0.342105,12.314512,-16.731359,0.824107,0.447719,0.459490
5667502970,1.418117,14.822645,-14.883119,0.826001,0.458520,0.456774
5667523016,-2.524657,15.358346,-14.335351,0.791953,0.467784,0.456995
5667543059,-8.194266,11.822327,-12.102087,0.773052,0.428269,0.462737
5667563104,-4.838658,9.258878,-10.144634,0.771165,0.387618,0.472619
5667583149,1.272431,7.346056,-9.633544,0.773285,0.396523,0.447888
5667603194,1.334767,6.631870,-8.894372,0.781926,0.406932,0.442857
5667623239,0.558259,6.343656,-9.025275,0.780910,0.384632,0.433201
5667643284,3.490751,6.896496,-7.867446,0.795830,0.372835,0.446336
5667663329,9.532711,7.127484,-6.573169,0.811144,0.405347,0.448091
5667683374,6.781355,7.744583,-8.640070,0.796521,0.446003,0.442459
5667703419,3.137455,8.675457,-7.660725,0.784736,0.441280,0.458163
5667723464,2.536773,6.510238,-6.640839,0.774747,0.429742,0.480673
5667743509,2.088776,2.899342,-8.751877,0.777551,0.445970,0.474005
5667763553,-0.769651,1.381124,-9.962689,0.783704,0.470632,0.455637
5667783600,-1.358580,4.269758,-10.273254,0.780973,0.465040,0.458304
5667803645,-0.988530,4.649096,-11.106845,0.763825,0.473413,0.471037
5667823690,-2.568960,3.708291,-10.408193,0.749678,0.470756,0.465220
5667843735,-2.633849,4.149509,-9.691992,0.762098,0.482917,0.483146
5667863779,-0.672726,4.778491,-10.096155,0.760365,0.502656,0.485975
5667883824,-3.040151,4.864675,-8.920105,0.755889,0.495332,0.485093
5667903869,-3.906288,5.117160,-6.894853,0.745191,0.472030,0.505692
5667923913,-0.394171,3.215220,-4.085978,0.743699,0.491462,0.517083
5667943958,-2.295839,0.573176,-1.082527,0.759103,0.514298,0.504807
5667964003,-4.930276,2.795716,0.824908,0.766756,0.516356,0.515134
5667984048,-3.600472,1.290774,3.360646,0.772074,0.504095,0.507444
5668004093,-3.361530,2.089753,5.826386,0.767681,0.488618,0.501349
5668024138,-2.196855,1.481895,8.492053,0.748720,0.492687,0.520296
5668044183,-2.654835,-3.464009,12.377954,0.730287,0.494881,0.508308
5668064228,-3.811098,-8.128006,16.436543,0.776265,0.489011,0.497858
5668084273,-1.362671,-6.015744,19.501183,0.803720,0.480273,0.481105
5668104318,-1.275652,-1.370596,22.154909,0.784902,0.466582,0.490276
5668124363,-1.543538,-2.029895,25.989590,0.763802,0.440359,0.501537
5668144407,-1.662378,-5.563020,28.416458,0.757196,0.444307,0.504279
5668164454,-3.615244,-12.446853,29.992073,0.783072,0.428623,0.494400
5668184499,-1.058313,-12.607458,32.692352,0.816967,0.383430,0.467525
5668204544,6.805018,-7.246371,36.649452,0.813834,0.372939,0.460123
5668224589,8.760445,-6.069127,38.476974,0.795453,0.391002,0.474043
5668244634,11.393613,-11.368532,39.703579,0.792784,0.410693,0.455925
5668264679,11.155693,-13.427936,40.103500,0.828001,0.430057,0.445734
5668284724,10.163534,-12.810205,42.799786,0.849346,0.380875,0.421077
5668304767,12.906631,-8.593477,44.374607,0.853610,0.348007,0.423291
5668324812,15.681168,-7.167307,43.567299,0.841219,0.338439,0.435935
5668344857,17.769907,-9.297086,44.056107,0.841212,0.328047,0.448676
5668364902,18.345568,-9.470815,47.563892,0.866702,0.280797,0.447431
5668384947,23.710550,-7.999737,50.172535,0.865318,0.255307,0.424597
5668404992,26.994347,-1.237685,50.765663,0.828901,0.289659,0.422318
5668425037,26.760748,-9.931454,53.480171,0.868287,0.295901,0.446590
5668445082,28.207115,-10.540409,54.254341,0.884281,0.270850,0.407127
5668465127,31.399252,-2.749758,60.225723,0.857406,0.237469,0.425051
5668485172,34.972733,-7.889784,62.732460,0.837830,0.212954,0.423562
5668505217,38.851604,-11.945055,61.068615,0.856399,0.213241,0.375897
5668545308,44.081070,-3.119617,56.517761,0.872687,0.238319,0.410497
5668565353,49.297165,-2.409740,56.332352,0.836806,0.184175,0.387921
5668585398,46.026665,-9.253819,59.266464,0.883640,0.207594,0.382698
5668605443,40.290756,-11.604977,59.495510,0.927101,0.221674,0.364964
5668625488,38.845661,-1.588243,54.552845,0.872078,0.163734,0.382611
5668645533,31.816204,-7.352187,52.143860,0.865156,0.133243,0.387729
5668665578,23.919205,-13.131578,47.532238,0.921314,0.142280,0.367124
5668685621,22.511257,-8.183548,44.788147,0.915861,0.085934,0.367732
5668705666,23.677595,-3.322591,39.289440,0.899639,0.087334,0.401561
5668725711,17.342422,-10.576262,38.232597,0.926181,0.073551,0.391126
5668745756,12.840800,-10.215311,37.855381,0.941904,0.031147,0.359270
5668765801,12.619485,-6.005343,35.620941,0.914724,-0.028834,0.354468
5668785846,15.196749,-8.873321,34.979191,0.891281,-0.085599,0.335555
5668805891,21.656052,-8.294133,33.900646,0.878258,-0.086365,0.328729
5668825936,24.339100,-9.512383,34.292614,0.887878,-0.064850,0.323523
5668845981,22.094887,-14.062445,36.104424,0.917622,-0.094744,0.323258
5668866026,27.223190,-13.169708,36.734673,0.944417,-0.150350,0.304065
5668886071,34.426815,-8.356778,37.421486,0.954601,-0.153911,0.324290
5668906116,43.036762,-8.135813,38.261837,0.944139,-0.121160,0.293170
5668926162,46.763130,-8.062921,38.492218,0.960513,-0.138340,0.283781
5668946207,47.157623,-10.389573,37.386742,0.994381,-0.164866,0.291349
5668966252,51.477676,-5.733985,37.593006,1.011328,-0.156779,0.272377
5668986297,53.919708,0.184652,37.157295,1.004023,-0.134218,0.263216
5669006342,56.083553,2.811707,35.126991,0.963240,-0.125320,0.287062
5669026387,57.502991,1.951519,34.941700,0.940935,-0.143588,0.311541
5669046432,59.933399,-0.330590,35.382324,0.927827,-0.158260,0.297910
5669066476,63.193447,0.434817,36.606003,0.929986,-0.147349,0.298382
5669086520,65.908188,-1.292447,37.577198,0.923621,-0.146626,0.296872
5669106565,68.295609,-1.218500,37.581680,0.934395,-0.136687,0.306793
5669126610,71.691612,-0.127457,36.419483,0.937619,-0.128269,0.305108
5669146655,74.698730,1.762587,36.569862,0.949240,-0.137268,0.307634
5669166700,76.548340,2.088002,36.974380,0.960065,-0.150714,0.311284
5669186745,82.168503,2.782465,37.090614,0.974123,-0.155856,0.310155
5669206790,86.472015,6.124173,39.568501,0.988390,-0.138998,0.313306
5669226835,88.199860,9.483500,42.477505,0.974039,-0.126013,0.326842
5669246880,89.896996,10.752180,44.314537,0.959971,-0.135116,0.324811
5669266925,91.726959,11.360052,47.408195,0.969013,-0.143187,0.311652
5669286970,92.540901,14.065564,48.222172,0.962668,-0.142113,0.333538
5669307016,91.836601,14.736115,50.619083,0.954223,-0.125524,0.340714
5669327061,91.253860,17.692965,49.904636,0.923610,-0.101694,0.357683
5669347106,86.282600,15.112794,49.396675,0.918433,-0.099963,0.359452
5669367151,81.863777,14.014557,49.500156,0.918404,-0.099799,0.369374
5669387201,78.501595,13.780782,47.156868,0.915047,-0.093378,0.392877
5669407241,75.581627,14.435863,44.717926,0.928196,-0.109673,0.398207
5669427286,71.786438,16.490717,43.366169,0.925462,-0.091876,0.420346
5669447355,68.595604,19.730043,40.431675,0.905084,-0.066666,0.435102
5669467375,62.077862,20.296848,37.601391,0.893741,-0.070422,0.459268
5669487419,54.782990,19.366209,33.056755,0.882335,-0.092091,0.452353
5669507464,51.947884,23.008694,31.505680,0.856665,-0.097938,0.472881
5669527509,49.284706,21.520416,29.645788,0.838651,-0.099688,0.483507
5669547554,42.129330,18.295958,28.888538,0.844292,-0.109877,0.498109
5669567599,37.313850,17.257801,26.625715,0.864876,-0.142540,0.499439
5669587644,37.359726,20.920534,24.938259,0.854610,-0.145636,0.503760
5669607689,36.455032,23.064255,23.922316,0.839414,-0.129023,0.512980
5669627734,30.280758,20.956053,22.722248,0.811958,-0.106484,0.534444
5669647779,26.548775,18.611284,24.101519,0.804524,-0.132058,0.550261
5669667824,25.283838,17.174911,22.040398,0.802263,-0.136937,0.551650
5669687870,23.427464,18.254528,19.189127,0.779163,-0.132647,0.554906
5669707915,18.493855,15.460608,16.692703,0.772014,-0.131409,0.572506
5669727960,13.915299,13.670086,15.114424,0.780860,-0.150984,0.569181
5669748005,11.620708,13.792922,13.440639,0.794951,-0.145018,0.578704
5669768050,8.159090,14.677124,12.399782,0.792579,-0.144881,0.580051
5669788095,3.997213,13.980331,9.910695,0.786276,-0.159209,0.577574
5669808140,1.377619,12.506975,7.509555,0.776426,-0.189818,0.585584
5669828185,1.535815,10.833973,5.932937,0.772112,-0.207505,0.601632
5669848229,2.893086,9.729609,3.516192,0.754832,-0.216131,0.608405
5669868273,3.725463,6.824687,1.882241,0.752198,-0.208787,0.609873
5669888318,2.132663,3.716697,0.373733,0.753069,-0.217726,0.611137
5669908363,1.203698,1.375922,-0.873951,0.753430,-0.223822,0.613557
5669928408,0.908380,0.258357,-2.020993,0.757201,-0.221982,0.611020
5669948453,-1.681292,-1.450654,-4.437376,0.757859,-0.218929,0.618465
5669968498,-2.904180,-1.739125,-5.989478,0.769574,-0.211996,0.605565
5669988543,-5.140597,-2.733712,-7.822637,0.762977,-0.215109,0.602720
5670008588,-5.125124,-3.555291,-9.353256,0.760147,-0.211405,0.592199
5670028632,-6.656986,-5.546259,-11.366096,0.759625,-0.196528,0.593529
5670048677,-7.670219,-7.712259,-12.864701,0.775960,-0.184158,0.585625
5670068724,-8.100426,-8.297542,-13.752192,0.788295,-0.183761,0.577882
5670088769,-9.134415,-10.501275,-14.694468,0.795182,-0.187636,0.573230
5670108814,-7.632437,-10.510571,-15.574459,0.803216,-0.179149,0.578317
5670128859,-8.657820,-12.083471,-16.555489,0.815229,-0.169264,0.570858
5670148904,-8.575135,-10.624638,-17.502171,0.801398,-0.174919,0.567162
5670168949,-8.818455,-13.049429,-18.343643,0.803944,-0.172048,0.553409
5670188994,-9.048306,-14.789622,-17.974558,0.823495,-0.172553,0.536895
5670209039,-8.722778,-11.931925,-17.713116,0.807860,-0.156913,0.536651
5670229082,-8.223079,-12.684908,-17.899073,0.797115,-0.136967,0.536864
5670249127,-11.997269,-16.467258,-18.925503,0.824378,-0.138735,0.525424
5670269172,-14.065148,-16.519558,-20.875120,0.849567,-0.135150,0.531223
5670289217,-12.489822,-12.979574,-22.162800,0.845126,-0.142746,0.518052
5670309262,-13.419825,-11.922794,-23.314650,0.819867,-0.126455,0.537398
5670329307,-15.487914,-14.338425,-24.187851,0.835709,-0.113734,0.514102
5670349352,-15.253775,-15.296291,-24.135412,0.840301,-0.105245,0.512517
5670369396,-15.300874,-15.707673,-26.321114,0.854384,-0.105384,0.497326
5670389442,-18.682468,-14.047967,-26.685289,0.877598,-0.094234,0.498860
5670409487,-18.732098,-11.471418,-26.976839,0.872598,-0.132757,0.494134
5670429531,-18.740553,-10.110382,-25.858170,0.866316,-0.084051,0.509346
5670449576,-20.639858,-8.154721,-24.436073,0.846620,-0.033995,0.507150
5670469623,-26.653996,-12.899878,-24.248346,0.865303,-0.045561,0.484712
5670489668,-31.610186,-14.454206,-25.283058,0.909079,-0.060382,0.467400
5670509713,-33.963757,-10.546771,-28.285551,0.925136,-0.066104,0.465835
5670529757,-34.652626,-4.540770,-26.388992,0.875004,-0.059130,0.469144
5670549803,-35.450058,-5.725433,-25.597073,0.842296,-0.073841,0.484868
5670569847,-35.460819,-12.764322,-27.045431,0.906334,-0.075714,0.459586
5670589892,-33.531494,-7.209489,-26.181751,0.924314,-0.066395,0.436697
5670609936,-30.552952,-4.254436,-24.066641,0.877636,-0.083753,0.448426
5670629981,-26.559711,-8.072397,-21.770069,0.879151,-0.079129,0.422907
5670650026,-25.049335,-8.399867,-20.295771,0.917215,-0.065203,0.410505
5670670071,-25.077141,-6.445677,-18.552814,0.951797,-0.026409,0.400605
5670690116,-26.368288,-2.482599,-14.120433,0.929379,-0.013405,0.400152
5670710161,-29.757156,-4.592876,-14.587646,0.939534,-0.021796,0.408034
5670730206,-32.880600,-2.637069,-15.182629,0.943804,-0.054960,0.407064
5670750251,-29.652514,1.455667,-17.953835,0.927127,-0.037354,0.399332
5670770296,-28.988569,4.777977,-14.899510,0.882670,0.012002,0.412711
5670790340,-37.872993,-2.358881,-14.626570,0.885480,-0.029847,0.430649
5670810386,-38.879585,-5.983119,-13.685992,0.943665,-0.086375,0.424439
5670830431,-28.939203,3.523634,-15.310091,0.931731,-0.091267,0.429218
5670850477,-25.367161,8.673458,-16.111795,0.884555,-0.050805,0.455124
5670870522,-29.109859,3.805444,-14.341525,0.873807,-0.024563,0.456104
5670890567,-32.010662,1.239878,-12.206591,0.910807,-0.025715,0.424154
5670910612,-33.852360,5.642004,-12.798478,0.921364,-0.008771,0.419083
5670930657,-35.723511,8.089512,-16.191824,0.899087,-0.006855,0.410984
5670950702,-42.066151,5.495885,-15.455095,0.925959,-0.080607,0.428905
5670970747,-39.045952,4.780090,-12.620715,0.928518,-0.171576,0.448794
5670990791,-24.130493,7.884483,-10.429663,0.900706,-0.155715,0.466487
5671010835,-18.144859,6.344572,-9.102807,0.868673,-0.105228,0.447992
5671030880,-20.565306,3.389403,-10.407038,0.873924,-0.038425,0.443199
5671050925,-21.525890,1.460660,-8.180925,0.892702,-0.029162,0.426872
5671070970,-23.462358,1.858648,-5.789546,0.916320,-0.063509,0.440985
5671091015,-23.068209,3.697138,-6.982761,0.939657,-0.102164,0.438834
5671111060,-17.752405,11.900599,-8.532078,0.903085,-0.120879,0.447735
5671131105,-15.381131,12.779948,-9.160555,0.846658,-0.098110,0.466254
5671151150,-15.455021,7.482825,-8.057945,0.840125,-0.074129,0.478482
5671171195,-14.827464,4.481145,-5.538262,0.853992,-0.097639,0.483511
5671191240,-8.857186,3.959503,-4.737914,0.867649,-0.103537,0.490397
5671211285,-5.731985,5.279994,-3.254701,0.877016,-0.095392,0.476286
5671231331,-4.755539,4.283165,-3.908801,0.860970,-0.117926,0.491195
5671251376,0.135511,3.610516,-2.940050,0.856164,-0.126339,0.502792
5671271421,4.595221,2.444541,-1.205696,0.860877,-0.118203,0.490560
5671291466,10.038013,0.624473,1.451171,0.871425,-0.090830,0.477847
5671311511,11.126910,0.236182,2.083126,0.875828,-0.062707,0.480378
5671331556,12.034849,-0.379745,3.219491,0.870019,-0.063522,0.469144
5671351601,12.167888,-0.751765,4.392041,0.866320,-0.053405,0.473767
5671371646,11.388160,-2.460482,6.090897,0.865715,-0.043511,0.479053
5671391689,9.095860,-3.279657,5.469310,0.871695,-0.025319,0.485775
5671411734,5.681567,-3.558851,3.438811,0.868733,-0.017587,0.477313
5671431779,1.943706,-4.346505,2.531164,0.859982,-0.031246,0.473994
5671451824,0.326881,-4.809247,1.431727,0.862949,-0.046880,0.473962
5671471869,0.689006,-5.037863,0.804466,0.877911,-0.047239,0.467974
5671491914,0.781124,-4.247537,0.658265,0.887686,-0.045842,0.467124
5671511959,-1.260076,-4.884528,0.004108,0.884884,-0.049879,0.470323
5671532004,-2.602526,-5.020668,-1.074887,0.880288,-0.047481,0.464625
5671552049,-4.254419,-6.083356,-1.114545,0.887237,-0.054868,0.453629
5671572093,-5.258108,-6.150896,-1.114404,0.895846,-0.059406,0.448995
5671592138,-6.590301,-5.291255,-1.973489,0.896333,-0.063890,0.447670
5671612185,-7.445431,-4.964185,-3.079513,0.898188,-0.063147,0.440849
5671632230,-8.474613,-4.401299,-4.085387,0.892052,-0.058675,0.441496
5671652275,-10.593416,-5.091602,-5.127433,0.892098,-0.074251,0.443355
5671672320,-9.662066,-4.940874,-6.193659,0.898806,-0.091272,0.435897
5671692365,-8.172347,-4.113914,-6.701052,0.901128,-0.081826,0.435836
5671712410,-8.849012,-4.485685,-6.527910,0.901138,-0.099201,0.440986
5671732454,-6.711695,-3.362760,-6.819617,0.901874,-0.098101,0.443441
5671752500,-4.181488,-3.038365,-7.372605,0.894962,-0.072974,0.436901
5671772543,-6.478610,-4.244759,-7.079592,0.901560,-0.065929,0.428879
5671792588,-6.741232,-3.058669,-6.735877,0.894392,-0.080706,0.438053
5671832678,-6.406741,-5.841115,-7.406221,0.852066,-0.069066,0.472154
