Timestamp (us),Gyroscope X (deg/s),Gyroscope Y (deg/s),Gyroscope Z (deg/s),Accelerometer X (g),Accelerometer Y (g),Accelerometer Z (g)
6996981614,-4.903866,-0.321579,2.364452,0.961248,-0.204985,-0.007619
6997001667,-6.897450,-0.418742,2.266959,0.982664,-0.225167,-0.011778
6997021719,-9.767311,1.126557,2.292955,0.994157,-0.228042,-0.011299
6997041771,-9.112437,-0.020778,1.462994,0.970736,-0.227844,-0.012922
6997061823,-7.274839,-1.819936,0.778865,0.965002,-0.240547,-0.023631
6997081875,-4.491256,-1.323713,0.738285,0.971010,-0.236685,-0.008546
6997101928,-5.625231,-2.909932,0.782043,0.956963,-0.235475,-0.023474
6997121980,-5.621170,-3.857217,1.042990,0.968898,-0.227903,-0.010390
6997142032,-6.899531,-2.723088,1.630689,0.978991,-0.230434,-0.004654
6997162084,-6.965660,-2.954296,1.154034,0.968412,-0.232832,-0.018334
6997182137,-7.259316,-3.398978,0.769142,0.981867,-0.232752,-0.027509
6997202189,-7.675872,-1.910872,0.021423,0.981751,-0.233684,-0.022774
6997242293,-8.514284,-2.041082,0.704271,0.972645,-0.243253,-0.004278
6997262345,-8.798223,-2.149793,1.811273,0.981711,-0.227413,-0.003488
6997282399,-10.054410,-1.066400,2.755349,0.994021,-0.227084,0.011410
6997302451,-11.590493,0.025925,3.002229,0.991081,-0.232540,0.017905
6997322503,-11.672487,1.247103,2.914681,0.974711,-0.224602,0.022786
6997342556,-12.778456,0.544426,2.189910,0.947517,-0.236596,0.033275
6997362608,-10.393023,-0.920679,0.943595,0.946451,-0.257634,0.023514
6997382660,-7.986300,-1.005946,0.579256,0.963658,-0.281398,0.023729
6997402712,-5.980070,-0.504954,0.895143,0.977023,-0.277039,0.027863
6997422764,-6.026617,-0.173152,0.590858,0.961857,-0.239067,0.029861
6997442817,-8.821547,-1.653805,1.036518,0.950518,-0.235618,0.018562
6997462869,-7.962346,-2.721918,0.516950,0.959504,-0.246357,-0.016059
6997482921,-6.150760,-3.242541,1.548848,0.972768,-0.260419,-0.016620
6997502973,-5.357929,-3.450308,1.488654,0.980602,-0.249291,-0.021147
6997523025,-5.619714,-2.844789,1.471502,0.986248,-0.240552,-0.040021
6997563130,-10.489601,-2.093060,-0.666649,0.991695,-0.205598,-0.100189
6997583188,-10.967249,0.062557,-2.636860,0.986254,-0.222189,-0.096855
6997603233,-9.155626,1.071675,-4.596343,0.970886,-0.272786,-0.093742
6997623285,-4.333625,1.363846,-6.592303,0.970576,-0.304314,-0.087381
6997643337,2.602558,0.215955,-8.000462,0.975399,-0.299821,-0.072494
6997663389,9.868401,-1.632961,-8.959164,0.966397,-0.270410,-0.060174
6997683442,14.655096,-1.404150,-8.938892,0.963644,-0.248010,-0.037096
6997703494,15.404693,-1.007129,-8.159889,0.959180,-0.213668,-0.023711
6997723546,14.903829,-0.425559,-6.918768,0.967922,-0.200776,-0.012982
6997743599,13.594643,1.361721,-7.454996,0.974459,-0.197359,-0.010067
6997763650,12.773696,1.308643,-7.795578,0.973446,-0.205096,-0.004532
6997783702,11.609742,1.022022,-7.498604,0.974035,-0.220892,-0.003709
6997803755,11.537481,1.443172,-6.855819,0.981905,-0.228075,-0.005297
6997823807,12.305892,1.089135,-6.013604,0.994394,-0.214152,-0.012095
6997843859,9.888825,1.503464,-5.225974,0.990914,-0.200859,-0.015999
6997863911,9.935579,2.727070,-5.063469,0.985582,-0.218536,0.000436
6997883964,10.558630,3.581251,-6.286843,0.983629,-0.224621,-0.005506
6997904016,11.008485,4.054769,-7.501266,0.976618,-0.207118,-0.000305
6997924068,9.989602,4.671487,-6.169137,0.988300,-0.194003,0.006533
6997944120,9.185618,5.487757,-5.913984,0.990625,-0.199302,0.016881
6997964173,9.522139,5.253559,-6.080031,0.980645,-0.204260,-0.004400
6997984225,11.098793,5.043853,-6.057125,0.989674,-0.187700,0.002289
6998004277,10.411449,3.781515,-5.681165,0.980169,-0.165521,0.010872
6998024329,7.016911,1.812813,-4.960770,0.974506,-0.156667,0.008275
6998044381,5.062999,1.419502,-5.110311,0.990321,-0.144919,-0.005018
6998084487,3.553794,2.213246,-2.891882,0.968082,-0.182238,0.012797
6998104539,2.456192,2.659739,-3.181037,0.963462,-0.184936,0.009069
6998124592,2.841646,1.532989,-2.881710,0.978649,-0.170379,0.008100
6998144644,4.319797,0.819100,-2.053661,0.990290,-0.160180,0.007973
6998164696,5.114153,-0.307282,-0.920793,0.971684,-0.168992,-0.001872
6998204801,3.176374,-0.331666,0.823130,0.967810,-0.152923,-0.002177
6998224853,1.600531,1.458062,3.341307,0.967962,-0.148932,0.016501
6998244905,2.392787,1.780219,5.439291,0.987407,-0.197168,0.020469
6998264957,5.264008,0.809049,3.766682,1.001354,-0.221081,0.017118
6998285009,6.786387,-0.238163,-0.125826,1.008656,-0.211433,0.010787
6998305061,6.992846,-0.692652,-2.572336,0.999042,-0.177882,0.001242
6998325113,5.971530,-0.861006,-1.730134,0.973904,-0.166177,-0.008705
6998345166,4.732070,-1.442077,-1.098644,0.972383,-0.175360,-0.008973
6998365218,3.610808,-1.076217,-0.910038,0.975804,-0.195226,-0.007265
6998385285,5.058356,-1.107501,-1.350017,0.970543,-0.204915,0.008624
6998405321,5.935088,-1.337638,-1.432899,0.974481,-0.193131,-0.000301
6998425373,6.718959,-1.489679,-1.076439,0.982480,-0.177720,-0.003967
6998445425,6.011022,-0.335724,-0.345008,0.990143,-0.167794,-0.009935
6998465477,4.471306,1.387879,0.089171,0.994573,-0.169949,-0.002426
6998485530,2.359201,1.810495,0.672034,0.989515,-0.179277,-0.005898
6998505582,1.747571,1.082077,0.166968,0.986542,-0.173554,0.000831
6998525634,1.350541,0.044000,-0.306790,0.982570,-0.169961,-0.007782
6998545686,1.100535,-0.162991,-0.366621,0.980850,-0.181180,-0.004211
6998565739,1.084395,-0.115865,-0.101514,0.986667,-0.189154,0.002739
6998585791,0.665886,-0.051430,-0.283485,0.985761,-0.177222,0.011410
6998605843,0.384616,-0.211634,-0.116097,0.982435,-0.185461,0.007574
6998625895,0.769630,0.421080,-0.103254,0.983532,-0.188262,0.008432
6998645948,0.540241,0.542103,0.063146,0.978812,-0.186338,0.003923
6998666000,0.326898,0.638726,-0.043218,0.986075,-0.174702,0.003295
6998686052,0.070611,1.601902,0.067238,0.991446,-0.172417,0.003397
6998706104,-0.563380,2.195617,-0.230166,0.994327,-0.171690,0.009317
6998726156,-2.699234,2.965271,0.033194,0.990986,-0.172679,0.004215
6998746208,-2.594517,3.375420,-0.044046,0.988988,-0.178384,0.005812
6998766261,-2.769327,3.291155,0.016937,0.985169,-0.184461,0.007127
6998786313,-1.429913,3.285496,0.137751,0.982852,-0.183564,0.013099
6998806365,-1.143057,3.945626,-0.213256,0.986353,-0.185176,0.007780
6998826417,-1.405250,4.484644,0.057821,0.979362,-0.178366,0.015013
6998846470,-1.152670,3.890455,0.673675,0.977517,-0.190357,0.009050
6998866521,0.165040,3.731909,0.651023,0.981381,-0.188589,0.017782
6998886575,1.241300,3.259136,0.409749,0.985552,-0.186539,0.020696
6998906627,1.385563,3.433435,0.212045,0.986705,-0.181317,0.023552
6998926679,0.853879,3.284710,0.053586,0.983614,-0.182879,0.022821
6998946732,0.636325,2.668082,0.010313,0.978261,-0.180246,0.017118
6998966784,0.990572,1.865451,-0.024940,0.976043,-0.174225,0.019214
6998986836,1.829432,1.394636,0.287126,0.983679,-0.178486,0.025043
6999006888,2.018565,1.608677,0.324217,0.986858,-0.182691,0.029113
6999026940,3.192894,1.633647,-0.540282,0.991298,-0.185592,0.035267
6999046993,3.600944,0.972578,-1.053516,0.986790,-0.196459,0.032089
6999067052,3.855718,0.703010,-1.924256,0.978703,-0.173859,0.031770
6999087097,3.052285,1.217975,-1.296696,0.977296,-0.158700,0.030949
6999107149,2.165090,1.762471,-0.714682,0.980401,-0.168448,0.034992
6999127201,1.509715,1.835065,-0.563123,0.980644,-0.179602,0.030124
6999147254,0.779016,1.935225,-0.775423,0.978918,-0.173936,0.026320
6999167306,-0.343485,2.214112,0.065273,0.980736,-0.169590,0.024919
6999187358,-0.755434,1.958690,0.915141,0.989664,-0.174427,0.028401
6999207409,-1.426039,1.806225,1.507059,0.987222,-0.185304,0.030600
6999227461,-1.462365,1.606780,1.219759,0.991141,-0.187819,0.032020
6999247513,-1.043830,1.857250,0.779170,0.985675,-0.190186,0.032554
6999267565,-1.881192,1.851969,0.809797,0.978016,-0.186051,0.030634
6999287618,-1.522931,1.665579,0.977051,0.977003,-0.184495,0.031609
6999307670,-0.933782,0.979558,1.130788,0.980900,-0.184611,0.035637
6999327722,0.086646,0.947597,1.024435,0.985395,-0.190714,0.033830
6999347774,0.375473,1.227969,0.644420,0.980275,-0.184012,0.033080
6999367826,1.384308,0.737121,0.016705,0.973977,-0.181032,0.032819
6999387879,1.867309,-0.033101,0.170769,0.974854,-0.174449,0.035567
6999407931,2.635117,0.041780,0.412769,0.987094,-0.173487,0.031007
6999427983,3.243113,0.183027,0.510595,0.990285,-0.175015,0.031684
6999448035,3.429740,0.763129,0.811689,0.986989,-0.184229,0.023224
6999468087,4.007172,0.904465,0.955000,0.974674,-0.194071,0.029431
6999488140,4.497146,0.188343,1.252876,0.976485,-0.196835,0.032838
6999508192,4.523467,-0.397430,1.035095,0.981194,-0.185471,0.032558
6999528244,3.908680,-0.758205,1.044133,0.980731,-0.186447,0.034293
6999548296,5.317092,-0.667126,0.785641,0.977772,-0.197128,0.031215
6999568348,6.488191,-1.755254,0.379717,0.958185,-0.203249,0.031874
6999588401,6.966990,-2.518829,-0.807716,0.977370,-0.195145,0.036551
6999608453,5.690908,-2.916167,-1.093900,0.991144,-0.178855,0.042641
6999628505,4.287065,-2.384850,-0.860292,0.990411,-0.168113,0.037876
6999648557,3.509972,-2.358217,-0.647901,0.989132,-0.181680,0.029572
6999668609,3.964041,-1.448923,-1.386352,0.987960,-0.187128,0.029990
6999688661,3.164326,-1.055499,-1.971007,0.984500,-0.188228,0.029887
6999708715,2.645308,-0.702952,-2.108462,0.981903,-0.189880,0.022708
6999728767,3.489140,-0.597353,-1.889331,0.985514,-0.177969,0.022778
6999748820,2.778648,-0.055692,-1.936423,0.987542,-0.173779,0.016836
6999768872,2.045255,0.935930,-2.833900,0.994509,-0.173003,0.025601
6999788924,0.267386,1.609859,-2.471810,0.997842,-0.165593,0.028629
6999808976,-0.603031,1.760712,-1.729287,0.987665,-0.159380,0.019851
6999829028,-2.034352,1.692162,-1.486023,0.986506,-0.154264,0.028418
6999849080,-4.181359,2.039352,-1.986678,0.992358,-0.147980,0.022206
6999869133,-6.688118,2.599062,-2.124151,0.993527,-0.142164,0.022057
6999889185,-7.674306,3.712948,-2.635434,0.992797,-0.154433,0.028373
6999909237,-8.643045,4.244080,-2.879452,0.985034,-0.160911,0.034028
6999929289,-10.279634,4.218584,-2.818159,0.982128,-0.153869,0.044105
6999949341,-13.214239,3.583428,-2.981680,0.984206,-0.136408,0.038556
6999969394,-16.004715,4.648813,-3.295111,0.995651,-0.127169,0.041166
6999989446,-20.059952,5.866412,-3.441887,1.002023,-0.125059,0.041641
7000009498,-24.079859,6.029927,-3.441043,0.993457,-0.125176,0.041127
7000029549,-28.536634,6.512894,-2.895462,0.994539,-0.125816,0.027873
7000049601,-31.878872,7.973711,-2.535535,0.994783,-0.123850,0.031942
7000069653,-35.187252,8.871486,-2.408628,0.998993,-0.128480,0.031571
7000089705,-38.054207,9.779784,-2.274333,0.994788,-0.128282,0.033356
7000109758,-41.338776,10.322880,-1.835475,0.990070,-0.128527,0.029599
7000129810,-43.952396,10.890107,-1.874409,0.987966,-0.127792,0.030485
7000149862,-46.115143,11.215959,-2.132459,0.989922,-0.126496,0.038300
7000169914,-49.305756,11.558298,-2.321995,0.995475,-0.126824,0.039888
7000189966,-52.482059,12.165427,-2.671607,0.996581,-0.133797,0.041340
7000210019,-54.994900,12.413890,-2.800426,0.991246,-0.134095,0.034035
7000230071,-56.484879,11.979551,-2.715039,0.981477,-0.133812,0.036234
7000250123,-57.727139,11.870246,-1.910858,0.988151,-0.140969,0.036637
7000270176,-59.565468,12.152767,-0.956239,0.992387,-0.136784,0.042799
7000290227,-63.272385,12.889622,0.543153,1.010042,-0.126385,0.042985
7000310280,-67.044594,14.424224,2.206557,1.016314,-0.129344,0.031976
7000330332,-69.741585,16.043495,2.944659,1.002844,-0.134749,0.030943
7000350384,-73.339531,16.977671,3.124595,0.991064,-0.127422,0.030502
7000370436,-75.851479,17.268948,2.563628,0.978397,-0.126469,0.029220
7000390489,-77.547684,17.802383,1.039013,0.989994,-0.127660,0.026680
7000410541,-81.956215,20.127771,-0.036089,1.008123,-0.132103,0.030950
7000430593,-85.135818,21.665323,-0.911854,1.001329,-0.138806,0.026981
7000450645,-87.604507,22.232731,-1.072103,0.987611,-0.136878,0.017773
7000470697,-90.432983,23.342743,-1.491780,0.988525,-0.134265,0.016113
7000490750,-93.654358,25.953991,-3.007863,0.996527,-0.152692,0.028834
7000510802,-97.069656,27.661869,-4.316133,0.997400,-0.158551,0.038360
7000530856,-98.802956,27.772722,-5.399698,0.994777,-0.161354,0.020561
7000550908,-101.690590,28.180658,-5.134829,0.980741,-0.163827,0.021308
7000570960,-103.086517,28.261339,-4.141775,0.988028,-0.169841,0.025337
7000591012,-105.023674,28.310425,-2.784633,0.991765,-0.181650,0.031317
7000611065,-108.101723,29.009920,-3.036071,0.997474,-0.177493,0.035217
7000631117,-110.889809,29.859488,-3.864128,0.987984,-0.169644,0.032787
7000651169,-111.296455,29.418678,-4.718889,0.981260,-0.170705,0.029480
7000671221,-112.588539,29.428104,-5.491523,0.971986,-0.200156,0.055566
7000691273,-113.998367,28.729446,-6.466307,0.971210,-0.219250,0.041876
7000711326,-114.432823,27.532084,-6.878872,0.965328,-0.210939,0.045828
7000731378,-114.896378,26.218786,-7.586606,0.965068,-0.186034,0.046629
7000751430,-117.466995,26.549271,-9.087479,0.959752,-0.155975,0.020886
7000771482,-123.126434,28.092869,-7.650814,0.954017,-0.148056,-0.015600
7000791534,-130.647293,33.244869,-2.732032,0.988826,-0.146987,-0.028816
7000811586,-135.808289,37.478188,0.938561,1.061489,-0.135922,-0.035064
7000831639,-135.470657,41.399086,1.152301,1.083691,-0.198461,-0.027821
7000851689,-130.355743,41.316761,-1.539737,1.027805,-0.314314,-0.000792
7000871741,-125.151634,38.327297,-6.639475,0.971927,-0.351903,0.047961
7000891794,-117.417076,35.079781,-9.548891,0.931216,-0.310379,0.067186
7000911846,-110.618515,32.721531,-11.331779,0.924445,-0.265831,0.095797
7000931898,-104.883270,31.149166,-12.594055,0.924949,-0.227977,0.099815
7000951950,-102.367073,30.547573,-13.085496,0.921565,-0.201937,0.104216
7000992055,-106.862442,29.070702,-11.487252,0.939776,-0.182860,0.113940
7001012107,-107.762497,26.767500,-12.214159,0.943818,-0.223961,0.098176
7001032159,-108.020920,24.792957,-14.450636,0.947863,-0.252581,0.091174
7001052211,-109.810608,24.457506,-16.419382,0.968630,-0.254656,0.095344
7001072263,-109.844330,21.983393,-16.259266,0.986658,-0.230435,0.102735
7001092316,-110.953697,20.497995,-17.102604,1.002154,-0.216143,0.095863
7001112368,-110.880363,18.893284,-18.825104,0.984395,-0.225698,0.097575
7001132420,-109.991188,16.698065,-19.931955,0.961966,-0.240665,0.089955
7001152472,-108.646713,14.404249,-20.295891,0.945176,-0.250358,0.081768
7001172525,-106.849503,11.572037,-21.029501,0.937483,-0.264131,0.079147
7001192577,-104.215591,8.716755,-21.475319,0.946403,-0.272417,0.070126
7001212629,-99.859734,5.921013,-22.687424,0.954396,-0.264661,0.071275
7001232681,-97.098053,3.917923,-24.159384,0.956443,-0.231697,0.063364
7001252733,-95.783195,2.982806,-24.527992,0.958260,-0.197668,0.047351
7001272786,-95.148331,2.364495,-24.518505,0.961860,-0.177699,0.045419
7001292838,-95.508438,1.344438,-24.583076,0.967994,-0.178288,0.041379
7001312890,-94.799896,0.121490,-25.420374,0.963801,-0.182399,0.027674
7001332942,-93.594269,-0.552814,-25.251736,0.974028,-0.186475,0.026975
7001352996,-92.147560,-0.454566,-25.616367,0.984442,-0.204858,0.016901
7001373048,-88.297836,0.159854,-26.074574,0.984801,-0.229963,0.014831
7001393100,-84.337807,-0.913931,-24.700468,0.965803,-0.218279,0.015197
7001413152,-78.307076,-2.072488,-23.266163,0.964525,-0.234956,-0.007340
7001433205,-68.810928,-2.025071,-21.988808,0.978636,-0.224967,0.022091
7001453257,-66.677849,-3.162930,-20.454683,1.021114,-0.195051,0.023591
7001473309,-66.470146,-2.837283,-16.007030,1.021536,-0.182016,0.007357
7001493361,-64.810799,-5.072289,-14.605382,0.955424,-0.125786,-0.002306
7001513413,-62.337704,-7.206688,-10.150046,0.997443,-0.092696,-0.033019
7001533466,-63.674187,-6.406095,-7.029805,1.064650,-0.091730,-0.052185
7001553518,-65.056999,-4.003261,-3.801386,1.030658,-0.078739,-0.091747
7001573570,-65.879730,-2.852449,0.143573,0.965698,-0.082239,-0.065902
7001593622,-65.425224,-2.218121,2.733232,0.980152,-0.091904,-0.038604
7001613674,-69.593048,-2.587456,5.055125,1.015553,-0.047484,-0.019054
7001633727,-75.567001,-2.284819,9.853654,1.035052,-0.011419,-0.035238
7001653779,-80.553230,-0.628996,12.729699,1.012695,-0.009470,-0.048052
7001673830,-85.357254,0.193181,14.448971,0.971745,-0.032564,-0.049257
7001693882,-87.202896,0.444903,15.343067,0.959234,-0.094105,-0.030365
7001713934,-88.635246,1.421288,13.960834,1.006835,-0.130299,-0.014522
7001733987,-90.884056,4.444136,15.292681,1.052997,-0.146734,-0.027365
7001754039,-92.536026,8.494207,16.378250,1.041983,-0.161674,-0.053990
7001774091,-92.828400,10.970750,15.740767,1.000885,-0.148544,-0.063522
7001794143,-95.211197,13.104356,14.658036,0.980534,-0.122516,-0.057333
7001814195,-98.534691,15.362701,15.060683,0.986202,-0.101302,-0.055084
7001834248,-103.307396,17.941376,15.993258,0.996971,-0.113757,-0.050865
7001854300,-107.488586,20.563166,14.735161,1.012418,-0.149672,-0.055156
7001874352,-109.413689,23.154776,12.377427,1.008433,-0.175818,-0.046702
7001894404,-110.568604,24.585636,11.743847,0.992530,-0.188245,-0.049216
7001914456,-111.736664,25.006447,12.265755,0.976890,-0.188646,-0.055866
7001934509,-113.316734,24.755924,11.501697,0.978105,-0.187400,-0.077048
7001954561,-116.518097,25.694700,8.407368,0.981801,-0.195411,-0.065932
7001974613,-118.793518,25.547638,5.521088,0.982490,-0.212132,-0.066279
7001994665,-120.477654,26.628803,4.161319,0.995981,-0.203489,-0.054741
7002034770,-125.928520,33.808594,8.269019,1.006506,-0.145969,-0.074963
7002054822,-129.479813,36.727604,10.132207,1.002307,-0.126968,-0.099024
7002074874,-133.537659,40.227413,9.530409,1.005930,-0.154819,-0.096677
7002094926,-134.595825,42.050636,6.023019,1.005616,-0.198878,-0.083354
7002114978,-133.290131,42.986530,2.616385,0.987323,-0.245455,-0.065495
7002135030,-130.485107,42.346836,-0.588292,0.957548,-0.262926,-0.062778
7002155083,-127.552582,38.458164,-2.682869,0.942268,-0.255790,-0.056970
7002175136,-125.693825,34.503807,-4.450949,0.942945,-0.257917,-0.046943
7002195189,-124.640633,31.467043,-5.547381,0.947751,-0.240394,-0.035752
7002215241,-125.239304,29.210838,-5.160450,0.967250,-0.227748,-0.024763
7002235293,-125.818077,27.681868,-5.041294,0.977323,-0.236675,-0.027951
7002255345,-125.324501,26.477024,-5.196473,0.975665,-0.252826,-0.032592
7002275397,-124.864838,24.361935,-5.196925,0.978576,-0.262676,-0.042092
7002295449,-125.109779,22.620277,-4.243468,0.991291,-0.260046,-0.050757
7002315502,-123.402641,22.322351,-1.507035,1.001242,-0.240623,-0.047366
7002335554,-122.061684,23.373901,-1.079128,0.986682,-0.227907,-0.058160
7002355606,-121.136589,24.445988,-1.772831,0.943538,-0.229208,-0.053543
7002375658,-121.813683,24.545681,-2.113991,0.940688,-0.252254,-0.038118
7002395710,-117.604729,26.722275,-3.214334,0.952885,-0.250017,-0.035967
7002415763,-113.735832,27.968220,-3.470088,0.956712,-0.207111,-0.041436
7002435815,-114.913734,27.550911,-3.415185,0.964768,-0.198062,-0.051662
7002475920,-120.128029,25.185635,-4.693631,0.993724,-0.205004,-0.026747
7002495990,-120.447083,25.084524,-4.746224,0.993626,-0.196818,-0.045292
7002516023,-122.950836,23.856005,-5.544483,0.984180,-0.196960,-0.066624
7002536075,-123.352936,23.437714,-5.247322,0.950457,-0.197274,-0.083491
7002556127,-122.424667,23.002224,-4.245724,0.939099,-0.225175,-0.075887
7002576179,-121.998993,24.011269,-5.984932,0.977777,-0.263221,-0.061086
7002596231,-120.748260,25.273386,-9.369933,1.001447,-0.292861,-0.040671
7002616284,-116.889481,23.653545,-9.001913,0.989075,-0.284572,-0.018134
7002636336,-114.444817,22.844986,-4.945240,0.998519,-0.249511,-0.013837
7002656388,-112.667976,22.529594,-2.640773,1.000882,-0.237941,-0.018408
7002676440,-109.645027,21.245712,-3.501409,0.980358,-0.254414,-0.023634
7002696492,-106.625351,19.366255,-4.898097,0.952335,-0.272111,-0.024264
7002716544,-103.560257,17.967617,-7.137721,0.950614,-0.266059,-0.013713
7002736596,-99.724358,16.561619,-10.135488,0.939040,-0.242598,-0.010522
7002756649,-96.122871,14.235417,-11.947683,0.942519,-0.232393,-0.002618
7002776701,-90.446991,13.839890,-13.130624,0.966810,-0.248266,-0.017258
7002796753,-82.486015,14.231429,-13.468236,0.960079,-0.253369,-0.017246
7002816805,-80.326111,11.003131,-12.389234,0.946672,-0.236255,0.006272
7002836857,-79.641220,8.529686,-10.471054,0.975477,-0.206466,0.007404
7002856909,-79.138168,8.662374,-8.023684,0.997290,-0.213049,-0.024447
7002876962,-70.953400,8.983983,-6.451235,0.974453,-0.238379,-0.019590
7002897014,-66.811920,9.717428,0.782692,1.052016,-0.236800,-0.048323
7002917066,-58.980492,13.280292,0.259883,0.912330,-0.272458,-0.042448
7002937119,-53.834599,10.872453,-4.046049,0.950527,-0.231413,-0.062738
7002957171,-55.433807,14.084249,-1.123500,1.022143,-0.157210,-0.030916
7002977223,-57.973663,17.120676,3.846302,1.011933,-0.134471,0.004375
7002997275,-62.603516,19.292124,6.258128,1.004379,-0.118111,0.025127
7003017329,-69.419563,20.714815,7.778983,1.015976,-0.060651,0.070804
7003037381,-77.842628,18.987509,9.849360,1.041659,-0.058225,0.058507
7003057433,-84.785469,20.961496,12.239940,1.038544,-0.038865,-0.010720
7003077485,-91.861488,26.232086,12.656258,1.010047,-0.131748,-0.001940
7003097538,-92.830940,29.382149,7.590577,0.996282,-0.282054,0.010880
7003117590,-91.100212,29.364271,0.594655,0.963102,-0.285515,-0.003765
7003137642,-90.751671,28.605892,-3.230228,0.960935,-0.216037,0.020227
7003157694,-91.108917,27.702423,-1.673303,0.944964,-0.173462,0.032890
7003177746,-93.085854,25.824577,1.138074,0.920428,-0.174517,0.020004
7003197799,-95.859055,24.950294,3.802272,0.942456,-0.180380,0.013230
7003217851,-98.069244,26.311129,5.185305,0.944308,-0.212111,0.024153
7003237903,-98.914429,24.476845,2.925814,0.924716,-0.223681,0.044143
7003257955,-101.053841,21.438717,0.117660,0.947111,-0.211197,0.043248
7003278007,-102.532532,19.529568,-1.322825,0.948641,-0.220658,0.035825
7003298059,-103.206345,16.741934,-3.253196,0.941694,-0.259410,0.027136
7003318112,-103.057060,13.732221,-5.137617,0.941718,-0.269391,0.028069
7003338178,-101.681839,10.642938,-4.073978,0.951007,-0.271282,0.015070
7003358215,-102.175514,7.858799,-2.048209,0.945092,-0.240467,-0.002142
7003378267,-106.499390,7.955232,0.855714,0.977517,-0.170677,-0.031803
7003398319,-113.622330,10.375274,4.336189,1.015457,-0.130356,-0.038999
7003418371,-117.777138,13.082142,4.495053,1.032471,-0.135238,-0.046365
7003438424,-120.105141,14.290035,4.628127,1.014326,-0.184246,-0.052470
7003458476,-116.966003,16.436234,2.232261,0.981008,-0.288982,-0.039498
7003478528,-110.746193,15.848268,0.072107,0.973965,-0.303504,-0.043742
7003498580,-107.201042,14.166550,-1.810500,0.966839,-0.311024,-0.021984
7003518632,-101.987366,11.921997,-3.183962,0.961449,-0.326345,-0.012393
7003538684,-95.100327,8.315367,-4.386578,0.953303,-0.349238,-0.010913
7003558737,-85.016220,4.684226,-5.567493,0.961682,-0.372154,-0.013679
7003578789,-75.726677,0.631553,-7.754678,0.941538,-0.334148,-0.002174
7003598841,-70.982971,-1.770834,-9.589747,0.953198,-0.276105,0.001418
7003618893,-68.330704,-1.784301,-10.856317,0.962749,-0.230704,-0.001948
7003638946,-65.713249,-2.848321,-11.346198,0.956156,-0.224192,-0.015794
7003658998,-64.488991,-3.838325,-11.896480,0.950371,-0.212737,-0.014423
7003679050,-67.767937,-3.983865,-12.311673,0.962218,-0.181667,-0.029240
7003699102,-66.423431,-1.497488,-13.086186,0.980488,-0.194785,-0.060041
7003719154,-61.763851,-1.425089,-13.656488,0.957815,-0.236205,-0.074991
7003739206,-56.335541,-3.788350,-12.422456,0.954491,-0.289548,-0.087939
7003759259,-50.998745,-9.312504,-7.933703,0.949438,-0.334329,-0.105542
7003779311,-42.782661,-14.867906,-4.158275,0.945936,-0.301846,-0.146387
7003799369,-34.203804,-15.383344,2.684297,0.989161,-0.237071,-0.134288
7003819415,-25.121910,-19.968527,5.326815,0.912173,-0.218767,-0.151405
7003839469,-20.666893,-28.095362,2.549044,0.906705,-0.243723,-0.154881
7003859521,-16.019316,-31.030218,0.647633,0.913652,-0.269900,-0.175887
7003879573,-10.936500,-29.136772,0.684802,0.900077,-0.266975,-0.178925
7003899626,-2.637759,-29.387444,0.485707,0.928563,-0.263999,-0.172123
7003919678,1.781640,-26.651918,2.308841,1.027164,-0.243580,-0.144304
7003939730,7.408573,-11.297069,4.376069,1.135338,-0.263048,-0.143584
7003959783,15.751766,6.834005,4.469829,1.120180,-0.297950,-0.199636
7003979835,19.564310,21.021818,3.949710,1.142909,-0.266086,-0.205024
7003999887,23.309166,31.465441,4.465675,1.189723,-0.255514,-0.280249
7004019939,26.850197,42.368553,3.426443,1.181396,-0.265731,-0.301002
7004039991,31.809628,53.675564,3.560061,1.143809,-0.288251,-0.300736
7004060044,39.038742,66.002419,4.151685,1.053308,-0.307648,-0.264344
7004080096,48.847149,76.639275,2.550333,1.002182,-0.317906,-0.262225
7004100148,58.037350,90.560440,1.127354,1.004225,-0.305271,-0.274899
7004120200,65.306595,110.129646,1.648535,1.025778,-0.250991,-0.230750
7004140252,67.593414,132.316360,4.655918,1.085957,-0.192539,-0.199463
7004160303,71.100311,157.201492,4.538624,1.079988,-0.093583,-0.210375
7004180355,76.761703,179.546753,0.336691,1.026694,0.014612,-0.177651
7004200408,64.479324,192.863129,-6.078797,0.971105,0.065623,-0.051215
7004220460,52.867138,206.520462,-13.291487,0.948335,-0.021099,0.019426
7004240512,42.470085,215.565735,-16.380915,0.768798,-0.067925,0.063865
7004260564,29.195354,212.588501,-19.655273,0.529652,-0.029650,0.281394
7004280616,18.435747,192.129379,-16.845005,0.498451,-0.007495,0.336356
7004300669,15.525460,186.091690,-13.003386,0.428503,-0.092791,0.367566
7004320721,10.132389,178.084198,-10.753269,0.357592,-0.165526,0.541131
7004340773,6.862232,165.319656,-7.828136,0.366538,-0.124287,0.705128
7004360825,6.257003,154.066376,-5.174407,0.456879,-0.158748,0.785146
7004380878,9.191059,146.518341,-3.701845,0.434211,-0.187831,0.903017
7004400930,9.177239,132.976593,-4.587389,0.373450,-0.143555,1.106109
7004420982,11.225480,115.430756,-3.315013,0.382475,-0.133865,1.179132
7004441034,11.133045,97.489304,-3.563895,0.301677,-0.140540,1.233349
7004461086,6.963625,75.446381,-5.896587,0.232393,-0.073016,1.277246
7004481139,4.810819,50.534561,-5.400727,0.199301,-0.045999,1.310235
7004501191,3.019231,25.931576,-6.853851,0.164807,-0.085007,1.319803
7004521243,0.316542,1.928049,-7.414404,0.136910,-0.117736,1.367335
7004541295,-4.173327,-21.232481,-7.279971,0.190183,-0.007941,1.400342
7004561347,-6.227485,-43.166088,-6.529146,0.251206,-0.009049,1.364070
7004581399,-6.468604,-64.199020,-8.078482,0.257990,-0.076403,1.328998
7004601451,-5.875345,-87.708794,-9.596839,0.234516,-0.096531,1.284531
7004621503,-6.209958,-112.171364,-9.565480,0.239110,-0.063836,1.199845
7004661609,-16.306932,-150.139648,-5.459739,0.281424,0.022481,1.014650
7004681661,-20.542536,-168.777222,-3.461400,0.267397,-0.025038,0.927306
7004701714,-24.645426,-187.384491,-2.812266,0.274404,-0.035692,0.841502
7004721766,-29.147404,-204.347961,-1.122760,0.323876,-0.037304,0.707726
7004741818,-31.403824,-218.395203,0.806016,0.334703,-0.049888,0.562261
7004761870,-33.836269,-229.681885,3.665131,0.386414,-0.036424,0.427690
7004781923,-38.028210,-240.313660,8.659872,0.404835,0.002920,0.329301
7004801975,-42.015167,-252.329773,10.627729,0.438942,0.008919,0.215595
7004822027,-44.637844,-263.373932,10.022492,0.416314,-0.040412,0.072408
7004842079,-50.501968,-279.162292,9.275580,0.415401,-0.069324,-0.146023
7004862131,-57.727310,-287.022003,10.381405,0.484012,-0.061316,-0.174894
7004882184,-66.909256,-295.651276,19.054365,0.474470,-0.111730,-0.325974
7004902236,-79.316727,-298.828064,19.327341,0.655389,-0.093922,-0.405057
7004922288,-90.898819,-280.770569,-11.137602,1.658699,-0.337220,-0.616432
7004942340,-81.049347,-242.669128,-40.671116,0.870797,0.155258,-0.511295
7004962391,-57.489891,-227.015137,17.601927,0.349487,-0.111272,-0.606699
7004982443,-32.907642,-197.511627,3.349322,0.529215,-0.317931,-0.868143
7005002495,-1.242763,-180.302948,2.740829,1.062186,-0.212916,-0.970642
7005022547,-17.881247,-201.907104,-0.149852,0.550786,-0.203438,-1.074896
7005042600,-19.655396,-210.071335,-4.797314,0.789073,-0.300110,-1.411995
7005062652,-5.493463,-185.338409,-3.985603,0.792445,-0.104368,-1.416236
7005082704,-9.537876,-146.220993,0.936186,0.914652,-0.150901,-1.276414
7005102757,-8.768242,-102.652512,-1.131690,0.837364,-0.031798,-1.245986
7005122809,3.508711,-58.442657,-3.713594,0.858354,-0.072145,-1.198655
7005142861,8.198039,-17.922440,0.321143,0.784468,-0.076920,-1.126871
7005162913,41.179314,-3.238858,4.806372,0.660133,-0.219726,-1.042395
7005182965,51.272182,-0.105240,-1.089231,0.563319,-0.325269,-1.114658
7005203018,64.799515,11.669633,-0.657067,0.562799,-0.215928,-1.111656
7005223070,82.076935,14.559175,6.208620,0.503868,-0.215317,-1.027649
7005243122,98.662849,18.529459,-1.344352,0.555757,-0.160725,-1.011008
7005263174,124.107346,38.153725,-6.089521,0.649451,-0.123629,-0.978873
7005283226,141.458176,51.061409,-11.733345,0.607696,-0.136730,-0.801156
7005303279,139.963501,63.513248,-11.169414,0.660261,-0.066052,-0.752342
7005323331,128.949158,76.847435,16.231901,0.701886,-0.040622,-0.727530
7005343383,137.737595,86.482124,49.186829,0.781299,0.025097,-0.590765
7005363435,133.184875,73.825394,85.989975,0.686951,-0.032543,-0.578770
7005383487,139.886902,70.286484,94.457939,0.642522,-0.288379,-0.538952
7005403540,121.450012,71.130066,81.289253,0.593881,-0.411702,-0.437806
7005423592,110.408279,79.288437,73.087318,0.631914,-0.444535,-0.331094
7005443646,108.770844,81.994049,80.028473,0.616143,-0.509861,-0.252016
7005463698,89.700317,73.786819,79.252480,0.609623,-0.349693,-0.385971
7005483750,71.114594,94.718475,99.801628,0.683219,-0.042327,-0.295123
7005503803,77.581322,91.325073,131.453217,0.623635,-0.465373,-0.012634
7005523854,93.115044,68.850777,107.825798,0.625219,-1.010948,-0.196984
7005543907,86.980339,94.684372,84.054695,0.577555,-0.898613,-0.193441
7005563959,52.200024,85.950279,63.088097,0.627112,-0.403175,-0.092489
7005604063,31.877392,61.783669,68.142708,0.502154,-0.838238,-0.191312
7005624115,10.557525,54.996796,54.235859,0.467272,-0.904212,-0.039837
7005644167,-2.553851,58.465607,28.156883,0.503226,-0.831152,0.057637
7005664220,-11.448009,58.458324,20.618958,0.517432,-0.963845,0.033281
7005684272,-7.821578,77.756653,8.523385,0.537454,-0.868666,0.084943
7005704324,-28.653843,54.025063,3.693712,0.366468,-0.967677,0.080969
7005724376,-55.484818,39.839951,-19.507835,0.414774,-0.927757,0.171734
7005744428,-89.061646,24.625532,-40.043259,0.485311,-0.841325,0.086166
7005764484,-116.277664,11.265200,-45.323277,0.433918,-0.781462,0.067749
7005784531,-148.143509,-2.011276,-54.133747,0.441203,-0.813717,-0.163399
7005804584,-177.653519,-8.709265,-68.326042,0.517580,-0.757300,-0.188322
7005824636,-215.485367,-27.457279,-79.033051,0.493151,-0.728986,-0.327422
7005844688,-231.256836,-19.990557,-78.894104,0.564022,-0.749774,-0.509630
7005864740,-204.830460,-1.782024,-60.094490,0.588252,-0.831987,-0.838326
7005884792,-158.092133,29.286564,-64.681915,0.735020,-0.837767,-0.756332
7005904845,-114.406464,44.504822,-94.656227,0.684395,-0.851665,-0.837780
7005924897,-93.287300,63.013256,-143.990616,0.686872,-1.322881,-0.636271
7005944949,-95.534073,68.207573,-177.332382,0.628544,-1.225923,-0.485666
7005965001,-77.081261,70.860947,-174.202728,0.518131,-0.548605,-0.495197
7005985053,-100.835091,41.455257,-147.778931,0.471447,-0.521517,-0.320980
7006005106,-110.689995,45.924702,-130.768555,0.715200,-0.325280,-0.461667
7006025158,-119.933983,46.328785,-106.605003,0.736939,-0.111056,-0.497983
7006045210,-124.856346,64.015823,-88.633896,0.877713,0.130271,-0.621018
7006065262,-120.711441,78.415764,-44.082798,0.652739,-0.303270,-0.501535
7006085314,-120.104568,96.744255,-61.145767,0.825948,-0.317115,-0.198501
7006105367,-104.792587,109.216705,-78.246765,0.987498,0.118285,-0.401160
7006125419,-94.936096,116.000900,-73.294212,1.051927,0.150101,-0.288556
7006145471,-98.774948,100.066254,-62.089321,1.092838,0.146164,-0.578051
7006165523,-72.136078,112.598557,-58.693401,0.897357,-0.283334,-0.204385
7006185576,-65.922409,101.399269,-106.025467,0.854597,-0.064599,-0.079708
7006205628,-50.700058,98.067520,-116.766281,0.950954,0.234005,-0.103748
7006225680,-54.922970,91.636055,-113.809586,0.927249,0.258136,-0.115465
7006245734,-53.570389,87.638451,-105.118378,0.763872,0.145574,-0.057700
7006285838,-15.523364,67.690773,-85.153046,0.771548,0.005085,0.118206
7006305891,7.918725,61.189896,-83.357796,0.838220,0.199434,0.140423
7006325943,17.311829,42.177879,-73.056396,0.858828,0.505082,0.080320
7006345995,20.987350,26.625757,-63.151451,0.958388,0.610099,0.057634
7006366047,28.322742,12.821388,-47.183064,0.992926,0.659775,0.050761
7006386099,39.951263,1.639097,-30.391525,0.953848,0.672707,0.007800
7006406151,49.406864,-7.029205,-11.182627,0.995639,0.688056,-0.037342
7006426204,53.243835,-12.086695,1.399368,0.985377,0.611793,-0.114875
7006446256,65.653732,-13.336719,11.759766,0.976542,0.559455,-0.152230
7006466308,79.170341,-15.974556,29.589828,0.923108,0.509670,-0.047788
7006486361,93.196045,-19.528955,43.625816,0.912114,0.408395,-0.159027
7006506412,110.126648,-25.959225,52.494270,0.868647,0.397867,-0.125950
7006526465,136.502441,-37.660686,63.196526,0.821622,0.308384,-0.239399
7006546517,162.434814,-47.695488,71.407303,0.777515,0.139862,-0.282567
7006566567,191.145447,-53.025177,70.490982,0.729563,-0.247662,-0.244795
7006586620,156.525070,-76.795540,34.266647,0.989365,0.225349,-0.322225
7006606672,169.772110,-79.068771,8.122437,0.953297,0.309367,-0.618647
7006626724,181.637192,-68.542191,6.164534,0.810332,0.125545,-0.725776
7006646776,203.207214,-51.146622,-12.024248,0.721011,-0.262619,-0.675475
7006666829,216.908524,-64.738579,-12.217159,0.499468,-0.592839,-0.555256
7006686881,220.294037,-73.110741,-7.088856,1.306702,0.125657,-1.094794
7006706933,253.106262,-30.028051,-3.876165,1.834466,0.684225,-1.017629
7006726985,263.751312,1.881836,-16.957445,0.928778,0.229847,-0.641894
7006747037,275.047333,-10.732394,-16.122143,0.792048,-0.053013,-0.596964
7006767090,268.873840,29.168890,-25.458332,1.089290,0.121006,-0.551338
7006787142,285.080017,53.030560,-15.701161,0.975755,0.289738,-0.194375
7006807194,239.243210,40.610977,1.705918,0.788029,0.306279,-0.184173
7006827246,214.764832,32.496861,8.017825,0.884456,0.453880,-0.035784
7006847299,178.857605,28.017403,17.451319,0.916095,0.323679,0.106001
7006867351,153.711319,31.145178,27.809784,1.068835,0.191332,0.212315
7006887403,112.677551,33.008251,32.296894,1.020023,0.104734,0.199793
7006907455,78.154549,25.541235,42.066093,0.939032,0.093200,0.180721
7006927508,50.462971,18.972416,42.772953,0.943442,-0.051054,0.060454
7006947560,27.594074,21.354679,42.166431,0.883397,-0.202881,0.037338
7006967612,17.583096,21.672451,33.165043,0.839840,-0.237077,-0.073363
7006987664,0.827500,21.332541,31.557764,0.778143,-0.272346,-0.090570
7007007716,-3.157274,22.985018,20.905025,0.807853,-0.177171,-0.136448
7007027768,-19.746244,16.499569,19.720549,0.877850,-0.233941,-0.120663
7007047821,-29.632290,18.516039,15.086323,0.964657,-0.459491,-0.181965
7007067874,-38.589035,18.377157,14.392673,1.000579,-0.547099,-0.169881
7007087926,-32.528778,13.228586,9.125758,0.993881,-0.383888,-0.275153
7007107979,-61.785332,12.977304,26.000048,0.938080,-0.270215,-0.252871
7007128031,-80.902939,8.994276,35.350163,0.754928,-0.366665,-0.266595
7007148083,-78.459763,-7.433699,43.689720,0.719980,-0.533937,-0.146575
7007168135,-65.397163,-34.880432,34.601604,0.909171,-0.420167,-0.238435
7007188187,-81.411903,-38.164600,28.850939,1.176648,0.196095,-0.312743
7007208240,-150.252594,-44.650158,52.786266,1.166717,0.664019,-0.578431
7007228292,-190.798203,-55.153191,92.808075,1.072749,0.292127,-0.661043
7007248344,-208.615326,-62.649567,109.453224,1.067994,0.031985,-0.917359
7007268396,-237.213531,3.665949,102.095345,1.030410,0.413625,-1.119262
7007288449,-232.131592,35.650059,144.751419,0.551326,0.829279,-1.122834
7007308501,-174.935822,90.824478,224.264328,0.753435,0.787450,-1.412020
7007328553,-260.848022,204.433884,310.280304,0.978228,-0.938414,-1.386544
7007348605,-312.639801,223.090866,226.668564,0.384621,-1.596837,-0.757392
7007368657,-319.165558,212.099228,162.969696,0.281137,-1.316486,-1.765826
7007388708,-203.864182,211.684708,73.317154,0.114367,-1.161267,-0.625841
7007408760,-219.325745,182.149231,33.627232,0.542979,-0.857038,-0.567612
7007428813,-183.860413,173.984131,31.149471,0.317203,-1.272503,-0.320561
7007448864,-103.247574,112.500008,-7.448417,0.491941,-1.109666,-0.179791
7007468917,-61.229427,86.174446,-21.628437,0.711763,-0.990189,-0.041198
7007488969,-32.651611,70.917496,-31.552197,0.785084,-0.653487,0.004230
7007509021,-17.324625,56.601955,-34.994553,0.727719,-0.406352,-0.037572
7007529073,-11.403969,36.900635,-37.626846,0.654131,-0.330380,-0.056968
7007549125,-15.011263,29.695538,-32.795700,0.793938,-0.305952,-0.015544
7007569178,-21.155182,32.511505,-28.945566,0.704413,-0.507084,0.038226
7007589230,-11.505256,17.015932,-30.646288,0.650211,-0.506400,0.030836
7007609282,6.623491,-4.927514,-34.298286,0.716674,-0.492229,0.007604
7007629334,15.732024,-11.133452,-41.843891,0.868811,-0.438959,0.030787
7007649387,20.616058,-6.179835,-41.491302,1.033924,-0.317653,-0.032065
7007669439,23.161379,4.015214,-29.855730,0.905555,-0.332632,-0.100875
7007689491,26.411573,-1.737272,-30.488836,0.857676,-0.294161,-0.148192
7007709543,36.862663,-1.268254,-34.344219,1.118209,-0.254222,-0.274136
7007729595,38.713665,13.508309,-30.985256,1.147609,-0.291305,-0.247688
7007749648,45.519432,9.134150,-34.618046,0.998864,-0.279319,-0.353035
7007769700,51.219975,11.246210,-35.461006,0.929633,-0.173754,-0.368562
7007789752,47.980896,5.592808,-37.721657,0.865860,-0.163816,-0.458468
7007809804,48.111320,6.524640,-36.967014,0.993450,-0.205024,-0.322032
7007829857,40.031448,3.316689,-29.305969,1.003378,-0.291256,-0.432843
7007849909,52.209301,8.497377,-32.988716,0.984094,-0.323350,-0.393073
7007869961,46.600784,6.515635,-35.632561,0.983013,-0.198747,-0.473138
7007890015,45.814297,17.718662,-26.818668,1.004148,-0.192807,-0.333458
7007910067,47.326607,17.032751,-15.630291,1.073242,-0.194942,-0.315403
7007930119,53.857742,23.031584,-6.588816,1.118387,-0.295605,-0.283653
7007950171,63.300690,30.610867,-11.104981,1.012530,-0.395711,-0.246892
7007970224,76.946625,34.416496,-17.648357,0.896775,-0.474550,-0.227351
7007990276,106.677879,21.296999,-12.543237,0.569632,-0.816902,-0.158090
7008010328,111.392044,43.230606,-59.124950,0.886631,-0.414809,0.026817
7008030380,133.222046,36.920692,-43.513359,1.127870,0.012601,-0.360225
7008050432,93.509773,13.243358,-5.962655,0.885395,0.226313,-0.097853
7008070485,102.364037,5.465566,-24.075399,0.972992,0.145407,-0.459470
7008090537,119.650429,29.625006,-23.543228,1.044832,0.084814,-0.118624
7008130641,136.755890,31.677969,-31.097355,1.074787,-0.231006,-0.078857
7008150693,150.901764,45.371502,-29.232016,1.058725,-0.163134,-0.172004
7008170745,161.347366,60.595585,-30.008137,1.062042,-0.036117,0.038310
7008190798,162.961105,56.946751,-28.836546,0.960569,0.109521,0.060081
7008210849,150.276337,53.300030,-29.350063,0.943425,0.239382,0.058274
7008230901,131.944351,53.967033,-17.803192,0.990844,0.244093,0.069189
7008250953,115.740829,56.552074,-8.870835,0.981700,0.220568,0.147739
7008271006,93.529388,56.239143,0.596559,0.945817,0.130523,0.139984
7008291058,79.403305,50.560982,8.048450,0.935919,0.174265,0.189121
7008311110,66.809364,47.500767,12.534989,1.006126,0.210367,0.231644
7008331162,45.952408,47.831486,17.952526,1.030878,0.247636,0.267379
7008351215,22.061840,49.449902,22.449638,0.999234,0.256176,0.342490
7008371266,-3.370537,51.514656,30.682178,1.028904,0.294730,0.378426
7008391319,-33.005039,53.946671,41.302292,0.987988,0.239475,0.402951
7008411371,-63.901588,52.973919,49.054577,0.887791,0.066158,0.350715
7008431423,-77.111412,51.370422,50.444099,0.863040,-0.078441,0.415105
7008451475,-80.509499,43.644165,51.889179,0.826959,-0.175965,0.367082
7008471527,-78.389145,38.878365,53.579807,0.752064,-0.284274,0.320545
7008491580,-65.289726,26.656210,50.934387,0.688622,-0.409951,0.335092
7008511632,-46.546238,13.996662,47.720070,0.678357,-0.532523,0.374518
7008531684,-24.764990,-0.762774,39.456768,0.719707,-0.627403,0.366276
7008551736,-2.582151,-11.375572,23.842600,0.779816,-0.641382,0.383495
7008571788,16.415335,-21.456356,5.620555,0.862221,-0.598922,0.379226
7008591840,33.674751,-27.144697,-5.325059,0.856325,-0.460831,0.398580
7008611892,41.522835,-32.215794,-7.402125,0.882032,-0.269100,0.396361
7008631945,36.498428,-33.799221,-4.105642,0.904068,-0.155458,0.359667
7008651997,27.030230,-34.549191,-0.075316,0.888509,-0.158891,0.325151
7008672049,19.994474,-31.327423,6.433949,0.929034,-0.136791,0.243750
7008692103,12.095787,-28.329056,8.533333,1.023338,-0.096752,0.201603
7008712155,4.791663,-26.475929,6.604450,1.033019,-0.193962,0.200524
7008752260,18.036068,-32.942238,-10.347192,0.882682,-0.388488,0.236337
7008772312,26.632730,-34.918369,-7.599810,0.913922,-0.263823,0.225845
7008792364,32.604355,-33.465122,-0.081004,0.965306,-0.210805,0.189424
7008812416,39.521873,-28.921356,6.570399,0.983765,-0.207350,0.180336
7008832468,46.404034,-24.612974,9.660517,0.974142,-0.229571,0.184523
7008852521,51.358578,-20.124826,7.172576,0.961400,-0.248429,0.221278
7008872578,54.881714,-19.120386,2.711455,0.951351,-0.281135,0.210224
7008892625,61.086109,-18.755619,-1.233033,0.953003,-0.281431,0.208331
7008912677,67.668358,-18.921656,-3.076452,0.983094,-0.246168,0.236401
7008932729,72.423752,-20.434353,-2.299851,0.985998,-0.232868,0.231996
7008952782,77.707947,-21.701332,-0.432912,0.957552,-0.256689,0.228799
7008972834,84.447922,-22.382505,2.522869,0.918418,-0.249281,0.244704
7008992889,91.561768,-24.574411,5.097198,0.895634,-0.247442,0.211439
7009012937,96.635757,-25.647356,5.455329,0.897587,-0.199727,0.212173
7009032989,101.331123,-25.231709,5.103621,0.917366,-0.167379,0.196579
7009053041,105.007477,-23.426590,4.633797,0.946392,-0.160647,0.218247
7009073094,106.641830,-21.817257,5.324943,0.995631,-0.149876,0.226924
7009093146,104.782372,-21.745411,8.993563,0.986052,-0.100275,0.234370
7009113198,102.401451,-23.448448,14.646588,0.961496,-0.086204,0.186228
7009133250,102.255898,-27.998806,17.928848,0.964887,-0.129673,0.189300
7009153302,105.979622,-31.652678,18.523712,0.969937,-0.178595,0.191992
7009173355,109.409576,-36.669434,17.600010,0.945227,-0.182556,0.179230
7009193407,112.474533,-41.078453,18.311394,0.945849,-0.189552,0.185496
7009213459,113.542946,-43.005539,20.993031,0.969335,-0.139632,0.197445
7009233511,110.070549,-42.931068,24.343891,0.990848,-0.077202,0.182242
7009253564,105.780014,-43.692513,24.817911,0.990648,-0.119266,0.144102
7009273616,104.737076,-41.670605,23.894255,1.016630,-0.162450,0.118974
7009293668,104.205795,-41.239288,25.416325,1.004196,-0.191197,0.092772
7009313720,108.209137,-39.603760,25.401711,0.959416,-0.257266,0.066590
7009333772,111.933189,-40.289127,26.016663,0.909880,-0.311590,0.068412
7009353824,117.184669,-32.593803,26.162624,0.951055,-0.296166,0.034989
7009373877,121.780785,-35.638771,29.695723,0.983559,-0.302336,-0.001426
7009393929,124.861053,-34.341663,31.137756,1.003897,-0.310765,0.047984
7009413981,121.575668,-34.494011,33.246380,0.986199,-0.310764,0.018866
7009434033,125.614395,-33.069221,34.680061,0.973746,-0.249725,0.013255
7009454086,123.928093,-31.889227,36.935112,1.003486,-0.177727,0.005089
7009494192,109.532684,-30.464561,40.595882,1.001836,-0.202041,0.065342
7009514244,104.793236,-34.367249,38.216038,0.956553,-0.247852,0.083728
7009534296,102.715622,-38.153133,33.553593,0.931303,-0.298242,0.077316
7009554348,99.788460,-38.033997,29.021990,0.923881,-0.329202,0.099162
7009574400,97.964111,-40.799850,24.530260,0.931539,-0.347048,0.108057
7009594453,98.791389,-45.920975,20.606558,0.924851,-0.380197,0.052590
7009614505,102.832497,-46.526390,19.136911,0.898051,-0.425990,0.043841
7009634557,103.943481,-46.068398,18.384626,0.913407,-0.421362,0.034626
7009654609,105.647484,-45.522346,17.737938,0.896180,-0.415532,0.000082
7009674662,110.277435,-47.701527,15.303403,0.880853,-0.454278,0.005875
7009694714,116.290070,-48.582882,11.386014,0.918386,-0.461207,-0.001595
7009714766,116.573830,-45.219410,9.949479,0.957997,-0.398581,-0.025032
7009734818,115.296997,-42.330612,9.492814,0.937040,-0.379555,-0.083022
7009754870,113.461403,-41.109848,7.556617,0.929032,-0.341560,-0.042257
7009774923,109.708145,-40.660248,6.904592,0.974942,-0.301084,-0.071756
7009794975,104.222946,-36.950089,7.424254,0.968593,-0.279574,-0.072413
7009815046,100.301346,-34.531044,6.250133,0.969943,-0.314651,-0.098627
7009835077,96.598282,-30.447838,2.705564,0.960775,-0.325115,-0.053583
7009855130,92.766327,-30.445982,0.963740,0.956800,-0.298196,-0.057558
7009875182,87.149063,-26.613787,-0.684553,0.946574,-0.275033,0.026715
7009895234,84.153313,-30.615530,-0.131609,0.948981,-0.293455,-0.016861
7009915286,84.548576,-27.207310,-0.613387,0.937904,-0.322086,-0.041511
7009935339,83.083786,-25.858862,-1.951417,0.908008,-0.351615,-0.043289
7009955391,84.964577,-25.911877,-5.066845,0.926964,-0.379305,-0.012843
7009975443,89.994064,-27.891495,-6.372943,0.952989,-0.375163,-0.006708
7009995495,96.796661,-28.475115,-7.252474,0.929090,-0.374450,-0.035877
7010015548,103.518501,-29.043991,-9.314343,0.922043,-0.358751,-0.023385
7010035600,103.413902,-31.362791,-8.533262,0.931960,-0.329323,-0.019202
7010055652,100.709595,-31.000217,-8.427460,0.964995,-0.287663,-0.014542
7010075704,96.695938,-30.488363,-8.571818,0.978708,-0.232474,-0.033079
7010095757,91.975487,-27.655472,-10.702036,0.981793,-0.180338,-0.041022
7010115809,84.009483,-23.168118,-11.965238,0.959432,-0.209015,-0.022399
7010135861,78.799179,-22.015247,-12.748016,0.947405,-0.219843,-0.002546
7010155913,72.311325,-19.947674,-12.828660,0.935398,-0.176333,0.017768
7010175966,63.484394,-20.053120,-10.778887,0.947757,-0.188610,0.015090
7010196018,58.002247,-19.511169,-8.255043,0.986555,-0.196785,0.041180
7010216070,53.961266,-18.973543,-6.701794,0.991973,-0.184969,0.059804
7010236122,48.635826,-19.386383,-4.061029,1.006477,-0.183515,0.057617
7010256174,44.837067,-18.416424,-2.820093,0.992783,-0.180550,0.012680
7010276227,40.462341,-16.342918,-1.749494,0.965435,-0.156024,-0.015427
7010296279,35.858700,-13.729604,-1.514361,0.930380,-0.133600,-0.049562
7010316333,35.769035,-12.669395,-4.231249,0.916485,-0.184020,-0.002362
7010336384,32.212162,-18.022034,-7.819143,0.898498,-0.235417,0.027915
7010356437,25.536770,-25.305382,-8.572341,0.943363,-0.245155,-0.031274
7010376489,20.384165,-31.076466,-9.460125,0.953041,-0.241924,-0.035515
7010396541,18.812071,-37.457890,-7.330635,0.984542,-0.200190,-0.095758
7010416593,21.119461,-38.776649,-2.180787,1.004929,-0.191043,-0.094538
7010436646,25.331076,-40.618599,3.500724,0.971159,-0.245385,-0.153950
7010456698,27.167170,-42.118038,5.786514,0.953503,-0.197951,-0.074010
7010476750,25.980246,-45.722698,9.626724,1.019976,-0.202646,-0.120563
7010496802,26.447952,-45.994328,11.802657,1.058362,-0.199509,-0.123144
7010516855,26.254208,-45.128338,8.495316,1.017513,-0.174913,-0.118629
7010536907,21.190821,-46.443398,8.660778,1.003994,-0.167984,-0.102082
7010556959,15.911520,-47.235619,8.892725,1.006920,-0.193942,-0.183739
7010577011,12.754751,-44.314476,8.292606,1.014961,-0.165475,-0.170106
7010597063,3.663300,-43.972733,11.697564,0.992650,-0.192905,-0.191668
7010617115,0.125139,-41.832016,12.926796,0.984376,-0.212541,-0.216675
7010637166,0.024407,-40.973751,17.880510,0.957802,-0.233769,-0.229523
7010657218,-0.574124,-33.996246,21.001945,0.953166,-0.222224,-0.221964
7010677271,-2.293253,-27.512983,22.761261,0.951189,-0.232943,-0.221491
7010697323,-0.699278,-21.905088,19.543058,0.915708,-0.252245,-0.193345
7010717375,-1.494315,-20.315685,14.808592,0.970919,-0.242247,-0.207974
7010737427,0.497152,-14.105791,12.732599,0.965093,-0.233748,-0.229108
7010757480,-0.684928,-10.171235,11.878191,0.985288,-0.242232,-0.170791
7010777532,0.107020,-7.055052,11.624649,0.985618,-0.269691,-0.197827
7010797584,2.834631,-1.678495,9.066216,0.964224,-0.265954,-0.142583
7010817637,2.966846,1.037364,8.617232,0.986464,-0.292949,-0.159562
7010837689,2.977144,1.904360,8.849189,0.937502,-0.331911,-0.170092
7010857741,5.135207,0.900323,6.320521,0.924475,-0.327631,-0.173779
7010877793,3.534692,-0.406038,6.681794,0.908468,-0.308413,-0.174387
7010897846,6.771070,0.650117,7.078707,0.916975,-0.338674,-0.195244
7010917898,9.649858,-0.830837,6.415854,0.919873,-0.341908,-0.205910
7010937950,11.018594,-0.653578,6.619396,0.908097,-0.333878,-0.176094
7010958002,11.383923,-3.140509,5.544046,0.883911,-0.362673,-0.203834
7010978054,13.603627,-2.316173,-0.833475,0.883598,-0.355451,-0.200648
7010998106,12.388728,-2.327441,-4.948384,0.962755,-0.302897,-0.184609
7011018159,12.517768,-1.227258,-3.982114,0.925049,-0.329900,-0.192834
7011038211,12.389810,4.519591,-3.865451,0.939191,-0.349744,-0.184870
7011058263,12.173788,1.030963,-1.882825,0.868552,-0.352716,-0.216873
7011078315,12.205942,-6.696146,-5.304636,0.892524,-0.311131,-0.299162
7011118420,19.957008,1.664263,-4.616158,0.971836,-0.338261,-0.238575
7011138473,22.961390,7.583354,-9.298665,0.955226,-0.360138,-0.209084
7011158526,22.903042,10.152566,-12.323922,0.954092,-0.365958,-0.183758
7011178578,21.914995,9.152625,-10.963498,0.931854,-0.304727,-0.199893
7011198630,19.994368,7.605233,-9.972227,0.930304,-0.295939,-0.188646
7011218682,16.673048,5.400195,-4.696091,0.964912,-0.308130,-0.207890
