Timestamp (us),Gyroscope X (deg/s),Gyroscope Y (deg/s),Gyroscope Z (deg/s),Accelerometer X (g),Accelerometer Y (g),Accelerometer Z (g)
566995692,-3.137964,-10.361486,-5.862648,0.655206,0.438693,0.616530
567005671,-2.925793,-9.660855,-5.043337,0.658838,0.430760,0.623648
567015651,-2.135298,-8.779243,-4.070598,0.656394,0.423682,0.635192
567035610,-1.724158,-7.561685,-3.038899,0.662629,0.417896,0.629391
567045590,-1.875120,-6.906538,-2.721622,0.665724,0.416216,0.628565
567055569,-1.736927,-6.145661,-2.312474,0.662286,0.416598,0.627403
567065549,-1.311729,-5.552361,-1.583372,0.663065,0.425710,0.629454
567075530,-1.071555,-5.262148,-0.596389,0.676468,0.435052,0.606417
567085510,0.072505,-3.423293,0.451982,0.687178,0.426563,0.592911
567095489,-0.361382,-1.429121,0.599357,0.685577,0.406706,0.601402
567105469,-1.418690,-0.073152,0.062577,0.673044,0.402361,0.618727
567115448,-2.557497,0.005545,-0.427026,0.657076,0.401698,0.636658
567125428,-2.847691,-0.389230,-0.548826,0.664681,0.409722,0.643769
567135408,-2.557839,-0.299048,-0.623897,0.673038,0.407454,0.643777
567145387,-1.871897,0.201087,-0.425053,0.677851,0.399821,0.634884
567155367,-0.819111,0.927893,-0.377123,0.676397,0.398183,0.633791
567165347,0.201868,1.487800,-0.177261,0.676141,0.406339,0.631832
567175326,0.887423,2.079533,0.188412,0.677211,0.415374,0.616405
567185306,1.802122,3.157739,0.796976,0.674666,0.419612,0.618475
567195285,1.285907,3.875012,1.173669,0.669775,0.429172,0.622235
567205265,0.967759,4.378225,1.308475,0.675045,0.434443,0.625888
567215245,0.618896,4.592152,1.246287,0.681426,0.433109,0.613824
567225224,0.832457,4.377921,0.943736,0.680152,0.422308,0.607786
567235204,1.792451,3.993358,0.325152,0.676792,0.415267,0.608750
567245183,2.965135,3.486378,-0.322905,0.667149,0.416986,0.620019
567255163,2.646403,2.420408,-1.460777,0.666436,0.419912,0.620686
567265142,1.993021,1.355443,-2.630114,0.672022,0.410947,0.608369
567275122,2.605569,0.955612,-3.826619,0.680317,0.413890,0.604102
567285104,4.752317,0.902588,-4.092664,0.685216,0.418804,0.607936
567295080,6.729295,0.317853,-4.312939,0.682673,0.422651,0.620575
567305060,7.499832,-1.525846,-4.732644,0.678900,0.428510,0.620774
567315039,8.285214,-3.308479,-5.015782,0.675055,0.424009,0.608575
567325018,9.622378,-4.972725,-6.056215,0.659292,0.411247,0.607402
567334998,11.145364,-6.562803,-7.733655,0.646447,0.403422,0.597824
567344978,12.548530,-7.833370,-9.548577,0.640794,0.407521,0.600568
567354957,13.659374,-9.375860,-10.908695,0.648096,0.421910,0.607569
567364937,14.825287,-11.053083,-11.114840,0.666889,0.435798,0.613332
567374917,15.259902,-11.493376,-10.035048,0.674251,0.440580,0.622312
567384896,15.328261,-11.490158,-8.334800,0.670497,0.445300,0.631637
567394876,15.331493,-11.682926,-5.875532,0.668982,0.455104,0.629627
567404856,16.974419,-11.696379,-2.409311,0.667987,0.462360,0.627851
567414835,18.841785,-11.937407,1.695502,0.668665,0.468813,0.634496
567424815,19.810843,-12.358211,5.736900,0.677150,0.469524,0.639375
567434795,19.505945,-11.999776,9.514883,0.677030,0.458839,0.629713
567444774,18.328453,-9.601213,12.907463,0.654445,0.441318,0.609006
567454754,18.332962,-5.778662,15.330377,0.616759,0.426162,0.577784
567464733,20.596249,-2.133839,16.167244,0.573475,0.420670,0.581816
567474713,22.513628,-2.338016,16.006920,0.553385,0.421823,0.596727
567484692,22.022945,-5.847858,17.027525,0.579926,0.441432,0.588879
567494672,22.434233,-8.654730,21.116180,0.629339,0.474340,0.549361
567504652,25.976664,-9.900496,27.428961,0.682752,0.480979,0.506522
567514631,28.988659,-8.043888,32.688011,0.703616,0.463925,0.523758
567524611,29.910736,-6.428915,35.496727,0.690478,0.453201,0.551921
567534591,29.139282,-7.884541,36.513332,0.679078,0.441273,0.573580
567544570,26.310760,-11.739916,35.963310,0.677320,0.419950,0.568798
567554550,22.908064,-15.199112,34.864357,0.700132,0.397493,0.553557
567564529,20.274872,-16.272331,34.007248,0.725143,0.365814,0.543243
567574509,19.576672,-15.265247,34.504337,0.740547,0.331606,0.539715
567584488,21.284784,-12.758192,35.933044,0.736807,0.309323,0.554946
567594468,23.604670,-10.315399,36.635284,0.749484,0.296562,0.573964
567604449,25.025253,-8.295736,37.274475,0.767012,0.289903,0.578583
567614429,27.056423,-5.715074,38.005913,0.793661,0.284075,0.571882
567624409,30.144279,-1.738908,38.526253,0.803225,0.294342,0.572072
567634388,34.432514,2.432324,39.627068,0.808063,0.317524,0.557029
567644368,38.643623,7.503266,41.758438,0.819018,0.332668,0.531120
567654347,40.227966,12.960894,42.924286,0.795597,0.324209,0.532833
567664327,39.433655,15.472153,42.477722,0.743805,0.321991,0.568344
567674307,39.008713,15.076824,41.869759,0.712710,0.329305,0.536693
567684286,41.911263,18.460522,42.451088,0.720502,0.324651,0.460055
567694266,42.530434,22.827011,44.055565,0.732025,0.360437,0.466237
567704245,40.720314,24.112368,45.019104,0.752161,0.441289,0.439785
567714225,33.630978,27.418531,44.125542,0.790518,0.492412,0.407233
567724204,16.430380,29.259895,39.998024,0.765202,0.446761,0.425364
567734184,5.191801,25.498390,34.972675,0.682896,0.379971,0.474304
567744164,2.592017,21.437229,30.795979,0.690066,0.393676,0.521564
567754143,-2.734425,21.630405,27.651251,0.831131,0.511537,0.538065
567764123,-7.474616,28.126421,28.384819,1.056007,0.631980,0.554240
567774102,-13.106255,44.787445,30.102053,1.159838,0.590656,0.748597
567784082,-29.041327,63.396637,23.707191,0.999285,0.315762,0.982728
567794061,-34.735813,73.364494,9.860746,0.818425,0.133440,0.968373
567804041,-17.778271,81.114838,-4.271818,0.861461,0.174754,0.802753
567814035,1.129962,86.785423,-20.868975,0.915540,0.323562,0.722995
567823999,12.956934,91.666489,-40.448223,0.939025,0.524492,0.792073
567833978,22.374445,98.622993,-60.418007,0.974022,0.669431,0.794894
567843958,25.777157,102.688332,-75.485405,0.873128,0.580135,0.733677
567853938,28.734379,102.451546,-90.138016,0.795047,0.506278,0.700126
567863917,36.752125,99.365875,-99.092773,0.712907,0.469902,0.690655
567873897,43.844505,91.578560,-102.867584,0.625632,0.413790,0.595816
567883877,48.381454,77.861397,-102.179405,0.529462,0.310888,0.440386
567893856,52.633377,61.398888,-98.163902,0.443843,0.156658,0.300743
567903836,61.744759,41.991375,-91.168060,0.335468,0.014936,0.167398
567913815,77.748749,21.060606,-81.931068,0.199970,-0.034868,0.084501
567923795,95.826691,-1.868038,-72.077072,0.048276,0.046794,0.041407
567933774,106.122437,-30.347794,-59.235100,0.004715,0.106525,0.054746
567943754,110.443222,-56.503395,-42.242168,0.075511,0.177937,0.065073
567953734,114.464615,-69.234436,-21.035395,0.293046,0.230437,0.166732
567963713,114.681046,-63.708900,-3.481039,0.550773,0.390577,0.310164
567973693,117.163841,-47.000786,4.258573,0.594930,0.506004,0.402512
567983672,112.935532,-30.992434,1.336700,0.556794,0.579806,0.524266
567993652,102.395279,-10.392560,-4.952235,0.660537,0.686385,0.675403
568003632,94.013504,13.562197,-11.041727,0.871655,0.911973,0.810716
568013611,91.958755,28.682707,-20.861454,0.992474,1.071791,0.710510
568023591,105.430267,29.950163,-27.178757,0.933385,0.967008,0.514814
568033571,124.732040,18.667980,-25.033789,0.715399,0.703455,0.289664
568043550,136.012238,0.843189,-21.691248,0.517384,0.602494,0.170034
568053530,130.690735,-16.045254,-17.782637,0.379837,0.638306,0.159457
568063509,121.660248,-30.500973,-12.630077,0.318550,0.698940,0.209610
568073489,113.208992,-43.023827,-5.960608,0.351618,0.702585,0.270986
568083469,104.478783,-49.614525,0.425854,0.477788,0.752038,0.323302
568093448,94.344063,-47.975647,5.110527,0.632578,0.893392,0.414523
568103428,80.399338,-38.799950,7.707026,0.791989,1.081606,0.505972
568113407,63.601440,-23.484726,10.725106,0.990010,1.147804,0.573174
568123387,46.154724,-2.205342,21.184931,1.032138,0.948190,0.578491
568133367,34.710697,20.057497,31.040791,0.914980,0.724301,0.576367
568143348,26.811779,33.722214,36.716679,0.777186,0.544870,0.504112
568153327,23.268990,37.693913,39.598190,0.738352,0.510781,0.432929
568163307,20.268959,37.055988,42.822319,0.783040,0.543363,0.392602
568173287,16.559092,37.591202,45.905739,0.869303,0.579112,0.362091
568183266,12.532731,40.274525,50.229568,0.919979,0.637773,0.381365
568193246,7.536501,43.126743,53.806179,0.927731,0.589417,0.337314
568203225,5.858687,44.931820,56.256901,0.865406,0.510962,0.361132
568213205,4.141285,43.556480,57.877419,0.789995,0.459954,0.387721
568223185,4.821725,40.972664,59.871952,0.752349,0.431244,0.324668
568233164,9.871235,41.924511,64.698898,0.757118,0.399660,0.294130
568243144,8.672641,45.255234,70.215050,0.731940,0.423037,0.408023
568253123,0.495060,47.584667,73.493530,0.766524,0.513471,0.437955
568263103,-4.261852,50.788429,78.299881,0.825804,0.578187,0.392451
568273083,-12.426461,52.836075,85.161026,0.842961,0.573005,0.398315
568283062,-21.852150,52.760395,93.022987,0.841327,0.460978,0.357321
568293042,-26.831459,51.137081,102.252861,0.803421,0.326330,0.359924
568303021,-33.508835,47.230778,108.050125,0.783542,0.258695,0.345551
568313001,-43.028805,44.254860,110.633865,0.827073,0.256041,0.344025
568322981,-51.691586,42.127281,112.885239,0.872391,0.274386,0.399921
568332960,-57.847275,39.886749,115.888840,0.907466,0.286416,0.476677
568342962,-58.590668,37.676991,120.094208,0.900261,0.274988,0.498223
568352918,-52.495605,33.743065,124.886383,0.863809,0.180330,0.501473
568362898,-45.155121,27.764452,128.395538,0.823960,0.146001,0.512778
568372877,-40.557022,22.673006,130.042450,0.852972,0.159399,0.517097
568382857,-39.604424,21.270853,130.138779,0.913303,0.185330,0.517961
568392836,-37.443264,22.277988,127.655098,0.964029,0.217873,0.541488
568402816,-36.190430,22.752609,123.651306,0.988276,0.288902,0.579744
568412796,-35.112816,22.545589,120.756042,0.987885,0.302905,0.567305
568422775,-28.500290,21.141094,121.113914,0.955603,0.277848,0.534159
568432755,-21.282433,17.289726,123.374802,0.904908,0.307438,0.532562
568442735,-11.939880,9.960043,123.811287,0.875479,0.329718,0.518545
568452714,-2.160824,3.401446,122.654282,0.868940,0.320812,0.501633
568462694,1.591249,-3.975643,120.901779,0.882667,0.264177,0.455096
568472673,3.277747,-12.514450,120.555824,0.891654,0.224550,0.374683
568482653,11.330685,-18.546576,121.289673,0.876421,0.175183,0.332231
568492633,23.181427,-22.019527,122.442085,0.846312,0.168926,0.343073
568502612,26.145267,-27.566996,121.640518,0.828467,0.180932,0.393179
568512591,20.904922,-32.576180,118.336884,0.835301,0.162930,0.410173
568522571,15.075211,-33.379814,117.878632,0.851027,0.149652,0.420878
568532551,9.026935,-34.043167,118.755180,0.883015,0.126925,0.455894
568542530,5.108976,-34.225647,120.108604,0.893201,0.132856,0.470918
568552510,4.807771,-34.981186,122.081978,0.881631,0.137689,0.457513
568562490,9.198181,-36.752617,125.514374,0.873124,0.130605,0.439443
568572469,13.404739,-38.675282,129.082993,0.859663,0.142117,0.433908
568582449,13.606993,-39.426231,134.124146,0.853066,0.182592,0.437131
568592428,8.210995,-39.687801,139.161255,0.829290,0.137768,0.450724
568602408,-1.132169,-42.631226,143.050919,0.808708,0.102196,0.452751
568612388,-10.662884,-48.314575,145.577972,0.830630,0.120145,0.415159
568622367,-19.449226,-51.294243,147.465912,0.851621,0.072847,0.353304
568632347,-19.328693,-51.729202,150.684860,0.878100,0.013350,0.294117
568642326,-14.683935,-50.595947,154.326263,0.867887,0.016974,0.286039
568652306,-12.926208,-50.445831,156.122955,0.850685,0.048225,0.297414
568662285,-12.535940,-51.617958,156.262589,0.856055,0.054690,0.295767
568672267,-5.840483,-52.363785,159.048401,0.896742,-0.002848,0.281247
568682246,10.212435,-49.138161,162.405609,0.921310,-0.062015,0.293048
568692226,25.731876,-44.383308,153.949646,0.976787,-0.136370,0.419674
568702206,18.697433,-42.351173,139.867767,1.103223,0.031920,0.555100
568712185,9.010685,-46.747250,124.344742,1.304638,0.237419,0.540312
568722165,11.890763,-35.961597,99.718086,1.594968,0.432953,0.441537
568732144,6.535311,-12.511589,66.909447,1.705256,0.683449,0.542721
568742124,-20.841507,1.460484,35.833298,1.343920,0.907371,0.830380
568752103,-41.940441,-7.604596,2.474786,1.103216,1.008572,1.078735
568762083,-53.156799,-19.599075,-34.823540,1.294929,1.045837,1.027550
568772063,-79.876755,-8.122369,-65.332169,1.529243,0.981378,0.887933
568782042,-102.785980,15.331165,-86.511139,1.590762,0.838397,0.788867
568792022,-91.771835,40.898087,-99.612267,1.522860,0.597745,0.707059
568802001,-66.796089,57.996208,-111.698341,1.397624,0.357247,0.644958
568811981,-56.091438,66.072235,-132.606628,1.335521,0.237694,0.556172
568821961,-63.206161,72.735291,-158.337845,1.306040,0.209705,0.473588
568831940,-79.270943,80.753441,-182.461349,1.303761,0.257514,0.484055
568841920,-95.988976,92.269295,-200.368912,1.261572,0.379579,0.471811
568851899,-105.436661,107.283432,-214.296021,1.219372,0.407028,0.429245
568861879,-107.207977,120.836128,-224.264252,1.150780,0.312527,0.383094
568871859,-113.697571,130.571167,-234.151321,1.111637,0.161545,0.374286
568881837,-125.805214,136.697144,-240.013962,1.104812,0.025940,0.358352
568891816,-128.212158,145.013733,-245.407654,1.195393,-0.076766,0.286478
568901796,-110.795082,155.326187,-247.885193,1.271307,-0.198274,0.198981
568911776,-81.314224,164.404922,-247.209381,1.229207,-0.303753,0.229076
568921755,-58.756371,168.087524,-248.278732,1.092481,-0.293437,0.340591
568931735,-41.095146,164.233261,-253.527206,1.061172,-0.226863,0.420336
568941714,-29.968254,158.443619,-255.895203,1.017466,-0.071048,0.452314
568951694,-31.371599,152.215790,-254.053894,0.966987,0.015812,0.426107
568961673,-39.675205,145.660721,-244.402649,0.846161,0.013561,0.385500
568971653,-42.621624,136.001953,-234.273666,0.763291,-0.062444,0.375755
568981633,-41.158211,125.690605,-223.977356,0.786305,-0.026863,0.326239
568991613,-39.554817,116.679398,-209.842285,0.761821,-0.105517,0.276083
569001592,-36.704933,104.495461,-198.233215,0.759853,-0.128578,0.239272
569011572,-32.333584,86.851852,-191.422638,0.792151,-0.198872,0.229177
569021551,-23.206291,67.581108,-184.457321,0.728351,-0.146378,0.218041
569031531,-23.039040,53.480988,-176.967712,0.694477,-0.247182,0.238012
569041510,-30.288801,33.534039,-176.764526,0.657457,-0.285131,0.252342
569051490,-28.644213,13.005266,-171.931915,0.555154,-0.300883,0.283871
569061469,-17.507465,-7.812875,-159.812012,0.492273,-0.281099,0.374002
569071449,-5.665006,-29.529751,-139.719543,0.455485,-0.313710,0.442886
569081429,8.126911,-47.909813,-113.645195,0.448053,-0.365076,0.455793
569091409,28.361839,-59.913368,-83.142021,0.460133,-0.431653,0.436890
569101388,51.999748,-66.316162,-53.030628,0.465438,-0.475032,0.433144
569111368,75.013252,-72.068306,-25.578568,0.449405,-0.497267,0.442867
569121347,92.317688,-76.619415,0.107270,0.436295,-0.473260,0.434220
569141306,103.157547,-76.075569,53.040474,0.507375,-0.290861,0.587705
569151286,98.633148,-61.974682,76.668228,0.711112,-0.115772,0.645943
569161266,95.262512,-40.589382,94.050423,0.842594,0.080302,0.658256
569171246,92.461746,-12.279287,99.417694,0.878268,0.270991,0.744298
569181225,86.575897,18.038330,92.294785,0.884092,0.480832,0.938026
569191205,64.422066,40.445564,81.411118,0.816749,0.649328,1.149301
569201186,20.971203,57.795818,70.874466,0.758994,0.759925,1.212177
569211165,-11.693880,65.953911,59.658615,0.841528,0.839481,1.178512
569221145,-18.805836,56.660469,55.823933,0.978933,0.762848,1.032946
569231124,-16.635181,38.868889,61.200638,1.014842,0.489220,0.758527
569241104,-11.549497,26.945868,69.978264,0.872313,0.250127,0.543831
569251084,8.942900,21.783672,76.793098,0.706404,0.160082,0.459943
569261063,33.708008,21.891697,79.075699,0.557414,0.182010,0.461586
569271043,41.471508,23.565659,76.730957,0.475276,0.286082,0.508459
569281023,27.695906,26.767012,73.614532,0.484447,0.443702,0.614409
569300982,-13.042152,13.752266,71.844864,0.555127,0.707287,0.662565
569310961,-27.965710,-1.673396,76.933868,0.603071,0.722534,0.657548
569320948,-33.799030,-15.340849,85.829803,0.622218,0.668518,0.669712
569330920,-37.476509,-29.988113,94.977188,0.628684,0.568705,0.674015
569340900,-35.764626,-44.066093,100.817383,0.659925,0.416595,0.637923
569350880,-27.634758,-53.848934,104.699112,0.659498,0.317813,0.608390
569360859,-17.613560,-59.600128,104.558678,0.649373,0.257503,0.592073
569370839,-6.773729,-61.907196,101.501465,0.632724,0.235748,0.584475
569380818,1.864389,-62.761860,98.662491,0.586415,0.210039,0.583864
569390798,4.656926,-64.206497,95.698830,0.560651,0.279757,0.584071
569400778,2.823680,-65.797409,95.831757,0.554649,0.289228,0.556123
569410756,2.450537,-66.197342,100.551735,0.538075,0.267795,0.533222
569420735,2.094543,-67.856125,107.064758,0.524171,0.253652,0.550865
569430715,-0.547779,-70.801155,113.223030,0.536379,0.253887,0.550721
569440695,-3.904533,-71.678757,117.706177,0.586604,0.275741,0.576417
569450674,-8.653124,-72.205101,120.696678,0.664959,0.311321,0.615882
569460654,-17.066715,-74.969208,124.467712,0.758798,0.335509,0.670569
569470633,-31.560406,-81.269043,130.197174,0.891718,0.362039,0.676761
569480613,-42.581802,-83.428108,135.719437,1.080628,0.349928,0.591365
569490592,-44.256134,-78.936066,143.144806,1.266685,0.276780,0.544617
569500572,-45.157318,-70.161766,148.365417,1.385858,0.158406,0.540546
569510552,-47.403461,-61.461838,144.762787,1.391926,0.042407,0.581532
569520531,-42.636963,-57.604828,134.132431,1.210447,-0.013392,0.653060
569530511,-27.931793,-61.994812,122.545418,1.066018,-0.010098,0.763820
569540491,-11.823307,-68.264923,108.567612,1.022870,0.040149,0.812654
569550470,11.985083,-73.530098,92.245850,0.981952,0.220585,0.876880
569560450,35.916485,-80.875267,70.448051,1.014215,0.411954,0.982154
569570429,47.431263,-80.002190,38.988743,1.220327,0.682620,0.951450
569580409,46.399445,-62.197823,4.108150,1.441007,1.011285,0.844118
569590388,19.217648,-43.073196,-28.432220,1.465438,1.266563,0.788662
569600368,-27.116064,-33.600288,-57.909798,1.274746,1.362029,0.667223
569610348,-55.058765,-25.264671,-86.717743,1.054611,1.284031,0.597989
569620327,-67.230652,-13.912224,-110.560150,0.880156,1.125013,0.714864
569630307,-84.533722,-4.189507,-128.588409,0.705530,0.905637,0.819247
569640286,-105.677490,1.135993,-145.939743,0.636720,0.678948,0.821516
569650266,-123.672363,5.827240,-163.583282,0.721117,0.464006,0.653749
569660246,-133.219788,15.801895,-180.159485,0.908403,0.276600,0.502353
569670225,-144.527039,27.029209,-196.819275,1.045359,0.109157,0.387588
569680205,-150.140335,36.415524,-212.303879,1.096511,0.031982,0.280698
569690185,-141.864441,43.722836,-218.541122,1.043471,-0.039809,0.232092
569700164,-123.871582,45.132557,-215.053360,0.984754,-0.083078,0.277619
569710144,-105.008820,41.780926,-202.994736,0.958873,-0.125269,0.320634
569720125,-91.593307,37.286610,-185.457703,0.892602,-0.189921,0.315743
569730104,-82.208618,33.481522,-164.398315,0.721839,-0.195539,0.307968
569740084,-72.365578,28.285854,-138.295990,0.515103,-0.229272,0.279049
569750064,-56.652756,16.983482,-106.655243,0.337555,-0.258678,0.206157
569760043,-39.044724,-0.205139,-72.039536,0.201153,-0.314137,0.108767
569770023,-17.477043,-20.411203,-34.082088,0.142625,-0.288731,-0.047892
569780002,14.479055,-46.494133,9.868578,0.105339,-0.298153,-0.296292
569789982,48.753986,-72.893456,58.972996,0.089046,-0.404798,-0.514485
569799962,69.818687,-107.937096,107.242203,0.104041,-0.592560,-0.426447
569809941,76.579605,-158.748489,157.870789,0.239649,-0.855668,-0.382861
569819921,79.626465,-190.795532,215.410965,0.701412,-0.834934,0.007363
569829900,36.685070,-173.433350,256.742004,1.106930,-0.387963,0.513419
569839880,-65.042625,-112.374016,249.954636,1.304128,0.107741,0.760429
569849860,-148.006012,-70.970055,195.460571,1.555320,0.602592,0.576445
569859839,-168.675644,-71.938347,135.224854,1.646543,0.814050,0.455910
569869819,-180.641541,-75.453339,92.978256,1.522143,0.298130,0.855649
569879798,-184.629379,-83.101227,72.940460,1.135022,-0.323212,1.070719
569889778,-152.623154,-80.956436,70.948349,0.926892,-0.472623,0.962624
569899757,-85.971191,-55.649063,77.566605,1.031615,-0.523712,0.737909
569909737,-22.374954,-18.835897,90.426430,1.176897,-0.422073,0.667334
569919717,10.806719,1.933714,94.239029,1.271631,-0.175867,0.650469
569929695,23.814165,5.088665,87.917374,1.295521,0.017596,0.581991
569939675,31.404188,8.330276,78.283882,1.242669,0.146709,0.546853
569949654,29.904854,15.222542,69.480087,1.133033,0.206867,0.579918
569959634,14.637170,20.182987,61.407806,1.027483,0.219944,0.603811
569969613,-8.936302,20.519455,55.166798,0.954645,0.205294,0.594702
569979593,-31.835340,18.496590,49.098515,0.909861,0.248037,0.551839
569989573,-48.985428,19.086174,42.787285,0.917982,0.356458,0.474994
569999552,-58.639198,22.085735,36.649010,0.941155,0.519217,0.432322
570009532,-68.238083,23.496342,27.067703,0.931546,0.686625,0.435778
570019511,-78.403412,19.616137,10.161059,0.880236,0.766689,0.466490
570029491,-88.982277,10.825250,-13.888838,0.878007,0.754426,0.571371
570039470,-101.972198,2.784875,-39.162125,0.961472,0.730008,0.663999
570049450,-112.699097,2.176778,-63.497963,1.083949,0.687256,0.711566
570059430,-121.482468,8.483860,-87.382339,1.136699,0.636591,0.752884
570069409,-129.658875,19.262806,-110.224068,1.176824,0.638093,0.772172
570079389,-135.983185,33.566113,-132.275620,1.217258,0.653067,0.780500
570089368,-135.622849,50.086189,-153.200348,1.231002,0.616902,0.766228
570099348,-130.158981,70.396828,-171.943329,1.244772,0.551982,0.799780
570109328,-128.763153,93.214790,-190.733826,1.237099,0.480623,0.837779
570119307,-131.893860,116.309265,-207.794159,1.283166,0.384450,0.795761
570129287,-133.810455,140.215698,-220.055176,1.344066,0.235971,0.643412
570139266,-121.884399,165.390823,-229.904434,1.402303,0.047799,0.497493
570149246,-91.931534,185.946777,-239.080078,1.394016,-0.143624,0.417974
570159226,-58.680164,195.390900,-247.317474,1.285999,-0.168193,0.426777
570169205,-37.015854,191.882431,-255.755981,1.133955,-0.180340,0.395958
570179185,-18.238468,176.516357,-265.749695,1.109915,-0.141855,0.275413
570189165,-0.187420,161.157547,-273.302032,1.125770,-0.094717,0.202993
570199144,12.580847,151.547516,-281.942932,1.178088,-0.180629,0.108652
570209124,13.550760,142.495239,-289.136169,1.198327,-0.109262,0.092556
570219103,0.423445,130.090775,-291.483337,1.154971,-0.024325,0.151381
570229083,-15.820234,116.419922,-285.672729,1.041919,0.046209,0.220273
570239062,-36.096554,101.343124,-274.469727,0.903584,-0.000743,0.243456
570249043,-53.597794,84.372375,-262.799316,0.817055,-0.079283,0.244248
570259023,-56.414757,65.838203,-248.922668,0.741083,-0.200177,0.265415
570269003,-48.302158,46.680244,-232.914276,0.629053,-0.309401,0.325615
570278982,-35.556995,22.367989,-216.199829,0.556609,-0.430392,0.342659
570288962,-15.704503,-8.780022,-199.011505,0.510235,-0.539970,0.288238
570298941,11.577988,-40.266617,-179.566833,0.477109,-0.527503,0.184708
570308921,41.615623,-65.262749,-157.815552,0.425609,-0.389926,0.095184
570318901,67.496071,-84.963814,-134.097534,0.338925,-0.184407,0.089135
570328880,82.307899,-105.830948,-110.308083,0.312404,-0.026560,0.085699
570338860,83.916641,-121.569336,-83.306473,0.401271,0.112631,0.131490
570348839,76.589943,-117.588020,-51.537010,0.681186,0.232425,0.254317
570358819,67.290955,-95.837975,-28.619507,0.932192,0.428592,0.482269
570368802,47.675259,-69.265785,-21.696245,1.004429,0.604899,0.704900
570378778,15.621291,-37.831402,-29.362667,1.002084,0.692224,0.894110
570388758,-23.618336,3.184407,-41.241329,0.897587,0.714539,1.078323
570398737,-56.092751,43.343552,-52.382957,0.696717,0.703262,1.234364
570408717,-60.787216,57.400528,-58.278503,0.547669,0.618839,1.223725
570418697,-33.206154,41.159721,-50.679924,0.553362,0.513914,1.064186
570428676,3.428795,13.335307,-33.183060,0.539958,0.360912,0.897982
570438656,28.736654,-13.116592,-16.742664,0.490356,0.306011,0.750998
570448655,40.334236,-30.790752,-6.098284,0.464981,0.365114,0.547407
570458614,48.002029,-38.573563,0.784335,0.456113,0.480056,0.444465
570468593,39.220818,-42.639091,7.257928,0.500723,0.588411,0.538395
570478573,4.034569,-42.313988,14.669860,0.607420,0.690799,0.641210
570488552,-45.948067,-36.178154,21.553669,0.687923,0.724096,0.637953
570498532,-96.865059,-28.931087,27.415745,0.691569,0.657451,0.633283
570508512,-133.996368,-27.488701,35.199051,0.656110,0.500023,0.596601
570518491,-148.060165,-30.752607,46.146923,0.598779,0.291678,0.630652
570528471,-143.962143,-35.091713,58.021610,0.530629,0.082343,0.701310
570538451,-123.180298,-44.226856,71.248795,0.472745,-0.060236,0.706955
570548430,-92.895302,-55.918186,83.979950,0.520430,-0.118075,0.676723
570558410,-68.574501,-62.560966,94.255241,0.578910,-0.075122,0.634293
570578369,-57.428925,-67.321213,112.088768,0.728143,0.005012,0.675056
570588348,-45.705948,-70.731842,121.300613,0.793612,0.048063,0.694128
570598328,-40.861031,-77.352707,134.213348,0.824739,0.101116,0.713863
570618287,-43.912498,-91.041313,167.146576,0.826403,-0.004020,0.686476
570628267,-44.849995,-95.519142,185.212982,0.795384,-0.043811,0.678546
570638246,-40.480942,-100.689117,200.322891,0.812346,-0.031223,0.705969
570648226,-36.606491,-106.881783,212.852295,0.874499,-0.013994,0.734692
570658206,-33.315014,-112.254456,223.799957,0.944577,0.040691,0.756936
570668185,-26.054510,-116.913910,232.680176,1.030613,0.071073,0.682435
570678165,-15.851741,-122.705887,242.755737,1.139804,0.091684,0.590124
570688145,-9.394268,-128.439423,253.243851,1.254153,0.058120,0.551429
570698124,-2.807078,-132.553284,260.087036,1.320980,-0.010566,0.514077
570708104,17.546085,-137.202698,264.517578,1.436005,-0.031723,0.354443
570718083,51.638142,-131.780518,261.905090,1.704773,-0.065892,0.109876
570728063,94.822128,-111.572884,244.288788,1.858134,-0.011501,0.096317
570738043,146.457596,-89.989456,213.340942,1.718734,0.310526,0.138206
570748022,184.313980,-62.931049,175.387466,1.342669,0.707679,0.488322
570758002,136.884842,-35.806431,118.178528,0.841756,1.156950,1.243798
570767981,-12.109688,-34.944305,30.801300,0.557888,1.795788,1.551944
570777962,-168.258759,-57.694908,-63.850128,0.753960,2.426199,1.461437
570787942,-246.020645,-57.900761,-138.103546,1.420984,2.889859,1.204182
570797922,-244.328568,3.356954,-154.203156,1.848480,2.260365,1.189551
570807901,-207.656052,77.719482,-140.592880,1.599987,0.773673,1.542268
570817881,-144.774384,109.929626,-148.690491,1.614694,-0.186734,1.631119
570827861,-49.829285,129.162109,-168.137939,1.741234,-0.768332,1.309133
570847820,110.493927,196.275726,-211.909164,1.281654,-0.502827,0.042069
570857799,129.791733,196.487762,-242.066772,0.972730,0.154077,-0.397430
570867779,154.652191,172.051468,-282.627319,0.963842,0.911369,-0.348076
570877758,149.000458,156.281219,-305.451385,0.986600,1.367506,0.103458
570887738,74.508560,152.268082,-309.182678,0.844012,1.281528,0.414229
570897718,-27.931700,148.805038,-310.684814,0.732377,0.746549,0.376871
570907697,-109.554253,137.174438,-309.313049,0.590725,0.322304,0.169958
570917677,-160.943268,119.818184,-308.652405,0.579684,0.102562,-0.033173
570927656,-181.906509,100.732048,-310.590515,0.723254,-0.073594,-0.167161
570937636,-174.209244,90.960236,-301.928925,0.929625,-0.334113,-0.269658
570947616,-156.914612,83.467651,-286.742462,1.065093,-0.784378,-0.256702
570957595,-138.504639,73.492622,-271.396820,1.052548,-1.188726,-0.254498
570967575,-91.434929,56.861832,-252.865204,0.884960,-1.508678,-0.147791
570977577,-15.172806,30.234882,-227.452454,0.578848,-1.549904,0.098782
570987533,56.008507,-1.469403,-193.654999,0.358024,-1.327756,0.314742
570997512,97.745010,-26.323547,-150.888153,0.348472,-0.881013,0.361522
571007492,119.934586,-40.110718,-96.727264,0.475258,-0.506055,0.307621
571017472,137.635117,-43.041451,-36.283043,0.586997,-0.282791,0.263032
571027451,147.529861,-38.327316,24.063248,0.533385,-0.248240,0.362561
571037431,138.751587,-29.283358,75.006386,0.455860,-0.310745,0.422082
571047411,122.848862,-16.631357,116.327576,0.523014,-0.302259,0.353604
571057390,119.980469,1.615057,154.283417,0.649828,-0.269306,0.259957
571067370,120.843750,25.443617,183.151138,0.742316,-0.220175,0.365934
571077349,112.293999,42.796268,191.339050,0.808483,-0.026478,0.579973
571087329,108.132874,25.106737,176.992569,0.928303,0.384038,0.603129
571097308,85.530159,7.276913,161.917496,1.187869,0.696459,0.743190
571107288,42.690514,32.845497,154.831345,1.378736,1.026335,1.058728
571117268,5.365598,91.650253,142.735107,1.378567,1.351475,1.424932
571127247,-28.681046,116.509804,122.321709,1.287277,1.422184,1.434119
571137227,-68.764153,67.808517,111.955605,1.313014,0.964670,0.760761
571147206,-85.504471,15.675983,118.960464,1.251769,0.476680,0.316693
571157186,-36.620983,2.801749,140.224625,1.073631,0.159780,0.326083
571167166,22.639938,-2.240936,162.088181,0.764097,-0.058400,0.242389
571177145,41.226917,-15.640734,168.924194,0.682100,-0.072198,0.247849
571187125,34.944172,-27.083553,171.561676,0.800773,0.077164,0.314055
571197105,24.705406,-28.995747,172.532471,0.929897,0.261615,0.362939
571207084,9.944757,-33.719906,174.797943,0.923657,0.318267,0.353701
571217064,4.745793,-42.226856,179.331955,0.829512,0.268093,0.237330
571227043,9.892960,-54.424614,187.730713,0.768737,0.137529,0.204661
571237023,15.394409,-68.547020,200.155930,0.725923,0.061646,0.206758
571247003,22.675936,-84.061523,211.435486,0.712502,-0.016095,0.214524
571256982,29.668655,-95.977539,219.172089,0.748903,-0.097241,0.148953
571276941,23.117153,-107.696068,220.427795,0.840079,0.077721,0.218241
571286921,29.209934,-117.419144,220.553528,0.886761,0.114117,0.191546
571296901,43.023186,-128.785980,224.820709,0.919111,0.050122,0.127259
571306882,48.600224,-139.324188,227.192413,0.986549,-0.026785,0.037783
571316861,58.197872,-143.277176,228.095215,1.102343,-0.044407,0.008688
571346800,96.202301,-126.226768,235.572266,1.262621,-0.029315,-0.201158
571356780,114.330521,-102.047081,239.694305,1.217805,-0.042149,-0.240380
571366759,147.835907,-73.720917,242.661835,1.134337,-0.124081,-0.195766
571376739,205.410400,-57.630241,242.691452,1.178202,-0.275703,-0.027656
571386718,231.004791,-60.084660,227.676773,1.512767,-0.237428,0.365595
571396698,191.946655,-75.235527,202.646713,2.121758,0.175836,0.600017
571406677,130.146683,-71.404755,179.182800,2.696837,0.567462,0.660789
571416657,69.871170,-51.998928,135.634262,2.691834,1.100745,0.723355
571426640,20.014965,-40.098961,89.839340,2.021490,1.658051,0.876224
571436616,1.161287,-49.736938,47.488071,1.489787,2.158196,0.798544
571446596,-3.945832,-43.047596,15.357988,1.357210,2.408703,0.653595
571456576,-10.003235,-3.559767,7.310075,1.326103,2.075814,0.705647
571466555,-6.694555,29.085546,15.013421,1.098537,1.291501,0.829423
571476535,-3.839915,30.545441,4.349960,1.013459,0.641674,0.926472
571486514,-10.915646,16.689995,-21.532606,1.152138,0.154249,0.911867
571496494,-28.573353,8.891267,-47.504730,1.351590,-0.261361,0.766252
571506476,-55.351501,18.491074,-73.593712,1.552467,-0.534978,0.385402
571516452,-73.405670,44.512432,-95.929245,1.673752,-0.597184,0.046071
571526431,-62.619041,72.944359,-106.637146,1.600958,-0.527216,0.005162
571536411,-20.933868,88.257034,-110.286629,1.381548,-0.399924,0.138013
571546391,26.044662,87.361649,-117.825714,1.168285,-0.216728,0.293919
571556370,59.686840,79.563095,-130.362015,1.103729,-0.054569,0.334700
571566350,75.547836,75.907898,-137.787292,1.004027,0.053627,0.377722
571576329,66.105240,73.642265,-144.873260,0.859192,0.173033,0.446688
571586309,43.119881,70.398476,-153.125748,0.844211,0.263386,0.423443
571596288,19.640835,69.070679,-154.855850,0.835781,0.305791,0.395639
571606268,0.654679,69.326843,-155.951141,0.884877,0.289927,0.315208
571616247,-11.559297,74.377975,-159.475006,0.942408,0.288544,0.261285
571626227,-24.327791,79.997643,-161.028305,0.982583,0.274377,0.290665
571636207,-38.108959,82.119644,-163.885086,1.076538,0.181613,0.316855
571646186,-48.886471,85.533142,-170.179489,1.198216,0.091732,0.298704
571656166,-59.137970,93.725655,-174.096207,1.249347,0.090967,0.344821
571666146,-68.381012,101.439072,-172.650757,1.216586,0.068287,0.374460
571676125,-67.103729,107.042786,-167.418213,1.100936,0.007490,0.362043
571686105,-57.379250,108.106979,-159.813431,0.942596,-0.024114,0.326510
571696084,-46.934761,108.335495,-150.656784,0.801025,-0.024859,0.274753
571716043,-23.645119,104.306709,-135.516418,0.633871,-0.025307,0.250021
571726023,-12.800089,93.352615,-127.389076,0.646251,-0.045067,0.250208
571736003,-1.088574,81.405746,-119.940445,0.851608,-0.015996,0.195401
571745983,9.221184,73.183731,-115.477043,1.056425,-0.022483,0.207641
571755962,14.622893,66.506332,-114.599197,1.151969,-0.017821,0.258490
571765942,13.867149,58.855618,-115.880463,1.056376,-0.016524,0.366719
571775921,3.068379,53.071869,-112.355659,0.941838,0.025847,0.410730
571785901,-10.830887,46.913620,-103.360992,0.858484,0.061716,0.405153
571795880,-16.401663,39.978516,-89.298264,0.786074,0.010825,0.317421
571805860,-15.305447,38.247833,-70.910507,0.732405,-0.063635,0.272308
571815840,-12.655182,38.476986,-51.169617,0.662871,-0.168959,0.243800
571825819,-2.576093,40.220276,-30.601969,0.599631,-0.292629,0.220808
571835801,15.586989,39.940193,-12.539447,0.560487,-0.418797,0.193199
571845780,40.001328,37.340775,4.196286,0.565483,-0.401026,0.143826
571855760,71.961555,37.399990,23.806601,0.568191,-0.328337,0.043974
571865739,105.695862,37.449623,41.479904,0.510282,-0.242647,0.069373
571875719,132.703812,28.522266,54.469318,0.521376,-0.088712,0.123514
571885699,145.789963,17.132547,61.314518,0.586918,0.076668,0.140948
571895678,146.653015,6.736452,66.357094,0.651183,0.216608,0.133460
571905658,144.158737,1.193968,74.447449,0.679836,0.270858,0.171160
571915637,139.897858,0.030822,86.729950,0.731044,0.292020,0.224933
571925617,131.323364,2.169044,100.131676,0.821027,0.309791,0.223378
571935597,124.215927,6.433095,114.096695,0.918270,0.331060,0.192578
571945576,121.595551,15.019657,129.071884,1.003713,0.342818,0.186849
571955556,115.314804,26.122137,141.374908,1.036991,0.335049,0.251148
571965535,106.312973,31.426579,147.848953,1.035589,0.294921,0.290936
571975515,100.716446,30.687735,149.713730,1.014790,0.229093,0.300011
571985495,104.163086,26.886103,148.045959,1.017314,0.190986,0.269356
571995474,113.194061,22.792650,146.275635,1.015169,0.127575,0.220635
572005454,123.251663,20.223286,147.663635,0.971820,0.118475,0.226546
572015433,127.135353,18.187977,155.193024,0.919544,0.073453,0.256193
572025413,127.805519,15.576569,166.097549,0.967005,0.072359,0.227395
572035408,132.281647,15.535934,175.644684,1.140165,0.070201,0.065420
572045371,141.658920,19.771074,178.781006,1.304937,0.067018,-0.085582
572055350,145.430237,22.604568,171.898041,1.369864,0.062484,-0.038786
572065330,133.661743,12.955181,157.681396,1.358651,0.158992,0.075804
572075310,109.039284,13.059208,147.657745,1.365045,0.249160,0.179530
572085289,103.397675,25.253395,144.235977,1.251004,0.229823,0.268453
572095269,115.264465,24.461796,147.600555,1.050301,0.266071,0.255436
572105248,118.904747,11.119424,151.700455,0.986944,0.305107,0.144725
572115228,108.432159,4.920288,153.405487,1.041459,0.303112,0.096584
572125208,85.168091,4.420523,155.332947,1.048016,0.327309,0.164604
572135187,77.442764,6.293294,159.144867,0.955541,0.155132,0.098342
572145167,93.526634,6.112192,162.689423,0.861730,0.007147,-0.005311
572155146,107.133957,-5.081067,162.204666,0.856582,-0.017870,-0.103707
572165126,118.021271,-12.358180,160.991684,0.919766,0.072466,-0.172324
572175106,128.631378,-8.667136,160.262299,0.966521,0.100894,-0.109646
572185085,132.453842,-7.835757,163.749634,0.952819,0.082014,-0.030364
572195065,139.715652,-19.032612,166.507385,0.929343,0.066958,-0.094473
572205044,157.143188,-30.780081,168.768280,0.930630,0.122631,-0.140528
572215024,168.562820,-38.898521,173.553940,0.959030,0.195939,-0.142483
572225004,169.301468,-43.866840,177.343338,0.978805,0.190096,-0.130187
572234983,179.776596,-44.688198,178.836349,0.997528,0.284421,-0.119004
572244963,189.973633,-41.558628,178.091248,1.035660,0.413577,-0.061776
572254942,186.539001,-38.454819,173.157303,1.166696,0.542094,0.004997
572264922,189.962418,-29.922401,170.894226,1.262884,0.651300,0.031926
572274902,185.329773,-6.156443,160.096802,1.405553,0.621142,0.022471
572284881,166.529358,13.268085,138.679382,1.551606,0.636678,-0.055058
572294861,176.718155,21.450022,124.205063,1.676331,0.556428,-0.195880
572304841,207.351974,24.086334,129.948883,1.824446,0.703932,-0.236011
572314820,223.692123,15.345447,143.084900,1.836719,0.910427,-0.266851
572324800,197.312561,11.403383,137.675842,1.596772,1.011414,0.066937
572334779,133.389709,-3.150568,112.820778,1.325047,1.259470,0.564376
572344759,61.505142,-37.657425,84.098602,1.087436,1.696163,0.956452
572354738,-14.079617,-75.518906,52.864716,1.110332,2.076767,1.128390
572364719,-86.046227,-89.973877,26.647175,1.347215,2.355184,1.015257
572374699,-135.099075,-69.449081,12.641671,1.549594,2.327610,0.889020
572384678,-150.916901,-30.559019,1.951639,1.633988,1.888463,0.880095
572394658,-130.288300,2.705671,-10.218498,1.554311,1.150562,0.975408
572404638,-85.658676,14.143847,-22.276703,1.437501,0.493702,1.103681
572414617,-36.703110,9.900702,-42.539272,1.380295,0.102547,1.093740
572424597,-9.805460,5.854817,-67.792976,1.390612,-0.021052,0.766674
572434576,-11.003294,13.817423,-88.376137,1.434389,0.047134,0.287921
572444556,-12.938602,36.034111,-101.378448,1.482192,0.225150,0.000312
572454536,0.469985,60.370361,-110.037613,1.421644,0.442001,0.016958
572464515,19.894398,72.324387,-117.413734,1.301128,0.651160,0.173958
572474495,29.904976,72.935333,-122.906662,1.185430,0.780143,0.346748
572484474,20.515991,66.543442,-132.080948,1.121903,0.809552,0.448183
572494454,-6.373545,60.170204,-144.637268,1.154980,0.806588,0.418059
572504434,-48.180252,63.410213,-157.879593,1.122164,0.760859,0.350821
572514413,-98.139954,76.208092,-173.470322,1.021104,0.612438,0.299311
572524393,-148.743515,90.633751,-189.915619,0.956877,0.466850,0.268646
572534372,-190.243774,105.310028,-203.432068,0.901926,0.353688,0.224143
572544352,-209.777435,119.118904,-212.548676,0.900141,0.194621,0.198669
572554332,-210.641968,129.461472,-213.978607,1.012560,0.023359,0.166018
572564311,-201.510101,137.668427,-210.211533,1.200447,-0.137451,0.168092
572574289,-182.882797,145.425446,-203.361435,1.456205,-0.336235,0.207364
572584269,-149.618454,150.912155,-197.931946,1.609897,-0.515471,0.218218
572594249,-100.771423,154.194077,-197.669189,1.500664,-0.612892,0.204697
572604228,-44.733612,149.768158,-199.329208,1.201642,-0.597068,0.254684
572614208,5.842946,132.677963,-199.379395,0.878063,-0.530881,0.374605
572624188,42.598274,109.551994,-197.432266,0.703534,-0.312389,0.422827
572634167,59.514431,88.605179,-194.688751,0.650650,-0.108072,0.420696
572644147,56.711418,65.419090,-194.708908,0.686830,0.044313,0.411396
572654126,37.055077,45.437363,-193.696655,0.734109,0.173015,0.356793
572664106,10.196677,35.423615,-186.272125,0.721360,0.225385,0.298696
572674085,-12.437634,25.277369,-177.528046,0.618244,0.127233,0.289307
572684065,-30.487841,14.161725,-167.067322,0.529514,0.080253,0.221245
572694045,-41.234947,4.157743,-151.924255,0.414728,-0.024638,0.252548
572704024,-33.384907,-17.901230,-134.318619,0.310394,-0.143402,0.250030
572714004,-27.137207,-28.745197,-109.069756,0.305577,-0.292915,0.291547
572723984,-7.392571,-42.953415,-86.488266,0.403539,-0.405151,0.306838
572733963,26.391247,-56.243450,-61.524204,0.424368,-0.423868,0.347048
572743943,62.128036,-69.900909,-34.655788,0.431083,-0.371791,0.432098
572753923,86.440346,-84.117981,-9.235921,0.419481,-0.340076,0.479264
572763902,98.437340,-94.337265,10.581823,0.383618,-0.314148,0.449042
572773882,110.393089,-99.635010,27.143808,0.351674,-0.291943,0.378339
572783861,124.210762,-101.275650,42.461819,0.361748,-0.233192,0.375012
572793841,130.084717,-100.855881,56.247795,0.380254,-0.126965,0.416775
572803820,126.337769,-101.958176,69.351562,0.379995,-0.018660,0.438125
572813800,115.609253,-104.580368,87.003357,0.382936,0.076462,0.467764
572823780,101.603233,-105.521950,110.728508,0.540122,0.186075,0.441351
572833759,88.739784,-98.176918,134.900421,0.808769,0.329768,0.412417
572843739,77.970001,-85.726082,145.000854,1.122552,0.488806,0.470386
572853719,65.358269,-62.491188,144.803040,1.433209,0.639796,0.634790
572863698,46.959381,-25.999687,147.359161,1.479881,0.743910,0.788381
572873678,21.700968,-2.053686,147.892593,1.374657,0.683495,0.871764
572883657,-1.760284,8.984968,146.614624,1.221491,0.549814,0.796657
572893638,-7.519744,2.689791,145.876419,1.007704,0.350615,0.661409
572903618,-5.783252,-20.709209,137.993774,0.876197,0.190944,0.539954
572913598,-4.849900,-39.022942,123.877571,0.824130,0.162987,0.468429
572923577,5.025712,-44.796898,112.246307,0.787526,0.189849,0.439452
572933557,29.129446,-42.670609,111.184380,0.721168,0.238550,0.415765
572943536,56.471745,-40.006573,117.919075,0.668145,0.300663,0.386274
572953516,74.211029,-41.229324,127.952011,0.683091,0.345290,0.377804
572963496,82.717697,-46.037621,140.418762,0.756137,0.442237,0.420355
572973475,82.505112,-54.148533,153.119675,0.918461,0.610121,0.478679
572983455,80.019539,-56.771069,168.582611,1.166920,0.655636,0.360468
572993434,79.382828,-42.936333,187.078003,1.311889,0.687032,0.334930
573003414,67.463570,-21.562672,200.242584,1.310788,0.689137,0.391151
573013394,43.813328,-4.044711,206.149078,1.225802,0.698281,0.446629
573023373,19.376612,2.866708,208.198212,0.990609,0.675701,0.513896
573033353,-7.215936,-1.379455,202.500504,0.797594,0.534756,0.672570
573043332,-51.418488,-2.804991,179.861557,0.637158,0.497120,0.857467
573053312,-95.010025,-1.903826,135.409149,0.546829,0.604801,0.884279
573063291,-109.033325,-6.795806,85.902351,0.673815,0.713964,0.768260
573073271,-102.434814,-14.713813,46.774628,0.884910,0.834450,0.715339
573083251,-83.091209,-20.348068,21.392086,1.101181,0.903377,0.683573
573093230,-36.360313,-13.566248,11.594252,1.194759,0.793650,0.668328
573103209,18.603666,-4.000382,7.602594,1.131086,0.621818,0.720787
573113188,36.961449,0.330529,-2.938031,1.097077,0.594840,0.691830
573123168,22.864155,0.862262,-17.997267,1.202730,0.689925,0.492967
573133147,1.002105,4.147895,-29.822832,1.321379,0.838134,0.330807
573143127,-23.053215,10.702164,-38.321190,1.279767,0.945936,0.276009
573153107,-50.624825,12.603755,-44.092022,1.111605,0.940271,0.341496
573163086,-81.832909,5.836473,-47.721706,0.871320,0.805377,0.345673
573173066,-112.707718,-7.622096,-50.308128,0.626575,0.570689,0.310425
573183045,-143.616913,-24.796713,-55.348080,0.471363,0.321568,0.184354
573193025,-167.161942,-38.091812,-63.299004,0.498008,0.094895,0.043768
573203004,-175.064240,-44.510086,-68.127213,0.647612,-0.079233,0.040440
573212984,-173.139648,-46.645870,-68.254272,0.864643,-0.265482,0.126330
573222963,-164.193527,-47.901009,-65.566536,1.070665,-0.484949,0.220395
573232943,-146.911804,-47.770794,-64.128349,1.144903,-0.724925,0.298172
573242923,-121.687164,-46.026699,-64.381531,1.052284,-0.868194,0.343987
573252902,-88.259346,-42.351994,-59.707733,0.894862,-0.854012,0.344510
573262882,-48.172955,-38.377232,-46.557770,0.762552,-0.746296,0.343962
573272862,-13.828830,-36.852013,-27.806963,0.679042,-0.570274,0.349564
573282841,6.602791,-41.301323,-7.013703,0.658116,-0.375141,0.326314
573292821,22.456528,-46.126614,16.178425,0.653736,-0.187123,0.213516
573302801,38.204231,-48.132881,41.779419,0.641906,-0.064615,0.128608
573312780,41.873680,-48.448578,64.469177,0.656502,-0.025014,0.149171
573322760,26.942163,-50.057182,80.299286,0.682919,-0.017207,0.229480
573332739,4.018564,-51.850677,89.849586,0.742345,0.005338,0.271725
573342719,-19.036900,-49.012154,95.734428,0.816090,0.034945,0.322130
573352699,-39.914711,-44.039555,99.862541,0.869091,0.012213,0.309451
573362678,-48.374371,-39.435230,106.961746,0.874393,-0.163206,0.177650
573372658,-43.144127,-34.194672,119.372299,0.743871,-0.457513,0.074809
573382637,-23.967808,-40.143456,133.773376,0.537198,-0.769658,-0.058640
573392617,5.989258,-69.921860,152.237717,0.410229,-1.031062,0.015070
573402596,9.712041,-109.435043,181.680084,0.666679,-1.122059,0.389518
573412576,-27.339565,-99.402390,203.020691,1.177052,-0.937496,0.654107
573422557,-51.797161,-29.935568,188.659027,1.559653,-0.619691,0.453215
573432537,-39.352722,25.839228,155.800171,1.496951,-0.284509,0.392119
573442517,-34.370171,33.420670,114.427841,1.261665,0.045882,0.552860
573452496,-51.772236,9.757009,88.328484,1.229118,0.232012,0.664317
573462476,-77.240219,-12.401042,87.032768,1.372567,0.238069,0.595638
573472455,-95.140907,-9.631357,97.108932,1.356224,0.181054,0.539085
573482435,-96.757706,4.060285,103.458229,1.199941,0.013539,0.522754
573492414,-78.978134,19.272465,102.613876,0.995524,-0.099470,0.594434
573502394,-58.648869,30.756607,89.944046,0.833563,-0.193991,0.642549
573512374,-43.653118,32.837578,67.115997,0.755860,-0.203093,0.611587
573522353,-29.003754,29.187099,45.054325,0.754459,-0.153161,0.494184
573532333,-13.689189,26.289841,27.972376,0.816547,-0.057451,0.406882
573542319,-7.041780,23.842068,16.401381,0.941389,0.091431,0.419664
573552292,-20.919346,18.027983,7.575672,1.103269,0.347141,0.466343
573562272,-49.651058,11.263107,1.525557,1.252021,0.605176,0.438801
573572251,-78.435555,10.323936,-4.442365,1.345815,0.768478,0.421091
573582231,-99.693428,17.488411,-15.148497,1.337882,0.763723,0.413556
573592210,-107.368790,30.717758,-28.869751,1.171951,0.568330,0.435932
573602190,-101.274261,38.974014,-43.145218,0.867428,0.283208,0.440299
573612170,-91.017418,37.808640,-54.174946,0.641915,0.029138,0.398619
573622176,-87.744751,33.546608,-58.149796,0.534254,-0.165227,0.345919
573632127,-92.952042,26.782160,-56.912228,0.623847,-0.236187,0.405547
573642107,-103.470459,18.585445,-50.271233,0.953154,-0.260642,0.445863
573652087,-108.360687,17.643459,-49.967232,1.253416,-0.255713,0.398655
573662066,-104.793762,26.272413,-56.920238,1.360422,-0.238083,0.250077
573672046,-99.568314,38.614079,-60.503616,1.251057,-0.253870,0.137234
573682025,-98.940506,45.269058,-55.411407,1.090261,-0.281084,0.164053
573692005,-102.829826,43.995258,-44.615032,0.997249,-0.281857,0.269266
573701985,-108.509445,39.821198,-34.260429,1.062852,-0.237846,0.379023
573711964,-113.932823,38.171761,-31.133871,1.163412,-0.124768,0.462609
573721944,-121.423843,41.376934,-37.477802,1.213891,0.075297,0.528919
573731923,-133.937866,46.626911,-48.455757,1.301943,0.350667,0.524930
573741903,-149.927200,53.361748,-60.221535,1.472248,0.624299,0.447808
573751883,-165.860092,60.145802,-77.648895,1.520235,0.829512,0.317112
573761862,-176.781204,65.916100,-107.110168,1.520628,0.840545,0.201472
573771842,-188.474747,76.967819,-136.005081,1.521939,0.593376,0.257814
573781821,-203.108444,95.425453,-147.601746,1.407245,0.275121,0.393692
573791801,-200.018723,114.223373,-150.958969,1.263323,0.045594,0.496983
573801781,-178.053299,126.663803,-154.472000,1.179853,-0.078285,0.594736
573811760,-156.914612,131.040070,-160.753433,1.189465,-0.159845,0.606265
573821740,-143.056122,132.555664,-171.623474,1.226176,-0.219755,0.501195
573831719,-128.522812,136.696075,-184.635422,1.253784,-0.279458,0.341500
573841699,-104.918945,144.083206,-194.874878,1.278777,-0.309338,0.180539
573851679,-72.628258,154.315155,-198.638885,1.204255,-0.282647,0.088038
573861658,-41.464859,159.436523,-196.691742,1.071974,-0.273338,0.096387
573871638,-20.347151,152.985016,-194.669434,0.979069,-0.211821,0.109884
573881618,-12.612707,136.011322,-197.259613,0.954153,-0.086266,0.112288
573891597,-17.207895,115.512848,-202.344254,0.989815,0.014320,0.116030
573901577,-33.078514,102.853165,-207.371613,1.070421,0.034557,0.077473
573911556,-52.711948,101.911263,-207.753830,1.158207,0.020858,0.048165
573921536,-75.843903,107.181419,-202.950562,1.127317,0.047443,0.091419
573931516,-102.315765,106.185944,-195.492691,0.988328,0.026758,0.157505
573941496,-124.453476,96.399521,-188.538620,0.896928,0.006194,0.166000
573951476,-136.664658,83.538712,-181.941757,0.879763,-0.022159,0.141927
573961456,-135.944977,68.390167,-173.052307,0.926671,-0.036644,0.116981
573971435,-122.766510,48.256828,-157.526642,0.985119,-0.109551,0.033649
573981415,-98.268082,24.725891,-134.505676,0.975356,-0.256634,-0.172834
573991394,-69.455605,-1.657965,-108.961685,0.855032,-0.528366,-0.415729
574001374,-38.819908,-39.393101,-82.878624,0.575519,-0.840016,-0.604248
574011354,-5.918287,-88.610199,-60.019180,0.242767,-1.090406,-0.482406
574021333,9.151575,-140.226883,-33.465912,-0.057980,-0.955430,-0.055221
574031313,-19.042213,-160.018768,-12.218435,-0.038726,-0.353779,0.261825
574041292,-76.967018,-137.312149,-14.295609,0.289408,0.408248,0.363907
574051272,-113.575020,-127.933640,-37.472054,0.747151,0.999478,0.265728
574061252,-136.828979,-136.376556,-44.852474,1.524153,1.151896,0.447767
574071231,-189.763885,-104.363396,-24.902592,2.114859,0.667144,0.861932
574081211,-242.565201,-46.100189,-20.868549,1.906975,-0.038176,1.105523
574091190,-248.207092,-14.342777,-30.148201,1.173127,-0.595628,1.080068
574101170,-193.295959,-18.786833,-35.045006,0.751899,-0.690207,1.002682
574111150,-108.568466,-33.066490,-42.940231,0.766502,-0.416965,0.825821
574121129,-43.594551,-33.613129,-45.153309,0.920069,-0.063166,0.748717
574131109,-26.199322,-23.741241,-39.889061,0.970503,0.099682,0.731494
574141088,-36.073502,-11.991476,-36.599911,0.973155,0.227066,0.654604
574151071,-48.174004,-0.803144,-36.170898,0.957768,0.314731,0.534141
574161046,-55.398949,8.355697,-38.819221,0.938738,0.351047,0.505150
574171026,-63.420425,8.612323,-44.932823,0.915963,0.421931,0.599732
574181005,-73.774094,-1.430800,-56.062927,0.928991,0.560143,0.649248
574190985,-86.611084,-12.385742,-70.736542,0.958355,0.700159,0.659514
574200965,-109.589127,-15.082559,-86.791740,0.951844,0.763674,0.659447
574210944,-135.189301,-6.833580,-102.082664,0.897370,0.735824,0.655808
574220924,-152.491409,4.989746,-111.765709,0.796593,0.595858,0.635672
574230903,-159.121429,11.845226,-116.776520,0.695653,0.418852,0.593739
574240883,-158.764984,14.875159,-122.168358,0.676291,0.260530,0.519667
574250863,-153.039139,16.502476,-128.238556,0.726270,0.148727,0.430989
574260842,-144.343781,18.835552,-134.117874,0.791260,0.094439,0.369873
574270822,-139.221207,20.606279,-137.913483,0.836570,0.080118,0.342528
574280802,-137.425934,20.555019,-137.861938,0.855541,0.092014,0.336489
574290781,-138.911743,19.741249,-136.469162,0.843435,0.103374,0.358846
574300761,-143.501526,17.039278,-133.535614,0.837960,0.089693,0.351867
574310740,-147.870331,13.715117,-129.553055,0.847802,0.064794,0.359376
574320720,-152.442947,10.607578,-124.068794,0.853230,-0.011273,0.395507
574330699,-157.862854,8.871929,-118.437584,0.845213,-0.106476,0.418956
574340679,-159.647018,6.896699,-112.718109,0.846397,-0.194824,0.407859
574350659,-151.744278,4.832633,-105.539688,0.852957,-0.257262,0.394614
574360638,-137.281693,1.839732,-96.031021,0.866554,-0.301063,0.417618
574370618,-119.199570,-1.857855,-83.291412,0.892806,-0.314418,0.430520
574380597,-97.198898,-5.061715,-68.414574,0.881787,-0.275021,0.468829
574390577,-76.973137,-7.896693,-54.439697,0.848264,-0.216235,0.524074
574400557,-66.657249,-12.000612,-44.305561,0.808948,-0.174535,0.600437
574410536,-65.155762,-17.818754,-38.356979,0.794472,-0.163859,0.611653
574420516,-61.226871,-21.034042,-35.121284,0.802210,-0.167684,0.604208
574430495,-51.896629,-21.606367,-32.630627,0.805714,-0.139875,0.606184
574440475,-40.182507,-21.787769,-28.614794,0.792492,-0.060412,0.635237
574450455,-30.937857,-21.669922,-23.423618,0.784171,0.031135,0.661085
574460434,-26.573065,-21.630169,-19.432404,0.781294,0.079934,0.664240
574470415,-25.254639,-23.140419,-19.562399,0.796753,0.102657,0.612793
574480395,-23.070379,-24.766151,-22.785839,0.788772,0.099937,0.532921
574490375,-21.322189,-25.341450,-26.224796,0.725408,0.080464,0.499113
574500354,-23.182205,-25.691202,-29.129574,0.640583,0.075624,0.493448
574510334,-24.076628,-30.604767,-30.931467,0.589842,0.069007,0.452558
574520313,-21.341282,-40.267197,-28.676701,0.589265,0.004177,0.407350
574530293,-20.202339,-46.496780,-23.684973,0.631004,-0.093087,0.449412
574540273,-20.917402,-46.624950,-20.499590,0.684770,-0.141907,0.518219
574550252,-17.364059,-43.287453,-19.172279,0.742996,-0.125532,0.585312
574560232,-6.619889,-41.112507,-17.273027,0.825702,-0.057423,0.589538
574570211,11.081306,-38.061871,-15.109236,0.854724,0.029214,0.579545
574580191,25.641909,-36.513924,-16.383989,0.810616,0.104670,0.623577
574590179,25.253576,-39.959579,-21.070377,0.745052,0.161967,0.666238
574600150,14.296310,-45.455566,-25.925240,0.721038,0.196125,0.672706
574610130,0.871138,-48.809273,-28.302132,0.770416,0.190872,0.646743
574620109,-8.988133,-47.407280,-27.501974,0.869912,0.147080,0.619235
574630089,-12.926516,-40.835529,-25.657816,0.962006,0.088944,0.612588
574640069,-9.636108,-28.007507,-24.952707,0.994933,0.025583,0.666863
574650048,-4.928082,-13.241451,-26.370848,0.940331,0.028665,0.764522
574660028,2.400759,-5.160907,-27.800694,0.849644,0.039817,0.791634
574670007,12.362101,-5.738435,-26.886539,0.781320,0.108163,0.754840
574679986,19.572369,-9.601644,-22.971159,0.749136,0.172557,0.722052
574689966,19.506042,-9.957940,-18.751133,0.770334,0.258125,0.732877
574699945,13.497227,-5.673295,-15.438054,0.848668,0.345021,0.725788
574709925,6.800373,2.996570,-10.843601,0.888991,0.411440,0.758586
574719904,3.067515,8.313072,-5.126287,0.850580,0.456320,0.804316
574739863,-14.723356,4.437472,-1.703338,0.838951,0.545082,0.699385
574749843,-26.405716,4.724843,-5.916549,0.876652,0.543198,0.621976
574759823,-36.348148,4.867263,-11.368458,0.893712,0.535786,0.599645
574769802,-42.054939,3.812150,-15.650990,0.901733,0.537986,0.556775
574779782,-41.932098,3.149301,-19.823767,0.869286,0.534935,0.523994
574789761,-40.387775,0.703143,-23.609715,0.785556,0.516105,0.532237
574799741,-45.248379,-4.444077,-26.881531,0.711478,0.506019,0.523576
574809720,-52.273296,-10.268564,-30.022879,0.694897,0.492221,0.450831
574819700,-53.790077,-14.678005,-31.721329,0.688750,0.474418,0.372697
574829680,-54.012688,-16.973883,-31.673098,0.688003,0.437622,0.342325
574839659,-60.307091,-18.640940,-31.114613,0.690803,0.398950,0.360311
574849639,-69.729515,-21.802780,-30.063328,0.749297,0.401613,0.360066
574859619,-76.362297,-22.857670,-28.171139,0.845279,0.405608,0.340634
574869598,-82.251190,-22.923714,-25.002947,0.911821,0.405316,0.380287
574879578,-92.944954,-22.610481,-22.382462,0.932064,0.390672,0.425155
574889557,-107.493607,-20.848804,-24.118019,0.941148,0.352062,0.514102
574899537,-121.939087,-19.382240,-28.721596,0.925753,0.367500,0.626665
574909517,-132.464371,-19.730286,-36.952423,0.920852,0.370632,0.725599
574919496,-146.106644,-21.950523,-50.791737,0.921513,0.305068,0.780412
574929476,-158.799225,-32.384407,-63.295074,0.928071,0.074045,0.651366
574939455,-162.149643,-46.577221,-62.070633,0.872304,-0.238044,0.566579
574949435,-152.014862,-57.973141,-55.432503,0.746883,-0.471708,0.573934
574959414,-123.882103,-69.972977,-48.233089,0.673692,-0.585711,0.508712
574969394,-85.148674,-77.789925,-39.244156,0.680359,-0.604872,0.458700
574979374,-50.071487,-79.322433,-27.134678,0.644080,-0.543610,0.494913
574989355,-23.868641,-71.115982,-19.212898,0.633697,-0.355094,0.611108
574999335,-4.011217,-60.510704,-15.945217,0.650772,-0.084574,0.710254
575009314,2.942653,-54.093975,-13.381784,0.647443,0.198924,0.762372
575019294,-3.090187,-47.944675,-13.152872,0.658886,0.418440,0.788490
575029273,-16.018049,-41.627159,-15.846149,0.699535,0.549087,0.750307
575039253,-32.321812,-33.821934,-17.763508,0.701289,0.584364,0.664891
575049232,-45.305241,-24.946724,-19.337561,0.661747,0.532850,0.582690
575059212,-56.296947,-18.538750,-19.368280,0.592833,0.430639,0.518811
575069192,-68.273727,-15.185391,-19.686090,0.542113,0.330844,0.446483
575079171,-79.094421,-15.226672,-19.585178,0.570730,0.239223,0.404981
575089151,-85.030945,-19.414234,-16.319912,0.655929,0.138381,0.394719
575099130,-84.290718,-25.443104,-10.479790,0.744659,0.036938,0.445360
575109110,-78.858871,-31.245167,-5.413799,0.828312,-0.029095,0.514451
575119090,-71.017319,-36.767765,-1.250993,0.882434,-0.080617,0.560361
575129069,-61.304569,-42.692245,2.690916,0.890642,-0.106281,0.588979
575139049,-51.037334,-47.768150,5.935163,0.883172,-0.135252,0.616635
575149029,-40.648594,-49.879826,8.537870,0.874110,-0.121197,0.676340
575159008,-31.637594,-48.431480,9.415499,0.900333,-0.072343,0.703885
575168988,-22.564228,-44.324226,8.999159,0.946401,-0.001100,0.722504
575178967,-16.828421,-37.925331,8.340681,1.003447,0.062975,0.756012
575188947,-15.033298,-28.473473,6.890500,1.044273,0.131877,0.760003
575198930,-15.956228,-17.918493,5.110932,1.042476,0.193553,0.749307
575208905,-17.016037,-7.835469,2.891432,0.993361,0.211516,0.712052
575218884,-18.702812,0.620510,-0.117008,0.924572,0.218689,0.668966
575228864,-21.530796,5.490830,-3.017608,0.865878,0.178536,0.616642
575238844,-26.448341,6.978758,-4.569143,0.809775,0.172962,0.581101
575248823,-32.918884,6.018779,-8.140936,0.815805,0.135878,0.548308
575258803,-36.832405,4.227633,-12.537871,0.848036,0.142764,0.519829
575268783,-38.484722,3.720456,-17.748909,0.873760,0.188327,0.520829
575278762,-38.189480,4.678463,-24.913769,0.877305,0.269461,0.539235
575288742,-37.790882,5.317564,-31.667982,0.821459,0.328339,0.535243
575298721,-37.340057,2.965352,-35.852333,0.731458,0.380670,0.544208
575308700,-38.115810,-1.733903,-36.788963,0.688954,0.422415,0.571521
575318680,-42.499695,-6.718951,-34.321846,0.687271,0.486875,0.577355
575328660,-48.589199,-9.251564,-32.744411,0.777490,0.573240,0.567214
575338639,-55.223213,-8.926067,-32.690926,0.861044,0.556873,0.538964
575348619,-64.890762,-8.939040,-31.812126,0.881238,0.478714,0.529505
575358599,-76.108864,-9.663954,-31.939186,0.906934,0.412172,0.535073
575368578,-87.005157,-11.198467,-33.278282,0.925376,0.375211,0.544394
575378558,-98.194992,-13.370058,-34.222744,0.893296,0.353916,0.544883
575388538,-105.200577,-16.401243,-32.435085,0.837145,0.334044,0.526148
575398517,-106.337143,-20.615421,-27.226208,0.777685,0.306511,0.515856
575408497,-105.160187,-24.799931,-18.731102,0.715747,0.274725,0.498850
575418476,-103.611191,-25.392647,-8.524929,0.672445,0.262879,0.478580
575428456,-104.871452,-24.196310,1.942506,0.622335,0.228757,0.471846
575438436,-107.413094,-24.365875,11.861310,0.591439,0.204619,0.465300
575448415,-106.914871,-26.006279,21.291456,0.612352,0.208829,0.469622
575458395,-104.516251,-28.337616,30.516413,0.672245,0.255472,0.431892
575468374,-101.192589,-28.254494,39.270271,0.713974,0.237078,0.409465
575478354,-102.374741,-27.035593,45.973583,0.793597,0.192942,0.481219
575488334,-110.634003,-27.317476,51.486977,0.993311,0.211234,0.518458
575498313,-120.799637,-23.810860,54.605339,1.182529,0.322803,0.549058
575508293,-133.708832,-17.136003,48.132065,1.323247,0.479168,0.575122
575518274,-147.603668,-5.532773,25.239857,1.272742,0.624566,0.561250
575528253,-158.130829,11.585500,-10.414852,1.079309,0.737830,0.635800
575538233,-168.386093,25.001129,-48.931927,0.876441,0.766847,0.748527
575548213,-183.811249,27.800795,-87.844864,0.676233,0.713965,0.819846
575558192,-202.897415,20.259720,-124.052628,0.600842,0.593470,0.806413
575568172,-214.554153,16.716177,-157.357819,0.841502,0.501934,0.697042
575578152,-213.555176,28.412682,-185.817108,1.289973,0.424753,0.585055
575588131,-204.419403,55.134750,-209.809387,1.675943,0.302267,0.525844
575598111,-191.672150,88.860748,-231.948410,1.776042,0.121823,0.615141
575608090,-178.280212,114.206787,-252.752182,1.627602,-0.040948,0.655334
575618070,-156.503891,128.780609,-269.641571,1.441381,-0.127397,0.579210
575628050,-122.041443,131.327942,-279.291473,1.283158,-0.206810,0.444477
575638029,-81.382683,125.524551,-286.935181,1.145141,-0.190286,0.320380
575648009,-50.235130,111.780731,-295.008301,1.015025,-0.106499,0.251421
575657988,-36.545845,94.626808,-302.101807,0.895104,-0.023431,0.215079
575667968,-39.290657,76.647820,-306.910889,0.814321,0.106788,0.173583
575677948,-55.720612,58.446945,-307.681732,0.815680,0.220913,0.134039
575687927,-83.957527,41.576286,-301.086304,0.865332,0.242452,0.150259
575697907,-121.435898,22.717222,-292.029144,0.959067,0.101607,0.108208
575707886,-151.318604,6.460611,-277.714111,1.023646,-0.148554,0.016964
575717866,-163.014465,-4.545384,-255.635941,0.999060,-0.448443,-0.019552
575727846,-159.514099,-14.835189,-231.459473,0.877837,-0.740904,-0.001869
575737824,-139.210159,-24.753359,-207.561981,0.731549,-0.967567,0.059262
575747803,-102.632034,-35.709953,-182.576996,0.556944,-1.082507,0.231506
575757783,-59.152252,-48.705170,-154.454498,0.450613,-1.054203,0.463486
575767763,-23.521545,-57.974136,-123.767937,0.456333,-0.934244,0.602407
575777742,4.997536,-59.628319,-91.917130,0.509536,-0.780645,0.588665
575787722,31.922855,-53.140804,-60.387325,0.512530,-0.638099,0.554331
575797701,54.867622,-43.572292,-30.894064,0.503208,-0.468860,0.596190
575807681,73.523499,-33.014328,-7.776384,0.597988,-0.230691,0.626628
575817661,89.240021,-27.748531,11.119780,0.643580,-0.008677,0.648778
575827640,97.624603,-28.785900,30.365429,0.640988,0.080238,0.635436
575837620,102.086678,-29.255367,45.954346,0.664908,0.149634,0.648762
575847600,105.698380,-28.966116,51.794518,0.732433,0.320647,0.692366
575857579,112.362595,-26.812977,43.981049,0.807369,0.634834,0.797503
575867558,108.369011,-26.021860,22.716318,0.889476,1.014138,0.934853
575877538,72.505692,-27.297873,-3.067677,1.036419,1.193389,0.938982
575887518,20.966324,-16.155439,-27.480049,1.160881,1.142565,0.895838
575897498,-17.855240,5.501013,-44.853493,1.159909,0.949047,0.802465
575907477,-38.797680,30.070774,-52.472931,1.085083,0.708081,0.731644
575917457,-43.578102,48.070396,-49.343258,0.912209,0.425991,0.750578
575927436,-38.440296,48.327438,-34.451416,0.574071,0.119336,0.738107
575937416,-14.810418,21.418797,-20.884678,0.224117,0.019514,0.588718
575947395,28.572502,-16.075264,-13.414621,0.096112,0.139796,0.468205
575957375,53.797798,-37.424568,-1.019688,0.143712,0.322010,0.467915
575967355,41.536232,-47.054520,16.182148,0.233683,0.499669,0.447167
575977334,9.317810,-47.395954,29.615696,0.395351,0.745234,0.446292
575987314,-35.448853,-37.938137,40.306480,0.632678,0.917410,0.552910
575997294,-85.529449,-27.508877,49.141617,0.782299,0.901132,0.702166
576007273,-121.922867,-24.731270,56.485184,0.813345,0.720261,0.738116
576017253,-136.770523,-34.906975,62.963032,0.825450,0.508722,0.702282
576027232,-129.921082,-47.862621,67.816711,0.834050,0.320172,0.682035
576037212,-109.857819,-55.993374,72.646149,0.828307,0.179525,0.707545
576047193,-90.882950,-63.133469,76.757088,0.831885,0.072776,0.695518
576057173,-74.250374,-69.794273,81.011360,0.829374,0.031366,0.659179
576067152,-54.418465,-71.734863,85.360229,0.805556,0.018404,0.638557
576077132,-38.935726,-71.514481,90.936157,0.773044,0.022078,0.667951
576087111,-31.385778,-73.430580,95.517609,0.752071,0.056254,0.677751
576097091,-26.478767,-76.080292,101.685211,0.726628,0.110404,0.682772
576107071,-23.369179,-79.204346,111.141388,0.706993,0.147556,0.635908
576117050,-22.550831,-84.343842,120.668892,0.708706,0.138650,0.550123
576127030,-24.628969,-89.798569,127.682785,0.738081,0.095796,0.512207
576137009,-28.837475,-92.571548,133.714203,0.757704,0.048549,0.477827
576146989,-32.060028,-95.605301,140.219803,0.757504,0.035347,0.482410
576156969,-35.071064,-101.359734,147.974823,0.781354,0.032562,0.470509
576166948,-36.942444,-105.676285,154.046631,0.816723,0.019445,0.406537
576176928,-42.375237,-111.489784,158.864227,0.850065,0.023875,0.397423
576186908,-45.397427,-122.580780,167.644180,0.920010,0.026417,0.409409
576196887,-41.231392,-130.344910,178.234009,1.134281,0.005755,0.403843
576206867,-35.147007,-127.683044,187.919037,1.473915,-0.063668,0.335081
576216846,-29.135014,-109.590538,193.861969,1.955108,-0.191406,0.220334
576226826,-14.167835,-73.893333,187.270477,2.193080,-0.401537,0.304086
576236805,29.706364,-36.155479,167.414093,1.808969,-0.339107,0.447545
576246785,92.914528,-14.752722,148.146912,1.313337,0.002299,0.804578
576256763,107.422882,-12.417733,122.296295,1.014501,0.291852,1.148949
576266743,68.434303,-10.963907,80.119942,0.795120,0.678549,1.392107
576276722,5.555415,0.330935,22.883612,0.605065,0.904967,1.523873
576286702,-58.517815,9.044220,-41.729713,0.679417,0.920393,1.300790
576296682,-82.897736,18.463108,-93.341278,0.990736,0.883662,1.047939
576306661,-65.646561,37.987335,-121.333549,1.338655,0.789943,0.840221
576316641,-38.151901,67.350105,-134.234100,1.471268,0.578347,0.699145
576326620,-24.873896,98.298645,-145.074142,1.335873,0.396574,0.667404
576336600,-19.442108,118.897926,-156.516632,1.152655,0.349767,0.618915
576346580,-6.567091,131.539093,-165.387787,1.015658,0.337659,0.526814
576356559,8.909787,135.811874,-171.611862,0.931336,0.386395,0.455444
576366539,11.977386,130.031677,-182.036133,0.889186,0.480678,0.370806
576376518,5.602479,120.392670,-197.646606,0.852035,0.504728,0.285772
576386498,-5.894233,109.966263,-212.088913,0.814323,0.431079,0.245309
576396478,-21.804405,98.500984,-220.730743,0.743596,0.338939,0.197440
576406457,-33.530113,87.310341,-222.331375,0.698653,0.324246,0.142948
576416437,-38.347939,79.008430,-221.105392,0.646886,0.370438,0.094801
576426417,-53.233711,78.073502,-218.056702,0.694526,0.459574,0.181998
576436396,-80.233002,79.508606,-212.911392,0.796382,0.463195,0.290531
576446376,-112.228165,81.527122,-212.974594,0.885000,0.331817,0.407589
576456355,-144.257263,78.832214,-219.815811,0.928357,0.119036,0.495647
576466335,-158.808594,68.510178,-225.069992,0.907771,-0.150574,0.531011
576476315,-146.074997,51.813362,-225.746719,0.842813,-0.382871,0.550380
576486294,-111.269905,37.159866,-219.067719,0.794020,-0.482985,0.482464
576496274,-66.396729,31.795427,-206.054947,0.675557,-0.440349,0.467209
576506253,-31.459002,31.124523,-189.287323,0.559877,-0.309346,0.541801
576516233,-11.882444,28.180950,-169.865234,0.540925,-0.205417,0.611326
576526213,-10.517632,27.061270,-149.762299,0.611356,-0.180397,0.606744
576536192,-15.680989,27.357372,-131.823257,0.706073,-0.239407,0.529677
576546172,-10.305646,26.732529,-116.413239,0.706602,-0.343647,0.450714
576556152,3.932574,21.960894,-99.328415,0.636036,-0.424635,0.432169
576566131,20.479031,12.238686,-82.243744,0.526328,-0.439334,0.405994
576576112,39.774052,0.072341,-66.041893,0.421057,-0.386664,0.402472
576586092,56.706707,-10.750742,-51.200764,0.360099,-0.295393,0.384560
576596071,74.593430,-20.950071,-34.778824,0.339990,-0.285818,0.328851
576606051,93.856461,-30.122345,-12.221622,0.358012,-0.356016,0.290264
576616031,112.119621,-37.305813,14.457941,0.407661,-0.428551,0.275972
576626010,131.017975,-43.011539,43.323147,0.480482,-0.425227,0.268875
576635990,143.150803,-43.426392,75.482246,0.569265,-0.287106,0.340909
576645970,147.828445,-28.257401,107.821106,0.785790,-0.098437,0.404440
576655949,143.627808,9.770029,125.160507,0.968058,0.262240,0.619513
576665929,124.546783,46.089859,116.952850,0.990420,0.723696,0.912140
576675908,88.360764,71.016068,88.517876,0.970300,1.227429,1.318397
576685888,32.533802,93.757706,46.876392,1.036894,1.705195,1.588985
576695867,-28.252941,109.752586,15.626098,1.058763,1.738495,1.432214
576705847,-65.241730,91.305618,11.114395,1.048689,1.325494,0.943236
576715827,-72.473557,58.055145,28.914589,0.927790,0.850357,0.577633
576725806,-49.476498,35.532349,51.686226,0.735708,0.446557,0.490027
576745766,8.140406,4.469698,80.489594,0.398030,0.086245,0.463692
576755745,10.278055,-7.787773,84.689163,0.414866,0.051748,0.516107
576765725,4.911551,-16.140041,82.710655,0.584503,0.106142,0.564040
576775704,-1.625065,-19.870689,77.807053,0.754416,0.241235,0.585888
576785684,-7.531695,-21.862223,76.469955,0.826040,0.289411,0.599161
576795662,-11.916250,-22.952978,79.219635,0.819808,0.275602,0.582882
576805642,-10.829460,-24.173191,86.768929,0.763622,0.232116,0.553060
576815621,-8.100170,-26.122820,97.239067,0.698735,0.204928,0.562514
576825601,-6.242671,-28.738163,108.071617,0.667886,0.204509,0.599108
576835580,-9.402746,-29.648064,119.461830,0.633617,0.214423,0.606331
576845560,-12.095691,-34.664719,131.542770,0.608896,0.273451,0.559926
576855539,-12.739236,-41.202652,146.714050,0.606542,0.290829,0.503322
576865519,-15.820536,-51.762642,162.262772,0.581812,0.274211,0.480739
576875499,-22.334503,-65.141975,177.182022,0.617726,0.271814,0.466503
576895458,-44.131775,-91.588173,204.774963,0.701972,0.276046,0.430097
576905438,-36.151428,-102.235199,217.324615,0.715080,0.221314,0.388981
576915417,-29.025787,-114.158302,229.281342,0.707831,0.145061,0.366057
576925397,-17.602650,-124.680763,241.174316,0.720576,0.134507,0.349526
576935377,-3.200402,-131.430542,250.551788,0.769322,0.164323,0.359220
576945356,8.758224,-136.863312,252.997681,0.813194,0.115747,0.387957
576955336,27.497299,-138.967560,249.890396,1.007821,0.144068,0.299090
576965315,61.007942,-126.333153,247.720596,1.530871,0.146494,0.051667
576975295,110.842758,-96.503525,245.260300,2.148025,0.145086,0.056634
576985275,140.595108,-60.425591,217.117615,2.334868,0.337231,0.449208
576995254,118.531586,-24.387383,155.152328,1.822000,0.909114,0.865346
577005234,48.168503,0.337238,85.834389,0.877387,1.309895,1.322263
577015213,-65.995926,-13.377331,13.074629,0.520539,1.773780,1.562183
577025193,-173.928391,-45.031052,-60.700241,0.628309,2.227652,1.283903
577035173,-203.055679,-47.331726,-116.241295,1.046048,2.170723,1.005652
577045152,-185.171173,-0.171470,-128.304657,1.236923,1.327713,1.004567
577055132,-158.454773,47.137539,-128.059387,1.322687,0.500140,1.089631
577065111,-123.662643,75.963806,-146.535995,1.629719,-0.149132,1.166545
577075091,-79.356689,96.750435,-169.401398,1.843058,-0.617207,1.098172
577085071,-24.082729,118.912445,-186.768219,1.777269,-0.681608,0.824471
577095051,30.478874,141.674774,-194.211334,1.590793,-0.481737,0.585023
577105031,74.866348,154.582672,-201.916214,1.437593,-0.089338,0.456312
577115011,110.237183,153.182709,-214.061737,1.303609,0.259547,0.374198
577124990,127.223755,137.151459,-232.408722,1.170446,0.560140,0.434218
577134970,105.075981,115.365952,-247.324600,1.092595,0.743493,0.497719
577144950,56.049278,99.761353,-249.208862,0.968424,0.765418,0.529139
577154929,4.023601,92.068207,-247.153183,0.907551,0.680880,0.560733
577164909,-41.766335,87.604012,-248.087128,0.905986,0.542835,0.555681
577174888,-93.882187,80.225586,-256.019897,0.999289,0.532948,0.492536
577184868,-145.477524,76.394409,-261.466919,1.050984,0.402454,0.345187
577194848,-175.899902,77.338905,-263.663513,0.977446,0.110301,0.255923
577204827,-184.621887,76.978302,-260.200684,0.914042,-0.067546,0.245289
577214807,-167.407745,69.794403,-250.448959,0.739279,-0.340139,0.328140
577224786,-137.451935,57.270344,-236.351547,0.563613,-0.516386,0.409761
577234766,-99.840576,46.709034,-217.344208,0.540283,-0.506229,0.416451
577244746,-56.243656,42.365246,-190.509277,0.478496,-0.411424,0.428335
577254725,-20.055513,40.414333,-165.417603,0.389131,-0.332737,0.512098
577264705,-2.638481,34.808788,-142.006638,0.285630,-0.233412,0.592350
577274685,5.761005,25.418043,-116.783188,0.256461,-0.122237,0.590540
577284664,11.003198,17.655731,-88.536827,0.324882,-0.012947,0.491476
577294644,14.405736,15.781855,-62.096455,0.416369,0.096665,0.418327
577304623,9.753193,13.030081,-38.747513,0.430759,0.114753,0.472021
577314602,-2.110413,9.614676,-16.499102,0.447917,0.100542,0.494605
577324581,-8.938355,7.457007,3.866716,0.423125,0.049085,0.488984
577334561,-7.862742,6.323037,23.968725,0.349643,0.075242,0.497588
577344541,0.040911,3.456044,40.255646,0.314947,0.055062,0.448109
577354520,14.970173,1.713367,51.995277,0.287984,0.043182,0.387344
577364500,30.472570,1.816574,59.833096,0.257692,0.077322,0.388051
577374479,34.335712,-0.184113,61.882812,0.221980,0.076356,0.421104
577384459,37.056122,-5.465030,64.647057,0.270670,0.053226,0.415456
577394439,44.943661,-10.515566,69.158417,0.400862,0.002452,0.367316
577404418,59.861713,-15.314215,73.950684,0.539786,-0.017999,0.347616
577414398,80.897133,-22.593987,79.935638,0.613113,0.012598,0.390894
577424378,102.555107,-31.757805,87.883537,0.651423,0.083308,0.404826
577434357,121.228455,-41.651096,98.934326,0.664496,0.161220,0.396141
577444337,133.025253,-51.455589,112.952477,0.680171,0.242382,0.375247
577454316,138.619995,-60.002304,129.923309,0.717929,0.260060,0.305351
577464296,143.002289,-65.774185,148.267258,0.791540,0.237040,0.225304
577474275,144.444016,-68.357262,166.885101,0.867476,0.208559,0.221153
577484255,139.997772,-67.431068,181.638031,0.911809,0.193116,0.240796
577494235,130.517426,-60.750725,190.825439,0.956460,0.163941,0.266497
577504214,108.180649,-45.404469,200.443130,1.039497,0.180801,0.396870
577514194,72.866287,-19.594179,211.960388,1.163831,0.209276,0.405604
577524173,39.958878,13.820908,219.694672,1.315135,0.132430,0.442056
577534153,15.893174,25.513092,224.743301,1.260128,-0.010736,0.646096
577544133,16.424688,11.854112,232.840607,1.256979,-0.062438,0.576768
577554112,50.396088,4.630865,242.086136,1.336595,-0.127838,0.375138
577564092,77.535622,-5.274763,245.363007,1.256294,-0.245431,0.133731
577574072,95.061935,-24.302549,242.823425,1.209545,-0.317311,-0.128207
577584051,123.324951,-32.206028,245.129562,1.170359,-0.348153,-0.176501
577594031,147.448074,-30.516781,246.102295,1.076909,-0.406346,-0.218968
577604010,158.061768,-32.671707,242.710190,0.952364,-0.334578,-0.235541
577613990,162.692200,-45.458958,237.067719,0.916563,-0.141085,-0.306934
577623969,160.284302,-57.367023,233.874817,0.978503,0.016599,-0.296179
577633950,157.384644,-68.502754,235.764069,1.086724,0.011934,-0.289929
577643930,169.203781,-74.133736,245.267944,1.148411,0.053495,-0.350672
577653910,175.318451,-80.470413,250.291458,1.165390,0.066136,-0.356942
577663889,167.391022,-78.373291,251.901428,1.190965,0.077510,-0.344275
577673869,167.408325,-75.030533,257.770691,1.168816,0.057769,-0.305019
577683849,181.699066,-75.665894,267.017181,1.256579,0.178765,-0.323239
577703808,224.723282,-54.640099,285.205933,1.951304,0.254942,-0.415738
577713787,203.251373,-34.006336,263.352905,2.530569,0.414456,-0.298817
577723767,203.264191,-31.944773,222.291168,2.762116,0.525842,-0.163627
577733747,211.064194,-26.056152,175.602921,2.489485,0.938863,0.163722
577743726,158.260071,-10.877803,151.817841,1.715756,0.970802,0.619616
577753709,85.943787,-32.406975,109.186218,1.295023,1.410090,0.897741
577763685,54.973839,-64.776321,43.787418,1.387547,2.358190,0.739302
577773665,57.530514,-59.507126,-31.696285,1.763001,2.790550,0.484861
577783645,81.276733,3.293859,-77.172241,2.058321,2.414028,0.531777
577793624,120.198196,71.894379,-81.335495,1.801009,1.624060,0.994214
577803604,152.478241,85.351273,-99.934067,1.655910,0.925809,1.430252
577813583,142.558914,73.877640,-140.871796,1.800935,0.428213,1.258939
577823563,77.588928,76.195251,-188.053238,2.019487,0.343693,0.655674
577833570,8.903525,99.113075,-223.043610,2.158820,0.600966,0.133506
577843521,-8.688026,125.875183,-239.367905,2.104510,0.857048,0.027419
577853500,20.258579,133.183762,-249.938705,1.764934,0.998503,0.198448
577863480,47.269012,118.800407,-272.429230,1.441553,0.893914,0.363969
577873460,39.626354,104.147675,-294.836517,1.279370,0.639551,0.347131
577883439,16.225554,102.400482,-300.755096,1.076603,0.480230,0.261334
577893419,-2.392185,106.852798,-302.143829,0.925618,0.511406,0.322162
577903398,-21.501928,108.779526,-304.683990,0.857978,0.573830,0.415696
577913378,-45.530159,105.679779,-311.042786,0.865990,0.642625,0.563329
577923358,-88.695633,103.916336,-311.091736,0.786909,0.605635,0.763003
577933337,-150.148056,109.866707,-308.738495,0.774721,0.400943,0.767954
577943317,-205.501633,122.015999,-300.059998,0.824999,0.238648,0.545883
577953296,-224.115112,135.871185,-277.282867,0.866643,-0.113499,0.276862
577963276,-207.565231,147.755692,-248.345459,0.910357,-0.568230,0.143055
577973256,-161.581680,159.589157,-213.178467,0.930462,-1.031412,0.011322
577983235,-90.415718,167.129669,-177.724518,0.857498,-1.201476,-0.033308
577993215,-9.740187,160.170090,-144.813019,0.657590,-1.118255,0.008651
578003195,39.476822,140.474091,-119.333046,0.567035,-0.878537,0.100864
578013174,58.813549,102.170502,-98.872284,0.473825,-0.687988,-0.013605
578023154,73.006958,62.547367,-69.653175,0.329339,-0.653991,-0.078734
578033133,77.200714,25.151022,-38.148087,0.254095,-0.543032,-0.277351
578043113,90.202820,-4.035587,-2.011799,0.194123,-0.393919,-0.354835
578053093,107.431061,-27.297924,37.059113,0.222434,-0.247191,-0.321387
578063072,123.710693,-44.290714,76.163055,0.332314,-0.216213,-0.176366
578073052,132.664948,-52.081360,111.312912,0.455028,-0.200244,0.020677
578083031,130.388153,-53.456604,142.196350,0.537961,-0.175706,0.128885
578093011,126.997337,-52.487133,172.510986,0.638119,-0.144546,0.179932
578102991,126.077461,-48.587254,204.210693,0.770112,-0.166933,0.159771
578112970,129.125214,-42.068882,235.843658,0.913546,-0.141019,0.168534
578122950,130.302170,-27.977058,263.998352,1.098712,-0.168603,0.178756
578132930,133.304626,5.939806,283.265076,1.225199,-0.085773,0.263496
578142909,127.278809,46.415749,282.531982,1.220948,0.031434,0.518111
578152890,98.944275,103.789764,276.614990,1.239568,0.293593,0.792807
578162870,89.061050,173.948486,243.827850,1.344184,0.887401,1.392746
578172849,118.852051,188.822540,154.865112,1.664571,2.201341,1.972280
578182829,98.564560,119.761620,73.557961,2.349422,2.139421,1.554039
578192808,-9.904051,87.152702,83.220734,1.944885,0.833871,0.717487
578202788,-24.176634,62.506104,117.575256,1.161780,0.226882,0.090933
578212768,56.213474,8.370946,137.623932,0.783320,0.185795,-0.052839
578222747,142.253433,-16.827986,162.596329,0.538943,0.262057,-0.045821
578232727,186.615784,-6.174152,168.419067,0.380782,0.449908,0.106831
578242707,140.600861,5.096010,170.785019,0.379992,0.442964,0.303077
578252686,63.346313,3.076196,170.623810,0.675706,0.450274,0.365932
578262666,15.561714,17.799316,170.352829,0.902648,0.522368,0.471449
578272645,-16.941551,34.346672,171.192123,0.837410,0.449010,0.618064
578282625,-48.553562,29.103035,160.713196,0.802644,0.286979,0.602779
578292605,-58.409466,17.512846,152.516556,0.887774,0.114482,0.491153
578302584,-39.146011,7.964577,154.598099,0.969232,0.000730,0.490503
578312564,-2.126453,-5.367084,164.075317,0.997638,-0.080850,0.489082
578322543,31.437397,-20.280310,175.744431,0.943383,-0.121637,0.421369
578332523,53.790489,-33.825752,184.202087,0.877627,-0.153873,0.283734
578342503,78.335068,-41.586342,191.125244,0.829748,-0.130553,0.153531
578352482,102.577904,-46.016930,197.101364,0.775296,-0.020085,0.072956
578362460,118.722321,-51.759708,195.751678,0.763984,0.091906,0.114806
578372440,120.311562,-57.085537,189.556747,0.778454,0.193457,0.144733
578382420,113.969452,-58.186035,184.391815,0.805786,0.231676,0.154443
578392399,109.851089,-59.357159,185.427307,0.818518,0.250828,0.155273
578402379,105.306801,-62.677170,191.185181,0.880169,0.283922,0.124719
578412358,98.991974,-67.917564,199.717834,0.963275,0.295633,0.138982
578422338,96.916878,-70.676643,208.473282,1.086670,0.383896,0.182780
578432318,90.571487,-62.093208,216.013733,1.196689,0.377516,0.222238
578442297,65.867905,-48.689552,208.944977,1.278981,0.390159,0.274899
578452277,43.836983,-49.046154,200.873474,1.329438,0.413387,0.320247
578462256,26.409027,-57.063026,187.743713,1.439790,0.461584,0.337508
578482216,22.940144,-103.978218,155.699142,1.583609,0.636417,0.111630
578492195,65.853859,-105.418602,158.044037,1.581749,0.693820,0.156916
578502175,99.502518,-76.740120,139.897781,1.463732,1.086596,0.626756
578512154,48.297230,-62.898003,104.690338,1.122532,1.888542,1.307264
578522134,-73.091393,-87.899300,57.636505,0.999741,2.532329,1.744859
578532113,-180.799637,-103.148087,-3.943190,1.372873,2.890307,1.686284
578542093,-229.037338,-65.736519,-44.852928,1.718547,2.371425,1.506797
578552073,-182.704926,-17.372768,-63.684906,1.857059,1.111658,1.464044
578562052,-81.750610,19.824816,-80.027695,1.922240,-0.134385,1.599477
578572032,-32.737480,42.317780,-109.103386,1.924893,-0.774986,1.170372
578582011,-63.603325,55.647633,-139.856171,1.854062,-0.623091,0.304593
578591991,-84.849190,77.459976,-150.143951,1.679114,-0.035590,-0.136412
578601971,-44.375298,94.074013,-143.963516,1.364697,0.564843,-0.027258
578611950,6.028823,89.332245,-145.247025,1.054718,0.927719,0.250871
578621930,27.900166,72.364456,-167.720306,0.920578,0.987374,0.344142
578631909,18.328068,55.859215,-199.177795,0.803231,0.808925,0.291368
578641889,-21.600430,44.904423,-226.493820,0.749474,0.588618,0.268311
578651869,-74.529816,48.263912,-243.355270,0.784752,0.491795,0.261256
578681809,-174.220901,105.584740,-252.908020,0.903040,0.386287,0.328351
578691789,-199.210541,118.552826,-257.700256,1.013426,0.211452,0.273685
578701768,-203.482224,132.762299,-262.729431,1.174144,0.035576,0.170967
578711748,-185.432510,144.873642,-262.171814,1.374807,-0.226915,0.103730
578721727,-157.257980,150.836884,-254.786606,1.365817,-0.397181,0.078125
578731707,-122.573456,151.637299,-247.933777,1.231908,-0.553586,0.091526
578741686,-85.913963,141.460327,-243.456268,1.140123,-0.482251,0.130745
578751666,-50.812611,124.545898,-233.676468,1.078641,-0.338341,0.206302
578771625,-21.259933,91.198639,-213.143799,0.841351,-0.219175,0.380118
578781605,-24.720808,71.107666,-202.955399,0.776998,-0.167703,0.336024
578791584,-26.173683,48.960350,-191.087616,0.669774,-0.203083,0.302219
578801570,-28.141418,23.041451,-179.807877,0.664706,-0.272298,0.239881
578811543,-28.030094,0.540113,-167.539749,0.682411,-0.259023,0.190450
578821523,-20.883842,-17.109642,-151.855576,0.695545,-0.251412,0.160698
578831503,-5.643420,-29.329512,-130.916061,0.715439,-0.260683,0.174874
578841483,11.006207,-39.015030,-103.038979,0.653974,-0.288924,0.251612
578851462,34.364239,-53.095604,-71.793800,0.440023,-0.330317,0.290619
578861442,60.788055,-72.149681,-43.172173,0.181068,-0.345906,0.421443
578871421,70.089844,-89.309563,-22.518127,0.097288,-0.260027,0.578404
578881401,61.182083,-99.348991,-6.959090,0.276802,-0.057719,0.553614
578891379,59.054283,-104.385330,11.331886,0.511986,0.048859,0.337269
578901359,70.911423,-102.868431,35.579021,0.638634,-0.001232,0.283590
578911339,82.546585,-98.092827,61.353615,0.617444,-0.101352,0.384280
578921318,95.056511,-89.695084,82.071136,0.624893,-0.104208,0.405590
578931298,103.479538,-79.052444,93.285042,0.717049,-0.011390,0.403028
578941277,96.606209,-72.968330,97.564026,0.862165,0.161448,0.414879
578951257,79.495918,-67.554504,100.186043,0.997721,0.367043,0.472095
578961236,61.343472,-55.297588,100.502380,1.115998,0.532728,0.560244
578971216,54.225456,-40.774021,95.873146,1.211524,0.717515,0.658045
578981196,53.964569,-32.730247,86.828865,1.278338,0.849984,0.700992
578991175,46.944786,-24.213577,75.317757,1.259128,0.863252,0.724463
579001155,21.163454,-11.957250,63.283680,1.171556,0.715371,0.781737
579011134,-9.329402,-3.575777,53.137192,1.003991,0.373103,0.754584
579021114,-19.937269,-2.937011,43.872456,0.825277,0.116927,0.701412
579031094,-5.045701,-7.285268,38.175392,0.726947,-0.028131,0.608191
579041073,21.595280,-10.743820,39.725765,0.717491,0.028822,0.617284
579051053,41.318851,-14.322113,46.353546,0.735343,0.081651,0.624759
579061033,57.287296,-17.541304,59.161335,0.739247,0.230007,0.615480
579071012,68.752777,-22.949446,73.004852,0.742950,0.387181,0.612245
579080992,76.447426,-27.622339,83.449936,0.783443,0.558221,0.551360
579090971,76.889130,-28.600819,89.175278,0.831895,0.783071,0.545651
579100951,55.454689,-31.911646,87.834373,0.789868,0.935238,0.627804
579110930,17.268654,-35.299091,82.309578,0.719801,0.985938,0.663752
579120910,-15.194203,-36.221695,78.727737,0.703243,0.946435,0.586147
579130890,-31.616980,-40.229652,79.028564,0.699783,0.848177,0.465852
579140869,-29.442251,-47.407692,82.962616,0.700364,0.782611,0.383524
579150849,-25.838743,-53.035332,88.659813,0.692898,0.716748,0.412149
579160828,-37.945236,-55.461433,88.274315,0.621980,0.585075,0.495507
579170808,-58.134274,-57.981094,81.502335,0.480047,0.396985,0.524578
579180788,-65.342178,-57.936745,77.000687,0.317747,0.202961,0.493819
579190767,-57.082672,-60.429878,75.635254,0.245492,0.151546,0.494793
579200748,-46.868717,-68.397324,77.972923,0.291124,0.180148,0.493886
579210728,-37.459595,-77.964584,85.182716,0.493620,0.251268,0.415754
579220707,-27.280804,-78.487236,98.544144,0.847585,0.346115,0.376619
579230687,-28.162342,-66.608261,112.245132,1.212147,0.452119,0.461703
579240667,-38.300465,-51.289795,119.869225,1.463853,0.466382,0.546220
579250646,-51.464584,-35.930523,120.318848,1.483978,0.429091,0.596373
579260626,-64.305817,-21.845217,115.565094,1.263927,0.418864,0.636397
579270605,-74.216446,-14.403119,109.647026,0.960763,0.378624,0.641331
579280585,-73.407715,-8.819628,104.131439,0.689143,0.325651,0.593507
579290565,-71.598679,0.756372,96.397079,0.490562,0.206272,0.606572
579300544,-79.308365,6.443368,83.476288,0.381651,0.110582,0.662054
579310524,-90.357956,3.657040,64.561478,0.400679,0.043040,0.706491
579320508,-98.039795,-1.625785,42.413269,0.508548,-0.008257,0.718780
579330483,-103.558632,-6.223978,23.777489,0.679590,0.006782,0.736969
579340463,-107.634415,-10.842559,12.386805,0.922519,0.057847,0.745869
579350442,-107.817276,-11.275273,8.713573,1.156864,0.124509,0.721211
579360422,-103.625549,-5.882441,12.043528,1.253151,0.181134,0.658306
579370401,-93.493126,1.232703,19.018278,1.207623,0.195076,0.622092
579380381,-82.979179,6.234922,27.211754,1.105766,0.271442,0.612781
579390361,-73.569855,13.035879,35.626572,1.031770,0.419993,0.611359
579400341,-68.649269,21.955399,39.120632,0.934857,0.602596,0.659770
579410319,-75.304672,27.970650,32.243999,0.896832,0.802795,0.747220
579420298,-94.706726,34.628410,14.577678,0.947789,0.992512,0.790031
579430278,-124.314201,40.671181,-14.960930,1.009003,1.048886,0.809536
579440257,-153.647354,42.873089,-48.014381,1.066592,0.941875,0.780473
579450237,-167.060272,44.122402,-75.701202,1.044662,0.708218,0.774610
579460217,-161.585510,44.126926,-94.914688,1.009945,0.426337,0.743987
579470196,-144.215759,47.073891,-106.944038,0.998189,0.206342,0.659955
579480176,-122.754303,54.000813,-114.988953,1.049542,0.083050,0.569852
579490155,-106.593597,60.802956,-125.419098,1.175360,0.049004,0.531192
579500135,-98.644104,67.575981,-140.657654,1.265635,0.031666,0.503446
579510115,-91.389565,73.778435,-160.861145,1.261431,0.007827,0.523793
579520094,-87.238487,76.043900,-184.803009,1.190859,0.064477,0.593328
579530074,-89.434189,74.740784,-208.411377,1.105294,0.169153,0.704053
579540053,-94.855568,72.555511,-229.585312,1.032993,0.207477,0.725047
579550033,-102.444504,73.464813,-243.211975,0.920165,0.206624,0.686203
579560012,-116.584717,76.103271,-246.966278,0.867364,0.228328,0.653553
579569992,-136.063934,79.130142,-247.596771,0.890674,0.157953,0.581738
579579972,-148.087463,83.117340,-250.450546,0.963658,0.068130,0.458336
579589951,-146.619293,86.409172,-252.439056,1.045948,-0.027028,0.374531
579599931,-139.372498,88.556847,-254.512970,1.069189,-0.195975,0.350042
579609911,-133.180435,87.418686,-258.498016,0.998648,-0.319141,0.393747
579619890,-122.347412,82.150146,-259.365112,0.934719,-0.294874,0.429148
579629870,-103.113930,73.187546,-253.520187,0.853129,-0.300420,0.414811
579639849,-90.097496,63.105637,-246.904846,0.787132,-0.259280,0.408920
579649829,-81.394943,51.417084,-236.810242,0.767799,-0.249662,0.394020
579659809,-76.369492,44.644180,-223.577927,0.781296,-0.265126,0.340613
579669788,-68.515373,38.494579,-206.026428,0.685867,-0.276097,0.355797
579679768,-61.675957,31.751778,-190.086349,0.632960,-0.328485,0.353682
579689748,-56.234623,22.635550,-176.697372,0.562400,-0.323856,0.371617
579699727,-50.100990,10.571260,-160.903458,0.484913,-0.318096,0.412354
579709707,-38.268692,-4.045522,-142.263641,0.446658,-0.263482,0.377794
579719686,-19.878084,-16.565002,-121.601685,0.456230,-0.245801,0.337977
579729667,-1.602805,-27.715599,-101.124290,0.469196,-0.245555,0.314170
579739647,19.717014,-38.967773,-80.940247,0.457337,-0.276619,0.319925
579749626,44.260963,-50.418945,-63.811390,0.402053,-0.273824,0.360025
579759606,65.119751,-63.433468,-50.896904,0.334062,-0.194959,0.396461
579769586,80.117691,-78.134987,-39.076962,0.318784,-0.084223,0.424235
579779565,85.736916,-92.691124,-22.825659,0.376145,0.029015,0.488086
579789545,84.826172,-99.415749,-2.615606,0.612193,0.170870,0.534348
579799525,86.927879,-96.455338,13.036281,0.901908,0.339005,0.588084
579809504,90.885902,-91.502922,23.849279,1.073774,0.521573,0.650350
579819484,87.466667,-81.178467,32.003937,1.112804,0.555487,0.709701
579829464,72.887405,-60.344521,37.313103,1.010312,0.581627,0.808653
579839443,49.100349,-42.885433,36.449463,0.803853,0.557799,0.823287
579849423,30.546143,-37.985863,38.217461,0.603023,0.477859,0.709454
579859402,28.251858,-39.583481,49.353523,0.495420,0.421507,0.621166
579869382,33.567478,-41.862751,66.374779,0.459529,0.394236,0.595639
579879362,36.123817,-43.497849,81.685913,0.487546,0.504223,0.615296
579889341,27.041838,-45.393547,92.648209,0.630164,0.679400,0.636168
579899321,-2.784728,-43.419250,104.234390,0.791829,0.710469,0.624965
579909300,-37.893803,-43.035637,118.143021,0.789376,0.611178,0.596496
579919280,-48.513275,-48.874382,132.369568,0.710696,0.494918,0.596958
579929279,-45.896542,-59.440239,146.495132,0.651499,0.381761,0.599547
579939238,-46.591759,-71.308403,158.228622,0.687986,0.247864,0.532109
579949217,-51.508938,-76.917900,166.963760,0.780678,0.157117,0.471370
579959197,-61.181793,-75.657028,173.487167,0.861024,0.077944,0.447551
579969177,-66.117157,-74.657196,178.751587,0.906340,-0.009449,0.433604
579979156,-57.220501,-75.522797,185.961884,0.920842,-0.111864,0.402401
579989136,-37.717846,-74.935387,191.353195,0.934245,-0.183285,0.388883
579999116,-17.294601,-73.721054,192.314438,0.943514,-0.253702,0.416250
580019075,28.299143,-75.859772,176.970718,1.030399,-0.150275,0.451664
580029054,44.346985,-74.724449,169.554062,1.073475,0.035171,0.582366
580039034,36.009098,-65.840469,157.081787,1.077386,0.167464,0.705572
580049013,14.480033,-52.752365,134.359451,1.103222,0.292980,0.679039
580058993,-3.273753,-39.272224,108.385567,1.171419,0.379377,0.667947
580068973,-21.698452,-26.779778,81.818970,1.185788,0.541574,0.705075
580078952,-43.984818,-16.272722,52.662170,1.154131,0.685485,0.739654
580088932,-66.401176,-8.077659,23.250360,1.132394,0.734685,0.781795
580098911,-80.907974,-2.635389,-1.091827,1.140439,0.731252,0.788920
580108891,-84.589714,2.829262,-19.827648,1.126059,0.692696,0.777814
580118871,-76.301956,7.381779,-34.469807,1.111427,0.632347,0.780537
580128850,-61.336353,10.290592,-46.598114,1.146651,0.551129,0.709118
580138830,-43.239407,14.303297,-56.956978,1.200056,0.463400,0.603171
580148810,-29.196491,21.357117,-66.620384,1.208444,0.388198,0.538810
580158789,-24.202307,27.873430,-78.088806,1.148981,0.326414,0.498664
580168769,-24.755171,31.622463,-90.345543,1.076828,0.297338,0.473230
580178748,-27.421373,33.098545,-101.725494,0.989544,0.294986,0.474400
580188728,-31.444675,32.072777,-111.406174,0.901425,0.318467,0.463657
580198707,-36.583706,28.469133,-118.992004,0.842416,0.320799,0.432122
580208687,-41.473831,24.549061,-124.709534,0.821519,0.308738,0.400611
580218667,-49.464478,20.979130,-127.644943,0.811002,0.303125,0.394682
580228646,-61.899715,17.491539,-126.967422,0.808525,0.294815,0.396594
580238626,-74.072662,14.526349,-123.269226,0.828816,0.247135,0.420148
580248607,-84.886864,12.987192,-119.249916,0.887805,0.203740,0.440882
580258586,-93.577736,13.982315,-114.726486,0.947832,0.189411,0.448410
580268566,-102.593307,17.472910,-110.192665,0.984619,0.134135,0.461464
580278546,-110.657455,20.819811,-107.522476,0.971315,0.070449,0.448239
580288525,-113.453186,22.601095,-103.557533,0.946466,0.004953,0.427366
580298505,-111.892670,23.748756,-97.664703,0.922592,-0.022991,0.401706
580308485,-104.944397,25.358051,-88.142212,0.893196,-0.036894,0.387371
580318464,-94.830589,26.628677,-75.618515,0.849109,-0.048568,0.403327
580328444,-82.697647,26.965532,-62.859066,0.824886,-0.045062,0.427048
580338423,-71.698326,27.211153,-51.879158,0.821434,-0.054792,0.442989
580348403,-64.006271,27.813246,-42.838417,0.811248,-0.037147,0.473838
580358382,-58.070358,28.142620,-36.049538,0.797755,-0.061966,0.482739
580368362,-50.547470,27.733614,-30.863268,0.797489,-0.044065,0.475885
580378342,-39.738716,26.979425,-25.711159,0.802977,-0.057295,0.445241
580398301,-16.255302,19.272877,-16.302240,0.779818,0.030266,0.473979
580408281,-10.451705,14.274306,-11.949627,0.781496,0.084354,0.469117
580418260,-8.750576,10.276437,-8.112967,0.796381,0.116387,0.457209
580428240,-8.795732,7.730017,-3.813705,0.795026,0.147883,0.446834
580438219,-9.063172,6.568243,0.406860,0.798232,0.160607,0.436485
580448199,-10.756853,6.430040,4.606003,0.791505,0.174413,0.443421
580458179,-13.983612,6.203565,7.859125,0.791261,0.164161,0.463254
580468157,-17.112398,6.034763,9.700855,0.782362,0.143473,0.471989
580478136,-16.677200,6.127518,11.128963,0.768170,0.123584,0.481889
580488116,-13.030190,6.087743,12.264307,0.755760,0.113632,0.488745
580498096,-8.032400,5.009120,13.269058,0.756941,0.124151,0.500251
580508076,-2.807748,4.280857,14.896368,0.781271,0.147470,0.495944
580518055,3.167064,4.721479,16.585123,0.799010,0.156753,0.496846
580528035,7.258057,4.724813,17.175434,0.794697,0.173221,0.513434
580538014,9.463132,3.758494,16.652906,0.792655,0.186290,0.523018
580547994,10.589712,2.733792,15.641180,0.799382,0.200733,0.520901
580557973,11.898401,1.754444,14.781775,0.809210,0.208885,0.525865
580567953,13.449409,0.607232,14.029675,0.814883,0.211529,0.536671
580577932,15.151917,-0.570637,13.399549,0.826072,0.215719,0.545185
