Timestamp (us),Gyroscope X (deg/s),Gyroscope Y (deg/s),Gyroscope Z (deg/s),Accelerometer X (g),Accelerometer Y (g),Accelerometer Z (g)
9466972605,0.024221,-0.360404,-0.000973,-0.012217,0.998043,-0.015818
9466975108,-0.097596,-0.360019,-0.061692,-0.013646,0.998788,-0.018734
9466977610,-0.158511,-0.359691,-0.061679,-0.017292,0.995920,-0.020950
9466980112,-0.280559,-0.419807,0.059864,-0.015837,0.995908,-0.020940
9466982614,-0.341582,-0.419142,0.181249,-0.009256,0.999485,-0.021607
9466985116,-0.341515,-0.479987,0.181318,-0.010723,0.997322,-0.022352
9466987619,-0.219596,-0.602220,0.181528,-0.011466,0.997322,-0.020176
9466990121,-0.158579,-0.724359,0.121025,-0.009297,0.998747,-0.016521
9466992623,-0.097580,-0.846458,0.060542,-0.007838,0.997289,-0.018696
9466995126,-0.097507,-0.907328,-0.000057,-0.010761,0.995137,-0.019451
9466997628,-0.036447,-0.907417,-0.060755,-0.009345,0.991492,-0.017998
9467000130,0.085413,-0.846427,-0.000143,-0.004948,0.993640,-0.020140
9467002632,0.207278,-0.846591,-0.000129,-0.006431,0.990747,-0.019433
9467005135,0.207419,-0.785666,-0.121666,-0.007185,0.989295,-0.017262
9467007637,0.146408,-0.785204,-0.121635,-0.005672,0.996542,-0.017228
9467010139,0.085416,-0.784742,-0.121604,-0.006410,0.995820,-0.016509
9467012642,0.024197,-0.905916,0.000091,-0.002073,0.993603,-0.015030
9467015144,0.024150,-0.966608,0.000218,-0.002103,0.993592,-0.010669
9467017646,0.024019,-1.027123,0.061049,-0.008605,0.998004,-0.012157
9467020149,0.023929,-1.026641,0.121736,-0.010017,1.004544,-0.010693
9467022651,-0.037108,-1.025945,0.182396,-0.011455,1.006734,-0.010696
9467025153,0.023807,-0.964702,0.242925,-0.018083,1.000968,-0.005674
9467027656,0.023840,-0.903422,0.242722,-0.017397,0.995157,-0.006414
9467030158,0.084738,-0.964330,0.242779,-0.010751,0.998759,-0.016532
9467032660,0.084837,-1.025322,0.121418,0.003833,0.998653,-0.021514
9467035163,0.023947,-1.024943,0.060668,0.005289,1.000089,-0.020045
9467037665,-0.036923,-1.024565,-0.000064,-0.012181,0.998780,-0.020177
9467040167,-0.158803,-1.023813,-0.000078,-0.017355,0.993002,-0.015144
9467042669,-0.158711,-1.084626,-0.060657,-0.013016,0.992233,-0.012207
9467045171,-0.097592,-1.023683,-0.121463,-0.007254,0.989994,-0.006356
9467047674,-0.036492,-0.962758,-0.182250,-0.005788,0.986368,-0.012172
9467050176,0.024548,-0.962830,-0.242891,-0.008633,0.990757,-0.016541
9467052678,0.024540,-0.962528,-0.242815,-0.012231,0.994419,-0.018010
9467055181,0.146299,-0.901361,-0.121440,-0.009314,0.992227,-0.021630
9467057683,0.207239,-0.840317,-0.121521,0.000919,1.000123,-0.019350
9467060185,0.085528,-0.717986,-0.243161,0.009014,1.007329,-0.024356
9467062688,-0.036225,-0.717648,-0.364509,0.015557,1.007273,-0.023581
9467065190,-0.158065,-0.656015,-0.364535,0.015573,1.004385,-0.029406
9467067692,-0.219045,-0.655435,-0.303722,0.017741,1.000019,-0.032312
9467070194,-0.280005,-0.654855,-0.242928,0.009036,1.000100,-0.036010
9467072696,-0.341026,-0.776229,-0.181900,-0.004020,1.003115,-0.038277
9467075199,-0.219107,-0.898369,-0.181576,-0.010518,1.006805,-0.041221
9467077701,-0.097146,-0.898517,-0.181505,-0.003959,1.012545,-0.036067
9467080203,0.085802,-0.776927,-0.181680,-0.003299,1.006001,-0.033901
9467082706,0.146676,-0.593651,-0.060584,-0.021495,1.006146,-0.032581
9467085208,0.207533,-0.532544,0.000021,-0.013477,1.006810,-0.033974
9467087710,0.207221,-0.654012,0.121685,-0.016430,0.999581,-0.036199
9467090213,0.207033,-0.714625,0.182478,-0.035384,0.995378,-0.035624
9467092715,0.267831,-0.714457,0.243134,-0.032498,0.996069,-0.031239
9467095217,0.328856,-0.592653,0.182106,-0.020873,0.992351,-0.033346
9467097720,0.450848,-0.410126,0.120978,-0.031792,0.990990,-0.034158
9467100222,0.450866,-0.166090,0.120434,-0.041343,0.987414,-0.024789
9467102724,0.389899,0.017108,0.120010,-0.045844,0.981611,-0.011755
9467105226,0.328871,0.078294,0.119839,-0.058885,0.984631,-0.016203
9467107728,0.328891,0.139088,0.058969,-0.066872,0.989044,-0.013340
9467110231,0.328907,0.321974,0.058572,-0.068391,0.981072,-0.013376
9467112733,0.328842,0.504962,0.118880,-0.062613,0.974496,-0.014808
9467115235,0.389641,0.565724,0.179428,-0.056803,0.975169,-0.012582
9467117738,0.450422,0.626466,0.239958,-0.058935,0.975205,-0.019867
9467120240,0.450361,0.748223,0.239630,-0.067645,0.975283,-0.022839
9467122742,0.328571,0.992166,0.178329,-0.062622,0.975216,-0.012625
9467125245,0.206819,1.236033,0.117048,-0.053823,0.979513,-0.017635
9467127747,0.146094,1.418472,-0.004786,-0.066881,0.981080,-0.021361
9467130249,0.146292,1.661775,-0.065995,-0.059570,0.977416,-0.030770
9467132751,0.207352,1.904944,-0.066473,-0.045086,0.977274,-0.021213
9467135254,0.146541,2.209445,-0.067091,-0.047978,0.975857,-0.025601
9467137756,0.024764,2.453088,-0.067590,-0.052960,0.988964,-0.026323
9467140258,-0.096933,2.635519,-0.128667,-0.053693,0.984627,-0.030704
9467142761,-0.218591,2.817893,-0.189726,-0.049356,0.986028,-0.024852
9467145263,-0.279345,2.878041,-0.250505,-0.043514,0.988160,-0.025529
9467147765,-0.401109,2.938544,-0.250567,-0.045687,0.992523,-0.021897
9467150267,-0.462137,2.999289,-0.068505,-0.036914,0.991021,-0.029833
9467152770,-0.461995,3.120459,-0.008030,-0.027411,1.004710,-0.020270
9467155272,-0.462118,3.059641,0.052802,-0.037585,1.001179,-0.026172
9467157776,-0.401086,2.937155,-0.068350,-0.036793,1.009157,-0.026141
9467160278,-0.340018,2.997757,-0.129175,-0.025202,1.006874,-0.021701
9467162780,-0.400760,3.180744,-0.190266,-0.021563,1.007568,-0.020945
9467165282,-0.461626,3.302913,-0.190526,-0.025893,1.011958,-0.020963
9467167785,-0.522615,3.364264,-0.129954,-0.027282,1.012718,-0.029695
9467170287,-0.461666,3.241936,-0.190400,-0.020780,1.016990,-0.018002
9467172789,-0.400758,3.058632,-0.250719,-0.017192,1.013324,-0.015079
9467175292,-0.278986,2.875271,-0.250326,-0.017883,1.010449,-0.023817
9467177794,-0.157257,2.753046,-0.189354,-0.022995,1.010483,-0.020947
9467180296,-0.096434,2.692013,-0.128515,-0.014259,1.011862,-0.020151
9467182798,-0.096434,2.692013,-0.128515,-0.001154,1.012483,-0.020780
9467185300,-0.035569,2.569844,-0.128255,-0.003470,1.000149,-0.015747
9467187803,-0.035649,2.447891,-0.128002,-0.001995,1.000869,-0.017915
9467190306,-0.035769,2.264961,-0.127623,0.010384,1.002220,-0.017820
9467192807,-0.035889,2.082031,-0.127244,0.023422,1.001369,-0.010457
9467195310,0.025019,1.898726,-0.187563,0.021946,0.996307,-0.013391
9467197812,0.146708,1.715525,-0.126464,0.021961,0.996313,-0.015572
9467200314,0.268396,1.532323,-0.065366,0.029165,0.991162,-0.011174
9467202817,0.329179,1.410313,-0.004400,0.032722,0.986037,-0.005348
9467205319,0.328976,1.227542,0.056684,0.036372,0.983841,-0.009690
9467207821,0.328816,0.983635,0.057190,0.034923,0.980961,-0.014071
9467210324,0.328532,0.678910,0.118528,0.040751,0.983087,-0.012568
9467212826,0.267266,0.191311,0.119532,0.040708,0.985243,-0.003838
9467215328,0.266945,-0.296502,0.120543,0.041413,0.978715,-0.008215
9467217830,0.205841,-0.662306,0.060589,0.039262,0.980192,-0.011134
9467220332,0.144529,-0.966657,0.182625,0.049391,0.975023,-0.008895
9467222835,0.083380,-1.149213,0.243703,0.056635,0.974229,-0.005209
9467225337,0.083300,-1.271167,0.243956,0.049387,0.975745,-0.007439
9467227839,0.083343,-1.332302,0.183377,0.050850,0.978631,-0.005238
9467230342,0.022314,-1.331928,0.244075,0.047960,0.983004,-0.003065
9467232844,-0.099741,-1.453293,0.305020,0.036340,0.986724,-0.001684
9467235346,-0.099941,-1.758176,0.305652,0.035653,0.986745,-0.007505
9467237849,-0.100139,-2.185172,0.245831,0.035700,0.993275,-0.006757
9467240351,-0.161245,-2.428864,0.246330,0.039310,0.991065,-0.005284
9467242853,-0.222312,-2.611578,0.246702,0.036484,0.994737,-0.013290
9467245355,-0.222312,-2.611578,0.246702,0.029222,0.996972,-0.012609
9467247858,-0.222392,-2.733532,0.246955,0.024175,1.001372,-0.014086
9467250360,-0.222392,-2.733532,0.246955,0.019118,1.002150,-0.018483
9467252862,-0.283498,-2.977224,0.247453,0.014766,1.004361,-0.017781
9467255365,-0.283535,-3.160313,0.187127,0.014011,1.002186,-0.016339
9467257867,-0.222710,-3.343458,0.187513,0.011849,1.006554,-0.014160
9467260369,-0.100855,-3.526977,0.127201,0.011926,1.017437,-0.012672
9467262871,-0.100895,-3.587954,0.127327,0.009734,1.017451,-0.011234
9467265374,-0.101059,-3.709749,0.188286,0.005370,1.013868,-0.015639
9467267876,-0.101101,-3.648613,0.248865,-0.001146,1.015381,-0.018590
9467270378,0.020748,-3.587908,0.309458,0.001021,1.014633,-0.017122
9467272881,0.142637,-3.466227,0.369925,0.000989,1.013175,-0.014219
9467275383,0.264611,-3.466815,0.309233,-0.000486,1.008113,-0.017154
9467277885,0.325560,-3.589143,0.248787,-0.001236,1.005940,-0.016439
9467280387,0.325359,-3.894027,0.249419,-0.001280,1.003029,-0.013541
9467282889,0.325282,-4.138092,0.189219,-0.006400,1.000166,-0.012861
9467285392,0.325202,-4.260046,0.189472,-0.007869,0.996554,-0.015064
9467287894,0.325242,-4.199069,0.189346,-0.010071,0.992946,-0.016545
9467290396,0.264376,-4.076900,0.189086,-0.016588,0.996629,-0.016581
9467292899,0.264456,-3.954947,0.188833,-0.022465,0.990142,-0.015918
9467295401,0.203508,-3.832619,0.249279,-0.022508,0.983613,-0.017393
9467297903,0.203548,-3.771643,0.249152,-0.021785,0.979987,-0.021033
9467300406,0.203548,-3.771643,0.249152,-0.026173,0.981462,-0.015972
9467302908,0.203548,-3.771643,0.249152,-0.031962,0.985862,-0.015274
9467305410,0.142642,-3.710451,0.249019,-0.037745,0.987370,-0.018947
9467307912,0.081776,-3.588282,0.248759,-0.038522,0.983740,-0.016056
9467310415,-0.040033,-3.588011,0.188040,-0.040722,0.985198,-0.011706
9467312917,-0.100773,-3.527136,0.066495,-0.045051,0.986695,-0.015368
9467315419,-0.039664,-3.405557,0.005544,-0.045793,0.982353,-0.018295
9467317922,0.082346,-3.100945,0.065631,-0.045741,0.984543,-0.023376
9467320424,0.204315,-2.857309,0.125845,-0.049359,0.983132,-0.027769
9467322926,0.265298,-2.674436,0.186179,-0.053712,0.985343,-0.027067
9467325428,0.265544,-2.552800,0.064515,-0.050757,0.989678,-0.028485
9467327931,0.265544,-2.552800,0.064515,-0.052947,0.991864,-0.024860
9467330433,0.204679,-2.430631,0.064255,-0.053682,0.989696,-0.026326
9467332935,0.143813,-2.308463,0.063995,-0.055166,0.986079,-0.026348
9467335438,0.021999,-2.063967,0.124181,-0.057337,0.986825,-0.027089
9467337940,-0.160679,-1.819414,0.123654,-0.057282,0.991910,-0.029253
9467340442,-0.221341,-1.514474,0.062310,-0.055060,0.995525,-0.030680
9467342944,-0.160235,-1.270782,0.061811,-0.053566,0.999146,-0.032111
9467345447,-0.038140,-1.088441,0.000740,-0.048498,0.995478,-0.032812
9467347951,-0.037980,-0.844534,0.000235,-0.048505,0.994028,-0.033544
9467350467,-0.037736,-0.600786,-0.060976,-0.048459,0.999110,-0.034255
9467352957,-0.037576,-0.356879,-0.061482,-0.047726,0.999830,-0.034247
9467355454,-0.037333,-0.113131,-0.122693,-0.047733,0.997656,-0.035708
9467357957,0.023776,0.008448,-0.183645,-0.046990,0.998380,-0.037154
9467360459,0.023856,0.130402,-0.183897,-0.045567,0.996909,-0.034240
9467362961,-0.037090,0.130617,-0.183904,-0.041180,0.998329,-0.035658
9467365463,-0.097995,0.191809,-0.184038,-0.042592,1.001251,-0.038567
9467367966,-0.098038,0.252944,-0.123459,-0.042607,1.001246,-0.036386
9467370468,-0.097918,0.435874,-0.123838,-0.037554,0.997572,-0.034906
9467372971,-0.036852,0.618589,-0.124210,-0.035395,0.994651,-0.034900
9467375473,-0.036608,0.862337,-0.185421,-0.035403,0.991753,-0.037090
9467377975,0.024332,1.106347,-0.064509,-0.032503,0.991726,-0.035615
9467380477,0.146261,1.289005,-0.004169,-0.032515,0.994616,-0.030517
9467382979,0.268070,1.288734,0.056551,-0.034712,0.995352,-0.027623
9467385482,0.268070,1.288734,0.056551,-0.032529,0.995335,-0.027607
9467387984,0.207373,1.288473,-0.125573,-0.035407,0.996817,-0.030531
9467390487,0.085481,1.288903,-0.125587,-0.035392,0.996823,-0.032712
9467392989,0.024615,1.411071,-0.125846,-0.031028,0.996787,-0.032680
9467395491,-0.097402,1.472796,-0.004576,-0.029576,0.998222,-0.030484
9467397993,-0.036459,1.594693,0.055884,-0.027414,0.998196,-0.027560
9467400496,0.024690,1.777249,-0.005194,-0.025206,0.998188,-0.031179
9467402998,0.207774,1.898240,-0.126837,-0.025219,0.996012,-0.031913
9467405500,0.268800,2.019978,-0.127083,-0.023829,0.991634,-0.027555
9467408002,0.207728,2.081487,-0.005805,-0.024563,0.990191,-0.028291
9467410504,0.146905,2.142520,-0.066644,-0.023060,0.993091,-0.031906
9467413007,0.207768,2.142464,-0.005931,-0.018676,0.996681,-0.030409
9467415509,0.329703,2.080898,-0.066496,-0.020863,0.996697,-0.029698
9467418012,0.268714,2.142249,-0.005924,-0.020829,0.995986,-0.035515
9467420514,0.268754,2.203226,-0.006051,-0.018658,0.995240,-0.034775
9467423016,0.146863,2.203656,-0.006065,-0.015762,0.995935,-0.031844
9467425518,0.146823,2.142679,-0.005938,-0.014986,0.998842,-0.035464
9467428021,0.146903,2.264633,-0.006191,-0.014987,0.998118,-0.036193
9467430523,0.147146,2.508381,-0.067402,-0.014295,0.997375,-0.031828
9467433025,0.086360,2.752503,-0.067915,-0.012839,0.998811,-0.030359
9467435527,0.086566,2.813162,-0.189452,-0.013551,0.998823,-0.032545
9467438030,0.025457,2.691583,-0.128501,-0.012846,0.996637,-0.031820
9467440532,0.086323,2.569414,-0.128241,-0.011413,0.995170,-0.030360
9467443034,0.086240,2.569573,-0.067536,-0.012860,0.993738,-0.033283
9467445537,0.086240,2.569573,-0.067536,-0.012819,0.994476,-0.038369
9467448039,0.208132,2.569143,-0.067522,-0.012091,0.995194,-0.037635
9467450541,0.269078,2.568927,-0.067515,-0.011396,0.993006,-0.035455
9467453044,0.329901,2.507894,-0.006676,-0.009231,0.990810,-0.035446
9467455546,0.329941,2.568871,-0.006802,-0.007026,0.992972,-0.036150
9467458048,0.268912,2.569245,0.053896,-0.006298,0.993690,-0.035416
9467460550,0.147060,2.630652,0.053756,-0.005606,0.988605,-0.036154
9467463053,-0.035654,2.692116,-0.007097,-0.002763,0.982768,-0.033243
9467465555,-0.035571,2.691957,-0.067802,-0.004221,0.984226,-0.031069
9467468057,-0.035489,2.691798,-0.128508,-0.007805,0.987170,-0.035447
9467470559,-0.035406,2.691639,-0.189213,-0.008519,0.985733,-0.039092
9467473062,-0.035323,2.691480,-0.249919,-0.008524,0.985731,-0.038365
9467475564,-0.035486,2.569686,-0.188961,-0.010013,0.986454,-0.032558
9467478066,-0.035692,2.509027,-0.067423,-0.008587,0.982813,-0.032559
9467480569,-0.035855,2.387232,-0.006465,-0.009314,0.979201,-0.036937
9467483071,-0.096718,2.387288,-0.067177,-0.008598,0.977744,-0.036937
9467485573,-0.096755,2.204199,-0.127504,-0.003491,0.977708,-0.039080
9467488076,-0.096795,2.143223,-0.127377,-0.002727,0.979163,-0.042705
9467490577,-0.036095,2.021371,-0.005706,-0.006374,0.979188,-0.041278
9467493080,0.024645,1.960497,0.115838,-0.006404,0.979177,-0.036916
9467495582,-0.036381,1.838759,0.116084,0.000885,0.982742,-0.034671
9467498085,-0.158273,1.839189,0.116070,0.003849,0.987080,-0.037543
9467500587,-0.279959,1.900279,-0.005481,0.001712,0.991456,-0.038999
9467503089,-0.340659,2.022130,-0.127152,0.003183,0.992174,-0.040440
9467505591,-0.279670,1.960779,-0.187724,0.001021,0.992923,-0.042634
9467508093,-0.279710,1.899802,-0.187598,-0.000394,0.997292,-0.043358
9467510596,-0.401640,1.717144,-0.247938,-0.001153,0.995839,-0.040460
9467513098,-0.462666,1.595406,-0.247692,-0.003345,0.996577,-0.038293
9467515601,-0.462706,1.534429,-0.247566,-0.003374,0.992948,-0.038305
9467518103,-0.340814,1.533999,-0.247552,-0.001927,0.994380,-0.035382
9467520605,-0.279911,1.594919,-0.186966,-0.001892,0.998735,-0.035368
9467523108,-0.341020,1.473339,-0.126015,-0.006974,0.998780,-0.036859
9467525610,-0.341103,1.473498,-0.065309,-0.012039,1.001003,-0.038343
9467528112,-0.280197,1.412306,-0.065176,-0.013523,1.001727,-0.033263
9467530614,-0.280117,1.534260,-0.065428,-0.012822,0.995922,-0.036184
9467533116,-0.341023,1.595452,-0.065562,-0.014226,1.001743,-0.036903
9467535619,-0.401968,1.595667,-0.065569,-0.014251,1.001009,-0.033997
9467538121,-0.341186,1.473657,-0.004603,-0.015045,0.995926,-0.030384
9467540623,-0.219374,1.351273,-0.004337,-0.016473,0.997395,-0.032571
9467543125,-0.158385,1.289922,-0.064909,-0.019340,1.003947,-0.031118
9467545628,-0.219291,1.351114,-0.065042,-0.021588,0.998875,-0.027515
9467548130,-0.219291,1.351114,-0.065042,-0.022266,1.003241,-0.029688
9467550633,-0.280403,1.351647,0.056362,-0.023730,1.003973,-0.027515
9467553135,-0.280526,1.290829,0.117194,-0.023759,1.000344,-0.027527
9467555637,-0.280443,1.290670,0.056488,-0.020129,1.002483,-0.023859
9467558139,-0.280440,1.168558,-0.003964,-0.022313,1.001053,-0.025333
9467560642,-0.219286,1.106890,-0.185948,-0.018662,1.004647,-0.023114
9467563144,-0.158340,1.106675,-0.185941,-0.021544,1.002509,-0.029685
9467565646,-0.158302,1.289764,-0.125614,-0.023752,0.998176,-0.031168
9467568148,-0.097605,1.290025,0.056509,-0.020858,0.997423,-0.029695
9467570651,-0.036702,1.350945,0.117095,-0.018705,0.997394,-0.025318
9467573153,0.024204,1.289753,0.117229,-0.017953,0.997397,-0.028947
9467575655,0.146178,1.289164,0.056537,-0.011421,0.997339,-0.026719
9467578158,0.146221,1.228029,-0.004042,-0.011456,0.997326,-0.021630
9467580660,0.085275,1.228244,-0.004049,-0.014356,0.996629,-0.023835
9467583162,-0.036699,1.228833,0.056643,-0.012196,0.994432,-0.023099
9467585664,-0.097726,1.107095,0.056888,-0.014343,0.995187,-0.027474
9467588167,-0.097726,1.107095,0.056888,-0.009273,0.992966,-0.026716
9467590669,-0.158548,1.168128,-0.003951,-0.007850,0.991495,-0.023803
9467593171,-0.158466,1.167969,-0.064656,-0.006436,0.986403,-0.023808
9467595674,-0.158425,1.228946,-0.064783,-0.001366,0.984182,-0.023051
9467598176,-0.097603,1.167912,-0.003944,-0.006394,0.992207,-0.023063
9467600678,-0.097766,1.046118,0.057015,-0.004226,0.992908,-0.020137
9467603181,-0.036940,0.862972,0.057401,-0.004255,0.989279,-0.020149
9467605683,-0.036814,0.801678,-0.063884,-0.006411,0.990754,-0.022341
9467608185,-0.036648,0.801361,-0.185295,-0.006391,0.990761,-0.025248
9467610687,-0.158623,0.801950,-0.124603,-0.004913,0.992929,-0.025958
9467613190,-0.158789,0.802267,-0.003192,-0.002025,0.991450,-0.024487
9467615692,-0.158829,0.741291,-0.003066,-0.003495,0.991456,-0.022317
9467618194,-0.097886,0.863188,0.057394,-0.005717,0.991459,-0.016518
9467620696,-0.037023,0.863131,0.118107,-0.004212,0.992189,-0.023047
9467623199,-0.098092,0.802528,0.178932,-0.007105,0.993667,-0.023791
9467625701,-0.098006,0.680258,0.057773,-0.007091,0.997290,-0.021598
9467628203,-0.158949,0.558361,-0.002686,-0.007108,0.995113,-0.021605
9467630706,-0.219812,0.558417,-0.063399,-0.011485,0.992973,-0.022371
9467633208,-0.219978,0.558734,0.058012,-0.009269,0.996586,-0.023070
9467635710,-0.158992,0.619496,0.057893,-0.007120,0.993661,-0.021610
9467638212,-0.159032,0.558519,0.058019,-0.008613,0.990764,-0.019449
9467640714,-0.098001,0.436033,-0.063132,-0.010058,0.990780,-0.020913
9467643218,-0.158947,0.436248,-0.063139,-0.011552,0.987159,-0.019482
9467645721,-0.219893,0.436463,-0.063146,-0.010858,0.988588,-0.012930
9467648223,-0.280838,0.436679,-0.063153,-0.006486,0.990726,-0.011437
9467650725,-0.219893,0.436463,-0.063146,-0.005016,0.990720,-0.013607
9467653227,-0.097961,0.497010,-0.063259,-0.010108,0.990762,-0.013644
9467655730,0.023808,0.435761,-0.002413,-0.011547,0.991503,-0.015106
9467658232,0.084588,0.435864,0.119005,-0.007158,0.995095,-0.014336
9467660734,-0.037221,0.436135,0.058286,-0.007169,0.994367,-0.013611
9467663236,-0.098084,0.436192,-0.002427,-0.004302,0.991433,-0.010692
9467665739,-0.158987,0.375272,-0.063013,-0.010108,0.990762,-0.013644
9467668241,-0.219930,0.253375,-0.123473,-0.007896,0.994373,-0.013617
9467670743,-0.219967,0.070286,-0.183799,-0.004982,0.998693,-0.009220
9467673246,-0.158981,0.131047,-0.183918,-0.005002,0.993620,-0.012144
9467675748,-0.159107,0.192341,-0.062634,-0.008634,0.994375,-0.012168
9467678250,-0.098287,0.253420,0.058658,-0.006442,0.998703,-0.008504
9467680752,-0.159233,0.253636,0.058651,-0.002086,0.999388,-0.006289
9467683255,-0.098161,0.192126,-0.062627,-0.002013,1.002309,-0.013549
9467685757,-0.098075,0.069855,-0.183785,-0.008594,0.998732,-0.012881
9467688259,-0.037293,-0.052155,-0.122820,-0.008605,1.002346,-0.007054
9467690762,-0.098485,-0.173575,-0.001163,-0.006437,0.998705,-0.009231
9467693264,-0.037499,-0.112814,-0.001282,-0.006376,1.003793,-0.012122
9467695767,-0.037461,0.070275,0.059044,-0.006374,1.000899,-0.015766
9467698268,0.023688,0.252831,-0.002034,-0.008562,1.000915,-0.015055
9467700771,0.023768,0.374785,-0.002286,-0.012215,1.000215,-0.013630
9467703273,-0.037178,0.375000,-0.002293,-0.017320,0.997357,-0.015130
9467705775,-0.098124,0.375215,-0.002300,-0.013693,0.997323,-0.013650
9467708278,-0.098207,0.375374,0.058405,-0.014444,0.993702,-0.014394
9467710780,-0.037261,0.375159,0.058412,-0.012984,0.994416,-0.014381
9467713283,0.023562,0.314126,0.119251,-0.018792,0.995915,-0.014419
9467715784,0.023482,0.192172,0.119504,-0.018802,0.991569,-0.018067
9467718287,-0.037461,0.070275,0.059044,-0.015202,0.985013,-0.020242
9467720789,-0.159430,-0.173360,-0.001170,-0.015228,0.988622,-0.012235
9467723291,-0.220457,-0.295098,-0.000924,-0.013777,0.989332,-0.010768
9467725794,-0.220416,-0.234122,-0.001050,-0.013070,0.984253,-0.013686
9467728296,-0.159350,-0.051407,-0.001422,-0.021016,0.989404,-0.015910
9467730798,-0.098284,0.131308,-0.001795,-0.026151,0.987259,-0.012319
9467733300,-0.037504,0.131411,0.119623,-0.017384,0.993715,-0.010054
9467735803,0.084225,0.009186,0.180596,-0.020290,0.993016,-0.011531
9467738305,0.145213,-0.052165,0.120024,-0.025364,0.990893,-0.016664
9467740807,0.145302,-0.296548,-0.061587,-0.026826,0.993797,-0.012304
9467743310,0.084316,-0.357310,-0.061468,-0.018091,0.994452,-0.012237
9467745812,-0.037576,-0.356879,-0.061482,-0.018065,0.995185,-0.015143
9467748314,-0.159348,-0.173519,-0.061875,-0.025373,0.992337,-0.013751
9467750816,-0.098198,0.009037,-0.122953,-0.020310,0.993009,-0.008623
9467753319,-0.037295,0.069958,-0.062367,-0.014472,0.995863,-0.007845
9467755821,0.023568,0.069901,-0.001654,-0.019494,1.000272,-0.012956
9467758325,0.023528,0.008924,-0.001528,-0.020934,1.000289,-0.015148
9467760826,0.023610,0.008766,-0.062233,-0.020979,0.995931,-0.013708
9467763328,0.023653,-0.052370,-0.122813,-0.023133,0.998854,-0.014442
9467765830,0.023570,-0.052211,-0.062107,-0.021672,1.000292,-0.013699
9467768332,-0.037418,0.009140,-0.001535,-0.019482,1.002448,-0.012223
9467770835,-0.098284,0.131308,-0.001795,-0.022396,1.002470,-0.011517
9467773337,-0.098324,0.070332,-0.001668,-0.018776,1.000987,-0.010768
9467775839,-0.037458,-0.051837,-0.001408,-0.014384,1.003132,-0.012183
9467778342,0.023407,-0.174006,-0.001149,-0.013655,1.004574,-0.010719
9467780844,0.084353,-0.174221,-0.001142,-0.015844,1.003142,-0.011467
9467783346,0.023530,-0.113188,-0.061981,-0.015834,1.003146,-0.012921
9467785848,-0.037253,0.008822,-0.122946,-0.015857,1.000242,-0.012930
9467788351,-0.037255,0.130934,-0.062493,-0.015109,1.000244,-0.015832
9467790853,-0.037421,0.131252,0.058918,-0.012237,0.998036,-0.012910
9467793355,0.023485,0.070060,0.059051,-0.013719,0.996590,-0.010745
9467795858,0.084393,-0.113244,-0.001268,-0.014404,0.998783,-0.014378
9467798360,0.145465,-0.174754,-0.122546,-0.011498,0.999481,-0.012900
9467800862,0.206411,-0.174969,-0.122539,-0.014414,0.998779,-0.012924
9467803364,0.206408,-0.052857,-0.062086,-0.015864,0.998793,-0.013661
9467805867,0.206488,0.069097,-0.062339,-0.015852,1.000244,-0.013657
9467808369,0.145665,0.130130,-0.123178,-0.010770,1.000199,-0.012166
9467810871,0.084639,0.008392,-0.122932,-0.007129,0.998724,-0.014324
9467813374,-0.037333,-0.113131,-0.122693,-0.010084,0.994389,-0.012906
9467815876,-0.037456,-0.173949,-0.061861,-0.010131,0.992200,-0.008551
9467818378,-0.037456,-0.173949,-0.061861,-0.010811,0.994395,-0.012911
9467820880,0.023447,-0.113029,-0.001275,-0.008631,0.992929,-0.014354
9467823382,0.023487,-0.052052,-0.001402,-0.012271,0.994405,-0.012195
9467825885,0.023487,-0.052052,-0.001402,-0.011545,0.993675,-0.012919
9467828387,0.023610,0.008766,-0.062233,-0.007171,0.992919,-0.015070
9467830889,-0.037458,-0.051837,-0.001408,-0.008593,0.995114,-0.017254
9467833410,-0.037622,-0.173632,0.059550,-0.010054,0.994400,-0.017267
9467835904,-0.098690,-0.234235,0.120375,-0.010060,0.993674,-0.017270
9467838395,-0.159553,-0.234178,0.059662,-0.010773,0.992961,-0.020185
9467840897,-0.159348,-0.173519,-0.061875,-0.012226,0.990079,-0.023839
9467843399,-0.037250,-0.113290,-0.183399,-0.011507,0.987175,-0.026024
9467845902,0.084682,-0.052744,-0.183511,-0.009341,0.986428,-0.024557
9467848404,0.145585,0.008177,-0.122925,-0.007860,0.987149,-0.027451
9467850906,0.145462,-0.052641,-0.062093,-0.007152,0.987136,-0.024538
9467853409,0.145462,-0.052641,-0.062093,-0.008601,0.987874,-0.024547
9467855911,0.145339,-0.113459,-0.001261,-0.011504,0.990071,-0.023107
9467858413,0.084393,-0.113244,-0.001268,-0.009327,0.989328,-0.023094
9467860915,0.023528,0.008924,-0.001528,-0.007139,0.985694,-0.028178
9467863418,-0.037378,0.070116,-0.001661,-0.006427,0.984958,-0.026721
9467865920,-0.098407,0.070490,0.059037,-0.006415,0.987134,-0.025987
9467868422,-0.159516,-0.051089,0.119989,-0.009319,0.987884,-0.026006
9467870924,-0.098650,-0.173258,0.120248,-0.010802,0.984990,-0.025299
9467873427,-0.098771,-0.356188,0.120628,-0.009331,0.986432,-0.026010
9467875929,-0.038028,-0.539175,0.181719,-0.009295,0.991511,-0.025267
9467878431,-0.038028,-0.539175,0.181719,-0.010756,0.990073,-0.026010
9467880934,-0.038028,-0.539175,0.181719,-0.009317,0.989331,-0.024547
9467883436,0.023164,-0.417754,0.060062,-0.007143,0.990758,-0.021619
9467885938,-0.037742,-0.356562,0.059929,-0.008581,0.992947,-0.021623
9467888440,-0.159551,-0.356290,-0.000790,-0.011502,0.991519,-0.021649
9467890943,-0.159591,-0.417267,-0.000664,-0.012220,0.991529,-0.023108
9467893445,-0.220451,-0.539323,-0.121829,-0.009293,0.992959,-0.023809
9467895947,-0.220451,-0.539323,-0.121829,-0.010041,0.992233,-0.021636
9467898449,-0.159505,-0.539538,-0.121822,-0.011475,0.993700,-0.023096
9467900952,-0.098645,-0.417482,-0.000657,-0.009291,0.994407,-0.022350
9467903454,-0.098645,-0.417482,-0.000657,-0.012212,0.993703,-0.021647
9467905956,-0.159674,-0.417108,0.060042,-0.015047,0.998096,-0.027470
9467908459,-0.281523,-0.477813,-0.000551,-0.011400,0.998070,-0.028897
9467910961,-0.281523,-0.477813,-0.000551,-0.011426,0.997337,-0.025992
9467913463,-0.281523,-0.477813,-0.000551,-0.014331,1.000980,-0.022367
9467915966,-0.220620,-0.416893,0.060035,-0.015742,1.004627,-0.024547
9467918468,-0.159717,-0.355973,0.120621,-0.016499,1.000280,-0.025293
9467920970,-0.098894,-0.417006,0.181460,-0.017288,0.995197,-0.022407
9467923472,-0.037905,-0.478357,0.120887,-0.016557,0.993745,-0.024587
9467925975,0.023081,-0.417595,0.120768,-0.017268,0.995205,-0.025314
9467928477,0.084107,-0.295857,0.120522,-0.017956,0.998843,-0.026762
9467930979,0.023161,-0.295642,0.120515,-0.019429,0.995954,-0.027509
9467933482,-0.037702,-0.295585,0.059803,-0.020199,0.993773,-0.023886
9467935984,-0.037699,-0.417697,-0.000650,-0.017278,0.995201,-0.023860
9467938486,-0.037656,-0.478833,-0.061229,-0.018663,0.999581,-0.028946
9467940988,-0.037819,-0.600628,-0.000271,-0.022310,0.999607,-0.027518
9467943491,-0.098848,-0.600254,0.060428,-0.022391,0.994511,-0.021719
9467945993,-0.098888,-0.661230,0.060554,-0.022433,0.992325,-0.018092
9467948495,0.023086,-0.661820,-0.000137,-0.020217,0.995214,-0.019520
9467950997,0.084195,-0.540240,-0.061089,-0.018733,0.994489,-0.024600
9467953500,0.145222,-0.418502,-0.061335,-0.020205,0.993047,-0.023889
9467956003,0.023370,-0.357095,-0.061475,-0.020918,0.996677,-0.021702
9467958505,-0.098399,-0.295846,-0.122321,-0.023817,0.997428,-0.022448
9467961007,-0.159265,-0.173678,-0.122581,-0.020193,0.994499,-0.023884
9467963509,-0.098402,-0.173734,-0.061868,-0.016558,0.993021,-0.025316
9467966011,-0.037456,-0.173949,-0.061861,-0.017267,0.995929,-0.024585
9467968514,-0.037576,-0.356879,-0.061482,-0.016561,0.994467,-0.023131
9467971016,0.023290,-0.479048,-0.061222,-0.015835,0.993014,-0.024584
9467973518,0.145058,-0.540296,-0.000376,-0.012906,0.992273,-0.028199
9467976020,0.206002,-0.418399,0.060083,-0.012893,0.995173,-0.026736
9467978522,0.206042,-0.357423,0.059957,-0.012895,0.997343,-0.023822
9467981025,0.084190,-0.296016,0.059817,-0.012878,0.999520,-0.023815
9467983527,-0.037702,-0.295585,0.059803,-0.011433,0.999505,-0.022350
9467986029,-0.037745,-0.234450,0.120382,-0.009966,0.997327,-0.026708
9467988532,-0.037704,-0.173473,0.120255,-0.009238,0.997321,-0.026703
9467991034,-0.037622,-0.173632,0.059550,-0.012905,0.998063,-0.021638
9467993536,-0.098525,-0.234552,-0.001036,-0.010722,0.998046,-0.021622
9467996039,-0.098565,-0.295529,-0.000910,-0.010712,0.998049,-0.023076
9467998541,-0.037659,-0.356721,-0.000776,-0.009968,0.999497,-0.023793
9468001043,0.084113,-0.540081,-0.000383,-0.010696,0.999503,-0.023799
9468003545,0.144893,-0.539979,0.121035,-0.008521,0.997311,-0.025243
9468006048,0.205919,-0.418241,0.120789,-0.007786,0.999479,-0.023777
9468008550,0.205916,-0.296128,0.181242,-0.009939,1.003126,-0.023782
9468011052,0.205916,-0.296128,0.181242,-0.012846,1.001703,-0.025988
9468013555,0.266905,-0.357479,0.120669,-0.009245,0.995871,-0.027434
9468016057,0.266948,-0.418615,0.060090,-0.010720,0.995875,-0.024537
9468018559,0.206167,-0.418717,-0.061328,-0.009242,0.998043,-0.025246
9468021061,0.145345,-0.357684,-0.122167,-0.012878,0.995178,-0.028917
9468023563,0.084479,-0.235515,-0.122426,-0.015079,0.991571,-0.030398
9468026066,0.084396,-0.235356,-0.061721,-0.009291,0.990065,-0.027453
9468028568,0.084273,-0.296174,-0.000889,-0.007816,0.990784,-0.029620
9468031071,0.023164,-0.417754,0.060062,-0.012930,0.988646,-0.028938
9468033573,0.083904,-0.478628,0.181607,-0.011489,0.990077,-0.025288
9468036075,0.083861,-0.417493,0.242186,-0.011507,0.987175,-0.026024
9468038577,0.144847,-0.356731,0.242067,-0.015874,0.985039,-0.028244
9468041080,0.144930,-0.356890,0.181361,-0.014424,0.985025,-0.027506
9468043582,0.206165,-0.296605,-0.000875,-0.013677,0.985027,-0.030409
9468046084,0.206411,-0.174969,-0.122539,-0.015917,0.982128,-0.025345
9468048587,0.084642,-0.113720,-0.183385,-0.014439,0.989362,-0.020223
9468051089,-0.037293,-0.052155,-0.122820,-0.018000,0.995209,-0.024593
9468053591,-0.098362,-0.112757,-0.061995,-0.017285,0.993027,-0.025321
9468056093,-0.098442,-0.234711,-0.061742,-0.015881,0.987931,-0.023873
9468058596,0.023247,-0.417913,-0.000643,-0.015188,0.983570,-0.023882
9468061098,0.023164,-0.417754,0.060062,-0.019460,0.995219,-0.023876
9468063600,0.022998,-0.417436,0.181474,-0.023133,0.994512,-0.019544
9468066103,0.023078,-0.295483,0.181221,-0.022394,0.995957,-0.019534
9468068605,0.084024,-0.295698,0.181228,-0.018032,0.993750,-0.021690
9468071107,0.084064,-0.234721,0.181101,-0.021684,0.993774,-0.019536
9468073609,-0.037827,-0.234291,0.181087,-0.025298,0.996707,-0.019553
9468076112,-0.037745,-0.234450,0.120382,-0.024600,0.992348,-0.020288
9468078614,-0.098608,-0.234393,0.059669,-0.025280,0.995266,-0.023919
9468081117,-0.037662,-0.234608,0.059676,-0.029629,0.999649,-0.021029
9468083619,-0.098567,-0.173417,0.059543,-0.023798,0.996712,-0.026084
9468086121,-0.098487,-0.051463,0.059290,-0.022347,0.993804,-0.028991
9468088623,0.023445,0.009083,0.059178,-0.024560,0.997429,-0.020272
9468091125,0.084390,0.008868,0.059185,-0.026743,0.996722,-0.021017
9468093628,0.084473,0.008709,-0.001521,-0.026028,0.994541,-0.021746
9468096130,-0.037418,0.009140,-0.001535,-0.023133,0.994512,-0.019544
9468098632,-0.098241,0.070173,-0.062374,-0.018741,0.992315,-0.026061
9468101135,-0.159230,0.131523,-0.001802,-0.017997,0.993763,-0.026778
9468103637,-0.159436,0.070864,0.119736,-0.019462,0.993047,-0.026064
9468106139,-0.159559,0.010046,0.180568,-0.020928,0.992331,-0.025350
9468108641,-0.098570,-0.051304,0.119996,-0.021637,0.991620,-0.028992
9468111144,-0.037458,-0.051837,-0.001408,-0.020915,0.990889,-0.028989
9468113646,0.023651,0.069742,-0.062360,-0.021680,0.988710,-0.026094
9468116148,0.023691,0.130719,-0.062486,-0.017326,0.992289,-0.020235
9468118650,-0.098078,0.191968,-0.123332,-0.013669,0.992266,-0.023116
9468121153,-0.159024,0.192183,-0.123339,-0.014349,0.994461,-0.027476
9468123655,-0.219807,0.314192,-0.184304,-0.017282,0.995923,-0.022404
9468126158,-0.097958,0.374898,-0.123711,-0.013672,0.993713,-0.020931
9468128661,0.023811,0.313649,-0.062865,-0.012915,0.997336,-0.020914
9468131163,0.023648,0.191855,-0.001907,-0.011477,0.995870,-0.020181
9468133666,-0.098324,0.070332,-0.001668,-0.012255,0.990792,-0.018749
9468136168,-0.281165,0.193089,0.058764,-0.018013,0.992309,-0.026056
9468138670,-0.220056,0.314669,-0.002188,-0.020934,0.995947,-0.020250
9468141173,-0.098084,0.436192,-0.002427,-0.013680,0.990815,-0.023121
9468143675,0.023808,0.435761,-0.002413,-0.014384,0.994448,-0.022388
9468146177,0.023685,0.374944,0.058419,-0.014342,1.000253,-0.021642
9468148679,-0.098370,0.253579,0.119364,-0.010673,1.001682,-0.024519
9468151182,-0.159439,0.192976,0.180189,-0.008505,1.002383,-0.021593
9468153684,-0.159439,0.192976,0.180189,-0.013610,1.000248,-0.022364
9468156186,-0.037424,0.253364,0.119371,-0.009927,1.005301,-0.023048
9468158688,0.023768,0.374785,-0.002286,-0.008541,0.997304,-0.022336
9468161191,0.023891,0.435603,-0.063118,-0.012190,0.995158,-0.023096
9468163693,0.023851,0.374626,-0.062992,-0.012132,1.002416,-0.023073
9468166195,-0.037258,0.253047,-0.002041,-0.008494,1.003110,-0.022317
9468168697,-0.098284,0.131308,-0.001795,-0.010736,0.999488,-0.017983
9468171200,-0.220176,0.131739,-0.001809,-0.012174,0.996611,-0.023819
9468173703,-0.037341,0.253205,0.058665,-0.006358,1.002352,-0.016488
9468176205,0.023645,0.313967,0.058546,-0.007859,0.996558,-0.016517
9468178706,0.145414,0.252719,0.119391,-0.012168,1.001679,-0.018714
9468181209,0.084511,0.191798,0.058805,-0.008571,0.997293,-0.017974
9468183711,0.145540,0.191424,-0.001893,-0.007151,0.992926,-0.017978
9468186214,0.145743,0.374196,-0.062978,-0.008589,0.994391,-0.018710
9468188716,0.084877,0.496364,-0.063238,-0.007872,0.993658,-0.017981
9468191218,0.023765,0.496897,0.058166,-0.008571,0.997293,-0.017974
9468193721,0.023685,0.374944,0.058419,-0.009311,0.995123,-0.018713
9468196223,-0.037258,0.253047,-0.002041,-0.008614,0.994382,-0.015076
9468198725,0.023731,0.191696,-0.062613,-0.010055,0.993676,-0.017996
9468201227,-0.037052,0.313706,-0.123578,-0.008541,0.997304,-0.022336
9468203730,-0.158821,0.374954,-0.184424,-0.007122,0.996555,-0.017966
9468206232,-0.219850,0.375328,-0.123725,-0.009314,0.996569,-0.016528
9468208734,-0.098121,0.253103,-0.062753,-0.011516,0.996580,-0.013636
9468211236,-0.037258,0.253047,-0.002041,-0.008592,0.995838,-0.016525
9468213739,-0.098244,0.192285,-0.001921,-0.009339,0.992218,-0.017996
9468216241,-0.220259,0.131897,0.058897,-0.010094,0.994385,-0.011452
9468218743,-0.159310,0.009570,-0.001549,-0.013706,0.998766,-0.010011
9468221246,-0.037376,-0.051996,-0.062114,-0.015104,1.000970,-0.015830
9468223748,0.145382,-0.174595,-0.061840,-0.012235,0.995141,-0.016554
9468226250,0.267151,-0.235843,-0.000994,-0.012244,0.996586,-0.013642
9468228752,0.267028,-0.296661,0.059838,-0.014391,1.000958,-0.013644
9468231255,0.206042,-0.357423,0.059957,-0.012942,1.000221,-0.013635
9468233757,0.145096,-0.357207,0.059950,-0.011480,1.002383,-0.012164
9468236259,0.145342,-0.235572,-0.061714,-0.017996,1.003171,-0.015844
9468238762,0.145505,-0.113777,-0.122672,-0.014353,1.003867,-0.015815
9468241264,0.084599,-0.052585,-0.122806,-0.012163,1.001681,-0.019441
9468243766,0.145419,0.008494,-0.001514,-0.015080,1.003873,-0.015821
9468246268,0.206199,0.008596,0.119904,-0.015864,0.998793,-0.013661
9468248771,0.206157,0.069732,0.180483,-0.018771,0.996646,-0.016597
9468251273,0.145376,0.069630,0.059065,-0.018059,0.995911,-0.015140
9468253775,0.084556,0.008551,-0.062226,-0.016643,0.992266,-0.013688
9468256278,0.023733,0.069584,-0.123065,-0.018077,0.993734,-0.015147
9468258780,0.084636,0.130504,-0.062479,-0.018757,0.995928,-0.019507
9468261282,0.084594,0.191639,-0.001900,-0.018772,0.995198,-0.018056
9468263784,0.206485,0.191209,-0.001886,-0.019548,0.992292,-0.014436
9468266287,0.267474,0.129858,-0.062458,-0.022490,0.990133,-0.012283
9468268789,0.267394,0.007905,-0.062206,-0.020301,0.991565,-0.011536
9468271291,0.206325,-0.052698,-0.001381,-0.021013,0.992300,-0.012993
9468273794,0.084433,-0.052267,-0.001395,-0.021720,0.993037,-0.015176
9468276296,0.084390,0.008868,0.059185,-0.018851,0.992275,-0.010069
9468278798,0.084348,0.070004,0.119764,-0.018874,0.989372,-0.010078
9468281300,0.145457,0.191583,0.058812,-0.016707,0.988625,-0.008611
9468283803,0.206523,0.374298,0.058440,-0.014533,0.985709,-0.010785
9468286305,0.206566,0.313162,-0.002139,-0.015952,0.986458,-0.015155
9468288807,0.206526,0.252186,-0.002013,-0.018810,0.993014,-0.015155
9468291309,0.084513,0.069686,-0.001647,-0.014461,0.992249,-0.013672
9468293812,0.084350,-0.052109,0.059311,-0.010120,0.989310,-0.013649
9468296314,0.145422,-0.113618,-0.061967,-0.013014,0.990063,-0.015122
9468298817,0.145545,-0.052800,-0.122799,-0.013005,0.992961,-0.012932
9468301318,0.145588,-0.113936,-0.183378,-0.010101,0.992211,-0.012913
9468303821,0.084479,-0.235515,-0.122426,-0.007198,0.990738,-0.013623
9468306323,0.145179,-0.357366,-0.000756,-0.006462,0.993630,-0.011428
9468308826,0.145136,-0.296231,0.059824,-0.007169,0.994367,-0.013611
9468311328,0.084147,-0.234880,0.120396,-0.009354,0.992213,-0.015815
9468313830,0.084187,-0.173903,0.120269,-0.012258,0.992962,-0.015834
9468316332,0.084270,-0.174062,0.059564,-0.008631,0.992929,-0.014354
9468318853,0.023407,-0.174006,-0.001149,-0.007907,0.993645,-0.012892
9468321343,0.023447,-0.113029,-0.001275,-0.009335,0.995838,-0.014350
9468323840,0.023447,-0.113029,-0.001275,-0.008592,0.995838,-0.016525
9468326340,0.023447,-0.113029,-0.001275,-0.007172,0.992195,-0.015799
9468328842,0.023490,-0.174164,-0.061854,-0.010075,0.993668,-0.015089
9468331345,0.023407,-0.174006,-0.001149,-0.010779,0.996578,-0.015085
9468333847,-0.037579,-0.234767,-0.001029,-0.009323,0.997290,-0.014345
9468336349,-0.037619,-0.295744,-0.000903,-0.010800,0.995122,-0.013636
9468338851,0.023247,-0.417913,-0.000643,-0.008608,0.995108,-0.015074
9468341353,0.206004,-0.540512,-0.000369,-0.004948,0.997258,-0.015767
9468343856,0.327856,-0.601919,-0.000229,-0.005683,0.999432,-0.012131
9468346358,0.327979,-0.541101,-0.061061,-0.007157,1.000160,-0.008504
9468348860,0.145224,-0.540614,-0.121787,-0.008629,0.998719,-0.007793
9468351363,0.084278,-0.540399,-0.121794,-0.010811,0.998737,-0.007809
9468353865,0.145101,-0.601432,-0.060955,-0.007871,0.999448,-0.011420
9468356367,0.205841,-0.662306,0.060589,-0.007139,0.998720,-0.012871
9468358869,0.205798,-0.601171,0.121168,-0.008605,0.998004,-0.012157
9468361372,0.145016,-0.479161,0.060203,-0.006397,0.998719,-0.015046
9468363874,0.145139,-0.418343,-0.000629,-0.006414,0.996542,-0.015053
9468366377,0.084193,-0.418128,-0.000636,-0.007906,0.995093,-0.011434
9468368879,0.023167,-0.539866,-0.000390,-0.006443,0.997255,-0.009962
9468371381,-0.037899,-0.722581,-0.000018,-0.007898,0.997267,-0.009973
9468373883,-0.037940,-0.783558,0.000108,-0.010100,0.992935,-0.012183
9468376386,0.022926,-0.905726,0.000368,-0.008636,0.992203,-0.014356
9468378888,0.144778,-0.967133,0.000509,-0.010102,0.991487,-0.013642
9468381390,0.144944,-0.967451,-0.120903,-0.011551,0.992225,-0.013650
9468383892,0.084118,-0.784306,-0.121289,-0.012283,0.992953,-0.012199
9468386395,0.023292,-0.601160,-0.121675,-0.011533,0.990784,-0.018016
9468388897,-0.037696,-0.539810,-0.061103,-0.007901,0.990029,-0.017992
9468391399,-0.037776,-0.661763,-0.060850,-0.007186,0.992913,-0.012889
9468393901,0.022966,-0.844750,0.000242,-0.008631,0.992929,-0.014354
9468396404,0.083835,-1.089031,-0.059951,-0.011568,0.990772,-0.012928
9468398906,0.083795,-1.150007,-0.059825,-0.012305,0.990774,-0.011479
9468401408,0.083752,-1.088872,0.000754,-0.009387,0.989306,-0.014370
9468403911,0.022680,-1.027362,0.122032,-0.007184,0.990019,-0.016533
9468406413,0.083583,-0.966442,0.182618,-0.010825,0.990771,-0.015103
9468408915,0.083583,-0.966442,0.182618,-0.013002,0.991515,-0.015117
9468411418,0.083749,-0.966760,0.061207,-0.015152,0.993715,-0.017307
9468413920,-0.038100,-1.027465,0.000614,-0.015857,0.995901,-0.018032
9468416422,-0.098960,-1.149521,-0.120551,-0.011519,0.994408,-0.015824
9468418924,-0.038137,-1.210554,-0.059712,-0.012236,0.994417,-0.017283
9468421427,0.083754,-1.210984,-0.059698,-0.012954,0.994427,-0.018742
9468423929,0.205563,-1.211256,0.001021,-0.011465,0.993704,-0.024549
9468426431,0.205480,-1.211097,0.061727,-0.012176,0.995163,-0.025277
9468428934,0.205438,-1.149961,0.122306,-0.013689,0.995877,-0.015835
9468431436,0.144575,-1.149905,0.061593,-0.016638,0.992268,-0.014414
9468433938,0.022683,-1.149475,0.061579,-0.016642,0.988648,-0.018061
9468436441,0.022560,-1.210292,0.122411,-0.016596,0.990113,-0.023144
9468438943,0.022643,-1.210451,0.061706,-0.016569,0.991570,-0.025321
9468441445,0.083546,-1.149531,0.122292,-0.020223,0.994488,-0.019523
9468443947,0.083669,-1.088713,0.061460,-0.017295,0.997366,-0.018765
9468446450,0.022640,-1.088339,0.122159,-0.014389,0.994446,-0.021661
9468448952,-0.038306,-1.088124,0.122152,-0.015838,0.995184,-0.021669
9468451454,0.022640,-1.088339,0.122159,-0.015809,0.998813,-0.021657
9468453956,0.144612,-0.966816,0.121920,-0.013730,0.990797,-0.015852
9468456459,0.205558,-0.967031,0.121927,-0.015906,0.983580,-0.025341
9468458961,0.144778,-0.967133,0.000509,-0.015125,0.990830,-0.024585
9468461463,0.083749,-0.966760,0.061207,-0.018737,0.995935,-0.022415
9468463966,0.022763,-1.027521,0.061327,-0.015192,0.980675,-0.026799
9468466468,-0.038226,-0.966170,0.121899,-0.019505,0.995202,-0.017334
9468468970,-0.038226,-0.966170,0.121899,-0.014449,0.985016,-0.023872
9468471472,-0.099046,-1.027249,0.000607,-0.016638,0.992992,-0.013685
9468473975,-0.160032,-1.088011,0.000727,-0.013688,0.988641,-0.024582
9468476477,-0.220978,-1.087796,0.000720,-0.011511,0.992240,-0.019466
9468478979,-0.221061,-1.087637,0.061425,-0.009321,0.990778,-0.022362
9468481482,-0.160238,-1.148670,0.122264,-0.013651,0.994444,-0.023109
9468483984,-0.160361,-1.209488,0.183096,-0.013699,0.992256,-0.018755
9468486486,-0.160401,-1.270465,0.183222,-0.014407,0.991545,-0.022397
9468488988,-0.160278,-1.209647,0.122390,-0.015848,0.999522,-0.015113
9468491490,-0.160112,-1.209964,0.000979,-0.011461,0.997324,-0.020903
9468493993,-0.160032,-1.088011,0.000727,-0.012889,1.003135,-0.017988
9468496495,-0.220895,-1.087955,-0.059986,-0.012877,1.000244,-0.023085
9468498997,-0.220978,-1.087796,0.000720,-0.009946,1.006018,-0.019411
9468501500,-0.099046,-1.027249,0.000607,-0.009989,0.998765,-0.021615
9468504002,0.083749,-0.966760,0.061207,-0.012878,1.003863,-0.018712
9468506504,0.266501,-0.845134,0.182386,-0.012895,1.002409,-0.017990
9468509007,0.205555,-0.844919,0.182379,-0.015082,1.002425,-0.017279
9468511509,0.144738,-1.028110,0.000635,-0.012172,1.002401,-0.017258
9468514011,0.144781,-1.089246,-0.059944,-0.011456,1.001668,-0.016528
9468516513,0.144658,-1.150064,0.000888,-0.012897,1.000237,-0.020178
9468519016,0.205521,-1.150120,0.061600,-0.013641,0.998790,-0.019461
9468521518,0.144575,-1.149905,0.061593,-0.017269,1.003165,-0.015839
9468524020,0.144617,-1.211040,0.001014,-0.019464,1.000283,-0.017318
9468526522,0.144658,-1.150064,0.000888,-0.015104,0.995904,-0.021661
9468529025,0.144575,-1.149905,0.061593,-0.014322,1.000260,-0.024550
9468531527,0.144532,-1.088769,0.122172,-0.018732,0.995937,-0.023142
9468534029,0.083503,-1.088395,0.182871,-0.020184,0.998121,-0.020965
9468536532,0.083666,-0.966601,0.121913,-0.021641,0.996685,-0.022434
9468539034,0.083749,-0.966760,0.061207,-0.018747,0.995931,-0.020961
9468541536,0.083832,-0.966918,0.000502,-0.015847,0.991562,-0.024588
9468544039,0.083709,-1.027736,0.061334,-0.015122,0.989384,-0.026771
9468546541,0.144655,-1.027951,0.061340,-0.020218,0.990148,-0.025352
9468549043,0.083706,-0.905624,0.121786,-0.021731,0.987244,-0.020283
9468551545,0.023006,-0.783773,0.000115,-0.017318,0.990844,-0.023147
9468554048,-0.098765,-0.600412,-0.000278,-0.016605,0.990833,-0.020961
9468556550,-0.098768,-0.478300,0.060175,-0.013652,0.993720,-0.023838
9468559052,-0.037905,-0.478357,0.120887,-0.014400,0.992994,-0.021665
9468561554,0.023086,-0.661820,-0.000137,-0.017347,0.991557,-0.018057
9468564057,0.023089,-0.783932,-0.060590,-0.012212,0.993703,-0.021647
9468566559,-0.098677,-0.844796,-0.181889,-0.007108,0.990771,-0.026707
9468569061,-0.098760,-0.844637,-0.121183,-0.012917,0.991546,-0.027475
9468571564,-0.037774,-0.783875,-0.121303,-0.012972,0.987184,-0.024581
9468574066,0.083829,-0.844806,0.060954,-0.012945,0.992983,-0.021655
9468576568,0.144692,-0.844863,0.121667,-0.008607,0.987148,-0.024549
9468579071,0.022677,-0.905250,0.182485,-0.015888,0.986482,-0.024605
9468581573,-0.038186,-0.905194,0.121772,-0.012167,0.993719,-0.028189
9468584075,0.022843,-0.905568,0.061074,-0.008649,0.985685,-0.020192
9468586577,0.022926,-0.905726,0.000368,-0.007920,0.982785,-0.023831
9468589080,-0.037940,-0.783558,0.000108,-0.007171,0.988577,-0.020172
9468591582,-0.098845,-0.722366,-0.000025,-0.008593,0.990772,-0.022357
9468594085,-0.159751,-0.661174,-0.000158,-0.004192,0.992197,-0.025955
9468596586,-0.098926,-0.844319,0.000228,-0.007828,0.992950,-0.025252
9468599089,-0.098963,-1.027408,-0.060098,-0.009309,0.987887,-0.027460
9468601591,-0.038097,-1.149577,-0.059839,-0.006397,0.990035,-0.025251
9468604093,0.022932,-1.149951,-0.120537,-0.009306,0.990059,-0.025272
9468606596,0.083835,-1.089031,-0.059951,-0.011511,0.987898,-0.024568
9468609098,0.023052,-0.967021,-0.120917,-0.012275,0.986443,-0.020943
9468611600,0.022969,-0.966862,-0.060211,-0.009311,0.990781,-0.023816
9468614104,-0.038183,-1.027306,0.061320,-0.015881,0.992273,-0.018771
9468616606,-0.038306,-1.088124,0.122152,-0.015141,0.994443,-0.018031
9468619108,-0.038266,-1.027147,0.122025,-0.013666,0.998780,-0.015826
9468621611,-0.099089,-0.966114,0.061186,-0.012990,0.992966,-0.015112
9468624113,-0.099212,-1.026932,0.122018,-0.012973,0.995144,-0.015105
9468626615,-0.099252,-1.087909,0.122145,-0.015109,1.000244,-0.015832
9468629118,-0.099249,-1.210021,0.061692,-0.015104,1.000970,-0.015830
9468631620,-0.038220,-1.210395,0.000993,-0.015168,0.997328,-0.010753
9468634122,0.022766,-1.149633,0.000874,-0.015142,0.998061,-0.013658
9468636624,0.022683,-1.149475,0.061579,-0.019497,1.001718,-0.010771
9468639127,-0.038140,-1.088441,0.000740,-0.019500,0.999546,-0.012959
9468641629,-0.098966,-0.905296,0.000354,-0.020177,1.000294,-0.019504
9468644131,-0.037940,-0.783558,0.000108,-0.020192,1.000289,-0.017323
9468646634,0.022964,-0.722637,0.060695,-0.018043,0.997364,-0.015863
9468649136,0.023046,-0.722796,-0.000011,-0.022374,1.000307,-0.017339
9468651638,-0.037982,-0.722422,0.060688,-0.015127,0.998067,-0.015839
9468654140,0.022923,-0.783614,0.060821,-0.016571,0.998806,-0.016574
9468656643,0.083746,-0.844647,0.121660,-0.023097,0.999591,-0.018801
9468659145,0.205598,-0.906054,0.121800,-0.020917,0.998125,-0.020243
9468661647,0.205721,-0.845236,0.060968,-0.016571,0.998806,-0.016574
9468664149,0.205761,-0.784260,0.060842,-0.011495,0.997311,-0.015815
9468666652,0.144938,-0.723227,0.000003,-0.012284,0.991505,-0.013658
9468669154,0.084035,-0.784147,-0.060583,-0.015886,0.992271,-0.018044
9468671656,0.084201,-0.784464,-0.181994,-0.016628,0.992272,-0.015868
9468674159,0.023298,-0.845385,-0.242580,-0.012240,0.991521,-0.020200
9468676661,0.023295,-0.723273,-0.182128,-0.013004,0.985001,-0.022407
9468679163,0.023252,-0.662137,-0.121549,-0.013747,0.985001,-0.020232
9468681666,0.023172,-0.784091,-0.121296,-0.007956,0.981325,-0.020201
9468684168,0.083915,-0.967077,-0.060204,-0.014481,0.983557,-0.020969
9468686670,0.083792,-1.027895,0.000628,-0.015211,0.981391,-0.023162
9468689172,0.083752,-1.088872,0.000754,-0.012352,0.980625,-0.016600
9468691675,0.022763,-1.027521,0.061327,-0.010149,0.980615,-0.019492
9468694177,-0.099212,-1.026932,0.122018,-0.014491,0.983554,-0.019515
9468696679,-0.099254,-0.965796,0.182597,-0.015237,0.984276,-0.015883
9468699181,-0.160077,-0.904763,0.121758,-0.013774,0.987162,-0.013682
9468701684,-0.159954,-0.843945,0.060926,-0.012292,0.989331,-0.015119
9468704186,-0.220777,-0.782912,0.000088,-0.013790,0.986433,-0.012231
9468706688,-0.220817,-0.843889,0.000214,-0.017375,0.988652,-0.017339
9468709191,-0.220940,-0.904707,0.061046,-0.014449,0.989358,-0.018769
9468711693,-0.221021,-1.026660,0.061299,-0.012284,0.987163,-0.018760
9468714195,-0.282170,-1.209216,0.122377,-0.013760,0.986444,-0.016592
9468716697,-0.343196,-1.330955,0.122622,-0.015953,0.985734,-0.015884
9468719200,-0.343116,-1.209001,0.122370,-0.012293,0.988607,-0.015848
9468721702,-0.221186,-1.026343,0.182710,-0.010071,0.992946,-0.016545
9468724204,-0.099254,-0.965796,0.182597,-0.014439,0.994428,-0.014392
9468726707,-0.160200,-0.965581,0.182590,-0.014416,0.996607,-0.015111
9468729209,-0.282089,-1.087263,0.122124,-0.013700,0.995150,-0.015111
9468731711,-0.343075,-1.148025,0.122243,-0.012256,0.994410,-0.014376
9468734213,-0.403981,-1.086833,0.122110,-0.012284,0.991505,-0.013658
9468736716,-0.404021,-1.147809,0.122236,-0.011548,0.990779,-0.015836
9468739218,-0.464967,-1.147594,0.122229,-0.012974,0.993696,-0.016564
9468741720,-0.464967,-1.147594,0.122229,-0.015161,0.994436,-0.015124
9468744222,-0.343035,-1.087048,0.122117,-0.018728,1.007517,-0.010020
9468746725,-0.282049,-1.026286,0.121997,-0.018734,1.016199,0.000911
9468749227,-0.160075,-1.026875,0.061306,-0.021595,1.006109,-0.018042
9468751729,-0.220978,-1.087796,0.000720,-0.009336,0.990772,-0.020181
9468754232,-0.221058,-1.209749,0.000972,-0.013042,0.982816,-0.019506
9468756734,-0.282044,-1.270511,0.001092,-0.012317,0.976296,-0.026791
9468759236,-0.342990,-1.270296,0.001085,-0.018112,0.975629,-0.031198
9468761739,-0.403853,-1.270239,-0.059628,-0.011554,0.976303,-0.031874
9468764241,-0.403933,-1.392193,-0.059375,-0.010123,0.982072,-0.021668
9468766743,-0.525785,-1.330786,-0.059515,-0.017389,0.985029,-0.019531
9468769245,-0.525622,-1.208991,-0.120474,-0.017354,0.989384,-0.019517
9468771748,-0.464596,-1.087253,-0.120719,-0.012207,0.993704,-0.022374
9468774250,-0.403733,-1.087309,-0.060007,-0.012905,1.002406,-0.016536
9468776752,-0.464844,-1.086776,0.061397,-0.015750,1.011137,-0.015803
9468779254,-0.525833,-1.025426,0.121969,-0.017919,1.014054,-0.014356
9468781757,-0.464850,-0.842552,0.182303,-0.011398,1.016886,-0.007029
9468784259,-0.281889,-0.782380,0.121492,-0.008484,1.011798,-0.013566
9468786761,-0.159954,-0.843945,0.060926,-0.015782,1.000270,-0.023834
9468789264,-0.220978,-1.087796,0.000720,-0.012215,0.991531,-0.023835
9468791766,-0.221098,-1.270726,0.001099,-0.007118,0.995109,-0.020151
9468794268,-0.221055,-1.331861,-0.059480,-0.010680,0.995890,-0.030352
9468796771,-0.159986,-1.271259,-0.120305,-0.008504,0.994422,-0.031068
9468799273,-0.159989,-1.149146,-0.059853,-0.006338,0.998017,-0.024498
9468801777,-0.099166,-1.210180,0.000986,-0.007062,1.000919,-0.021587
9468804293,-0.160152,-1.270941,0.001106,-0.009245,1.000213,-0.022332
9468806783,-0.282041,-1.392623,-0.059361,-0.011426,1.000955,-0.021619
9468809280,-0.342984,-1.514520,-0.119821,-0.009203,1.006742,-0.020857
9468811783,-0.343027,-1.453385,-0.059241,-0.009180,1.008921,-0.021577
9468814285,-0.282001,-1.331646,-0.059487,-0.010648,1.006033,-0.023051
9468816787,-0.221141,-1.209590,0.061678,-0.009860,1.011115,-0.025937
9468819289,-0.160155,-1.148829,0.061558,-0.004031,1.010347,-0.028077
9468821792,-0.160195,-1.209806,0.061685,0.000269,1.002328,-0.028071
9468824294,-0.160109,-1.332077,-0.059473,-0.004112,0.996568,-0.032483
9468826796,-0.160189,-1.454030,-0.059221,-0.007760,0.995870,-0.031785
9468829299,-0.099364,-1.637176,-0.058834,-0.005573,1.000196,-0.027394
9468831801,-0.038664,-1.759027,0.062836,-0.003402,0.998727,-0.027382
9468834303,-0.038870,-1.819686,0.184374,-0.005601,0.992949,-0.031778
9468836805,-0.099859,-1.758335,0.244946,-0.007092,0.987882,-0.032532
9468839308,-0.221627,-1.697087,0.184100,-0.010744,0.987906,-0.030378
9468841810,-0.160556,-1.758596,0.062823,-0.007088,0.990778,-0.029615
9468844312,-0.160556,-1.758596,0.062823,-0.006314,0.992236,-0.034694
9468846815,-0.221462,-1.697404,0.062689,-0.012877,0.987218,-0.038392
9468849317,-0.282284,-1.636371,0.001850,-0.007870,0.978462,-0.036202
9468851819,-0.282284,-1.636371,0.001850,-0.004213,0.977715,-0.039812
9468854321,-0.343396,-1.635838,0.123254,-0.007759,0.983568,-0.046363
9468856824,-0.404425,-1.635465,0.183953,-0.012120,0.991565,-0.037646
9468859326,-0.526317,-1.635034,0.183939,-0.012177,0.993715,-0.026735
9468861828,-0.587220,-1.695954,0.123353,-0.009246,0.995147,-0.028163
9468864331,-0.404339,-1.757735,0.062795,-0.013508,1.001733,-0.035444
9468866833,-0.160433,-1.697778,0.001991,-0.020733,1.006153,-0.037664
9468869335,0.022362,-1.637288,0.062591,-0.016397,1.002488,-0.037643
9468871838,0.083351,-1.698639,0.002018,-0.010578,1.001717,-0.038330
9468874340,0.144094,-1.881626,0.063110,-0.015668,0.999588,-0.041282
9468876842,0.143973,-2.064556,0.063489,-0.015661,1.001038,-0.040550
9468879344,0.204879,-2.125748,0.063623,-0.010529,1.005353,-0.041226
9468881846,0.143973,-2.064556,0.063489,-0.013375,1.009018,-0.046324
9468884349,0.083108,-1.942387,0.063230,-0.016264,1.009773,-0.048524
9468886851,0.022202,-1.881195,0.063096,-0.014106,1.006128,-0.049246
9468889354,-0.038704,-1.820003,0.062963,-0.014112,1.005403,-0.049249
9468891856,-0.099650,-1.819788,0.062956,-0.016272,1.007600,-0.049985
9468894358,-0.160516,-1.697619,0.062696,-0.016265,1.009049,-0.049253
9468896860,-0.160516,-1.697619,0.062696,-0.018466,1.006166,-0.050005
9468899362,-0.038787,-1.819844,0.123668,-0.021392,1.004736,-0.049304
9468901865,0.083105,-1.820275,0.123682,-0.023574,1.004754,-0.049320
9468904367,0.204997,-1.820705,0.123696,-0.027224,1.002608,-0.050081
9468906869,0.266066,-1.760102,0.062871,-0.027957,1.001888,-0.050088
9468909372,0.327092,-1.638364,0.062625,-0.024305,1.001864,-0.052243
9468911874,0.266226,-1.516196,0.062366,-0.027201,1.005511,-0.050072
9468914377,0.205280,-1.515980,0.062359,-0.030871,1.003358,-0.047924
9468916879,0.144334,-1.515765,0.062352,-0.028721,1.000433,-0.046464
9468919381,0.144374,-1.454788,0.062225,-0.026497,1.001878,-0.050805
9468921883,0.144331,-1.393653,0.122804,-0.030156,1.001176,-0.048653
9468924385,0.266180,-1.332948,0.183398,-0.037463,0.998329,-0.047262
9468926888,0.388029,-1.272243,0.243991,-0.036703,1.001230,-0.048701
9468929390,0.510044,-1.211855,0.183173,-0.037401,1.004864,-0.048695
9468931892,0.510167,-1.151037,0.122341,-0.038868,1.003425,-0.048710
9468934395,0.449301,-1.028869,0.122081,-0.038864,1.001979,-0.050895
9468936897,0.449379,-0.784803,0.182281,-0.040337,0.999089,-0.051642
9468939399,0.388636,-0.601816,0.121189,-0.039632,0.997628,-0.050188
9468941901,0.388676,-0.540840,0.121063,-0.038927,0.994719,-0.050192
9468944404,0.327773,-0.601760,0.060477,-0.037467,0.994709,-0.050908
9468946906,0.388636,-0.601816,0.121189,-0.036727,0.997602,-0.049439
9468949408,0.510734,-0.541588,-0.000335,-0.037467,0.999051,-0.045805
9468951911,0.571883,-0.359031,-0.061412,-0.036066,0.996125,-0.041443
9468954413,0.633155,-0.115657,-0.183322,-0.033893,0.992485,-0.044346
9468956915,0.450478,0.128895,-0.183849,-0.034568,0.999023,-0.044330
9468959417,0.328543,0.190461,-0.123283,-0.035995,0.996874,-0.050890
9468961920,0.328417,0.251755,-0.001999,-0.032393,0.996832,-0.045775
9468964422,0.450183,0.312619,0.119300,-0.030220,0.997534,-0.043576
9468966924,0.450304,0.495549,0.118921,-0.033104,0.997567,-0.047232
9468969427,0.511330,0.617288,0.118675,-0.033870,0.990322,-0.050168
9468971929,0.450547,0.739298,0.057710,-0.028043,0.992449,-0.048665
9468974431,0.511493,0.739082,0.057716,-0.028009,0.996080,-0.049380
9468976933,0.450710,0.861092,-0.003249,-0.027989,0.996087,-0.052288
9468979436,0.450707,0.983204,0.057204,-0.025847,0.995331,-0.047186
9468981938,0.389759,1.105532,0.117650,-0.026556,0.998962,-0.045726
9468984440,0.389716,1.166667,0.178229,-0.025790,0.997523,-0.052994
9468986943,0.389716,1.166667,0.178229,-0.025067,0.993897,-0.056635
9468989445,0.511648,1.227214,0.178116,-0.026528,0.992459,-0.057377
9468991947,0.450868,1.227111,0.056698,-0.025116,0.990260,-0.053739
9468994450,0.451031,1.348906,-0.004260,-0.023683,0.988069,-0.053008
9468996952,0.451111,1.470859,-0.004513,-0.020753,0.988053,-0.055895
9468999454,0.512180,1.531462,-0.065338,-0.021456,0.988068,-0.059535
9469001956,0.451274,1.592654,-0.065471,-0.020749,0.987331,-0.057351
9469004459,0.390451,1.653687,-0.126310,-0.017105,0.988751,-0.056593
9469006961,0.390491,1.714664,-0.126437,-0.019288,0.988769,-0.056609
9469009463,0.390366,1.775958,-0.005152,-0.019264,0.991672,-0.056599
9469011965,0.451186,1.837037,0.116140,-0.011948,0.993075,-0.060903
9469014468,0.512252,2.019752,0.115767,-0.012692,0.991628,-0.060186
9469016970,0.573524,2.263127,-0.006142,-0.019250,0.990954,-0.059509
9469019472,0.573727,2.445898,-0.067227,-0.022156,0.990255,-0.060987
9469021975,0.512741,2.385136,-0.067108,-0.018523,0.986606,-0.064606
9469024477,0.451672,2.324534,-0.006283,-0.019228,0.988791,-0.065332
9469026979,0.390643,2.324908,0.054416,-0.017092,0.991651,-0.055129
9469029481,0.268832,2.447291,0.054149,-0.017090,0.989481,-0.058044
9469031983,0.268995,2.569086,-0.006809,-0.016334,0.988038,-0.063859
9469034486,0.269075,2.691040,-0.007062,-0.018491,0.992407,-0.062407
9469036988,0.269238,2.812834,-0.068020,-0.018475,0.988794,-0.068961
9469039490,0.269235,2.934946,-0.007568,-0.014827,0.990216,-0.068930
9469041993,0.269235,2.934946,-0.007568,-0.020678,0.988804,-0.066069
9469044495,0.269195,2.873970,-0.007441,-0.022924,0.980838,-0.066111
9469046997,0.208415,2.873867,-0.128859,-0.019235,0.987341,-0.066063
9469049500,0.086646,2.935116,-0.189705,-0.022799,0.993910,-0.068977
9469052002,0.025824,2.996149,-0.250544,-0.022872,0.987371,-0.066090
9469054504,0.086684,3.118205,-0.129379,-0.025045,0.991010,-0.063186
9469057007,0.147750,3.300920,-0.129751,-0.024382,0.986638,-0.058834
9469059509,0.208736,3.361681,-0.129871,-0.019974,0.985895,-0.066073
9469062011,0.208736,3.361681,-0.129871,-0.023620,0.986645,-0.063917
9469064513,0.147627,3.240102,-0.068919,-0.025081,0.985931,-0.063930
9469067016,0.025612,3.179714,-0.008101,-0.022143,0.983747,-0.070458
9469069518,-0.035294,3.240906,-0.008234,-0.021452,0.983004,-0.066093
9469072020,-0.035130,3.362701,-0.069193,-0.025101,0.981582,-0.066124
9469074523,0.025938,3.423304,-0.130018,-0.026563,0.983762,-0.062493
9469077025,0.086884,3.423088,-0.130011,-0.027285,0.984494,-0.062496
9469079527,0.147868,3.605962,-0.069678,-0.028016,0.985222,-0.061046
9469082030,0.208894,3.727700,-0.069923,-0.027997,0.984505,-0.064682
9469084532,0.087125,3.788948,-0.130769,-0.028014,0.983052,-0.063960
9469087034,0.026219,3.850140,-0.130903,-0.031668,0.981628,-0.063265
9469089536,-0.034481,3.971992,-0.252574,-0.032397,0.984528,-0.059626
9469092038,-0.034318,4.093786,-0.313532,-0.027297,0.986660,-0.058128
9469094541,-0.034318,4.093786,-0.313532,-0.024399,0.985185,-0.058111
9469097043,-0.034481,3.971992,-0.252574,-0.022951,0.983723,-0.058832
9469099547,0.026385,3.849823,-0.252314,-0.022912,0.987356,-0.060274
9469102049,0.087208,3.788789,-0.191475,-0.027242,0.991022,-0.061022
9469104551,-0.034644,3.850196,-0.191615,-0.027998,0.992465,-0.055207
9469107053,-0.095593,3.972524,-0.131169,-0.023618,0.993159,-0.056627
9469109556,-0.095472,4.155454,-0.131549,-0.019230,0.995303,-0.057315
9469112058,-0.034446,4.277193,-0.131794,-0.022829,0.998241,-0.059513
9469114561,0.026583,4.276818,-0.192493,-0.023603,0.993165,-0.058807
9469117063,0.087611,4.276444,-0.253192,-0.025126,0.994599,-0.047183
9469119565,0.087775,4.398239,-0.314150,-0.025121,0.994601,-0.047910
9469122067,0.087938,4.520034,-0.375108,-0.024359,0.993884,-0.053722
9469124569,0.026949,4.581384,-0.314536,-0.019975,0.997473,-0.052225
9469127072,0.026743,4.520725,-0.192999,-0.023611,0.994609,-0.055895
9469129574,0.087566,4.459692,-0.132160,-0.021406,0.996771,-0.056599
9469132077,0.087526,4.398715,-0.132033,-0.012683,0.999592,-0.052164
9469134579,0.026663,4.398772,-0.192746,-0.020630,1.000401,-0.059490
9469137081,-0.095309,4.277249,-0.192507,-0.019933,0.999660,-0.055852
9469139583,-0.095349,4.216272,-0.192381,-0.018553,0.990937,-0.055142
9469142086,-0.034363,4.277034,-0.192500,-0.017065,0.993832,-0.056576
9469144588,0.026703,4.459748,-0.192872,-0.017058,0.995281,-0.055845
9469147090,0.026823,4.642679,-0.193251,-0.015630,0.998155,-0.048556
9469149592,-0.095111,4.704245,-0.132686,-0.012765,0.993772,-0.047094
9469152095,-0.156055,4.582347,-0.193146,-0.012777,0.982913,-0.058033
9469154597,-0.217041,4.521586,-0.193027,-0.012056,0.990865,-0.047825
9469157099,-0.095106,4.460020,-0.253592,-0.010607,0.989404,-0.048546
9469159602,0.026663,4.398772,-0.192746,-0.012073,0.988688,-0.047832
9469162104,0.087566,4.459692,-0.132160,-0.007693,0.989382,-0.049252
9469164606,0.087483,4.459851,-0.071454,-0.007715,0.991544,-0.043430
9469167108,0.026577,4.521043,-0.071588,-0.008403,0.990841,-0.049979
9469169611,-0.156178,4.521530,-0.132314,-0.009180,0.982869,-0.052191
9469172113,-0.278109,4.460983,-0.132202,-0.007767,0.980670,-0.048553
9469174615,-0.278190,4.339030,-0.131949,-0.007777,0.980666,-0.047099
9469177118,-0.278273,4.339189,-0.071243,-0.004149,0.981357,-0.044889
9469179620,-0.278230,4.278053,-0.131822,-0.002658,0.982806,-0.048509
9469182122,-0.400041,4.400437,-0.132089,-0.004163,0.982800,-0.041250
9469184624,-0.643702,4.462115,-0.192949,-0.003479,0.979159,-0.039076
9469187127,-0.582756,4.461900,-0.192942,-0.004923,0.984965,-0.033979
9469189629,-0.460944,4.339517,-0.192675,-0.005633,0.987148,-0.033978
9469192132,-0.399996,4.217189,-0.253121,0.001649,0.984197,-0.038295
9469194634,-0.461062,4.034474,-0.252749,-0.001264,0.985666,-0.036131
9469197136,-0.522131,3.973872,-0.191924,-0.007068,0.986443,-0.037625
9469199638,-0.461225,3.912679,-0.191790,-0.006355,0.987156,-0.034710
9469202140,-0.400279,3.912464,-0.191783,-0.002732,0.987845,-0.031773
9469204643,-0.400196,3.912306,-0.252489,-0.004179,0.990030,-0.030323
9469207145,-0.461019,3.973339,-0.313328,-0.001994,0.992908,-0.027390
9469209647,-0.521965,3.973554,-0.313335,-0.000510,0.996526,-0.027368
9469212150,-0.461019,3.973339,-0.313328,-0.002651,0.997282,-0.032470
9469214652,-0.400319,3.851488,-0.191657,0.000254,0.997981,-0.030993
9469217158,-0.339537,3.729478,-0.130692,-0.001995,0.995803,-0.023746
9469219656,-0.339659,3.668660,-0.069860,-0.006307,0.998752,-0.028130
9469222159,-0.339700,3.607684,-0.069733,-0.001912,0.998728,-0.032460
9469224661,-0.400603,3.546763,-0.130319,0.005361,0.992878,-0.038968
9469227163,-0.461629,3.425025,-0.130074,0.000286,0.999439,-0.033896
9469229665,-0.461752,3.364207,-0.069242,-0.003345,1.000919,-0.033191
9469232168,-0.400969,3.242197,-0.008276,0.002472,0.997976,-0.036065
9469234670,-0.340226,3.059211,0.052815,0.006808,0.995035,-0.035315
9469237172,-0.340223,2.937098,-0.007637,0.000999,0.995810,-0.036083
9469239675,-0.340221,2.814986,-0.068090,-0.006330,0.995849,-0.028140
9469242177,-0.401209,2.876337,-0.007518,-0.004887,0.994386,-0.028134
9469244679,-0.401292,2.876496,0.053188,-0.003405,0.996555,-0.029570
9469247181,-0.340346,2.876280,0.053195,-0.005579,0.994404,-0.033227
9469249684,-0.157549,2.814658,0.053342,-0.004839,0.996574,-0.032488
9469252186,-0.096683,2.692490,0.053602,-0.001955,0.995817,-0.029562
9469254688,-0.218572,2.570808,-0.006865,-0.001270,0.993625,-0.025929
9469257191,-0.279556,2.387934,-0.067198,0.000162,0.991434,-0.025198
9469259693,-0.340541,2.327172,-0.067079,-0.002759,0.985664,-0.030326
9469262195,-0.279638,2.388093,-0.006493,-0.002782,0.983484,-0.029606
9469264698,-0.340461,2.449126,-0.067332,-0.002049,0.984204,-0.029599
9469267200,-0.462313,2.510533,-0.067472,-0.001313,0.987096,-0.027403
9469269702,-0.401324,2.449182,-0.128044,-0.004213,0.990742,-0.024505
9469272204,-0.340459,2.327013,-0.127784,-0.006372,0.990044,-0.028885
9469274707,-0.218524,2.265448,-0.188349,-0.001317,0.983476,-0.031050
9469277209,-0.279470,2.265663,-0.188356,0.000826,0.984168,-0.024489
9469279711,-0.401322,2.327070,-0.188497,-0.000565,0.987098,-0.030306
9469282213,-0.462391,2.266467,-0.127672,0.000186,0.990719,-0.029562
9469284716,-0.523376,2.205706,-0.127552,0.002324,0.986343,-0.028106
9469287218,-0.584403,2.083967,-0.127307,-0.002774,0.985658,-0.028146
9469289720,-0.645552,1.901411,-0.066229,-0.005681,0.988578,-0.025250
9469292243,-0.584729,1.840378,-0.005390,-0.004238,0.990732,-0.020871
9469294732,-0.584729,1.840378,-0.005390,-0.004238,0.991456,-0.020142
9469297226,-0.523783,1.840163,-0.005383,-0.009297,0.993681,-0.022353
9469299728,-0.401808,1.839574,-0.066074,-0.012186,0.999502,-0.018721
9469302230,-0.279956,1.778166,-0.065934,-0.009265,1.000206,-0.019424
9469304733,-0.218968,1.716816,-0.126506,-0.005638,0.999448,-0.018673
9469307235,-0.401886,1.595508,-0.126274,-0.009307,0.998019,-0.015796
9469309737,-0.523900,1.535120,-0.065456,-0.009337,0.993666,-0.016537
9469312239,-0.523981,1.413167,-0.065204,-0.009317,0.993673,-0.019445
9469314742,-0.402169,1.290783,-0.064937,-0.009267,0.998034,-0.021612
9469317244,-0.341180,1.229432,-0.125509,-0.008498,1.003833,-0.020861
9469319746,-0.341140,1.290409,-0.125635,-0.009959,1.003119,-0.020874
9469322248,-0.402126,1.229648,-0.125516,-0.011429,1.003125,-0.018704
9469324751,-0.402249,1.168830,-0.064684,-0.012905,1.002406,-0.016536
9469327253,-0.463235,1.108068,-0.064565,-0.011466,1.000940,-0.015803
9469329756,-0.463358,1.047250,-0.003733,-0.014360,1.001693,-0.017276
9469332258,-0.402249,1.168830,-0.064684,-0.013643,1.001684,-0.015817
9469334760,-0.219329,1.168025,-0.125369,-0.013670,0.999503,-0.014370
9469337262,-0.158383,1.167810,-0.125362,-0.012244,0.996586,-0.013642
9469339765,-0.097600,1.045800,-0.064396,-0.007875,0.995828,-0.015066
9469342267,-0.097560,1.106777,-0.064523,-0.012259,0.992238,-0.016563
9469344769,-0.097600,1.045800,-0.064396,-0.016640,0.990820,-0.015873
9469347271,-0.219532,0.985254,-0.064284,-0.015888,0.990100,-0.020231
9469349774,-0.402492,0.925082,-0.003473,-0.012269,0.991511,-0.015839
9469352276,-0.463478,0.864320,-0.003353,-0.010119,0.990034,-0.012920
9469354778,-0.463315,0.986115,-0.064312,-0.015900,0.992990,-0.015134
9469357280,-0.341464,0.924708,-0.064171,-0.010077,0.995839,-0.012174
9469359783,-0.219612,0.863300,-0.064031,-0.008571,1.010319,-0.002667
9469362285,-0.219652,0.802324,-0.063905,-0.017328,1.016893,0.008920
9469364787,-0.219652,0.802324,-0.063905,-0.011558,1.003801,0.000925
9469367289,-0.219732,0.680370,-0.063652,-0.006521,0.990714,-0.006348
9469369792,-0.219770,0.497281,-0.123978,-0.006594,0.979108,-0.009293
9469372294,-0.280796,0.375543,-0.123732,-0.005912,0.969678,-0.013680
9469374796,-0.341988,0.254122,-0.002075,-0.003012,0.965308,-0.017307
9469377299,-0.464085,0.193894,0.119448,-0.002288,0.962406,-0.020218
9469379801,-0.525071,0.133132,0.119568,-0.005184,0.970396,-0.012945
9469382303,-0.707786,0.194596,0.058715,-0.007284,0.981299,-0.012199
9469384806,-0.768609,0.255629,-0.002124,-0.003577,0.994321,-0.007042
9469387308,-0.768649,0.194652,-0.001998,0.002277,1.002246,-0.002613
9469389810,-0.768566,0.194493,-0.062703,0.003825,1.013847,-0.002565
9469392313,-0.707743,0.133460,-0.001864,0.000277,1.026212,-0.001098
9469394815,-0.646837,0.072268,-0.001731,0.000307,1.031289,0.000372
9469397317,-0.586094,-0.110718,0.059361,0.000315,1.033463,0.001832
9469399819,-0.464203,-0.111149,0.059375,0.000340,1.033472,-0.001802
9469402322,-0.342271,-0.050602,0.059262,0.003232,1.031271,-0.001788
9469404824,-0.220216,0.070762,-0.001682,0.003952,1.024749,-0.008346
9469407326,-0.220422,0.010103,0.119855,-0.000404,1.023340,-0.011290
9469409828,-0.159636,-0.234019,0.120368,-0.001902,1.016824,-0.012775
9469412331,-0.159714,-0.478085,0.060168,-0.001172,1.014647,-0.015685
9469414833,-0.159751,-0.661174,-0.000158,-0.002597,1.019012,-0.014954
9469417335,-0.098762,-0.722525,-0.060731,-0.001148,1.017551,-0.015675
9469419837,0.023006,-0.783773,0.000115,-0.001121,1.024074,-0.012020
9469422339,0.084035,-0.784147,-0.060583,0.001826,1.026235,-0.014899
9469424842,0.205927,-0.784577,-0.060569,0.003279,1.032735,-0.006872
9469427344,0.266873,-0.784793,-0.060562,-0.001828,1.032771,-0.004728
9469429846,0.449587,-0.846256,0.000291,-0.002602,1.031313,0.000350
9469432349,0.571356,-0.907504,0.061136,-0.000410,1.026957,-0.006190
9469434851,0.632342,-0.846743,0.061017,0.006100,1.020376,-0.008344
9469437353,0.754194,-0.908150,0.061157,0.006697,1.010915,-0.000372
9469439856,0.754197,-1.030262,0.000705,0.002994,1.001513,-0.001883
9469442358,0.754159,-1.213351,-0.059622,-0.002140,0.995750,-0.002666
9469444861,0.632107,-1.456828,-0.059130,-0.000731,0.990655,-0.001944
9469447363,0.510175,-1.517374,-0.059018,0.000672,0.989177,0.003877
9469449865,0.449269,-1.456182,-0.059151,-0.000118,0.981923,0.004575
9469452367,0.449187,-1.456023,0.001555,0.000581,0.979012,0.005298
9469454869,0.570915,-1.578248,0.062527,-0.000925,0.978282,0.011828
9469457372,0.570835,-1.700202,0.062780,-0.001641,0.979015,0.011098
9469459874,0.570838,-1.822314,0.002327,-0.002344,0.983373,0.012560
9469462376,0.448783,-1.943678,0.063271,-0.006705,0.986304,0.015445
9469464879,0.448703,-2.065632,0.063524,-0.004489,0.989917,0.014746
9469467381,0.387634,-2.126235,0.124349,-0.003753,0.988467,0.011839
9469469883,0.448540,-2.187426,0.124483,-0.002996,0.987748,0.006753
9469472385,0.448580,-2.126450,0.124356,-0.001543,0.986288,0.005306
9469474890,0.387757,-2.065416,0.063517,-0.006569,0.992143,0.002379
9469477390,0.265908,-2.126122,0.002924,-0.006582,0.993586,0.006018
9469479892,0.205128,-2.126224,-0.118494,-0.009487,0.993611,0.005270
9469482395,0.326979,-2.187631,-0.118354,-0.010897,0.997982,0.003820
9469484897,0.387722,-2.370617,-0.057262,-0.012376,0.998708,0.008173
9469487399,0.387353,-2.553071,0.125234,-0.012361,0.998714,0.005992
9469489901,0.326284,-2.613674,0.186059,-0.011512,1.008884,0.000215
9469492404,0.265502,-2.491664,0.125094,-0.011520,1.011052,0.003856
9469494906,0.326568,-2.308949,0.124721,-0.013684,1.013971,0.004576
9469497408,0.448665,-2.248721,0.003198,-0.015866,1.013989,0.004560
9469499911,0.509611,-2.248936,0.003205,-0.016624,1.013260,0.008187
9469502413,0.509528,-2.248777,0.063910,-0.017295,1.019076,0.006747
9469504915,0.509443,-2.126506,0.185069,-0.011480,1.019751,0.008245
9469507417,0.570552,-2.004926,0.124117,-0.015902,1.013252,0.008919
9469509920,0.631663,-2.005459,0.002713,-0.021744,1.011120,0.009597
9469512422,0.692612,-2.127787,-0.057733,-0.017344,1.011822,0.005270
9469514924,0.753438,-2.310932,-0.057346,-0.018083,1.009652,0.004530
9469517426,0.814097,-2.493760,0.064451,-0.020296,1.005317,0.003774
9469519929,0.875003,-2.554951,0.064584,-0.025433,1.005342,0.010279
9469522431,0.874880,-2.615769,0.125416,-0.022498,1.005327,0.006665
9469524933,0.814055,-2.432624,0.125030,-0.018907,0.999491,0.006673
9469527435,0.692406,-2.188446,0.063805,-0.019691,0.998029,0.013206
9469529938,0.692486,-2.066492,0.063552,-0.018952,0.999475,0.013216
9469532440,0.814461,-2.067081,0.002860,-0.019671,0.998036,0.010298
9469534943,0.875204,-2.250068,0.063952,-0.017536,0.992212,0.010295
9469537445,0.875041,-2.371862,0.124911,-0.019774,0.990762,0.016817
9469539947,0.631174,-2.370843,0.185588,-0.021983,0.990046,0.019706
9469542449,0.509282,-2.370413,0.185574,-0.026329,0.992983,0.020411
9469544951,0.448500,-2.248403,0.124609,-0.024874,0.992971,0.020421
9469547454,0.570472,-2.126880,0.124370,-0.019794,0.990754,0.019725
9469549956,0.692484,-1.944380,0.124005,-0.024931,0.987161,0.021857
9469552458,0.814538,-1.823016,0.063060,-0.022044,0.984235,0.021869
9469554961,0.814498,-1.883993,0.063187,-0.018367,0.988562,0.021182
9469557463,0.814458,-1.944969,0.063313,-0.016184,0.984926,0.016825
9469559965,0.753389,-2.005572,0.124138,-0.020593,0.980603,0.018233
9469562468,0.753389,-2.005572,0.124138,-0.020548,0.984961,0.016793
9469564970,0.753432,-2.066708,0.063559,-0.021982,0.990770,0.020436
9469567472,0.753349,-2.066549,0.124265,-0.018376,0.984940,0.018263
9469569974,0.631538,-1.944165,0.123998,-0.017591,0.991468,0.017562
9469572476,0.570632,-1.882973,0.123864,-0.021933,0.989341,0.011708
9469574979,0.448780,-1.821566,0.123724,-0.021904,0.993694,0.012449
9469577481,0.387794,-1.882327,0.123844,-0.021219,0.991501,0.016082
9469579984,0.448743,-2.004655,0.063398,-0.016892,0.988557,0.018285
9469582486,0.509649,-2.065847,0.063531,-0.024162,0.987894,0.016776
9469584989,0.570677,-2.066221,0.002833,-0.022678,0.992235,0.017527
9469587492,0.570800,-2.005403,-0.057999,-0.019815,0.985681,0.016801
9469589994,0.570800,-2.005403,-0.057999,-0.019843,0.983500,0.018248
9469592496,0.570718,-2.005244,0.002706,-0.019804,0.990751,0.021179
9469594999,0.509729,-1.943893,0.063278,-0.026312,0.990095,0.014586
9469597501,0.448906,-1.882860,0.002439,-0.019774,0.990762,0.016817
9469600003,0.448946,-1.821884,0.002313,-0.021932,0.995131,0.018269
9469602505,0.387917,-1.821509,0.063012,-0.022702,0.988608,0.016789
9469605008,0.448903,-1.760748,0.062892,-0.025609,0.986462,0.013853
9469607510,0.509889,-1.699986,0.062773,-0.027080,0.990086,0.020396
9469610012,0.510052,-1.578192,0.001814,-0.026345,0.992254,0.021862
9469612515,0.510092,-1.517215,0.001688,-0.024890,0.992242,0.021873
9469615017,0.510007,-1.394944,0.122846,-0.030002,0.987934,0.019641
9469617519,0.449058,-1.272617,0.183292,-0.027831,0.990807,0.024755
9469620022,0.388110,-1.150289,0.243738,-0.025626,0.989350,0.019677
9469622524,0.327246,-1.150233,0.183025,-0.032923,0.986506,0.019615
9469625026,0.388072,-1.333378,0.183411,-0.029292,0.985751,0.019639
9469627528,0.448898,-1.516524,0.183798,-0.029277,0.985756,0.017459
9469630031,0.448898,-1.516524,0.183798,-0.030015,0.985035,0.018178
9469632533,0.388072,-1.333378,0.183411,-0.032922,0.987954,0.021073
9469635035,0.266381,-1.028064,0.182766,-0.027091,0.989358,0.021121
9469637537,0.144609,-0.844704,0.182372,-0.031458,0.987222,0.018901
9469640040,0.144689,-0.722750,0.182120,-0.037275,0.989441,0.021046
9469642542,0.144772,-0.722909,0.121414,-0.030708,0.989395,0.018186
9469645044,0.205638,-0.845078,0.121674,-0.026301,0.991546,0.014591
9469647547,0.205681,-0.906213,0.061095,-0.030675,0.991578,0.016013
9469650049,0.205761,-0.784260,0.060842,-0.030671,0.990856,0.014556
9469652551,0.144935,-0.601114,0.060456,-0.025560,0.994440,0.016059
9469655053,0.145018,-0.601273,-0.000250,-0.024116,0.993701,0.016794
9469657556,0.206004,-0.540512,-0.000369,-0.028492,0.992284,0.016758
9469660058,0.267033,-0.540886,-0.061068,-0.027023,0.991554,0.013858
9469662561,0.206127,-0.479694,-0.061201,-0.024109,0.995150,0.017526
9469665063,0.145056,-0.418184,0.060076,-0.025556,0.993718,0.014603
9469667565,0.084067,-0.356834,0.120649,-0.023378,0.990080,0.010973
9469670067,0.023078,-0.295483,0.181221,-0.020471,0.987161,0.008077
9469672569,0.205956,-0.235152,0.181115,-0.019746,0.989325,0.010997
9469675072,0.205833,-0.295970,0.241947,-0.021902,0.990800,0.008805
9469677574,0.327810,-0.418671,0.120803,-0.018265,0.990046,0.008102
9469680076,0.267113,-0.418932,-0.061321,-0.018242,0.992949,0.008112
9469682579,0.206371,-0.235946,-0.122413,-0.017521,0.992218,0.008115
9469685081,0.145585,0.008177,-0.122925,-0.018950,0.992962,0.005199
9469687583,0.145703,0.313219,-0.062852,-0.016074,0.989308,0.005935
9469690086,0.145823,0.496149,-0.063231,-0.017521,0.991493,0.007385
9469692588,0.084834,0.557500,-0.002659,-0.021843,0.994440,0.004455
9469695090,0.023808,0.435761,-0.002413,-0.016026,0.992220,0.002310
9469697592,0.023685,0.374944,0.058419,-0.013142,0.987121,0.000134
9469700102,0.023562,0.314126,0.119251,-0.018217,0.988616,-0.000625
9469702597,-0.037384,0.314341,0.119244,-0.026929,0.990865,-0.000682
9469705099,-0.159112,0.436566,0.058272,-0.023326,0.991546,0.005162
9469707601,-0.219935,0.497599,-0.002567,-0.018216,0.994406,0.005936
9469710104,-0.219775,0.741506,-0.003073,-0.018896,0.996601,0.001576
9469712606,-0.280807,0.863992,0.118079,-0.019664,0.991526,0.001554
9469715109,-0.280932,0.925286,0.239363,-0.018933,0.990074,-0.000626
9469717611,-0.280849,0.925128,0.178658,-0.021118,0.987920,-0.002830
9469720113,-0.280847,0.803015,0.118205,-0.024038,0.987940,-0.001397
9469722615,-0.341667,0.741936,-0.003087,-0.023993,0.992298,-0.002837
9469725118,-0.341624,0.680801,-0.063666,-0.023275,0.992289,-0.001378
9469727620,-0.280761,0.680744,-0.002953,-0.026208,0.989409,-0.001408
9469730122,-0.219858,0.741665,0.057633,-0.024704,0.993034,-0.004294
9469732624,-0.219818,0.802641,0.057506,-0.023254,0.989402,-0.007929
9469735127,-0.158832,0.863403,0.057387,-0.023999,0.987230,-0.007942
9469737629,-0.097886,0.863188,0.057394,-0.023261,0.987228,-0.009390
9469740131,-0.097886,0.863188,0.057394,-0.028313,0.991626,-0.010140
9469742633,-0.219695,0.863459,-0.003325,-0.023936,0.993766,-0.009375
9469745136,-0.280641,0.863674,-0.003332,-0.023184,0.993769,-0.013004
9469747638,-0.158586,0.985039,-0.064277,-0.026093,0.994517,-0.012296
9469750140,-0.158506,1.106992,-0.064530,-0.022456,0.998106,-0.007896
9469752643,-0.280317,1.229376,-0.064796,-0.022445,0.999557,-0.007892
9469755145,-0.341389,1.290886,0.056481,-0.024564,1.002493,-0.013714
9469757647,-0.341512,1.230068,0.117313,-0.023816,1.003218,-0.015887
9469760149,-0.158674,1.229422,0.117334,-0.026026,1.000331,-0.015185
9469762652,-0.036617,1.228674,-0.004063,-0.025300,0.999601,-0.015909
9469765154,-0.036574,1.167539,-0.064642,-0.021655,0.997403,-0.019524
9469767656,-0.158383,1.167810,-0.125362,-0.021653,0.998851,-0.018065
9469770159,-0.219331,1.290138,-0.064916,-0.022357,1.001760,-0.018061
9469772661,-0.158345,1.350899,-0.065035,-0.020126,1.005379,-0.020942
9469775163,-0.036416,1.533558,-0.004695,-0.020163,1.003194,-0.018041
9469777686,0.085476,1.533127,-0.004681,-0.018048,0.997363,-0.015136
9469780171,0.146668,1.654548,-0.126338,-0.018748,0.998826,-0.017317
9469782668,0.146791,1.715366,-0.187170,-0.021650,0.997405,-0.020251
9469785171,0.146873,1.715207,-0.247876,-0.021662,0.995953,-0.020255
9469787673,0.146876,1.593095,-0.308328,-0.021685,0.993050,-0.020265
9469790176,0.085933,1.471198,-0.368788,-0.022445,0.990873,-0.018096
9469792678,0.085810,1.410380,-0.307956,-0.023132,0.995236,-0.018815
9469795180,0.085724,1.532651,-0.186798,-0.020173,0.998848,-0.021689
9469797682,0.085719,1.776875,-0.065892,-0.022385,0.995237,-0.021717
9469800185,0.024810,1.960180,-0.005573,-0.023866,0.993792,-0.019551
9469802687,-0.035975,2.204302,-0.006086,-0.023860,0.994518,-0.019549
9469805189,-0.096758,2.326312,-0.067051,-0.022388,0.996683,-0.019532
9469807691,-0.096675,2.326153,-0.127756,-0.020197,0.995945,-0.021699
9469810194,-0.035809,2.203984,-0.127497,-0.019497,0.993758,-0.020246
9469812696,0.025099,2.020680,-0.187816,-0.019498,0.996652,-0.016603
9469815198,0.086005,1.959488,-0.187683,-0.018772,0.995922,-0.017327
9469817700,0.146868,1.959432,-0.126970,-0.019504,0.991584,-0.021707
9469820203,0.086005,1.959488,-0.187683,-0.018038,0.993024,-0.021692
9469822705,0.025099,2.020680,-0.187816,-0.015100,0.995182,-0.023118
9469825207,-0.035930,2.021054,-0.127117,-0.011485,0.993697,-0.021642
9469827709,0.024851,2.021156,-0.005699,-0.012241,0.990074,-0.021659
9469830212,-0.036135,1.960395,-0.005580,-0.016595,0.990837,-0.022415
9469832714,-0.097121,1.899633,-0.005460,-0.016574,0.991568,-0.024594
9469835216,-0.096916,1.960293,-0.126998,-0.013649,0.992274,-0.026024
9469837719,-0.096875,2.021269,-0.127124,-0.014384,0.993724,-0.023117
9469840221,-0.096795,2.143223,-0.127377,-0.013671,0.994437,-0.020202
9469842723,-0.157701,2.204414,-0.127511,-0.009295,0.995853,-0.020165
9469845226,-0.157824,2.143596,-0.066679,-0.007826,0.995122,-0.023064
9469847728,-0.279716,2.144027,-0.066693,-0.010011,0.992968,-0.025268
9469850230,-0.279799,2.144186,-0.005987,-0.010691,0.995162,-0.029628
9469852732,-0.279759,2.205162,-0.006113,-0.008481,0.997326,-0.031059
9469855235,-0.218813,2.204947,-0.006106,-0.008551,0.992958,-0.025984
9469857737,-0.096964,2.265652,0.054487,-0.008583,0.990775,-0.023810
9469860239,-0.035935,2.265278,-0.006212,-0.009296,0.990787,-0.025997
9469862742,-0.096758,2.326312,-0.067051,-0.014410,0.988649,-0.025314
9469865244,-0.096798,2.265335,-0.066924,-0.010809,0.987882,-0.020928
9469867746,-0.157864,2.082620,-0.066552,-0.006417,0.989304,-0.023072
9469870248,-0.096998,1.960451,-0.066292,-0.008545,0.993684,-0.025982
9469872751,-0.157984,1.899690,-0.066173,-0.009990,0.993699,-0.027446
9469875253,-0.096998,1.960451,-0.066292,-0.012184,0.992266,-0.027467
9469877755,0.024891,2.082133,-0.005826,-0.010751,0.990075,-0.026736
9469880258,0.024974,2.081974,-0.066531,-0.009291,0.990789,-0.026723
9469882760,-0.035972,2.082189,-0.066538,-0.012902,0.995893,-0.024553
9469885262,-0.097039,1.899474,-0.066166,-0.013618,0.997351,-0.024554
9469887765,0.024690,1.777249,-0.005194,-0.012174,0.996611,-0.023819
9469890267,0.146502,1.654866,-0.004927,-0.012931,0.992264,-0.024565
9469892769,0.146462,1.593889,-0.004801,-0.012942,0.991536,-0.023840
9469895271,-0.036376,1.594534,-0.004821,-0.012172,0.993717,-0.027462
9469897774,-0.219174,1.656157,-0.004969,-0.015075,0.995191,-0.026752
9469900276,-0.341108,1.717723,0.055596,-0.016546,0.994473,-0.025311
9469902778,-0.341108,1.717723,0.055596,-0.016556,0.994469,-0.023857
9469905280,-0.280285,1.656690,0.116435,-0.012184,0.996608,-0.022365
9469907783,-0.219297,1.595339,0.055863,-0.012924,0.994438,-0.023104
9469910285,-0.158351,1.595124,0.055870,-0.015099,0.991563,-0.027491
9469912787,-0.158225,1.533829,-0.065415,-0.011496,0.987903,-0.026749
9469915290,-0.097279,1.533614,-0.065408,-0.011480,0.992974,-0.023098
9469917792,-0.097236,1.472479,-0.125987,-0.012212,0.993703,-0.021647
9469920294,-0.097319,1.472637,-0.065281,-0.011508,0.986452,-0.026753
9469922797,-0.097239,1.594591,-0.065534,-0.012204,0.987916,-0.029662
9469925299,-0.036296,1.716488,-0.005074,-0.013660,0.991546,-0.025299
9469927801,-0.036379,1.716647,0.055631,-0.011467,0.995874,-0.021635
9469930303,-0.036379,1.716647,0.055631,-0.011433,0.999505,-0.022350
9469932806,-0.097244,1.838815,0.055371,-0.015067,0.998088,-0.024562
9469935308,-0.218973,1.961040,-0.005601,-0.014371,0.996624,-0.021654
9469937810,-0.279876,1.900120,-0.066187,-0.011470,0.998044,-0.018720
9469940313,-0.340777,1.717088,-0.187226,-0.012224,0.992251,-0.021652
9469942815,-0.279868,1.533783,-0.247545,-0.011418,0.999511,-0.024531
9469945317,-0.158182,1.472694,-0.125994,-0.007048,1.000201,-0.024497
9469947819,-0.097236,1.472479,-0.125987,-0.006368,0.997282,-0.020866
9469950322,-0.097196,1.533455,-0.126113,-0.004154,0.995106,-0.028126
9469952824,-0.097402,1.472796,-0.004576,-0.003406,0.999449,-0.025926
9469955326,-0.036702,1.350945,0.117095,-0.004909,0.996549,-0.022311
9469957828,0.024081,1.228935,0.178061,-0.005606,1.001631,-0.020847
9469960331,-0.036699,1.228833,0.056643,-0.004890,0.995832,-0.025948
9469962833,-0.097397,1.228572,-0.125481,-0.001227,0.996535,-0.028827
9469965335,-0.219246,1.167867,-0.186074,-0.002671,0.997275,-0.029562
9469967838,-0.280232,1.107105,-0.185955,-0.002708,0.995814,-0.025932
9469970340,-0.280189,1.045970,-0.246534,-0.004179,0.995096,-0.024492
9469972842,-0.280106,1.045811,-0.307239,-0.002009,0.992903,-0.025209
9469975344,-0.158297,1.045539,-0.246520,-0.000542,0.990001,-0.030296
9469977847,-0.097557,0.984665,-0.124975,-0.001311,0.988544,-0.025945
9469980349,-0.097763,0.924006,-0.003438,-0.003523,0.988551,-0.021599
9469982851,-0.036940,0.862972,0.057401,-0.004941,0.990748,-0.024511
9469985353,-0.158915,0.863562,0.118093,-0.004921,0.990755,-0.027418
9469987856,-0.097886,0.863188,0.057394,-0.004238,0.987114,-0.025244
9469990358,-0.036814,0.801678,-0.063884,-0.004964,0.987844,-0.024520
9469992860,-0.036771,0.740543,-0.124463,-0.004933,0.993645,-0.022321
9469995363,-0.097800,0.740917,-0.063764,-0.007109,0.994389,-0.022334
9469997865,-0.097923,0.680099,-0.002932,-0.007919,0.987852,-0.017999
9470000367,-0.098046,0.619281,0.057900,-0.008573,0.995121,-0.020162
9470002870,-0.098044,0.497169,-0.002553,-0.012229,0.992249,-0.020925
9470005372,-0.219893,0.436463,-0.063146,-0.011492,0.991523,-0.023103
9470007874,-0.341867,0.437053,-0.002455,-0.010746,0.994418,-0.022361
9470010376,-0.341950,0.437211,0.058251,-0.008560,0.993678,-0.023801
9470012879,-0.220098,0.375804,0.058391,-0.007838,0.992947,-0.023798
9470015381,-0.158987,0.375272,-0.063013,-0.010741,0.994420,-0.023088
9470017883,-0.219893,0.436463,-0.063146,-0.012225,0.995869,-0.017279
9470020385,-0.219852,0.497440,-0.063273,-0.012215,0.995873,-0.018732
9470022888,-0.158947,0.436248,-0.063139,-0.011480,0.992974,-0.023098
9470025390,-0.098038,0.252944,-0.123459,-0.011458,0.995154,-0.023818
9470027892,-0.098201,0.131150,-0.062500,-0.017317,0.991568,-0.022418
9470030395,-0.159227,0.009411,-0.062254,-0.012212,0.993703,-0.021647
9470032898,-0.159350,-0.051407,-0.001422,-0.015841,0.992288,-0.024586
9470035399,-0.159350,-0.051407,-0.001422,-0.013677,0.989369,-0.025306
9470037901,-0.281245,0.071136,0.059016,-0.011477,0.991528,-0.025283
9470040404,-0.341988,0.254122,-0.002075,-0.016530,0.995203,-0.026763
9470042906,-0.341824,0.375917,-0.063034,-0.011394,0.998796,-0.028895
9470045408,-0.280879,0.375702,-0.063027,-0.009272,0.994414,-0.025258
9470047911,-0.220096,0.253692,-0.002061,-0.013634,0.996621,-0.023102
9470050413,-0.220342,0.132056,0.119603,-0.016532,0.993755,-0.028221
9470052915,-0.159436,0.070864,0.119736,-0.011438,0.995161,-0.026726
9470055418,-0.098490,0.070649,0.119743,-0.009978,0.995151,-0.027442
9470057920,-0.037504,0.131411,0.119623,-0.014373,0.990834,-0.028215
9470060422,0.023522,0.253149,0.119378,-0.011450,0.993710,-0.026730
9470062924,0.023645,0.313967,0.058546,-0.010751,0.990799,-0.026007
9470065427,-0.037298,0.192070,-0.001914,-0.010014,0.990072,-0.028185
9470067929,-0.037338,0.131093,-0.001788,-0.009271,0.995138,-0.024529
9470070431,-0.098241,0.070173,-0.062374,-0.008504,0.998765,-0.025966
9470072933,-0.098201,0.131150,-0.062500,-0.012200,0.990812,-0.026745
9470075436,-0.159227,0.009411,-0.062254,-0.015080,0.990847,-0.031128
9470077940,-0.281159,-0.051135,-0.062142,-0.015060,0.990854,-0.034035
9470080442,-0.342022,-0.051079,-0.122854,-0.012230,0.986459,-0.027486
9470082944,-0.342062,-0.112055,-0.122728,-0.011525,0.989340,-0.020929
9470085446,-0.281156,-0.173247,-0.122595,-0.014366,0.992283,-0.027483
9470087948,-0.220374,-0.295257,-0.061629,-0.014385,0.993000,-0.023846
9470090452,-0.281197,-0.234224,-0.122468,-0.009275,0.991518,-0.028175
9470092953,-0.281237,-0.295201,-0.122342,-0.009255,0.995867,-0.025980
9470095455,-0.342225,-0.233850,-0.061770,-0.008547,0.995854,-0.023067
9470097957,-0.281445,-0.233748,0.059648,-0.010033,0.990789,-0.024548
9470100460,-0.220582,-0.233804,0.120361,-0.009969,0.994431,-0.029625
9470102962,-0.159594,-0.295155,0.059789,-0.007053,0.995857,-0.028872
9470105464,-0.159634,-0.356132,0.059915,-0.004858,0.998015,-0.028122
9470107967,-0.220537,-0.417052,-0.000671,-0.006298,0.998032,-0.030314
9470110469,-0.220534,-0.539164,-0.061124,-0.005556,0.997308,-0.033218
9470112971,-0.159711,-0.600197,-0.000285,-0.005580,0.998022,-0.028854
9470115474,-0.159588,-0.539379,-0.061117,0.000199,0.992894,-0.028828
9470117976,-0.159425,-0.417585,-0.122075,-0.001960,0.996539,-0.028105
9470120478,-0.159302,-0.356767,-0.182907,-0.004129,0.998733,-0.027388
9470122980,-0.098396,-0.417959,-0.182774,-0.004133,0.995837,-0.030305
9470125483,-0.159382,-0.478720,-0.182654,0.000244,0.997977,-0.029539
9470127985,-0.159505,-0.539538,-0.121822,0.000954,0.995794,-0.029540
9470130487,-0.159545,-0.600515,-0.121696,0.002416,0.997231,-0.028798
9470132990,-0.159545,-0.600515,-0.121696,-0.001221,0.992919,-0.033927
9470135492,-0.098599,-0.600730,-0.121689,-0.003391,0.995112,-0.033209
9470137994,-0.159585,-0.661492,-0.121569,-0.004115,0.993672,-0.035400
9470140496,-0.159706,-0.844422,-0.121190,-0.002700,0.994370,-0.028845
9470142999,-0.220772,-1.027137,-0.120818,0.003935,1.000861,-0.033864
9470145501,-0.281961,-1.270669,-0.059614,0.006091,0.995045,-0.036775
9470148003,-0.282044,-1.270511,0.001092,0.003105,0.989975,-0.031724
9470150506,-0.221055,-1.331861,-0.059480,0.003839,0.991419,-0.030987
9470153008,-0.099163,-1.332292,-0.059466,0.002453,0.995074,-0.036801
9470155510,-0.099203,-1.393269,-0.059340,-0.000442,0.994379,-0.039732
9470158012,-0.038381,-1.454302,0.001499,0.001693,0.992173,-0.035362
9470160515,-0.160395,-1.514689,0.062317,-0.002699,0.990752,-0.033218
9470163017,-0.099572,-1.575722,0.123156,-0.001267,0.987837,-0.033216
9470165519,-0.099615,-1.514587,0.183735,0.000937,0.989274,-0.034650
9470168022,-0.038627,-1.575938,0.123163,-0.004886,0.990768,-0.032507
9470170524,0.022279,-1.637130,0.123296,-0.007054,0.994409,-0.030330
9470173026,0.083062,-1.759139,0.184262,-0.004863,0.993671,-0.032498
9470175528,0.082939,-1.819957,0.245093,-0.007045,0.993689,-0.032514
9470178031,0.022076,-1.819901,0.184381,-0.009937,0.996614,-0.031799
9470180533,-0.099690,-1.880765,0.063082,-0.004117,0.996566,-0.031756
9470183035,-0.160550,-2.002820,-0.058083,-0.004124,0.995116,-0.032488
9470185537,-0.160630,-2.124774,-0.057830,-0.006328,0.998021,-0.025952
9470188040,-0.099685,-2.124989,-0.057823,-0.010713,0.992983,-0.028908
9470190542,-0.099810,-2.063695,0.063462,-0.012181,0.990095,-0.030382
9470193045,-0.099933,-2.124513,0.124293,-0.012848,0.999531,-0.028176
9470195547,-0.221825,-2.124083,0.124280,-0.011404,0.998792,-0.027441
9470198049,-0.282768,-2.245980,0.063820,-0.010655,0.995899,-0.033987
9470200551,-0.282685,-2.246139,0.003114,-0.013541,0.999550,-0.033270
9470203054,-0.160794,-2.246569,0.003128,-0.015001,0.998836,-0.033283
9470205556,0.021961,-2.247056,0.063855,-0.015038,0.993033,-0.034755
9470208058,0.143810,-2.186351,0.124448,-0.012861,0.993014,-0.034012
9470210560,0.143850,-2.125374,0.124321,-0.012830,0.993749,-0.037645
9470213063,0.082781,-2.185977,0.185146,-0.010583,0.998097,-0.041976
9470215565,0.082701,-2.307930,0.185399,-0.011344,0.998814,-0.036164
9470218067,0.021715,-2.368691,0.185519,-0.012878,0.995178,-0.028917
9470220569,-0.039145,-2.490747,0.064353,-0.015062,0.993748,-0.030391
9470223072,-0.038979,-2.491065,-0.057058,-0.016471,0.998842,-0.031113
9470225574,0.022050,-2.491438,-0.117756,-0.015735,0.998116,-0.033290
9470228076,0.082995,-2.491654,-0.117749,-0.017939,0.996679,-0.031857
9470230578,0.021967,-2.491280,-0.057051,-0.017920,0.995238,-0.036223
9470233081,-0.039102,-2.551883,0.003774,-0.013500,1.000289,-0.038356
9470235583,-0.100128,-2.673621,0.004020,-0.013501,0.995223,-0.044188
9470238085,-0.161114,-2.734382,0.004140,-0.017131,0.996702,-0.043483
9470240588,-0.161197,-2.734224,0.064845,-0.014935,1.000308,-0.041274
9470243090,-0.100251,-2.734439,0.064852,-0.014917,1.003209,-0.040538
9470245592,-0.039182,-2.673836,0.004027,-0.017126,1.001046,-0.039107
9470248094,-0.039100,-2.673995,-0.056679,-0.012793,0.999552,-0.036172
9470250597,-0.100045,-2.673779,-0.056685,-0.012019,1.005352,-0.036148
9470253099,-0.161034,-2.612429,0.003887,-0.011302,1.001000,-0.039791
9470255601,-0.100088,-2.612644,0.003894,-0.010560,1.000276,-0.042696
9470258104,-0.100171,-2.612485,0.064599,-0.013473,1.001746,-0.040532
9470260606,0.021721,-2.612916,0.064613,-0.014926,1.003930,-0.038355
9470263108,0.082586,-2.735084,0.064873,-0.012732,1.004640,-0.039064
9470265610,0.143409,-2.796118,0.125712,-0.011268,1.008249,-0.036134
9470268113,0.204232,-2.857151,0.186551,-0.013444,1.009717,-0.035418
9470270633,0.204272,-2.796174,0.186424,-0.015637,1.009731,-0.033980
9470273122,0.204189,-2.796015,0.247130,-0.013461,1.008263,-0.034696
9470275621,0.143203,-2.856777,0.247249,-0.011993,1.006809,-0.038324
9470278121,0.082340,-2.856720,0.186537,-0.014923,1.006101,-0.036167
9470280623,0.143412,-2.918230,0.065259,-0.013497,1.006803,-0.031066
9470283125,0.204195,-3.040240,0.126224,-0.008384,1.007493,-0.033207
9470285627,0.325923,-3.162465,0.187197,-0.010544,1.006071,-0.038316
9470288130,0.386829,-3.223656,0.187330,-0.013492,1.003186,-0.036166
9470290632,0.447941,-3.224189,0.065926,-0.011331,1.001713,-0.034701
9470293134,0.448104,-3.102395,0.004968,-0.012083,0.997368,-0.036174
9470295637,0.448144,-3.041418,0.004841,-0.012783,0.999555,-0.037626
9470298139,0.387278,-2.919249,0.004581,-0.009829,1.003166,-0.039774
9470300641,0.387155,-2.980067,0.065413,-0.011343,0.995196,-0.040537
9470303143,0.387113,-2.918932,0.125993,-0.013567,0.989409,-0.041298
9470305645,0.326247,-2.796763,0.125733,-0.014995,0.990878,-0.043485
9470308148,0.265258,-2.735412,0.186305,-0.014285,0.988694,-0.043487
9470310650,0.265421,-2.613618,0.125347,-0.013600,0.986502,-0.039854
9470313152,0.265461,-2.552641,0.125220,-0.014323,0.986510,-0.040586
9470315655,0.265627,-2.552958,0.003809,-0.012839,0.985785,-0.045666
9470318157,0.326493,-2.675127,0.004069,-0.015758,0.986529,-0.043504
9470320659,0.265467,-2.796865,0.004315,-0.015013,0.988700,-0.043492
9470323162,0.265467,-2.796865,0.004315,-0.013559,0.987965,-0.044211
9470325664,0.265464,-2.674753,0.064767,-0.015014,0.987976,-0.044221
9470328166,0.265338,-2.613459,0.186052,-0.016464,0.987266,-0.045688
9470330669,0.326161,-2.674492,0.246891,-0.016471,0.985816,-0.046420
9470333171,0.326124,-2.857581,0.186565,-0.015003,0.988704,-0.044946
9470335673,0.265301,-2.796548,0.125726,-0.015695,0.993065,-0.044937
9470338175,0.204558,-2.613561,0.064634,-0.017176,0.992344,-0.042043
9470340678,0.204636,-2.369495,0.124834,-0.016491,0.990151,-0.038410
9470343180,0.204836,-2.064612,0.124202,-0.016458,0.993058,-0.039854
9470345682,0.204999,-1.942817,0.063244,-0.016421,0.994519,-0.043484
9470348184,0.266028,-1.943191,0.002545,-0.019354,0.992363,-0.042786
9470350687,0.326937,-2.126496,-0.057774,-0.019340,0.995263,-0.041322
9470353189,0.326774,-2.248290,0.003184,-0.018602,0.995984,-0.042042
9470355691,0.326610,-2.370085,0.064142,-0.020780,0.995280,-0.043514
9470358194,0.265662,-2.247758,0.124588,-0.024407,0.995313,-0.044994
9470360696,0.265702,-2.186781,0.124462,-0.025102,0.997502,-0.047173
9470363198,0.265905,-2.004009,0.063377,-0.023637,1.002560,-0.042785
9470365700,0.265943,-1.820920,0.123703,-0.023643,1.001110,-0.043517
9470368203,0.326928,-1.760159,0.123584,-0.025088,1.001126,-0.044981
9470370705,0.387749,-1.699080,0.244875,-0.028023,1.001140,-0.041368
9470373207,0.387749,-1.699080,0.244875,-0.028060,0.999680,-0.037738
9470375710,0.326803,-1.698865,0.244869,-0.026572,1.002575,-0.039172
9470378212,0.265940,-1.698808,0.184156,-0.025801,1.001137,-0.047167
9470380714,0.144214,-1.698695,0.062731,-0.026527,0.998249,-0.050816
9470383216,0.083431,-1.576686,0.001766,-0.031629,0.998287,-0.049400
9470385719,0.083594,-1.454891,-0.059193,-0.034530,1.001208,-0.047231
9470388221,0.083511,-1.454732,0.001513,-0.033805,0.999030,-0.049413
9470390723,0.083428,-1.454573,0.062218,-0.033806,0.998306,-0.050143
9470393226,0.144414,-1.393812,0.062099,-0.031669,0.993930,-0.048687
9470395728,0.205480,-1.211097,0.061727,-0.031683,0.990306,-0.050879
9470398230,0.388481,-1.089948,0.000789,-0.031680,0.992478,-0.048691
9470400732,0.388561,-0.967994,0.000536,-0.031696,0.991749,-0.047240
9470403235,0.327656,-0.906802,0.000403,-0.031688,0.990305,-0.050152
9470405737,0.266747,-0.723498,0.060722,-0.029474,0.991746,-0.053039
9470408239,0.083949,-0.661876,0.060575,-0.033843,0.988162,-0.056717
9470410742,0.022921,-0.661502,0.121274,-0.033897,0.984523,-0.053094
9470413244,0.022798,-0.722320,0.182106,-0.027356,0.983020,-0.053778
9470415746,0.083786,-0.783671,0.121533,-0.029521,0.985215,-0.053787
9470418248,0.266747,-0.723498,0.060722,-0.029490,0.985950,-0.057419
9470420751,0.266910,-0.601704,-0.000236,-0.030974,0.982333,-0.057442
9470423253,0.267113,-0.418932,-0.061321,-0.029554,0.982309,-0.052342
9470425755,0.084396,-0.235356,-0.061721,-0.025191,0.980825,-0.053769
9470428258,0.023530,-0.113188,-0.061981,-0.027365,0.980122,-0.055968
9470430760,-0.037295,0.069958,-0.062367,-0.031009,0.982320,-0.052353
9470433262,0.084471,0.130821,0.058932,-0.029540,0.985932,-0.050150
9470435764,0.145294,0.069788,0.119771,-0.022987,0.986605,-0.050100
9470438267,0.145334,0.130765,0.119644,-0.020805,0.986587,-0.050084
9470440769,0.023648,0.191855,-0.001907,-0.023732,0.984433,-0.050112
9470443271,-0.037135,0.313864,-0.062872,-0.022266,0.985873,-0.050097
9470445774,-0.037012,0.374682,-0.123704,-0.022961,0.988062,-0.052276
9470448276,0.023934,0.374467,-0.123697,-0.024361,0.992436,-0.055180
9470450778,0.145826,0.374037,-0.123684,-0.019997,0.991676,-0.055878
9470453281,0.206731,0.312845,-0.123550,-0.021553,0.985861,-0.047911
9470455783,0.206772,0.373822,-0.123677,-0.023007,0.987321,-0.046463
9470458285,0.024094,0.618374,-0.124203,-0.019299,0.991659,-0.051511
9470460787,-0.097637,0.862711,-0.124723,-0.022200,0.995305,-0.048613
9470463290,-0.158463,1.045857,-0.125109,-0.019289,0.996005,-0.047862
9470465792,-0.158546,1.046016,-0.064403,-0.019275,0.996010,-0.050043
9470468294,-0.097683,1.045959,-0.003691,-0.020743,0.993123,-0.051517
9470470796,0.024129,0.923575,-0.003424,-0.017857,0.993814,-0.047132
9470473299,0.146104,0.922986,-0.064116,-0.018571,0.992377,-0.050776
9470475801,0.146269,0.922669,-0.185527,-0.017857,0.993814,-0.047132
9470478303,0.085323,0.922884,-0.185534,-0.017068,0.999620,-0.049289
9470480806,0.085158,0.923201,-0.064123,-0.017066,0.997450,-0.052203
9470483308,-0.036814,0.801678,-0.063884,-0.014191,0.993071,-0.052196
9470485810,-0.097760,0.801893,-0.063891,-0.014914,0.996697,-0.048555
9470488313,-0.097677,0.801735,-0.124596,-0.014913,0.997421,-0.047826
9470490815,-0.097720,0.862870,-0.064017,-0.014157,1.001044,-0.047809
9470493317,-0.097763,0.924006,-0.003438,-0.014157,1.001044,-0.047809
9470495820,-0.097806,0.985141,0.057141,-0.018543,0.999624,-0.046392
9470498321,-0.036903,1.046061,0.117727,-0.020709,1.001096,-0.047130
9470500824,0.085152,1.167426,0.056783,-0.017111,1.001052,-0.041288
9470503326,0.146344,1.288846,-0.064874,-0.015702,0.995957,-0.040567
9470505828,0.085438,1.350038,-0.065007,-0.014941,0.995240,-0.046379
9470508330,0.024495,1.228141,-0.125467,-0.018605,0.993088,-0.044959
9470510833,0.085318,1.167108,-0.064628,-0.019318,0.993100,-0.047145
9470513336,0.085235,1.167267,-0.003923,-0.020823,0.988028,-0.045718
9470515838,0.146178,1.289164,0.056537,-0.020777,0.993834,-0.045699
9470518340,0.207287,1.410743,-0.004414,-0.017138,0.995252,-0.044214
9470520842,0.268276,1.349393,-0.064987,-0.017150,0.988735,-0.050050
9470523344,0.207167,1.227813,-0.004035,-0.017121,0.992364,-0.050039
9470525847,0.024166,1.106664,0.056902,-0.021498,0.990948,-0.050075
9470528349,-0.158548,1.168128,-0.003951,-0.021491,0.988055,-0.054446
9470530851,-0.158591,1.229263,0.056629,-0.020083,0.985855,-0.050081
9470533353,-0.097525,1.411978,0.056256,-0.019318,0.988758,-0.052247
9470535856,0.024407,1.472525,0.056144,-0.021483,0.990953,-0.052256
9470538358,0.085436,1.472151,-0.004555,-0.021523,0.986596,-0.051543
9470540860,-0.036496,1.411604,-0.004442,-0.017882,0.989463,-0.048600
9470543363,-0.097645,1.229048,0.056636,-0.015729,0.985816,-0.048595
9470545865,-0.219454,1.229320,-0.004084,-0.021539,0.985143,-0.050821
9470548367,-0.280317,1.229376,-0.064796,-0.020852,0.980780,-0.050102
9470550869,-0.280192,1.168082,-0.186081,-0.016490,0.982191,-0.047885
9470553372,-0.280109,1.167923,-0.246787,-0.018616,0.983677,-0.054439
9470555874,-0.219286,1.106890,-0.185948,-0.013511,0.986535,-0.052938
9470558376,-0.158383,1.167810,-0.125362,-0.018604,0.985852,-0.053705
9470560879,-0.158508,1.229105,-0.004077,-0.022272,0.984423,-0.050828
9470563381,-0.219334,1.412250,-0.004463,-0.014965,0.986547,-0.052949
9470565885,-0.280077,1.595236,-0.065555,-0.017158,0.986561,-0.051511
9470568387,-0.279956,1.778166,-0.065934,-0.019353,0.988745,-0.047159
9470570889,-0.279916,1.839143,-0.066060,-0.019398,0.988005,-0.041346
9470573392,-0.279916,1.839143,-0.066060,-0.018624,0.994529,-0.040593
9470575894,-0.279914,1.717031,-0.126513,-0.017821,0.994551,-0.051491
9470578396,-0.158019,1.594489,-0.186952,-0.014982,0.989435,-0.047124
9470580898,-0.097156,1.594432,-0.126240,-0.014983,0.993053,-0.042751
9470583401,-0.097282,1.655726,-0.004955,-0.021494,0.998186,-0.042056
9470585903,-0.158271,1.717077,0.055617,-0.021508,0.995286,-0.043519
9470588405,-0.158271,1.717077,0.055617,-0.016448,0.997404,-0.036206
9470590907,-0.219176,1.778269,0.055484,-0.018596,1.001052,-0.036937
9470593410,-0.219136,1.839246,0.055358,-0.020008,0.999633,-0.044948
9470595912,-0.279959,1.900279,-0.005481,-0.014271,0.997384,-0.035463
9470598414,-0.219011,1.777951,-0.065927,-0.014961,0.998851,-0.039098
9470600917,-0.158022,1.716601,-0.126499,-0.015718,0.995228,-0.039115
9470603419,-0.097116,1.655409,-0.126366,-0.012814,0.994478,-0.039096
9470605921,-0.036253,1.655352,-0.065653,-0.009178,0.993725,-0.039799
9470608423,-0.097279,1.533614,-0.065408,-0.008419,0.998796,-0.038323
9470610926,-0.097236,1.472479,-0.125987,-0.012002,0.998845,-0.046346
9470613428,-0.097399,1.350684,-0.065028,-0.005521,0.997320,-0.038307
9470615930,-0.036453,1.350469,-0.065021,-0.001889,0.997289,-0.037553
9470618433,-0.036453,1.350469,-0.065021,-0.004077,0.996581,-0.037571
9470620955,-0.097113,1.533297,-0.186819,-0.006956,0.992997,-0.046327
9470623437,-0.157936,1.594330,-0.247658,-0.006996,0.992983,-0.040512
9470625939,-0.157979,1.655465,-0.187078,-0.001900,0.991495,-0.042660
9470628442,-0.219088,1.533886,-0.126127,0.000271,0.990750,-0.041920
9470630944,-0.219414,1.290296,-0.004210,-0.000451,0.991482,-0.041923
9470633446,-0.280397,1.107423,-0.064544,0.002479,0.991465,-0.044809
9470635948,-0.341383,1.046661,-0.064424,0.002472,0.989291,-0.046270
9470638451,-0.341260,1.107479,-0.125256,0.003852,0.980568,-0.045560
9470640953,-0.341303,1.168615,-0.064677,-0.000461,0.986412,-0.046300
9470643455,-0.219411,1.168184,-0.064663,-0.000502,0.981331,-0.046316
9470645958,-0.158548,1.168128,-0.003951,0.001695,0.985661,-0.043379
9470648460,-0.097643,1.106936,-0.003817,0.001693,0.983489,-0.045567
9470650962,-0.158629,1.046174,-0.003698,0.003874,0.987089,-0.041178
9470653465,-0.219532,0.985254,-0.064284,-0.001205,0.984964,-0.045583
9470655967,-0.341381,0.924549,-0.124877,-0.003409,0.987869,-0.039048
9470658469,-0.402204,0.985582,-0.185716,-0.000565,0.978413,-0.040510
9470660971,-0.463230,0.863844,-0.185470,0.000215,0.990006,-0.034653
9470663474,-0.463393,0.742049,-0.124512,-0.004853,0.984266,-0.044885
9470665976,-0.402527,0.619880,-0.124252,-0.003410,0.991487,-0.034675
9470668478,-0.341661,0.497712,-0.123992,-0.002687,0.987861,-0.038315
9470670981,-0.280961,0.375861,-0.002321,-0.000449,0.992930,-0.040464
9470673483,-0.402853,0.376291,-0.002335,-0.004128,0.991497,-0.036134
9470675985,-0.463842,0.437642,0.058237,-0.004129,0.994391,-0.032490
9470678487,-0.524665,0.498675,-0.002602,0.000996,0.992914,-0.039000
9470680990,-0.524582,0.498516,-0.063307,-0.005529,0.995147,-0.039767
9470683494,-0.341621,0.558689,-0.124118,-0.008465,0.993713,-0.037613
9470685994,-0.158784,0.558043,-0.124098,-0.004101,0.992954,-0.038310
9470688496,-0.097835,0.435716,-0.184543,-0.002702,0.987856,-0.036135
9470690999,-0.219890,0.314351,-0.123599,-0.005636,0.984252,-0.036895
9470693501,-0.341699,0.314623,-0.184318,-0.008545,0.985000,-0.036187
9470696003,-0.463593,0.437165,-0.123880,-0.007077,0.987164,-0.035442
9470698506,-0.463593,0.437165,-0.123880,-0.005633,0.990766,-0.029605
9470701008,-0.463633,0.376189,-0.123753,-0.008543,0.990790,-0.029626
9470703510,-0.402768,0.254020,-0.123493,-0.007080,0.993676,-0.027425
9470706012,-0.402971,0.071249,-0.062409,-0.007786,0.995137,-0.028880
9470708514,-0.403174,-0.111523,-0.001324,-0.009225,1.000220,-0.025239
9470711017,-0.342388,-0.355645,-0.000811,-0.013537,1.007512,-0.024521
9470713519,-0.281646,-0.538631,0.060280,-0.013576,1.003155,-0.023808
9470716022,-0.220700,-0.538847,0.060287,-0.011397,1.004584,-0.021607
9470718524,-0.220743,-0.477711,0.120867,-0.014299,0.998821,-0.029643
9470721026,-0.220580,-0.355916,0.059908,-0.012112,0.998081,-0.031083
9470723528,-0.220457,-0.295098,-0.000924,-0.011451,0.992985,-0.027459
9470726031,-0.220334,-0.234280,-0.061756,-0.009977,0.996599,-0.025983
9470728533,-0.220376,-0.173145,-0.001177,-0.009949,0.994438,-0.032533
9470731035,-0.281322,-0.172930,-0.001184,-0.008515,0.998037,-0.025241
9470733537,-0.342268,-0.172715,-0.001190,-0.009222,0.998774,-0.027425
9470736040,-0.342185,-0.172873,-0.061896,-0.008429,1.003134,-0.031767
9470738542,-0.281156,-0.173247,-0.122595,-0.004071,1.001649,-0.032467
9470741044,-0.281279,-0.234065,-0.061763,-0.002646,1.005968,-0.022992
9470743547,-0.220537,-0.417052,-0.000671,-0.007746,1.008178,-0.019388
9470746049,-0.098848,-0.600254,0.060428,-0.006992,1.009629,-0.021559
9470748551,-0.038063,-0.844376,0.060940,-0.004780,1.008898,-0.026634
9470751053,0.022680,-1.027362,0.122032,-0.006988,1.004565,-0.028117
9470753556,0.022680,-1.027362,0.122032,-0.004825,1.005264,-0.024464
9470756058,0.144692,-0.844863,0.121667,0.000258,1.005219,-0.022973
9470758580,0.144855,-0.723068,0.060708,-0.001955,1.004501,-0.019357
9470761069,0.206007,-0.662624,-0.060822,-0.003441,0.999436,-0.020838
9470763566,0.144898,-0.784203,0.000129,-0.004189,0.998711,-0.018665
9470766065,0.022966,-0.844750,0.000242,-0.002732,0.996529,-0.021569
9470768568,0.022843,-0.905568,0.061074,-0.002022,0.998688,-0.016468
9470771070,-0.099008,-0.844160,0.060933,-0.005677,1.000882,-0.011399
9470773573,-0.098966,-0.905296,0.000354,-0.005669,1.003056,-0.009938
9470776075,-0.159869,-0.966216,-0.060232,-0.005663,1.004505,-0.009207
9470778577,-0.038097,-1.149577,-0.059839,-0.008573,1.003805,-0.009957
9470781079,0.022686,-1.271587,0.001127,-0.012211,1.003835,-0.009984
9470783582,0.083468,-1.393597,0.062092,-0.012177,1.006742,-0.011428
9470786084,0.144497,-1.393970,0.001393,-0.008500,1.011069,-0.012115
9470788586,0.205483,-1.333209,0.001274,-0.004113,1.017554,-0.007701
9470791089,0.205523,-1.272232,0.001148,-0.004865,1.018275,-0.003342
9470793591,0.205357,-1.271915,0.122559,-0.006283,1.019748,-0.006983
9470796093,0.205317,-1.332891,0.122685,-0.009172,1.020503,-0.009182
9470798595,0.266346,-1.333265,0.061986,-0.011388,1.017614,-0.007754
9470801098,0.388321,-1.333854,0.001295,-0.009947,1.013978,-0.009935
9470803600,0.449227,-1.395046,0.001428,-0.007750,1.013242,-0.012829
9470806102,0.510092,-1.517215,0.001688,-0.009929,1.016156,-0.009928
9470808605,0.448903,-1.760748,0.062892,-0.011431,1.014703,-0.004855
9470811107,0.509646,-1.943735,0.123984,-0.007810,1.017562,0.000996
9470813609,0.631418,-2.127095,0.124377,-0.008533,1.016846,-0.000466
9470816111,0.753349,-2.066549,0.124265,-0.012167,1.015429,-0.002678
9470818614,0.814333,-1.883675,0.184598,-0.013634,1.013990,-0.002693
9470821116,0.814370,-1.700586,0.244924,-0.012214,1.009623,-0.002696
9470823618,0.753547,-1.639553,0.184085,-0.006421,1.008119,-0.000477
9470826121,0.753507,-1.700530,0.184212,-0.004248,1.008821,0.001722
9470828623,0.753593,-1.822801,0.063053,-0.007922,1.006666,0.004596
9470831125,0.814456,-1.822857,0.123766,-0.008711,1.000860,0.006753
9470833627,0.814538,-1.823016,0.063060,-0.009447,0.993626,-0.000545
9470836130,0.814416,-1.883834,0.123892,-0.010930,0.990733,0.000162
9470838632,0.753347,-1.944437,0.184717,-0.010265,0.988533,0.006702
9470841134,0.631332,-2.004824,0.245535,-0.008835,0.984170,0.005245
9470843636,0.570429,-2.065745,0.184949,-0.007404,0.980531,0.004518
9470846139,0.570512,-2.065903,0.124244,-0.010351,0.979094,0.008126
9470848641,0.509772,-2.005029,0.002699,-0.011804,0.980554,0.009574
9470851143,0.509812,-1.944052,0.002573,-0.008883,0.981258,0.008871
9470853645,0.570758,-1.944267,0.002580,-0.009622,0.980536,0.009590
9470856148,0.631541,-2.066277,0.063545,-0.006038,0.977592,0.013969
9470858650,0.631500,-2.127254,0.063672,-0.003861,0.976849,0.013982
9470861152,0.570432,-2.187857,0.124497,-0.003106,0.979024,0.012541
9470863655,0.509526,-2.126665,0.124363,-0.004564,0.981206,0.015445
9470866157,0.387717,-2.126393,0.063644,-0.006017,0.982665,0.016893
9470868659,0.387800,-2.126552,0.002938,-0.004526,0.987732,0.017647
9470871162,0.387760,-2.187529,0.003065,-0.003000,0.993536,0.014041
9470873664,0.387760,-2.187529,0.003065,-0.005171,0.995006,0.014030
9470876166,0.326651,-2.309108,0.064016,-0.006621,0.994295,0.012563
9470878668,0.326490,-2.553015,0.064522,-0.008832,0.991408,0.013265
9470881170,0.387356,-2.675184,0.064781,-0.012498,0.992151,0.018329
9470883673,0.448385,-2.675557,0.004083,-0.007421,0.992104,0.020547
9470886175,0.387479,-2.614366,0.003949,-0.006669,0.996449,0.022020
9470888678,0.265627,-2.552958,0.003809,-0.012469,0.995780,0.018340
9470891180,0.143816,-2.430575,0.003542,-0.016066,1.000890,0.018330
9470893682,0.143816,-2.430575,0.003542,-0.016065,1.001614,0.019059
9470896184,0.265788,-2.309052,0.003303,-0.015322,1.002337,0.017613
9470898687,0.326610,-2.370085,0.064142,-0.017524,1.002348,0.020505
9470901189,0.265625,-2.430846,0.064262,-0.018248,1.000908,0.018314
9470903691,0.204598,-2.552584,0.064508,-0.018251,0.998736,0.016126
9470906194,0.265464,-2.674753,0.064767,-0.024035,1.003138,0.016098
9470908696,0.387356,-2.675184,0.064781,-0.025490,1.003150,0.016087
9470911198,0.509331,-2.675773,0.004090,-0.025496,1.002424,0.016085
9470913700,0.570274,-2.553875,0.064549,-0.026966,1.002430,0.018255
9470916203,0.509365,-2.370571,0.124869,-0.026220,1.005326,0.018996
9470918705,0.509280,-2.248301,0.246027,-0.024739,1.006771,0.016831
9470921207,0.448334,-2.248085,0.246020,-0.025506,1.002420,0.017538
9470923709,0.448417,-2.248244,0.185315,-0.025554,0.999508,0.021164
9470926212,0.387514,-2.309165,0.124728,-0.028460,0.998809,0.019686
9470928714,0.509405,-2.309595,0.124742,-0.029184,1.001711,0.022598
9470931216,0.631257,-2.371002,0.124883,-0.028471,1.002424,0.025513
9470933719,0.753109,-2.432409,0.125023,-0.027718,1.002427,0.021884
9470936221,0.692326,-2.310399,0.064058,-0.025576,0.998053,0.022613
9470938723,0.570514,-2.188015,0.063791,-0.027780,0.996615,0.024046
9470941225,0.448746,-2.126767,0.002945,-0.028507,0.996621,0.024041
9470943728,0.448623,-2.187585,0.063777,-0.028469,0.999530,0.021869
9470946230,0.509363,-2.248460,0.185322,-0.028484,0.995182,0.018948
9470948732,0.509363,-2.248460,0.185322,-0.024879,0.992970,0.021148
9470951235,0.509526,-2.126665,0.124363,-0.018355,0.994355,0.026289
9470953737,0.509689,-2.004870,0.063405,-0.022785,0.990025,0.030605
9470956239,0.509609,-2.126824,0.063658,-0.027143,0.987168,0.026202
9470958741,0.509569,-2.187800,0.063784,-0.027126,0.988622,0.025480
9470961244,0.509569,-2.187800,0.063784,-0.028558,0.991537,0.025478
9470963746,0.509649,-2.065847,0.063531,-0.022766,0.989308,0.026968
9470966248,0.387837,-1.943463,0.063264,-0.021334,0.986393,0.026969
9470968750,0.205037,-1.759728,0.123570,-0.022050,0.987851,0.026969
9470971253,0.205160,-1.698910,0.062738,-0.024203,0.991497,0.026964
9470973755,0.205283,-1.638093,0.001906,-0.027806,0.995158,0.026222
9470976258,0.205326,-1.699228,-0.058673,-0.032190,0.991568,0.024725
9470978760,0.144380,-1.699013,-0.058680,-0.029250,0.995897,0.025487
9470981262,0.205408,-1.699387,-0.119379,-0.028506,0.997345,0.024770
9470983764,0.327137,-1.821612,-0.058406,-0.029936,0.997366,0.021125
9470986266,0.388040,-1.760692,0.002180,-0.024167,0.992958,0.023334
9470988769,0.387914,-1.699397,0.123464,-0.026334,0.997324,0.026240
9470991272,0.327089,-1.516252,0.123078,-0.028471,0.998082,0.020411
9470993773,0.327129,-1.455275,0.122952,-0.030664,0.997372,0.021120
9470996276,0.388115,-1.394514,0.122832,-0.029219,0.997356,0.022584
9470998778,0.449181,-1.211799,0.122460,-0.032114,0.997386,0.020382
9471001280,0.571316,-0.968481,0.061263,-0.032858,0.995938,0.021099
9471003783,0.571519,-0.785710,0.000178,-0.031383,0.995934,0.018202
9471006285,0.449547,-0.907233,0.000417,-0.032849,0.995218,0.018916
9471008788,0.327533,-0.967620,0.061235,-0.032872,0.992314,0.018907
9471011289,0.327367,-0.967303,0.182646,-0.026364,0.988629,0.020397
9471013792,0.388350,-0.784429,0.242979,-0.029214,0.993016,0.016755
9471016294,0.510322,-0.662906,0.242740,-0.035752,0.992349,0.014524
9471018796,0.510442,-0.479976,0.242361,-0.030675,0.992302,0.016742
9471021299,0.510523,-0.358022,0.242108,-0.030719,0.987944,0.018182
9471023801,0.449617,-0.296830,0.241975,-0.033618,0.988695,0.017436
9471026303,0.449617,-0.296830,0.241975,-0.029215,0.987950,0.010923
9471028805,0.388671,-0.296615,0.241968,-0.031439,0.990123,0.019637
9471031308,0.388874,-0.113844,0.180883,-0.031439,0.985781,0.014535
9471033810,0.267185,0.069358,0.119785,-0.031409,0.990858,0.016005
9471036312,0.267431,0.190994,-0.001879,-0.029304,0.983575,0.018905
9471038815,0.328500,0.251597,-0.062704,-0.027752,0.994454,0.017497
9471041317,0.389529,0.251223,-0.123403,-0.030667,0.990134,0.013100
9471043819,0.389526,0.373335,-0.062950,-0.032841,0.988707,0.010172
9471046321,0.267635,0.373765,-0.062964,-0.027771,0.986487,0.010929
9471048824,0.145783,0.435172,-0.063104,-0.030659,0.988690,0.010188
9471051326,0.024011,0.618533,-0.063498,-0.032111,0.990873,0.012365
9471053830,0.085118,0.862225,-0.063996,-0.032893,0.982899,0.010880
9471056332,0.085112,1.106449,0.056909,-0.026307,0.990097,0.013859
9471058834,0.085192,1.228402,0.056656,-0.029255,0.983594,0.011636
9471061336,0.146221,1.228029,-0.004042,-0.032080,0.987266,0.003630
9471063839,0.085358,1.228085,-0.064755,-0.029184,0.993027,0.012393
9471066341,0.024495,1.228141,-0.125467,-0.029250,0.982871,0.010180
9471068844,-0.097359,1.411661,-0.065155,-0.029912,0.983625,0.001454
9471071346,-0.158142,1.533671,-0.126120,-0.032784,0.990899,0.004364
9471073848,-0.219048,1.594862,-0.126253,-0.028442,0.987961,0.004386
9471076350,-0.218925,1.655681,-0.187085,-0.029866,0.988707,0.000743
9471078853,-0.279914,1.717031,-0.126513,-0.033475,0.991642,-0.000001
9471081355,-0.340822,1.900335,-0.066194,-0.036368,0.993843,-0.000015
9471083857,-0.340702,2.083265,-0.066573,-0.034946,0.990925,0.001440
9471086359,-0.340579,2.144083,-0.127405,-0.035595,0.994578,-0.005823
9471088862,-0.218647,2.204630,-0.127518,-0.039225,0.996057,-0.005118
9471091364,-0.096715,2.265176,-0.127630,-0.038496,0.997499,-0.003654
9471093866,-0.096718,2.387288,-0.067177,-0.037073,0.996028,-0.000741
9471096369,-0.096638,2.509242,-0.067430,-0.039963,0.995335,-0.004399
9471098871,-0.157503,2.631410,-0.067690,-0.043580,1.000438,-0.001501
9471101373,-0.157423,2.753364,-0.067943,-0.037835,0.991679,-0.000760
9471103875,-0.096354,2.813967,-0.128768,-0.039251,0.995324,-0.002213
9471106378,-0.096274,2.935920,-0.129020,-0.044326,0.996819,-0.002972
9471108880,-0.096154,3.118850,-0.129400,-0.044328,0.995371,-0.004431
9471111382,-0.156897,3.301837,-0.190491,-0.040702,0.994614,-0.003679
9471113884,-0.156776,3.484767,-0.190871,-0.044307,0.996102,-0.006609
9471116387,-0.095833,3.606664,-0.130411,-0.042854,0.994642,-0.008057
9471118902,-0.156699,3.728832,-0.130671,-0.042836,0.993202,-0.012423
9471121391,-0.217605,3.790024,-0.130804,-0.043579,0.992478,-0.010977
9471123894,-0.339537,3.729478,-0.130692,-0.043608,0.988849,-0.010988
9471126396,-0.400563,3.607740,-0.130446,-0.039948,0.991723,-0.010953
9471128898,-0.339534,3.607366,-0.191144,-0.039238,0.985197,-0.016057
9471131401,-0.339454,3.729319,-0.191397,-0.039999,0.981572,-0.015347
9471133903,-0.400196,3.912306,-0.252489,-0.040719,0.983752,-0.013891
9471136405,-0.400036,4.156212,-0.252995,-0.037822,0.981553,-0.014604
9471138908,-0.460904,4.400494,-0.192802,-0.035615,0.985162,-0.013849
9471141410,-0.460827,4.644559,-0.132602,-0.034156,0.984428,-0.015295
9471143912,-0.460581,4.766195,-0.254266,-0.029062,0.981493,-0.018901
9471146414,-0.582267,4.827284,-0.375817,-0.033372,0.985890,-0.021827
9471148917,-0.582224,4.766149,-0.436396,-0.030437,0.986600,-0.024711
9471151419,-0.582184,4.827126,-0.436523,-0.032648,0.987331,-0.019636
9471153921,-0.460255,5.009784,-0.376182,-0.031953,0.985142,-0.017457
9471156423,-0.399269,5.070546,-0.376302,-0.029761,0.985128,-0.018895
9471158926,-0.338406,5.070489,-0.315589,-0.026073,0.990182,-0.020306
9471161428,-0.399517,5.071022,-0.194185,-0.024585,0.992353,-0.022469
9471163930,-0.460546,5.071396,-0.133487,-0.023145,0.992336,-0.020278
9471166433,-0.521658,5.071929,-0.012082,-0.022421,0.990158,-0.022460
9471168935,-0.521658,5.071929,-0.012082,-0.021681,0.992328,-0.021721
9471171438,-0.582604,5.072144,-0.012089,-0.020938,0.996670,-0.018794
9471173939,-0.582441,5.193939,-0.073048,-0.023822,0.997426,-0.021721
9471176442,-0.643347,5.255130,-0.073181,-0.022337,0.998150,-0.025342
9471178944,-0.643387,5.194154,-0.073055,-0.017970,0.999562,-0.023852
9471181446,-0.643387,5.194154,-0.073055,-0.013602,1.002422,-0.020903
9471183948,-0.643264,5.254972,-0.133887,-0.013600,1.000252,-0.023818
9471186451,-0.643058,5.315631,-0.255424,-0.014338,0.999530,-0.023098
9471188953,-0.582112,5.315416,-0.255417,-0.012856,1.000976,-0.025264
9471191455,-0.460343,5.254168,-0.194571,-0.011369,1.003147,-0.027427
9471193958,-0.399520,5.193134,-0.133732,-0.008471,1.001672,-0.027410
9471196460,-0.338574,5.192919,-0.133725,-0.009918,1.004581,-0.025231
9471198962,-0.338491,5.192760,-0.194431,-0.009178,1.006751,-0.024492
9471201465,-0.399397,5.253952,-0.194564,-0.007735,1.004563,-0.025215
9471203967,-0.399357,5.314929,-0.194691,-0.003359,1.005979,-0.025178
9471206469,-0.460180,5.375962,-0.255530,-0.005534,1.008171,-0.023733
9471208971,-0.460137,5.314827,-0.316109,-0.008455,1.006743,-0.023759
9471211474,-0.460260,5.254009,-0.255277,-0.004811,1.003821,-0.028104
9471213976,-0.460298,5.070920,-0.315603,-0.002610,1.007429,-0.026622
9471216478,-0.399558,5.010045,-0.194059,-0.004815,1.005267,-0.025918
9471218980,-0.338652,4.948853,-0.193925,-0.004114,1.003804,-0.023737
9471221483,-0.155900,5.070479,-0.072746,-0.004097,1.005258,-0.024459
9471223985,-0.094831,5.131082,-0.133571,-0.004085,1.006709,-0.024454
9471226487,-0.033968,5.131025,-0.072859,-0.003347,1.007431,-0.025174
9471228990,-0.094914,5.131240,-0.072866,-0.007741,1.003838,-0.025217
9471231492,-0.155817,5.070320,-0.133452,-0.009219,1.000946,-0.025237
9471233994,-0.155694,5.131138,-0.194284,-0.009245,1.000213,-0.022332
9471236496,-0.155651,5.070003,-0.254863,-0.012111,1.003871,-0.024522
9471238999,-0.155774,5.009184,-0.194031,-0.012814,1.003162,-0.028891
9471241501,-0.155897,4.948367,-0.133199,-0.012152,0.998067,-0.025268
9471244003,-0.156103,4.887708,-0.011661,-0.014384,0.994448,-0.022388
9471246524,-0.034294,4.887436,0.049058,-0.013625,0.995177,-0.026015
9471249014,0.026735,4.887062,-0.011640,-0.012174,0.992269,-0.028921
9471251511,0.026858,4.947880,-0.072472,-0.015093,0.988671,-0.031861
9471254011,0.026901,4.886744,-0.133052,-0.018746,0.987971,-0.030437
9471256513,0.026861,4.825768,-0.132925,-0.018797,0.987229,-0.023897
9471259016,0.026820,4.764791,-0.132799,-0.016673,0.983571,-0.019531
9471261518,0.026984,4.886586,-0.193757,-0.015226,0.981386,-0.020981
9471264020,-0.033922,4.947778,-0.193891,-0.016634,0.982862,-0.026075
9471266523,-0.216963,4.765652,-0.132827,-0.018047,0.984336,-0.030443
9471269025,-0.339018,4.644288,-0.071882,-0.020256,0.982897,-0.028283
9471271527,-0.400087,4.583684,-0.011057,-0.021719,0.985077,-0.024652
9471274029,-0.338978,4.705264,-0.072009,-0.017332,0.987221,-0.025340
9471276532,-0.277826,4.765708,-0.193539,-0.016578,0.987948,-0.028240
9471279034,-0.216674,4.826152,-0.315070,-0.017308,0.986506,-0.029704
9471281536,-0.155892,4.704142,-0.254104,-0.015877,0.987209,-0.025329
9471284039,-0.277906,4.643755,-0.193286,-0.019522,0.988683,-0.022443
9471286541,-0.339098,4.522334,-0.071629,-0.019463,0.992323,-0.026793
9471289043,-0.461113,4.461946,-0.010811,-0.013634,0.992279,-0.028205
9471291545,-0.461153,4.400970,-0.010685,-0.012177,0.993715,-0.026735
9471294047,-0.400207,4.400754,-0.010678,-0.015798,0.995198,-0.027484
9471296550,-0.339221,4.461516,-0.010797,-0.014352,0.995907,-0.025291
9471299052,-0.278315,4.400324,-0.010664,-0.012846,1.000979,-0.026718
9471301554,-0.217367,4.277997,-0.071110,-0.012786,1.001725,-0.034711
9471304057,-0.217364,4.155884,-0.131563,-0.014279,0.998828,-0.032551
9471306559,-0.278270,4.217076,-0.131696,-0.012851,1.000978,-0.025991
9471309061,-0.339176,4.278268,-0.131829,-0.008430,1.006752,-0.027394
9471311564,-0.400164,4.339619,-0.071257,-0.009878,1.003872,-0.031775
9471314066,-0.461067,4.278699,-0.131843,-0.010630,1.000250,-0.032519
9471316568,-0.400204,4.278642,-0.071131,-0.008422,1.000966,-0.035409
9471319070,-0.217367,4.277997,-0.071110,-0.006969,1.003848,-0.031754
9471321573,-0.034529,4.277351,-0.071089,-0.006255,1.004561,-0.028839
9471324075,0.026337,4.155182,-0.070829,-0.005526,1.001661,-0.032477
9471326577,0.087122,3.911060,-0.070317,-0.004098,1.000192,-0.030291
9471329080,0.087085,3.727971,-0.130643,-0.003375,1.000908,-0.028829
9471331582,0.148071,3.788733,-0.130762,-0.001204,0.999439,-0.028818
9471334084,0.087325,4.093832,-0.131401,0.002408,0.995058,-0.030259
9471336586,0.026583,4.276818,-0.192493,0.004583,0.992866,-0.031704
9471339089,-0.034323,4.338010,-0.192626,0.006791,0.993582,-0.034593
9471341591,-0.095352,4.338384,-0.131928,0.006790,0.992134,-0.036052
9471344093,-0.034486,4.216216,-0.131668,0.007459,0.989212,-0.030967
9471346596,-0.034647,3.972309,-0.131162,0.006703,0.986313,-0.030255
9471349098,-0.095670,3.728458,-0.191369,0.008877,0.982673,-0.033158
9471351600,-0.034887,3.606449,-0.130404,0.010299,0.980478,-0.030974
9471354102,0.025936,3.545416,-0.069565,0.011047,0.981204,-0.033147
