Timestamp (us),Gyroscope X (deg/s),Gyroscope Y (deg/s),Gyroscope Z (deg/s),Accelerometer X (g),Accelerometer Y (g),Accelerometer Z (g)
5202385095,0.933796,-0.166210,-0.269867,0.954899,-0.116401,-0.275072
5202405147,1.055388,-0.247432,-0.034682,0.953677,-0.111262,-0.271232
5202425199,0.758176,-0.166012,-0.057595,0.955044,-0.112973,-0.270384
5202445252,0.863125,0.131082,-0.005603,0.954141,-0.115611,-0.270451
5202465302,0.444441,0.210939,-0.149732,0.951051,-0.112846,-0.273595
5202485354,0.163597,0.109692,-0.262969,0.955062,-0.111842,-0.273942
5202505406,-0.004158,0.094326,-0.118857,0.954537,-0.117038,-0.275067
5202525458,0.322714,0.112511,0.017387,0.953704,-0.115387,-0.273820
5202545510,0.146066,0.385182,0.099878,0.953871,-0.113997,-0.271926
5202565562,-0.058940,0.270112,0.123083,0.956215,-0.112665,-0.268108
5202585615,-0.028482,0.232786,0.191411,0.954679,-0.115498,-0.268994
5202605666,0.070591,0.248136,0.115534,0.955785,-0.116518,-0.270611
5202625718,-0.341738,0.443591,0.236269,0.954866,-0.116321,-0.269438
5202645770,-0.387364,0.465683,0.175577,0.954243,-0.116721,-0.271892
5202665822,-0.364533,0.540835,0.031310,0.952792,-0.119086,-0.271875
5202685875,-0.106586,0.627086,0.197659,0.952414,-0.118153,-0.270070
5202705926,-0.181199,0.367956,0.115210,0.954600,-0.115347,-0.271178
5202725979,0.207789,0.203580,0.130798,0.954502,-0.116595,-0.269437
5202746030,-0.019958,0.065635,0.161669,0.954130,-0.113420,-0.269749
5202766083,-0.164565,0.139644,0.009885,0.954867,-0.119031,-0.268316
5202786135,0.443365,0.536024,-0.363063,0.951431,-0.120098,-0.272509
5202806187,-0.051478,0.405512,-0.082018,0.952497,-0.111820,-0.271961
5202826239,-0.066175,0.284143,-0.051279,0.958689,-0.117831,-0.267576
5202846291,0.208146,0.120219,0.153822,0.956978,-0.118790,-0.270849
5202866343,-0.437960,-0.081145,0.192637,0.952913,-0.107392,-0.267374
5202886395,-0.498902,-0.126419,0.298919,0.947580,-0.112928,-0.272437
5202906448,0.154579,0.263051,-0.013389,0.951144,-0.120337,-0.270145
5202926501,0.300367,0.186165,-0.316333,0.954147,-0.120228,-0.269307
5202946552,0.439245,-0.214944,-0.261947,0.955421,-0.117511,-0.270147
5202966604,0.536597,-0.135411,0.207640,0.956337,-0.117159,-0.271054
5202986656,1.214017,-0.123440,0.199783,0.954871,-0.118319,-0.269324
5203006709,1.227849,0.007534,0.487327,0.951008,-0.117342,-0.263910
5203026761,1.341912,0.038549,0.472022,0.951817,-0.110908,-0.265251
5203046813,1.372990,-0.052779,0.404116,0.954643,-0.109457,-0.265884
5203066868,0.824130,-0.016870,0.646711,0.958769,-0.113837,-0.267803
5203086917,0.496150,0.035137,0.805804,0.955882,-0.117434,-0.271145
5203106969,0.038254,0.252540,0.843111,0.953040,-0.114964,-0.269558
5203127021,-0.290568,0.426583,1.092731,0.953046,-0.115071,-0.270647
5203147073,-0.397531,0.494352,1.115272,0.952419,-0.119519,-0.270327
5203167125,-0.237225,0.531772,0.864982,0.953350,-0.122540,-0.272012
5203187175,-0.229463,0.591449,0.690457,0.953692,-0.116623,-0.271261
5203207227,-0.702118,0.672636,0.811606,0.951928,-0.110775,-0.268705
5203227279,-0.852700,0.367653,0.759657,0.953793,-0.120435,-0.271034
5203247331,-0.449390,0.415550,0.713877,0.955254,-0.123143,-0.269993
5203267384,-0.435036,0.597745,0.698087,0.958235,-0.121357,-0.266266
5203287436,-0.640921,0.807281,0.432173,0.957317,-0.120530,-0.265464
5203307487,-1.013579,0.796581,0.326235,0.953768,-0.121997,-0.265836
5203327539,-0.967245,0.772763,0.114090,0.954322,-0.124809,-0.265617
5203347592,-0.775006,0.371810,0.138141,0.952321,-0.124554,-0.266543
5203367644,-0.227340,0.571281,-0.097686,0.952578,-0.123611,-0.264189
5203387696,-0.189380,0.474280,0.130004,0.952216,-0.114508,-0.269296
5203407748,-0.801499,0.598042,1.122635,0.952866,-0.094648,-0.265613
5203427800,-2.399461,1.107434,2.887336,0.952167,-0.084308,-0.260376
5203447852,-4.815677,1.598268,6.160601,0.979268,-0.070018,-0.256350
5203467904,-9.172229,2.502314,8.356909,0.978224,-0.079445,-0.229074
5203487956,-11.792006,4.261908,8.397237,0.938389,-0.125049,-0.222557
5203508008,-11.368084,4.454268,5.971159,0.915843,-0.182023,-0.251504
5203528060,-9.854482,3.972281,1.432494,0.958057,-0.213182,-0.283290
5203548112,-6.875124,2.892987,-0.641464,1.038373,-0.169793,-0.304854
5203568164,-4.395276,6.309788,-0.722317,1.051441,-0.109059,-0.278380
5203588216,-4.346778,8.410136,0.020746,0.969084,-0.100777,-0.245524
5203608268,-0.743702,8.336963,-0.867002,0.951634,-0.120391,-0.229243
5203628320,1.388224,9.905200,-1.183890,0.991585,-0.121978,-0.232031
5203648374,4.449898,13.726189,-0.379601,0.985174,-0.110683,-0.248203
5203668426,7.394494,14.828047,-2.051799,0.944799,-0.132668,-0.254597
5203688478,12.394854,14.828384,-4.759239,0.954563,-0.171412,-0.252443
5203708530,16.317204,15.425737,-6.786252,0.991724,-0.202951,-0.246271
5203728582,25.759708,17.558458,-9.426805,1.014549,-0.251921,-0.243270
5203748634,32.903278,19.436680,-11.519992,0.995679,-0.266117,-0.267506
5203768686,40.321507,17.494818,-15.320536,0.995109,-0.200823,-0.327159
5203788738,41.495338,20.332848,-15.535358,0.962512,-0.101173,-0.368169
5203808790,35.558365,24.084072,-14.060730,0.956333,-0.051242,-0.318895
5203828842,30.041391,24.546839,-15.606500,0.964633,-0.049931,-0.304673
5203848894,23.535326,24.297178,-15.944413,0.937381,-0.067147,-0.297215
5203868946,25.119690,18.902096,-14.766798,0.889205,-0.080867,-0.283401
5203888998,24.695618,15.335812,-11.646989,0.890912,-0.087917,-0.306665
5203909050,20.192892,11.811008,-6.161259,0.891350,-0.017981,-0.276389
5203929121,12.719245,7.170198,2.383677,0.936542,0.048877,-0.258665
5203949153,0.264975,6.402408,10.272799,0.966891,0.103522,-0.222183
5203969205,-10.500120,4.766503,11.214417,0.963341,0.154217,-0.170718
5203989257,-25.461964,5.378140,11.755654,0.968432,0.184034,-0.183115
5204009309,-39.076336,8.018949,11.251110,1.024035,0.146165,-0.209639
5204029361,-42.646309,13.173544,10.112913,1.087269,0.100710,-0.227659
5204049413,-46.719734,18.184666,15.599395,1.078938,0.094322,-0.202833
5204069465,-60.947151,21.202230,24.855467,1.020835,0.081316,-0.175647
5204089517,-78.140526,22.874559,29.751730,0.955099,0.133990,-0.154274
5204109569,-100.246445,23.019035,29.834764,0.939085,0.245091,-0.152947
5204129621,-126.795776,26.031948,29.515360,0.979836,0.308513,-0.184475
5204149673,-152.411530,31.749287,30.906736,1.005178,0.312475,-0.248415
5204169725,-177.207016,37.434959,36.034359,0.981506,0.280296,-0.284200
5204189778,-198.799896,39.715885,39.679539,0.990192,0.209250,-0.361932
5204209829,-222.682571,39.575222,44.516182,0.975803,0.188469,-0.447406
5204229882,-244.290741,35.610012,48.470890,0.958833,0.270148,-0.470375
5204269986,-283.546906,31.430408,63.149162,0.841212,0.133748,-0.850073
5204290038,-293.488159,27.251408,103.956993,0.804127,0.174986,-0.640688
5204310090,-321.993561,37.604572,80.368317,0.796833,0.073921,-0.916586
5204330142,-317.069458,40.342247,66.449776,0.745923,-0.104247,-0.883075
5204350194,-314.016113,38.585617,78.399193,0.851418,-0.199830,-0.931480
5204370246,-313.041687,42.575569,103.206192,1.014301,-0.169557,-1.019288
5204390299,-317.031616,57.784050,136.396484,1.054117,-0.179253,-1.119412
5204410351,-322.331146,78.180939,109.210548,0.935021,-0.347939,-1.060320
5204430404,-318.243439,84.343277,61.569298,0.861453,-0.561568,-0.923042
5204450455,-304.516113,79.438629,52.145592,0.826815,-0.515384,-0.807035
5204470508,-298.175110,73.101654,49.535305,0.734405,-0.321102,-0.816119
5204490560,-299.946472,66.088684,50.446835,0.630344,-0.214001,-0.877990
5204510612,-299.932709,65.151772,43.954887,0.721640,-0.248669,-0.882939
5204530664,-295.251556,69.085526,39.324104,0.834843,-0.342565,-0.909770
5204550724,-285.316864,70.489212,36.140205,0.840034,-0.348173,-0.921574
5204570768,-282.366760,69.204369,34.006336,0.876417,-0.268233,-0.947325
5204590820,-287.283844,73.385994,37.654285,0.885684,-0.208217,-0.894060
5204610872,-288.165222,77.264183,38.376389,0.940910,-0.187892,-0.885269
5204630924,-295.380524,79.716484,36.263515,0.946433,-0.184361,-0.880636
5204650976,-297.971832,77.885826,35.179359,0.847616,-0.132174,-0.907570
5204671027,-304.123260,81.605225,34.251644,0.818802,-0.142443,-0.839401
5204691079,-298.608612,82.617935,33.829380,0.842356,-0.180221,-0.841796
5204711131,-288.776886,84.525787,31.242517,0.934382,-0.245123,-0.800676
5204731183,-279.559448,85.696564,29.181362,0.936892,-0.231507,-0.738014
5204751235,-271.120941,81.559769,26.577919,0.876115,-0.180070,-0.753310
5204771287,-267.363098,78.857025,23.887808,0.822779,-0.118273,-0.705689
5204791339,-265.254456,74.026505,21.372341,0.874724,-0.061483,-0.668624
5204811391,-269.178680,71.791702,21.381418,0.972218,-0.048900,-0.712521
5204831443,-273.861450,72.335037,20.903709,0.931620,0.005408,-0.656816
5204851495,-283.116577,70.499359,21.110329,0.944538,-0.016989,-0.687639
5204871547,-286.462311,71.597733,20.584770,0.940804,-0.064498,-0.680027
5204891599,-283.597198,69.059486,18.417349,0.989980,-0.125135,-0.702970
5204911651,-280.259827,68.885315,17.439096,0.982012,-0.140181,-0.673587
5204931704,-271.897583,68.205208,14.103769,0.944861,-0.090595,-0.643797
5204951756,-274.432770,69.059692,12.593502,0.940243,-0.097136,-0.630303
5204971808,-272.487915,69.235474,10.773265,0.973621,-0.072036,-0.582642
5204991860,-274.859344,68.409264,11.027048,1.030957,-0.100299,-0.598359
5205011912,-272.760559,69.020309,10.645259,1.016782,-0.062835,-0.593985
5205031964,-272.592621,67.003342,8.461831,0.976161,-0.039291,-0.612450
5205052016,-273.866150,68.485649,6.486641,0.937138,-0.069688,-0.565296
5205072068,-268.493896,66.339142,2.452573,0.997503,-0.131930,-0.536610
5205092120,-269.722107,65.524231,2.114758,1.051791,-0.157207,-0.578285
5205112174,-267.294373,67.291985,1.827395,1.012572,-0.113427,-0.534809
5205132226,-271.918732,68.186584,1.613720,0.978287,-0.104736,-0.538061
5205152277,-270.537567,71.599030,-0.414525,0.955254,-0.109269,-0.463555
5205172329,-270.268158,69.261513,-2.968252,1.042773,-0.172797,-0.478468
5205192381,-270.226318,69.222534,-4.370239,1.071624,-0.185248,-0.464032
5205212433,-273.481140,67.866684,-2.924426,1.026696,-0.135508,-0.460564
5205232485,-281.161560,69.028015,-2.220895,0.914737,-0.139185,-0.395151
5205252537,-288.187164,66.099312,-5.482453,0.930268,-0.201248,-0.385325
5205272589,-285.344513,62.866425,-9.420945,1.037594,-0.347112,-0.487757
5205292642,-266.157501,62.442059,-13.518839,1.031063,-0.453800,-0.424494
5205312694,-246.128311,60.545059,-13.670894,1.020951,-0.483787,-0.301888
5205332746,-229.456299,59.736759,-9.876888,0.974343,-0.492971,-0.231313
5205352798,-221.004028,53.807312,-5.471200,0.908115,-0.453692,-0.212607
5205372849,-214.892181,47.987972,-2.838547,0.932564,-0.388696,-0.201280
5205392902,-210.464081,45.400757,0.026085,0.931116,-0.293067,-0.095426
5205412953,-202.913498,45.686291,8.533627,1.006195,-0.315472,-0.015019
5205433004,-198.213074,50.794533,11.909751,1.006214,-0.372523,-0.020902
5205453057,-194.644257,55.147114,9.824448,0.905561,-0.465922,-0.081973
5205473109,-185.988098,52.695526,2.182697,0.763646,-0.602943,-0.111840
5205493161,-165.335022,46.675793,-4.662748,0.820186,-0.669390,-0.097219
5205513213,-140.952591,43.117519,1.676984,0.962279,-0.652992,-0.084132
5205533265,-116.694435,40.797974,9.543441,0.941030,-0.609563,-0.151131
5205553317,-90.796486,38.012920,8.157021,0.892972,-0.573368,-0.166886
5205573369,-68.826530,33.460052,1.412165,0.948913,-0.562337,-0.166526
5205593421,-45.074036,30.129944,-2.305945,0.946035,-0.590584,-0.159040
5205613473,-16.504499,28.360014,-5.591538,0.926015,-0.629921,-0.130098
5205633525,14.905268,27.295597,-4.704552,0.936168,-0.625739,-0.137891
5205653577,45.619377,27.047447,-1.281183,0.913168,-0.577086,-0.080087
5205673629,69.521339,25.884148,3.724147,0.909611,-0.573956,-0.019165
5205693681,93.924255,27.727291,3.443988,0.921340,-0.606216,0.048910
5205713733,115.937813,26.831175,2.249471,0.997708,-0.576119,0.038742
5205733785,128.757355,27.031286,1.433345,1.102819,-0.347818,-0.074761
5205753837,124.894257,31.979902,-0.757515,0.930180,-0.011583,0.001374
5205773890,106.935425,31.907112,0.294920,0.915870,0.086305,0.076392
5205793942,87.804718,35.132328,6.649250,0.965888,-0.076675,0.069817
5205813994,81.272598,37.286194,5.855904,1.041718,-0.196063,0.070645
5205834046,77.019409,39.556095,6.645362,1.058467,-0.163668,0.058847
5205854098,72.981438,43.269283,9.741353,1.013392,-0.134917,0.113362
5205874151,67.985222,48.845078,11.845998,1.013338,-0.225403,0.152126
5205894203,63.782612,53.975170,11.087054,1.010647,-0.232576,0.210356
5205914255,57.858898,57.585205,10.637108,0.974176,-0.184300,0.218263
5205954360,53.502796,60.602913,8.544022,0.939428,-0.206573,0.216275
5205974412,58.273968,60.543812,6.276447,0.961876,-0.220430,0.235044
5205994464,57.444180,60.407593,3.609414,0.941881,-0.138162,0.292298
5206014516,50.444466,60.421631,8.250137,0.968370,-0.043254,0.298386
5206034574,40.063942,61.357891,8.568863,0.939876,0.004607,0.314171
5206054620,28.333599,61.193096,9.043433,0.918667,-0.002875,0.328012
5206074672,20.001488,59.831200,7.588305,0.935473,-0.021911,0.347619
5206094724,13.973767,59.591484,4.733975,0.955203,-0.012010,0.382726
5206114776,6.870325,61.349148,1.911033,0.961980,-0.038914,0.406534
5206134828,-0.602259,63.942127,1.897136,0.915633,-0.076461,0.431178
5206154889,-6.611753,64.152313,2.929254,0.897579,-0.128366,0.457735
5206174930,-7.507360,63.003899,7.117109,0.867730,-0.172792,0.424138
5206194983,-4.014389,58.623375,7.093086,0.796070,-0.213134,0.460632
5206215035,0.662741,52.534073,5.748219,0.780541,-0.230016,0.489800
5206235087,4.491913,46.240646,3.017402,0.807015,-0.221950,0.541790
5206255139,6.977288,40.960941,-0.087805,0.854328,-0.239175,0.581859
5206275191,3.713273,37.340862,-2.522192,0.823408,-0.228095,0.656582
5206295243,2.660344,30.295490,-2.671862,0.792065,-0.271974,0.706491
5206315295,4.359961,18.393831,-4.079026,0.701503,-0.259172,0.783771
5206335347,4.088742,-3.896084,-6.283391,0.649193,-0.199259,0.781797
5206355399,-0.167373,-35.676338,-9.272184,0.583144,-0.110612,0.745222
5206375451,-14.331737,-67.395508,-10.370560,0.583536,-0.095536,0.655347
5206395503,-23.745131,-91.288292,-15.279466,0.744551,-0.234380,0.597385
5206415555,-14.811678,-102.710861,-15.637340,0.879757,-0.325432,0.486064
5206435607,12.654687,-93.305740,-14.193889,1.304530,-0.482244,0.216419
5206455659,21.206154,-30.539522,1.767909,1.270846,-0.282251,0.248493
5206475711,13.756162,-16.537306,6.337853,0.532717,-0.060773,0.769281
5206495763,-4.781487,-52.660858,-2.406139,0.398770,0.037936,0.786365
5206515815,-9.880315,-90.427788,-12.399703,0.621601,-0.072270,0.573279
5206535867,-6.383425,-108.667839,-4.774275,0.654893,-0.173114,0.542963
5206555919,-4.060920,-119.924904,-6.934196,0.428274,-0.200817,0.584938
5206575971,-10.006500,-135.291840,-9.387796,0.458116,-0.076898,0.471110
5206596023,-15.504627,-146.719086,-9.967971,0.806681,-0.048994,0.341385
5206616077,-19.352589,-146.733963,-14.332050,0.952352,-0.041499,0.277348
5206636129,-19.042051,-145.217590,-7.781587,0.920032,-0.110148,0.304179
5206656181,-12.939208,-144.558914,-2.389776,0.916563,-0.231071,0.349906
5206676233,-14.017679,-143.401917,-5.584126,0.927701,-0.176003,0.304087
5206696285,-21.917387,-142.372681,-11.117545,0.924650,-0.035301,0.225549
5206716337,-31.894882,-136.885086,-10.602434,0.864321,0.054200,0.145924
5206736389,-45.538788,-127.644211,-15.411821,0.827557,0.043594,0.000008
5206756441,-39.378212,-119.298950,-11.880626,1.008265,-0.097992,0.020923
5206776494,-35.979755,-104.046082,1.541013,1.153410,-0.227121,0.099153
5206796545,-31.239592,-84.316032,2.502105,1.122848,-0.250153,0.145372
5206816597,-22.663004,-68.100533,4.360702,1.179172,-0.276490,0.099180
5206836649,-14.080302,-50.059044,3.249633,1.358585,-0.270117,0.142640
5206856702,1.711420,-30.548138,10.930145,1.473526,-0.323863,0.172523
5206876754,13.253396,-2.503173,14.762945,1.350409,-0.297925,0.213793
5206896806,21.027555,23.354593,7.994060,1.159733,-0.168838,0.235486
5206916856,22.938084,36.936333,-9.515327,1.111655,-0.065121,0.329465
5206936908,19.511429,41.330807,-20.526337,1.215298,-0.202242,0.337694
5206956960,12.865294,52.691174,-15.576201,1.210809,-0.390125,0.217506
5206977013,8.520386,59.264244,6.639330,0.931741,-0.272120,0.284961
5206997065,10.225368,51.266006,28.167797,0.817524,-0.125048,0.364790
5207017117,16.390200,42.583355,30.552612,0.897673,-0.200097,0.384222
5207037169,19.238138,40.964947,21.416969,0.850751,-0.244744,0.401674
5207057221,21.653702,35.448326,13.348384,0.764314,-0.223584,0.439897
5207077273,25.944111,29.166101,-0.061382,0.815445,-0.147093,0.450462
5207097325,23.167063,25.797445,-8.840393,0.922219,-0.074206,0.441832
5207117377,19.625645,23.132286,-8.852707,0.923626,-0.170443,0.420962
5207137429,19.401957,21.413219,-4.359961,0.899208,-0.254058,0.429209
5207157481,18.500360,16.747932,-2.858094,0.910903,-0.183120,0.451556
5207177533,14.239724,10.626786,-3.600985,0.947818,-0.103554,0.444171
5207197585,8.133981,5.757057,-2.634696,0.925944,-0.112947,0.432310
5207217637,1.560741,0.434597,0.447844,0.852315,-0.135959,0.422693
5207237689,-1.856276,-6.330347,1.465195,0.843907,-0.111980,0.429899
5207257741,-6.318577,-12.222235,-1.226207,0.893946,-0.094215,0.438319
5207277793,-10.823830,-17.285042,-3.624871,0.888076,-0.110369,0.421378
5207297845,-14.890162,-24.112135,-4.554871,0.834309,-0.129740,0.396410
5207317897,-18.122084,-31.594183,-3.080377,0.853652,-0.138306,0.398009
5207337949,-19.367252,-38.175034,-0.412208,0.902974,-0.158270,0.392137
5207358003,-21.017187,-44.417770,2.118516,0.912239,-0.145667,0.376061
5207378055,-23.012600,-52.320038,3.093814,0.885103,-0.124189,0.344447
5207398107,-22.761219,-60.435898,3.985693,0.858131,-0.114162,0.306241
5207418159,-22.188759,-66.494698,3.301527,0.859974,-0.135473,0.251243
5207438211,-20.752159,-71.249222,1.490879,0.883472,-0.168722,0.209624
5207458263,-17.528736,-74.701447,0.880172,0.927780,-0.208443,0.182405
5207478315,-13.757104,-75.653610,1.276238,0.996879,-0.222884,0.159341
5207498367,-13.227462,-71.814568,3.945774,1.035172,-0.152931,0.108271
5207518419,-15.440128,-64.711487,6.983972,1.080477,-0.082493,0.058245
5207538471,-17.251778,-53.959248,6.826293,1.114835,-0.096685,0.051655
5207558523,-23.812651,-43.126678,6.275894,1.188515,-0.112706,0.025370
5207578575,-29.519222,-32.491802,8.386091,1.264572,-0.119754,-0.021996
5207598628,-34.797791,-20.808836,13.713584,1.366568,-0.145718,-0.068232
5207618680,-32.193165,-7.009923,18.955235,1.327397,-0.317184,-0.018902
5207638732,-21.942505,9.675177,20.114365,1.155181,-0.367499,0.053803
5207658782,-12.544353,25.267656,17.457762,1.040367,-0.352916,0.068361
5207678834,-7.466535,37.337559,14.466178,1.056333,-0.336273,0.073462
5207698886,-1.661790,44.967636,9.738900,1.127224,-0.222474,0.085008
5207718938,-1.956248,50.253944,4.445833,1.105048,-0.191179,-0.004578
5207738991,-6.317953,54.567665,2.014809,0.952192,-0.216686,-0.043174
5207759043,-9.191390,53.988319,4.602235,0.927715,-0.223358,-0.016642
5207779095,-5.298669,49.109417,6.982319,0.979094,-0.216442,-0.106878
5207799147,-7.226637,56.289356,8.678676,0.977953,-0.195786,-0.046960
5207819199,-6.536703,58.272812,5.890124,0.945574,-0.205073,-0.024179
5207839251,1.261997,53.934303,0.869914,1.018263,-0.219756,0.024584
5207859303,10.359088,51.437981,-3.505307,1.098924,-0.314066,0.043970
5207879355,20.242899,54.098938,-7.102784,1.050911,-0.418691,0.028754
5207899407,28.102024,55.471764,-8.224373,0.860454,-0.385126,0.060915
5207919459,29.612537,51.679073,-8.082990,0.806555,-0.216297,0.057761
5207939511,31.899975,51.185539,-5.664403,0.902787,-0.025828,0.109224
5207959563,24.573999,54.137840,1.747788,0.987976,0.043508,0.160830
5207979615,10.896289,57.834087,0.140681,0.997540,0.054364,0.188038
5207999667,-4.567188,60.173294,-8.903662,0.982200,-0.008880,0.177028
5208019719,-7.063191,57.876045,-10.638031,0.905490,-0.093857,0.148657
5208039771,-3.041954,57.064693,-15.828230,0.907578,-0.248748,0.149646
5208059823,11.201258,56.898788,-21.956444,0.929236,-0.411448,0.128780
5208079876,27.829899,57.704361,-22.207567,0.984527,-0.462356,0.131034
5208099929,34.664738,61.600422,-20.639385,1.061122,-0.279153,0.083469
5208119981,28.596724,61.608795,-8.276010,0.895158,-0.167274,0.034919
5208140033,16.561554,58.248241,-1.446732,1.119399,-0.110119,0.026304
5208160085,11.295189,62.323730,10.962979,1.130770,-0.052191,0.079336
5208180137,11.341874,66.955376,13.417744,1.032919,-0.178039,0.131903
5208200190,17.799061,75.835938,10.072877,0.879703,-0.357997,0.138353
5208220241,30.522293,85.222313,2.214595,0.838556,-0.336140,0.148351
5208240294,35.105904,88.049652,-0.805599,0.831400,-0.198892,0.134170
5208260345,32.765774,81.192863,-1.016100,0.850599,-0.047970,0.189453
5208280398,19.871424,73.404480,-0.772537,0.940934,0.051852,0.250103
5208300449,7.446796,63.825062,-2.114547,0.976476,-0.032769,0.683036
5208320502,-9.768514,21.089911,-0.127154,1.402915,-0.092956,0.205522
5208340553,-17.763342,-1.073369,17.216881,0.783219,-0.052946,0.022441
5208360606,7.744401,-9.731491,25.074427,0.475128,-0.307068,0.172430
5208380656,33.793755,-21.525875,11.888245,0.571445,-0.465849,0.383622
5208400708,25.942501,-41.310665,-1.675375,1.358106,-0.256375,0.201825
5208420760,4.520898,-23.648752,20.962666,1.223108,-0.086088,0.051755
5208440813,6.980444,-10.981702,22.653736,0.675898,-0.120662,0.183966
5208460865,22.983284,-14.722962,5.191527,0.785251,-0.323637,0.230806
5208480917,39.100491,-28.325031,0.912749,1.673220,-0.445480,0.055016
5208500969,31.642809,-16.193882,12.120731,1.098039,-0.171587,0.077214
5208521020,28.274349,-32.611748,4.106894,0.964604,-0.068036,0.051349
5208541073,26.046974,-25.936811,-4.085443,0.815067,-0.078994,0.185561
5208561125,25.347509,-23.271072,11.162058,0.969846,-0.224475,0.230512
5208581177,22.464037,-17.725908,14.637858,0.974732,-0.263867,0.194195
5208601229,23.188938,-18.628361,0.877328,0.906882,-0.207110,0.138799
5208621281,26.319410,-21.319508,-6.519136,1.001542,-0.125408,0.170516
5208641333,23.446709,-15.200965,-2.423840,1.116232,-0.102188,0.220319
5208661385,15.840120,-9.185830,-1.373271,1.052147,-0.047279,0.238861
5208681437,5.251266,-5.259387,-5.778889,0.992908,-0.050248,0.237293
5208701489,-1.641960,-0.909943,-9.543046,0.977904,-0.057022,0.280708
5208721541,-4.329690,2.456264,-9.879599,0.961329,-0.070013,0.315368
5208741593,-3.993892,3.854731,-9.975484,0.908767,-0.088356,0.317753
5208761645,-1.648889,3.804992,-13.053190,0.900291,-0.090006,0.318075
5208781697,0.405585,5.548800,-19.123085,0.920003,-0.073681,0.306574
5208801749,-1.050386,9.860123,-23.730280,0.982421,-0.058034,0.272754
5208821803,-3.085972,15.291040,-21.186592,1.026125,-0.030703,0.284017
5208841855,-3.904693,19.146446,-18.137691,0.996310,-0.020963,0.264335
5208861907,-7.595638,19.810507,-19.753006,1.004072,-0.068034,0.192318
5208881959,-9.617010,18.461807,-18.451649,1.116954,-0.093535,0.170601
5208902011,-14.997419,22.334431,-17.561214,1.051347,0.070327,0.254398
5208922063,-26.825056,27.777584,-19.750990,0.925267,0.174741,0.326458
5208942115,-44.937588,30.748465,-27.015526,0.938622,0.226269,0.401936
5208962167,-73.697769,32.117317,-31.709124,1.064586,0.288596,0.344123
5208982219,-102.847565,34.030243,-28.022137,1.051016,0.323228,0.308999
5209002272,-129.147949,34.969410,-26.394268,0.947451,0.321549,0.341093
5209022324,-161.765366,36.818001,-26.881849,0.836871,0.260055,0.340112
5209042376,-193.700470,33.969028,-28.998117,0.807834,0.198754,0.269817
5209062428,-216.890610,25.101936,-33.809975,0.859622,0.007358,0.162247
5209082480,-224.612473,12.740850,-38.092258,0.948004,-0.268541,0.106083
5209102531,-220.932175,1.252728,-34.992062,0.940833,-0.406443,0.076455
5209122582,-216.451340,-2.982285,-34.637985,0.979355,-0.450364,0.074237
5209142635,-213.559433,0.903548,-38.995132,1.025743,-0.459299,0.096845
5209162687,-213.069061,12.862285,-36.831032,1.079218,-0.362430,0.070565
5209182739,-214.972198,27.191093,-37.955952,1.039006,-0.423409,0.024634
5209202791,-213.360535,32.591301,-53.587780,0.968978,-0.590275,0.063604
5209222843,-210.401031,30.927505,-61.616776,0.997992,-0.528095,0.106261
5209242906,-208.583420,30.541851,-57.265762,0.965769,-0.377157,0.100286
5209262946,-205.870911,32.592297,-56.364311,0.874486,-0.421693,0.049350
5209282999,-203.282623,34.689301,-57.569916,0.800700,-0.528012,0.014794
5209303051,-195.834259,33.100513,-56.005779,0.862600,-0.611171,0.009834
5209323103,-182.397064,30.238737,-54.249889,1.005779,-0.661768,0.026703
5209343155,-161.681778,29.981695,-49.102558,1.051897,-0.664387,0.014336
5209363207,-139.582443,32.593704,-43.086445,0.971753,-0.617197,0.054756
5209383259,-119.489990,35.066227,-37.842205,0.927056,-0.549195,0.102912
5209403311,-106.348404,35.341290,-36.748806,0.884910,-0.525855,0.095981
5209423363,-88.570587,33.867912,-38.409748,0.873880,-0.567689,0.101204
5209443415,-68.586693,31.879665,-38.538734,0.879223,-0.620304,0.086946
5209463467,-45.168201,32.657604,-35.783295,0.923971,-0.604268,0.127975
5209483519,-27.735832,34.488068,-30.876965,0.912863,-0.559863,0.134381
5209503571,-4.812038,36.766048,-28.103786,0.902492,-0.519867,0.188466
5209523623,8.923281,40.632786,-25.105495,0.894921,-0.492073,0.252982
5209543677,18.969599,43.655098,-18.578785,0.845030,-0.461564,0.304079
5209563729,25.129663,42.954678,-12.075783,0.929740,-0.427491,0.252845
5209583781,28.766855,42.996002,-5.718454,1.123615,-0.351131,0.142729
5209603833,26.608412,48.301243,-2.514923,0.900201,-0.167366,0.232084
5209623885,16.595945,46.762508,-1.392008,0.912130,-0.168531,0.250541
5209643937,9.729033,48.707809,-4.799259,0.940152,-0.261167,0.197735
5209663990,12.427082,49.905304,-5.501595,0.898807,-0.325917,0.238181
5209684042,15.647226,49.542568,1.016432,0.929917,-0.294020,0.233852
5209704094,18.847349,48.700371,7.369380,0.895836,-0.229598,0.245861
5209724146,16.681507,48.433830,9.470427,0.923027,-0.216668,0.281985
5209744198,14.519588,49.211193,10.976718,0.935947,-0.222133,0.304588
5209764250,12.433246,48.824417,11.994363,0.926266,-0.207046,0.300074
5209784302,10.527046,46.893021,11.077051,0.889361,-0.256826,0.306387
5209804354,12.073068,42.927143,6.618592,0.906441,-0.279470,0.327855
5209824406,16.358027,39.267220,2.089907,0.946048,-0.249505,0.352419
5209844456,14.621620,36.270256,-0.627582,0.928362,-0.200169,0.374443
5209864508,10.295989,32.981976,-2.320002,0.883654,-0.189053,0.421894
5209884561,5.533994,28.006052,-2.725610,0.829372,-0.199014,0.464522
5209904612,1.341799,20.993109,-1.707134,0.818102,-0.208516,0.494453
5209924664,-4.165434,13.273716,-2.989765,0.791374,-0.234116,0.525642
5209944716,-6.447492,1.351839,-7.070838,0.819320,-0.226710,0.575741
5209964768,-9.938111,-13.045387,-9.975799,0.849480,-0.189011,0.621779
5209984820,-16.124796,-35.817070,-13.813486,0.818942,-0.189110,0.574758
5210004873,-23.491180,-61.476074,-18.019760,0.781905,-0.201611,0.538377
5210024925,-27.106844,-83.045807,-20.528591,0.783786,-0.191977,0.461663
5210044977,-28.448044,-96.787956,-16.926237,0.822393,-0.272193,0.354168
5210065029,-3.639856,-88.704155,-21.176682,0.873787,-0.475751,0.273183
5210085081,19.905869,-54.331364,-14.739990,0.828148,-0.403760,0.231401
5210105133,24.857946,-39.676819,-18.255804,0.771043,-0.348134,0.318419
5210125185,12.168135,-50.884037,-25.806860,1.035761,-0.090102,0.411739
5210145237,0.787362,-70.507103,-25.795889,1.171906,0.107154,0.384883
5210165289,-10.743819,-81.572891,-19.425291,1.021720,-0.006332,0.401218
5210185341,-19.849236,-83.885422,-8.379171,0.731885,-0.173828,0.410644
5210205393,-22.501850,-90.994995,0.953216,0.435106,-0.276257,0.390186
5210225445,-20.253237,-102.726494,-4.115364,0.478406,-0.330027,0.339947
5210245497,-11.719399,-109.365402,-12.303487,0.719218,-0.304452,0.350628
5210265549,-1.056846,-110.668251,-12.060204,0.841372,-0.213396,0.384159
5210285603,-4.656762,-106.804947,-10.882360,0.847397,-0.033135,0.370573
5210305655,-27.882406,-101.836990,-8.018921,0.952589,0.176464,0.283643
5210325707,-47.374317,-94.188652,-8.925189,1.112449,0.118196,0.180207
5210345759,-46.971447,-85.902328,-15.934103,1.131167,-0.318381,0.144494
5210365811,-33.017994,-72.871979,-17.886208,1.163027,-0.585778,0.177352
5210385863,-24.140987,-54.039845,1.220554,1.243219,-0.399858,0.198945
5210405915,-24.117403,-31.543737,19.431053,1.261269,-0.081607,0.226835
5210425968,-28.310837,-14.446478,21.465397,1.176206,-0.087538,0.308460
5210446024,-29.247135,-0.846356,15.772538,1.137837,-0.266731,0.287087
5210466072,-20.350735,14.040328,11.276857,1.086581,-0.289321,0.239816
5210486124,-9.398001,21.266903,3.456953,1.001585,-0.209461,0.329446
5210506176,-3.508972,24.015209,-9.779860,1.118105,-0.277756,0.377323
5210526228,-4.979177,33.763840,-10.525359,1.098952,-0.349632,0.290224
5210546280,-3.318022,39.531895,4.255888,0.912755,-0.354997,0.408116
5210566331,5.541070,34.200054,15.086330,0.888557,-0.281493,0.424725
5210586383,8.570599,31.883820,16.631779,0.909121,-0.130846,0.402951
5210606435,6.912667,27.089649,10.562976,0.861695,-0.176461,0.429045
5210626487,8.001594,19.919933,6.555296,0.799842,-0.310439,0.441063
5210646539,10.338965,13.939010,3.164556,0.816548,-0.304102,0.449651
5210666591,14.000145,8.834249,1.293704,0.874475,-0.204633,0.471359
5210686643,15.528566,4.911554,-2.323635,0.909302,-0.173618,0.455524
5210706695,14.815607,2.253827,-4.080124,0.884501,-0.252859,0.464718
5210726747,14.938203,-2.542572,-3.957534,0.876992,-0.288327,0.457077
5210746799,16.414818,-7.672989,-2.833845,0.887474,-0.202426,0.445615
5210766851,13.895309,-12.788116,-4.755550,0.905122,-0.101358,0.432664
5210786903,7.284626,-16.713556,-7.596976,0.909529,-0.085634,0.419608
5210806955,0.945764,-20.725761,-6.444088,0.899067,-0.133332,0.408544
5210827007,-3.709548,-25.630209,-4.068501,0.871068,-0.132724,0.378982
5210847059,-7.682692,-31.835192,-3.962361,0.873573,-0.118929,0.364753
5210867111,-10.696489,-37.164673,-5.655785,0.903959,-0.148237,0.343587
5210907215,-14.623723,-45.818253,-3.843536,0.916500,-0.189539,0.293167
5210927268,-16.953335,-49.769127,-1.941946,0.928218,-0.163830,0.271958
5210947320,-19.984587,-52.386414,-2.113761,0.950465,-0.142264,0.245328
5210967371,-21.776283,-52.941936,-2.869115,0.971985,-0.150789,0.217496
5210987424,-23.090673,-52.187954,-2.333147,0.952361,-0.173266,0.186080
5211007477,-24.321667,-50.004196,-1.483819,0.980757,-0.142222,0.147751
5211027529,-22.739254,-46.820045,-1.411976,1.024793,-0.142303,0.116073
5211047581,-21.082775,-42.400539,-2.943577,1.099713,-0.240267,0.090290
5211067633,-14.574684,-36.239620,-3.035295,1.196792,-0.358223,0.073531
5211087686,-4.767785,-28.579861,-1.223437,1.223397,-0.399255,0.065469
5211107738,3.560376,-19.263800,1.121338,1.157546,-0.302899,0.053527
5211127790,10.524320,-9.165019,2.599892,1.059713,-0.231424,0.066638
5211147842,17.813423,0.420090,2.950838,1.050399,-0.243366,0.090795
5211167894,22.163374,11.780857,0.219638,1.109612,-0.255891,0.088996
5211187946,24.507509,24.814039,-1.288832,1.088496,-0.247447,0.079024
5211207998,24.531517,28.245634,-2.490561,1.022668,-0.227007,0.069869
5211228050,32.499760,27.352079,-3.164800,1.049798,-0.208982,0.036225
5211248102,36.697971,30.233658,-4.419148,1.076345,-0.228946,0.027465
5211268154,33.267475,36.290215,-2.339445,1.031827,-0.232401,0.034188
5211288206,25.843010,39.994579,0.462183,0.999106,-0.186170,0.025423
5211308257,19.358374,39.684570,3.754789,1.000476,-0.118099,-0.024524
5211328309,17.732302,33.559471,5.656046,0.938836,-0.119453,-0.052756
5211348361,17.014196,34.476044,4.880086,0.884050,-0.173557,0.035640
5211368413,15.279019,38.280762,3.276001,0.950422,-0.179349,0.084528
5211388465,11.527307,40.904652,6.693962,1.068249,-0.148892,0.093281
5211408517,11.120283,42.665260,10.598780,1.088809,-0.155599,0.104047
5211428569,12.203616,43.221241,8.565325,0.948600,-0.226717,0.108057
5211448622,16.977398,41.363804,2.847941,0.847713,-0.265168,0.090428
5211468673,25.952887,40.587139,-1.980322,0.859813,-0.290741,0.091900
5211488725,31.758617,39.452850,-4.866029,0.963850,-0.273737,0.095986
5211508777,32.642258,42.066341,-4.276607,1.034364,-0.215250,0.121711
5211528830,28.388903,42.979279,-0.784363,1.037315,-0.159055,0.150073
5211548882,21.121052,44.645603,1.311811,0.994602,-0.109130,0.210903
5211568934,14.995485,44.439709,3.891510,0.929773,-0.113435,0.199315
5211588986,10.075098,45.082912,3.845544,0.890544,-0.166657,0.168479
5211609038,10.586608,49.375298,3.800257,0.919519,-0.261529,0.156332
5211629090,16.123564,53.887672,-0.256814,0.935443,-0.337281,0.168137
5211649142,22.024620,55.188690,-3.499578,0.966237,-0.293552,0.165304
5211709298,26.170534,62.078911,-1.076769,1.118245,-0.204872,0.052750
5211729350,26.671976,70.186478,-1.658146,1.098259,-0.140372,0.055224
5211749404,23.346022,75.360161,-0.037755,0.919703,-0.085585,0.114853
5211769455,19.249605,80.402184,-6.412439,0.822020,-0.044845,0.164402
5211789508,18.488750,79.028351,-12.766184,0.770646,-0.093750,0.228132
5211809559,13.710639,57.975021,-26.023352,1.346810,-0.259299,0.419629
5211829612,-11.505926,31.030817,-15.765874,1.290854,-0.123292,0.006315
5211849664,-21.758789,8.872436,3.481254,0.624020,-0.015869,0.085866
5211869716,-5.644703,-5.412293,7.678103,0.524349,-0.170712,0.214553
5211889768,8.552604,-17.118149,6.303782,0.790590,-0.304466,0.274701
5211909820,5.272371,-23.544184,6.751495,1.150925,-0.060541,0.159918
5211929872,-7.629992,-22.686100,8.117269,1.014549,-0.042465,0.072038
5211969976,-14.235147,-33.002548,6.662076,1.193081,-0.025641,0.058386
5211990028,-27.823111,-28.855787,7.766651,1.168367,-0.131642,0.019448
5212010080,-24.447577,-27.121544,6.008754,0.949466,-0.291241,0.132349
5212030138,-8.906984,-29.420605,-0.241405,0.926705,-0.364117,0.148027
5212050183,7.875653,-29.581810,-2.262729,0.944780,-0.338385,0.146585
5212070235,9.507847,-27.416185,1.154926,0.988937,-0.139979,0.150873
5212090287,-0.341230,-20.631580,-3.435115,0.990917,0.005993,0.129021
5212110339,-6.809782,-10.493974,-11.910741,0.967632,-0.058963,0.152238
5212130391,-3.575053,-5.849197,-17.854624,1.010687,-0.153566,0.195173
5212150443,-7.048402,-1.059331,-20.340652,1.113080,-0.122444,0.208353
5212170495,-16.443495,6.634439,-19.704506,1.121064,-0.036925,0.234322
5212190547,-29.771332,12.361983,-22.190313,1.071817,-0.010274,0.192948
5212210599,-33.636196,17.697329,-24.450720,1.015036,-0.088367,0.198357
5212230651,-32.077919,19.444647,-21.077068,1.004549,-0.150208,0.183093
5212250704,-31.366055,20.297749,-15.380881,0.940373,-0.100492,0.219780
5212270755,-35.133392,17.073814,-12.291398,0.913632,-0.004581,0.176855
5212290807,-42.008934,15.133389,-10.705880,0.962098,0.037648,0.161623
5212310860,-54.303699,12.680486,-5.334800,1.020965,0.035182,0.151618
5212330911,-66.062782,8.521788,2.247447,1.052484,0.103309,0.184044
5212350964,-81.166153,10.676958,4.511417,0.966772,0.182644,0.256043
5212371016,-97.138031,13.627475,-3.382852,0.948317,0.122086,0.261885
5212391068,-113.618790,16.335955,-14.201587,1.011547,0.028078,0.222159
5212411120,-132.162750,18.949194,-18.759052,1.096527,-0.005357,0.189885
5212431172,-148.110352,23.695492,-18.845612,1.013772,0.040055,0.163234
5212451224,-168.928421,23.263824,-21.155994,0.892750,0.041617,0.170356
5212471276,-182.244705,17.932920,-24.422232,0.912395,-0.011279,0.095764
5212491329,-200.842682,13.184055,-26.233463,0.944497,-0.095101,0.042431
5212511382,-211.734756,13.273399,-23.660692,0.976459,-0.180120,0.013468
5212531434,-212.878479,16.483658,-20.253242,0.985419,-0.250379,-0.002560
5212551486,-213.017807,21.924932,-24.015949,1.097406,-0.337695,-0.058467
5212571538,-215.558487,35.255222,-23.916994,1.136567,-0.377275,-0.094085
5212591590,-214.127258,45.773216,-29.637955,1.141737,-0.414779,-0.055170
5212611642,-208.662872,51.071358,-36.608028,1.081257,-0.426189,-0.043197
5212631694,-198.933228,54.036030,-40.039761,1.007766,-0.407155,-0.035032
5212651746,-189.141235,57.417480,-44.852318,0.950513,-0.541094,-0.014620
5212671798,-178.436203,62.785568,-53.378155,0.860403,-0.617495,-0.032006
5212691850,-167.933960,59.803268,-55.630085,0.839961,-0.560072,-0.041541
5212711902,-164.428497,51.852409,-47.638432,0.899357,-0.491581,0.024979
5212731954,-154.817307,46.840111,-33.883877,1.019276,-0.399555,0.050393
5212752007,-143.460052,48.985802,-29.272085,0.960204,-0.460637,0.095942
5212772057,-136.870544,53.289841,-33.745647,0.795741,-0.556997,0.066535
5212792109,-132.768448,53.299488,-36.452805,0.816695,-0.515985,0.110561
5212812161,-127.580917,48.078491,-36.679157,1.010074,-0.506753,0.071836
5212832213,-120.484840,46.500141,-34.303986,1.069695,-0.493706,0.034481
5212852265,-106.318115,43.769600,-29.365643,0.927187,-0.519224,0.019043
5212872317,-83.019661,40.137245,-27.602964,0.887301,-0.563366,0.064532
5212892369,-59.795124,37.053925,-27.774788,0.903715,-0.560956,0.078162
5212912421,-38.275921,36.093605,-29.006807,0.913511,-0.511349,0.108558
5212932473,-21.384386,36.662006,-27.423098,0.925040,-0.488676,0.167725
5212952526,-6.198209,37.782524,-26.803223,0.897144,-0.524825,0.185668
5212972578,12.610628,39.107914,-26.344481,0.831141,-0.554212,0.231346
5212992630,27.670250,39.702888,-19.879372,0.806616,-0.470306,0.283096
5213012682,39.887543,36.552799,-10.853838,0.912091,-0.359426,0.243752
5213032734,45.292458,33.631897,-5.350921,1.100040,-0.222297,0.165519
5213052786,38.741791,37.488548,-8.166131,0.946339,-0.076590,0.232088
5213072838,27.720535,37.546852,-11.550266,0.929799,-0.096663,0.279826
5213092890,19.730473,40.440052,-15.165023,1.010515,-0.154696,0.256259
5213112942,15.209164,40.669006,-12.708647,0.941772,-0.202678,0.234242
5213132994,9.045567,36.784618,-5.947830,0.875776,-0.178870,0.174423
5213153047,3.109430,36.473167,0.141224,0.884641,-0.177278,0.170014
5213173099,8.251905,37.740078,1.878218,0.979543,-0.295793,0.229316
5213193152,14.022911,40.428841,2.117038,1.059403,-0.331833,0.231845
5213213204,19.510317,44.650398,0.137620,1.021031,-0.261583,0.226306
5213233256,20.892241,47.194954,-3.471637,0.976038,-0.156227,0.275300
5213253308,15.449522,47.730240,-4.434103,0.966655,-0.135824,0.248459
5213273360,8.678125,47.712265,-2.680931,0.929485,-0.156806,0.254618
5213293412,5.134757,47.376270,-0.533688,0.884477,-0.224492,0.268079
5213313464,7.979239,44.408592,0.233438,0.887600,-0.262534,0.314165
5213333516,12.748527,40.237350,0.769090,0.945913,-0.204613,0.353080
5213353568,9.939695,39.499378,2.220197,0.939999,-0.089794,0.371522
5213373620,2.108891,39.815342,3.851326,0.907330,-0.041266,0.383725
5213393672,-5.589510,40.094822,4.383585,0.883253,-0.096920,0.428641
5213413724,-8.853861,37.686508,2.687762,0.872631,-0.220738,0.374105
5213453829,1.976601,31.989805,-0.555352,0.856032,-0.280684,0.467474
5213473901,4.485517,28.455513,-1.400475,0.845010,-0.254231,0.514895
5213493931,6.608351,22.221659,-3.751951,0.847403,-0.241854,0.567027
5213513983,8.721375,9.945853,-8.318397,0.823430,-0.194368,0.651557
5213534035,2.765785,-9.438137,-10.917310,0.771618,-0.133488,0.672843
5213554087,-4.888989,-34.902550,-12.873202,0.742004,-0.067302,0.699587
5213574139,-20.296932,-61.666534,-10.645897,0.743015,-0.045799,0.563109
5213594191,-28.037836,-82.368263,-6.107844,0.806238,-0.170493,0.493111
5213614243,-24.762308,-91.579872,-3.947563,0.917066,-0.257760,0.370577
5213634296,-0.295656,-78.049164,-13.256660,1.044741,-0.418779,0.272645
5213654348,11.701200,-31.585049,-0.066847,0.836812,-0.139349,0.269755
5213674399,9.527138,-19.301125,-7.323581,0.712555,-0.205179,0.457948
5213694451,2.655246,-43.388592,-20.410400,0.853350,-0.196565,0.556366
5213714503,-2.941843,-72.812813,-15.623255,1.037162,-0.006741,0.504213
5213734556,-7.311529,-84.759377,-1.097172,0.909577,-0.131875,0.496577
5213754608,-7.620178,-91.428696,4.610136,0.607575,-0.261896,0.478946
5213794712,-12.827559,-112.301758,1.068722,0.621942,-0.115471,0.365656
5213814764,-14.522838,-116.149429,-4.154486,0.787069,-0.101515,0.369573
5213834816,-12.298968,-116.610428,-3.721676,0.811133,-0.092856,0.412541
5213854868,-21.523989,-116.559006,-4.059676,0.778901,-0.078589,0.398515
5213874920,-32.638439,-121.040977,-3.820550,0.817320,-0.141263,0.329895
5213894972,-40.273533,-121.167999,-6.401864,0.985771,-0.157263,0.232937
5213915025,-39.150108,-114.055939,-4.190972,1.048342,-0.181474,0.130780
5213935077,-31.174906,-104.794960,-6.575153,1.012364,-0.273625,0.109143
5213955130,-19.213968,-90.927315,-4.929440,1.027488,-0.353581,0.119446
5213975181,-8.682603,-77.439919,-3.115179,1.145504,-0.330005,0.161817
5213995234,-0.493891,-61.726608,2.557500,1.303468,-0.262607,0.225685
5214015286,0.630406,-41.895824,6.369199,1.252060,-0.263268,0.302125
5214035338,-2.302482,-23.294268,3.691388,1.071637,-0.309166,0.233032
5214055390,0.770263,-13.449070,0.321646,0.886503,-0.350078,0.342800
5214075442,13.456320,-17.258398,-8.893261,1.204422,-0.289388,0.370253
5214095494,20.206142,-4.323899,-12.547779,1.377677,-0.151969,0.263556
5214115546,16.139263,9.515402,-6.030665,1.064513,-0.183477,0.281332
5214135598,13.743720,9.700272,1.647020,0.925127,-0.318307,0.347614
5214175703,17.906134,9.122895,3.277028,1.013979,-0.071969,0.354935
5214195777,16.036381,5.129812,4.034180,0.865632,-0.153425,0.368005
5214215805,15.103666,-2.334481,2.347383,0.783980,-0.214433,0.377584
5214235857,15.237001,-10.816288,-0.473124,0.840020,-0.194129,0.371929
5214255909,17.413260,-17.125128,-2.733413,0.922404,-0.160228,0.360034
5214275961,17.982824,-20.248611,-5.034432,0.919638,-0.154425,0.346859
5214296013,18.048672,-23.117130,-7.313416,0.912129,-0.188412,0.353925
5214316065,18.093695,-24.318708,-7.688239,0.990117,-0.171743,0.338471
5214336117,16.891117,-23.231850,-9.843987,1.050935,-0.078533,0.290200
5214356169,11.195859,-23.871944,-13.924846,1.058108,-0.030672,0.255706
5214376221,3.772835,-25.592333,-12.991686,1.016918,-0.075575,0.228668
5214396273,-2.534026,-27.692587,-7.267706,0.993126,-0.105303,0.211939
5214416325,-7.457766,-30.786894,-1.699943,0.977115,-0.078626,0.192795
5214436378,-11.225084,-33.650902,0.683458,0.953777,-0.048274,0.177646
5214456430,-16.722305,-36.614777,1.074544,0.942906,-0.044675,0.164076
5214476482,-21.885849,-39.453465,1.707608,0.935209,-0.089370,0.146544
5214496534,-25.156483,-40.733025,3.228954,0.983639,-0.139415,0.121110
5214536638,-26.457924,-32.340240,7.581128,1.099459,-0.179768,0.025606
5214556690,-27.109838,-22.329582,7.804544,1.193595,-0.208820,-0.000111
5214576742,-23.650692,-7.423696,7.153233,1.230753,-0.257274,0.030524
5214596794,-17.897961,-0.078444,5.450958,1.302750,-0.333578,-0.005073
5214616846,-11.732939,10.726796,5.426724,1.262406,-0.327723,-0.015242
5214636900,-4.830386,22.280895,10.197131,1.146864,-0.236536,0.038687
5214656952,2.234648,33.938526,10.775963,1.045139,-0.195720,0.062304
5214677004,12.602772,46.807446,6.218508,0.993772,-0.281027,0.096282
5214697056,21.429007,53.217152,1.069956,0.993756,-0.351975,0.103374
5214717108,27.731443,57.690090,-1.615457,1.041800,-0.318196,0.024345
5214737160,34.023354,61.232658,-1.357025,1.078844,-0.227483,-0.010615
5214757212,38.479504,63.968037,-1.989485,1.076110,-0.231424,0.006589
5214777264,38.447056,67.245926,-4.623088,1.082996,-0.229681,0.013070
5214797324,36.113903,69.842285,-2.221109,1.009215,-0.181084,-0.052998
5214817368,34.233570,68.469337,3.491235,0.911636,-0.132087,0.021359
5214837420,27.453539,69.008766,4.560383,0.888553,-0.092270,0.020099
5214857472,21.360170,75.056358,3.185045,0.943862,-0.117919,0.131031
5214877525,12.068535,75.672668,1.011014,1.017179,-0.096490,0.163475
5214897577,5.306224,75.287613,-0.061504,1.015938,-0.008449,0.144634
5214917627,1.195194,75.671394,-3.540129,0.911743,-0.035075,0.141205
5214937679,-0.020719,72.408295,-6.863200,0.864467,-0.161871,0.151244
5214957731,8.409530,70.559921,-7.738942,0.907733,-0.298867,0.241476
5214977784,17.880285,68.806107,-1.961049,0.950863,-0.313498,0.247313
5214997836,26.149670,65.571487,6.187002,0.933459,-0.239462,0.255603
5215017888,26.763371,62.781677,9.766088,0.882835,-0.106527,0.302601
5215037940,19.648945,59.729778,8.718042,0.857244,-0.003333,0.324401
5215057992,8.334837,56.960621,6.306280,0.831222,0.004013,0.327494
5215078044,2.517343,55.953365,3.113468,0.829493,-0.094400,0.313898
5215098096,4.690950,55.814629,1.741393,0.846607,-0.223725,0.289523
5215118148,9.427585,54.299355,0.934008,0.914089,-0.297668,0.260865
5215138200,6.658027,53.787239,4.438221,1.021228,-0.206517,0.258661
5215158252,3.275975,50.516857,5.792149,0.994860,-0.048892,0.230112
5215178304,1.303752,46.850906,-1.614327,0.989457,0.003041,0.177214
5215198356,2.192125,44.106949,-10.237615,0.955974,-0.118454,0.149027
5215218408,9.532277,43.283485,-24.349369,0.914933,-0.129805,0.219666
5215238461,19.208563,43.800308,-37.822342,0.903617,-0.169081,0.334555
5215258513,22.494411,47.873272,-41.808899,0.874903,-0.256025,0.486317
5215278565,19.547863,36.427963,-31.112417,1.217960,-0.253248,0.468904
5215298617,-1.069247,20.051096,-12.487901,1.030598,0.016485,0.119547
5215318668,-16.929090,8.073486,0.609891,0.765353,0.111104,0.080127
5215338722,-10.796964,-0.239999,0.189232,0.838300,-0.224826,0.245307
5215358774,5.625142,-3.763231,-6.072175,1.013598,-0.163027,0.232202
5215378826,1.784813,-6.143938,-8.806211,1.027947,0.144210,0.259194
5215398878,-19.804565,-7.799802,-22.594227,1.161640,0.381597,0.179688
5215418930,-53.035748,1.158016,-29.101046,1.065882,0.248143,0.220997
5215438982,-57.868122,5.986620,-30.063362,1.006400,-0.069045,0.293410
5215459034,-48.040348,8.668612,-26.695829,0.946031,-0.274043,0.351975
5215479086,-41.764965,6.909088,-24.509224,0.974821,-0.161837,0.283536
5215499138,-46.267090,6.404995,-25.134964,0.978656,0.091677,0.233641
5215519190,-57.391438,7.556524,-32.001568,0.963871,0.209251,0.255533
5215539242,-71.178413,9.215627,-37.489624,1.035970,0.228334,0.263730
5215559294,-87.167496,12.148083,-38.638554,1.025690,0.198770,0.243641
5215579346,-99.869476,13.350286,-41.874466,0.999394,0.117848,0.275474
5215599399,-114.129433,13.898993,-44.796837,1.020178,0.079296,0.263798
5215619449,-128.316238,13.949071,-42.624458,1.047955,0.062736,0.277001
5215639501,-144.517365,15.115157,-40.765961,1.016801,0.090253,0.274554
5215659553,-161.880005,15.032761,-40.645912,0.986775,0.100602,0.259407
5215679605,-175.107727,11.808628,-41.001549,0.961644,0.037127,0.208159
5215699657,-183.706528,8.109865,-40.765995,0.967470,-0.093654,0.166180
5215719710,-185.509674,5.790246,-39.559898,0.997433,-0.205128,0.149233
5215739762,-181.565796,7.106975,-39.505184,1.028417,-0.284769,0.160009
5215759814,-175.973190,15.689225,-43.508087,1.018918,-0.347267,0.194201
5215779866,-172.530838,23.786655,-45.128777,0.952424,-0.360512,0.237780
5215799918,-168.252838,26.363735,-50.186741,0.945920,-0.318501,0.222161
5215819970,-165.219727,26.869558,-52.561760,0.959080,-0.234661,0.205924
5215840022,-162.254349,26.964188,-51.471752,0.939629,-0.191822,0.205745
5215860074,-161.653717,26.047424,-49.407326,0.935118,-0.276647,0.208876
5215880126,-160.294739,25.742683,-53.370552,0.953821,-0.410264,0.195468
5215920230,-146.666336,28.196844,-62.311790,0.924697,-0.353132,0.205234
5215940282,-145.603210,27.565002,-60.089355,0.935283,-0.265677,0.175214
5215960334,-149.643707,28.165009,-55.883686,1.035213,-0.287852,0.153003
5215980386,-150.719055,32.838329,-55.277935,1.087172,-0.359887,0.158750
5216000438,-148.094498,38.820251,-54.450626,1.012954,-0.376444,0.168685
5216020490,-142.773499,42.726780,-53.260895,0.912438,-0.381631,0.164488
5216040543,-137.043854,46.098278,-53.062309,0.863880,-0.421600,0.178875
5216060596,-128.066437,48.143402,-52.276707,0.882382,-0.501660,0.219649
5216080648,-111.862556,48.188736,-48.667374,0.930190,-0.537824,0.231222
5216100700,-91.085762,48.556629,-42.006435,0.943986,-0.536770,0.194590
5216120752,-70.594200,47.664417,-37.425266,0.857116,-0.584038,0.231966
5216140804,-49.997810,46.882103,-32.382195,0.862515,-0.603935,0.269497
5216160856,-29.913128,47.094173,-25.637108,0.891236,-0.489784,0.273924
5216180908,-18.704695,45.218811,-20.465721,0.933238,-0.324176,0.195598
5216200960,-14.156117,41.960953,-21.721775,0.848531,-0.257629,0.211496
5216221013,-12.143038,36.750153,-21.856104,0.867619,-0.378109,0.265738
5216241065,-4.587059,35.538052,-18.466778,1.005717,-0.458756,0.246747
5216261117,1.961136,37.510025,-17.134390,0.976309,-0.355020,0.281692
5216281169,3.904783,35.663910,-14.559443,0.895186,-0.247626,0.287963
5216301221,6.272058,33.245949,-12.808781,0.873412,-0.214251,0.299873
5216321273,9.110376,32.374134,-10.752872,0.977156,-0.275987,0.299869
5216341329,9.583129,31.137835,-8.664564,0.977557,-0.273986,0.261677
5216361376,8.748718,29.183084,-5.989744,0.939817,-0.215766,0.278913
5216381428,3.920527,25.798073,-4.460598,0.943607,-0.168044,0.292747
5216401480,0.408139,23.136568,-3.927248,0.941398,-0.207450,0.269285
5216421532,5.402872,19.847382,-1.007344,0.950876,-0.272094,0.271009
5216441584,12.842630,17.852432,-1.230443,0.956080,-0.256635,0.277593
5216461636,16.049330,16.852079,-3.062227,0.938904,-0.229619,0.301606
5216481688,19.705698,16.734234,-3.866470,0.936413,-0.203172,0.308917
5216501740,22.486511,15.853771,-3.114094,0.956986,-0.166247,0.295639
5216521792,20.090237,16.580692,-2.138073,0.938525,-0.133661,0.302674
5216541844,19.081589,18.537003,-1.469934,0.952770,-0.153686,0.355356
5216561897,17.713394,21.571329,0.763461,0.957199,-0.191875,0.365373
5216581949,20.075888,24.477676,2.912621,0.923083,-0.208512,0.408312
5216602001,24.219681,25.295822,3.150878,0.943073,-0.216660,0.439176
5216642105,26.551531,20.689283,2.203407,0.884386,-0.169969,0.505110
5216662156,26.505848,11.244963,-0.174142,0.842431,-0.128911,0.581226
5216682209,23.096785,-6.629298,-4.363152,0.822812,-0.096806,0.599346
5216702261,13.587070,-25.344286,-5.545861,0.743446,-0.096311,0.608048
5216722313,5.401217,-53.159740,-6.576412,0.652194,-0.099087,0.593074
5216742365,3.205109,-80.484550,-8.239804,0.818696,-0.149730,0.488142
5216762417,7.653852,-94.894417,-14.141189,0.825902,-0.068713,0.338205
5216782470,15.059740,-87.759659,-10.037836,1.199364,-0.217872,0.186621
5216802523,24.007404,-37.959442,-7.544780,0.958308,-0.296204,0.197270
5216842627,-5.594974,-49.444550,2.812544,0.972326,0.271481,0.585965
5216862679,-27.442446,-77.668152,13.755356,0.757149,0.062083,0.493161
5216882731,-27.459114,-97.535217,11.459187,0.741427,-0.159311,0.439718
5216902783,-24.816357,-100.445305,-1.226465,0.608595,-0.211453,0.435290
5216922835,-18.438559,-103.273575,-1.272005,0.513385,-0.173597,0.422271
5216942887,-13.080733,-109.257797,-1.116840,0.760800,-0.112134,0.361603
5216962939,-12.779723,-112.246399,-5.813179,0.941239,-0.033437,0.302897
5216982991,-13.624536,-113.830544,-5.739214,0.950650,-0.032294,0.298769
5217003043,-20.120918,-114.550148,-5.969408,0.929581,-0.074203,0.274748
5217023095,-26.929585,-115.796219,-5.098729,0.962978,-0.110758,0.209971
5217043147,-27.241247,-114.802216,-1.267092,0.938625,-0.167244,0.209180
5217063212,-22.143753,-109.589462,1.418849,0.913560,-0.201350,0.178678
5217083250,-14.133863,-99.401550,1.509780,0.992143,-0.162795,0.175153
5217103302,-11.344641,-84.046272,2.979262,1.137791,-0.216270,0.129908
5217123354,-6.041478,-65.301781,5.967135,1.209153,-0.262244,0.125221
5217143406,1.278003,-51.569923,10.138734,1.227769,-0.235257,0.186387
5217163459,13.154540,-39.538486,15.618177,1.263308,-0.282724,0.305884
5217183511,19.954630,-18.235716,14.648073,1.227627,-0.306121,0.308083
5217203563,19.433086,3.029016,4.457072,1.101093,-0.163939,0.314265
5217223615,14.499785,14.461062,-8.586084,1.186793,-0.227984,0.314433
5217243667,15.996207,27.345940,-14.648700,1.298867,-0.306691,0.301687
5217263719,17.437382,39.252193,-6.179061,1.087155,-0.305763,0.259096
5217283771,21.939604,34.476303,10.615631,0.856939,-0.223026,0.330668
5217303823,24.366528,24.780731,15.150090,0.835671,-0.122145,0.393605
5217323875,19.644810,18.701529,7.131419,0.910833,-0.091281,0.386510
5217343928,13.825666,12.487015,2.850022,0.845201,-0.103798,0.391733
5217363979,11.745049,2.930806,1.686205,0.770050,-0.156111,0.391988
5217384031,11.765034,-7.942073,0.230609,0.753831,-0.182911,0.388275
5217404083,12.404109,-18.333593,-0.180966,0.813760,-0.223367,0.402801
5217424135,15.850638,-24.620909,0.839915,0.912281,-0.267187,0.398462
5217444187,19.033407,-27.313557,2.727660,0.937640,-0.220707,0.372656
5217464239,20.496843,-30.765654,2.754201,0.923013,-0.115152,0.373512
5217484292,20.347313,-33.146221,-2.565551,1.015579,-0.075296,0.363528
5217504345,15.355367,-30.808384,-10.651027,1.105824,-0.084217,0.322828
5217524397,8.546530,-26.977446,-13.663111,1.053637,-0.104379,0.293154
5217544449,2.046158,-28.317268,-11.132425,0.959152,-0.122204,0.261790
5217564501,-2.456790,-32.422546,-7.395434,0.927317,-0.106171,0.256925
5217584553,-5.753868,-37.307739,-3.383336,0.960998,-0.095227,0.229045
5217604605,-8.733116,-39.378029,-1.154524,0.963962,-0.099613,0.207668
5217624657,-11.882252,-40.048653,-0.703952,0.940434,-0.115602,0.185874
5217644709,-16.035782,-40.951660,0.050931,0.925029,-0.088126,0.171723
5217664762,-21.039392,-41.120148,1.387160,0.980041,-0.059811,0.135431
5217684814,-24.606972,-38.138634,3.545717,1.058056,-0.096462,0.095238
5217704866,-27.268843,-32.590210,3.717004,1.096582,-0.175643,0.047804
5217724918,-27.488287,-23.956757,4.202701,1.171808,-0.249879,0.035746
5217744970,-22.705397,-13.194756,5.967733,1.281615,-0.318799,0.047138
5217765022,-14.517275,-2.604853,7.012167,1.339530,-0.354538,0.029512
5217785097,-6.319371,10.821670,7.622400,1.229219,-0.346204,0.025635
5217805125,2.053094,22.511099,5.881502,1.068682,-0.283299,0.039946
5217825177,9.483671,30.489241,1.690561,1.007282,-0.242789,0.074123
5217845229,15.803945,36.819290,-2.661049,1.027474,-0.242373,0.113069
5217865281,23.933445,42.184502,-4.198175,1.024753,-0.281256,0.145673
5217885333,29.468502,44.924187,-4.065553,1.009049,-0.288118,0.106379
5217905385,31.944166,47.762657,-4.356622,0.999823,-0.219118,0.059527
5217925437,29.958187,48.576542,-3.259782,1.002667,-0.135305,0.030222
5217945489,25.459288,47.179691,-3.404973,1.014944,-0.065093,0.078028
5217965542,15.681697,45.630142,-1.834945,1.011994,-0.074894,0.072940
5217985594,9.091263,42.164349,4.333419,0.943891,-0.142582,0.045067
5218005645,11.128895,42.389328,7.780355,0.887329,-0.208947,0.038254
5218025698,16.005125,39.965172,4.770576,0.871531,-0.253200,0.033837
5218045750,19.718306,40.187958,-1.036973,0.915745,-0.227825,0.099112
5218065802,14.806001,39.026676,-0.720514,1.028959,-0.101951,0.116271
5218085854,4.654829,38.953178,4.141406,1.036025,0.040999,0.130299
5218105906,-5.183912,38.071293,4.511679,0.936198,0.022970,0.123802
5218125958,-6.171926,34.184757,-0.385747,0.889849,-0.171459,0.118362
5218146010,0.321214,31.320820,-3.781104,0.961635,-0.354176,0.094174
5218166062,8.567686,28.828999,-2.979614,0.995078,-0.366555,0.087375
5218186114,13.974844,27.053940,-3.543813,1.035404,-0.237119,0.110702
5218206166,15.118694,26.741322,-3.740189,1.017236,-0.172436,0.144996
5218226218,12.044290,26.524517,-3.632260,0.965691,-0.140085,0.166160
5218246272,6.465169,26.075035,-2.916336,0.920026,-0.076435,0.164009
5218266324,-0.486393,27.328196,-1.652534,0.912475,-0.053844,0.150152
5218286376,-5.125519,30.969559,1.512126,0.907900,-0.121773,0.140272
5218306428,-5.427607,35.138153,4.332398,0.952087,-0.205768,0.155917
5218326480,-2.461583,37.319550,4.073737,0.991969,-0.294687,0.177406
5218346532,3.331654,36.669552,2.148893,1.029387,-0.258115,0.136622
5218366584,8.090514,35.804424,3.279473,0.996095,-0.084467,0.130559
5218386636,6.303104,38.758839,2.921286,0.992820,-0.005291,0.121077
5218406688,2.558697,44.705654,-0.008214,1.000562,-0.084778,0.146318
5218426740,3.779774,51.791851,-3.170748,1.002321,-0.188975,0.147082
5218446792,6.983005,58.024567,-2.897767,0.986430,-0.180963,0.163508
5218466845,6.239675,61.256226,-1.317061,0.996110,-0.088691,0.114613
5218486896,4.475851,64.932793,-6.338803,0.988066,-0.002553,0.090747
5218506948,6.827317,64.343040,-22.746038,1.051884,0.054294,0.264131
5218526999,-12.960002,51.804718,-35.352760,1.181848,-0.096683,0.035044
5218547051,-17.755318,37.956894,-23.305878,0.838222,-0.166852,0.105309
5218567103,-11.964364,21.272717,-10.934608,0.837837,-0.146582,0.176325
5218587155,-3.678859,9.844337,-7.949915,0.931557,-0.003430,0.088902
5218607207,-8.114227,7.766536,-7.797201,0.888885,-0.011651,0.156313
5218627259,-17.104502,3.038980,-16.152512,1.049391,0.007772,0.168405
5218647311,-27.928062,4.216456,-21.632366,1.080859,0.086201,0.235247
5218667363,-40.943066,4.833671,-17.431192,1.114894,0.118449,0.229571
5218687415,-53.749371,3.127219,-9.947977,1.056414,0.011877,0.181312
5218707467,-56.584682,-2.363664,-3.758791,0.994972,-0.115962,0.120191
5218727519,-44.033611,-14.660388,2.751616,0.981124,-0.238452,0.102062
5218747571,-25.182941,-22.660826,5.061429,0.893176,-0.283017,0.042152
5218767624,-3.294480,-27.362167,-2.266466,0.727450,-0.279453,0.069201
5218787676,13.310045,-33.594025,-12.050399,0.851115,-0.252160,0.110114
5218807728,12.461343,-32.528980,-15.615882,0.928362,-0.134267,0.108298
5218827780,8.803915,-29.922741,-16.275372,1.024524,0.032103,0.183761
5218847832,-1.492708,-23.404051,-12.057591,1.181182,0.130153,0.237358
5218867884,-15.777792,-16.266632,-9.113811,1.192286,0.169364,0.252070
5218887936,-39.098797,-10.850959,-2.591246,1.102779,0.260504,0.234749
5218907988,-64.485954,-10.032912,-0.652541,1.017169,0.286245,0.160591
5218928040,-86.451721,-10.382609,-0.825540,0.985657,0.232859,0.104182
5218948092,-100.647095,-10.779879,-3.342993,0.982638,0.160962,0.064186
5218968145,-114.772186,-10.776070,-7.332171,1.002060,0.125592,0.065733
5218988198,-131.029480,-9.891868,-6.768682,1.028935,0.115089,0.089675
5219008250,-149.904373,-7.017278,-4.490713,1.037815,0.091085,0.048663
5219028302,-165.670319,-4.044622,-0.728694,0.997425,0.024748,0.066867
5219048354,-175.288452,-3.953777,0.767415,0.982450,-0.055584,0.048968
5219068406,-179.434982,-4.480241,1.035945,0.980838,-0.116941,0.027946
5219088458,-181.410706,-5.191146,1.107297,1.007000,-0.151458,-0.001007
5219108510,-180.229385,-3.893675,0.973570,1.002208,-0.178797,-0.025263
5219128565,-183.139694,-0.970488,-0.755907,1.018737,-0.225704,-0.099856
5219148614,-183.518311,7.566684,-3.316564,1.026197,-0.196124,-0.065427
5219168666,-185.672775,15.010603,-2.856407,1.070017,-0.173712,-0.087006
5219188718,-186.901352,23.221067,-5.779430,1.094471,-0.242390,-0.102943
5219208770,-182.552338,27.389482,-8.978478,1.061378,-0.351110,-0.095375
5219228823,-172.063690,31.365337,-10.564694,1.022906,-0.422966,-0.043921
5219248873,-160.152374,32.783970,-9.838595,1.037256,-0.433798,-0.060326
5219268925,-148.807526,39.946819,-10.155251,1.048672,-0.384369,-0.010740
5219288978,-143.185944,49.128853,-11.788019,0.922443,-0.346128,-0.004715
5219309030,-137.026703,52.528534,-9.982941,0.894564,-0.349851,0.025304
5219329082,-129.719025,52.084133,-12.174287,0.950074,-0.372041,0.053583
5219349134,-121.502380,51.127918,-14.606714,0.990246,-0.374093,0.075613
5219369186,-113.224518,52.150764,-15.083034,0.969069,-0.365015,0.091081
5219389238,-109.735725,53.501617,-12.769747,0.926373,-0.386133,0.075754
5219409290,-104.893440,54.088703,-11.378938,0.942084,-0.385281,0.101303
5219429342,-98.945488,52.376278,-12.201227,0.955063,-0.359184,0.113544
5219449394,-90.034012,49.660950,-15.006783,0.945084,-0.353060,0.117674
5219469446,-84.157219,48.231979,-15.352551,0.887803,-0.421485,0.125785
5219489498,-73.115349,45.948742,-15.666864,0.863213,-0.484247,0.137334
5219509550,-61.243294,42.488712,-16.848993,0.880700,-0.474799,0.166523
5219529602,-50.577267,38.946568,-16.567680,0.913936,-0.417768,0.191455
5219549654,-41.321068,35.316795,-15.482203,0.921687,-0.369504,0.198040
5219569706,-36.897610,32.111267,-15.540915,0.884274,-0.347306,0.193065
5219589758,-33.519497,28.166605,-16.149979,0.859866,-0.347960,0.189173
5219609811,-28.716209,22.959530,-14.981719,0.899579,-0.371284,0.191270
5219629863,-23.151091,18.018286,-14.580114,0.905806,-0.394833,0.182680
5219649915,-18.122923,10.931695,-14.330087,0.854637,-0.451915,0.137808
5219669967,-9.630355,1.664229,-13.187019,0.849078,-0.461172,0.126606
5219690020,4.174850,-7.342787,-12.365026,0.981297,-0.391952,0.118108
5219710072,13.979122,-8.464665,-10.234905,0.934841,-0.277672,0.194344
5219730125,13.916538,-11.689174,-6.267557,0.840769,-0.221270,0.226652
5219750176,7.920435,-14.072391,-8.371775,0.825383,-0.208311,0.201127
5219770229,3.316288,-18.629623,-14.743520,0.852489,-0.253821,0.172036
5219790281,8.233375,-23.808626,-16.447819,0.933374,-0.338695,0.132966
5219810333,16.082298,-26.913727,-13.779654,0.969742,-0.365561,0.116449
5219830385,22.718769,-30.639898,-12.025977,0.917815,-0.328736,0.107293
5219850437,29.525005,-35.266586,-12.383787,0.896203,-0.332506,0.094732
5219870489,37.396832,-38.390285,-12.671360,0.938270,-0.329262,0.086359
5219890541,43.883732,-39.747040,-10.637794,0.957154,-0.280639,0.090838
5219910593,46.746567,-44.072094,-8.448732,0.968400,-0.245186,0.052154
5219930645,49.727398,-48.225716,-8.079251,0.959016,-0.229061,0.011911
5219950697,53.211250,-51.800201,-9.083735,0.922810,-0.219004,0.009175
5219970752,51.751682,-53.122749,-10.223090,0.907521,-0.185321,0.003406
5219990800,54.195469,-54.378799,-10.886565,0.940103,-0.168609,0.004352
5220030904,50.234772,-53.363716,-5.954775,0.999171,-0.095580,0.000290
5220050956,45.691959,-50.626266,-2.968929,1.021052,-0.107716,0.006039
5220071008,43.715843,-47.290909,-1.721623,1.057384,-0.145399,-0.029985
5220091060,45.028519,-42.012051,-1.467430,1.055654,-0.162548,-0.021710
5220111113,45.610367,-36.782696,-1.083969,1.021722,-0.152474,-0.023612
5220131165,44.939022,-33.311584,-1.323063,1.022448,-0.165173,-0.047817
5220151217,43.469421,-29.818066,-1.993956,1.067925,-0.172204,-0.057319
5220171269,38.451088,-25.702595,-0.293536,1.104216,-0.144497,-0.056837
5220191321,34.363716,-21.478165,3.263027,1.059222,-0.122785,-0.043684
5220211373,29.833160,-19.359402,5.644684,0.970981,-0.104242,-0.023076
5220231425,26.088520,-19.744572,6.230903,0.937313,-0.107586,-0.016641
5220251477,25.057758,-19.784611,4.571610,0.970267,-0.111640,-0.006545
5220271529,21.432247,-17.609203,4.178857,1.024279,-0.088991,0.006118
5220291581,15.942834,-13.967403,3.501281,1.024986,-0.066483,0.029856
5220311633,8.703934,-11.044873,3.736272,1.000562,-0.063207,-0.004346
5220331685,1.615741,-9.958516,5.175012,0.961324,-0.098685,-0.026935
5220351737,0.574789,-12.721688,3.888897,0.955491,-0.195737,-0.072022
5220371789,3.747214,-14.098965,1.315686,0.980649,-0.247806,-0.076512
5220391841,4.532548,-15.060561,-0.288014,0.995271,-0.222369,-0.110876
5220411893,1.443284,-13.819926,-0.192681,0.981041,-0.144176,-0.117426
5220431947,-3.488618,-13.287256,1.497318,0.978684,-0.099025,-0.111058
5220451999,-7.720345,-13.124735,3.953822,0.997708,-0.119252,-0.111597
5220472051,-8.897329,-11.437340,5.486948,0.992215,-0.164626,-0.100569
5220492103,-7.398438,-11.028603,4.946909,0.968413,-0.204521,-0.110273
5220512155,-7.002406,-11.720072,3.243887,0.950431,-0.219792,-0.114404
5220532207,-7.546076,-13.635167,2.295728,0.952977,-0.188195,-0.129021
5220552259,-10.452525,-14.587010,3.641501,0.990477,-0.153868,-0.135969
5220572311,-11.887381,-14.496975,4.952853,0.969110,-0.148368,-0.148453
5220592364,-15.014574,-12.536979,3.598140,0.949739,-0.161063,-0.150080
5220612416,-18.087120,-10.932419,2.403790,0.978914,-0.161764,-0.165588
5220632468,-21.854164,-9.920357,3.068570,0.983361,-0.171090,-0.157632
5220652520,-22.060482,-8.108858,2.819873,1.013628,-0.217073,-0.150160
5220672572,-18.982962,-7.292212,0.330084,1.001946,-0.272669,-0.166958
5220692624,-15.309402,-6.169885,-3.654023,0.959345,-0.272233,-0.193622
5220712676,-12.037293,-3.975438,-4.564627,0.954062,-0.218950,-0.189913
5220732727,-10.551793,-2.386723,-2.183249,0.975825,-0.172933,-0.177386
5220752779,-10.895313,1.606270,-0.673517,1.028677,-0.154666,-0.198035
5220772831,-14.035158,4.455887,-1.796344,1.014410,-0.227109,-0.185210
5220792883,-12.861646,6.462626,-6.199465,0.971466,-0.293771,-0.151116
5220812935,-7.459579,6.226210,-10.740338,0.940123,-0.302453,-0.149875
5220832987,-0.102904,4.720506,-15.133521,0.956411,-0.272973,-0.174912
5220853039,2.739037,3.003876,-15.810706,1.008981,-0.216406,-0.166469
5220873091,6.987613,3.309608,-13.880614,1.012681,-0.168285,-0.137371
5220893143,10.752820,4.333957,-11.861880,0.964822,-0.180226,-0.100764
5220913196,13.437880,3.775025,-12.982580,0.924191,-0.203030,-0.094426
5220933248,15.646235,4.394521,-14.539175,0.954254,-0.186724,-0.083314
5220953300,16.507456,6.290833,-15.682855,0.977319,-0.158900,-0.066114
5220973352,18.290913,7.586338,-13.156570,1.009368,-0.129411,-0.073862
5220993404,20.103254,6.943552,-6.250560,0.977963,-0.124630,-0.084228
5221013456,18.249893,2.880230,-5.811488,0.948654,-0.128132,-0.121476
5221033508,15.485777,-0.839125,-10.049498,0.945647,-0.124380,-0.170255
5221053560,14.714647,-2.030795,-6.824066,0.951848,-0.104716,-0.149263
5221073612,15.529514,-2.093985,-6.854449,1.000778,-0.078526,-0.142403
5221093664,14.753947,-1.197576,-5.962949,0.994760,-0.103926,-0.145059
5221113717,14.133024,-1.895870,-2.906006,0.955099,-0.129532,-0.131503
5221153820,8.748535,-5.170449,-1.346729,0.998517,-0.080841,-0.113218
5221173874,2.940085,-3.605679,-1.206087,1.016518,-0.089291,-0.115992
5221193926,1.062357,-3.222658,0.074094,1.009655,-0.111968,-0.131501
5221213978,1.625971,-4.007244,1.471129,0.979661,-0.109235,-0.132745
5221234030,1.066997,-4.906270,1.542633,0.975383,-0.104659,-0.136100
5221254082,-1.017444,-4.667741,0.602750,0.976860,-0.113451,-0.134897
5221274134,-3.777319,-3.430051,-0.105392,0.983729,-0.117302,-0.138439
5221294187,-4.735970,-2.098902,0.094989,0.985138,-0.124073,-0.141986
5221314239,-6.032170,-2.251946,1.240393,0.986241,-0.114569,-0.163810
5221334291,-7.137803,-3.622868,1.685083,0.983108,-0.119317,-0.171411
5221354343,-7.400579,-3.239911,2.487225,0.982957,-0.130088,-0.155747
5221374395,-7.206620,-3.064034,3.684026,0.989884,-0.142019,-0.165193
5221394447,-7.331511,-2.824800,4.425983,0.983832,-0.135813,-0.162309
