Timestamp (us),Gyroscope X (deg/s),Gyroscope Y (deg/s),Gyroscope Z (deg/s),Accelerometer X (g),Accelerometer Y (g),Accelerometer Z (g)
834790133,-0.019340,-0.152266,0.026877,0.966819,0.019279,0.239306
834810176,0.002737,-0.212937,-0.019314,0.966853,0.026561,0.241563
834830221,-0.197518,-0.227881,-0.114547,0.971369,0.026563,0.238854
834850265,-0.349742,-0.272923,-0.103479,0.972042,0.024019,0.240480
834870309,-0.370862,-0.196013,-0.057211,0.971078,0.027297,0.242852
834890354,-0.376928,-0.050881,-0.026996,0.970228,0.026929,0.241323
834910398,-0.400267,-0.149858,-0.102321,0.970457,0.024378,0.238782
834930443,-0.139448,-0.126530,-0.091923,0.967026,0.019282,0.240574
834950488,-0.044321,-0.278098,0.082495,0.968194,0.015915,0.239379
834970532,0.107521,-0.163294,0.017904,0.970477,0.013189,0.239163
834990577,0.346334,-0.185295,0.150696,0.971363,0.018829,0.238050
835010621,0.513980,-0.078145,0.177134,0.974482,0.024202,0.239077
835030666,0.434875,0.013192,0.093993,0.970597,0.028923,0.236775
835050710,0.464752,-0.093348,0.124024,0.972962,0.030199,0.236369
835070754,0.079835,-0.017318,0.016453,0.971138,0.027650,0.236314
835090797,0.187705,-0.070470,0.075494,0.970044,0.027375,0.236424
835110841,-0.028489,-0.017224,-0.027477,0.971665,0.027284,0.235216
835130885,-0.151551,-0.017443,-0.078467,0.970483,0.028474,0.240409
835150930,-0.110782,-0.062703,0.043204,0.968755,0.022195,0.240449
835170974,0.026446,-0.176820,0.017901,0.965117,0.017187,0.240973
835191019,-0.035544,-0.252522,-0.026432,0.970107,0.015107,0.243887
835211063,0.196170,-0.091705,0.106007,0.972743,0.017285,0.238483
835231107,0.019738,-0.045864,0.101287,0.969559,0.035006,0.230519
835251151,-0.272919,-0.167950,-0.037874,0.974106,0.036102,0.229532
835271196,-0.464285,-0.167673,-0.095135,0.977859,0.028739,0.229480
835291240,-0.441384,0.144648,-0.172627,0.975891,0.022280,0.231340
835311286,-0.385715,0.144481,-0.112191,0.973133,0.025004,0.230565
835331330,-0.578761,0.120769,-0.275989,0.967763,0.020358,0.231300
835351375,-0.228394,-0.008204,0.008372,0.964916,0.010609,0.225010
835371419,0.046976,-0.213631,0.011411,0.972392,0.020180,0.229678
835391463,-0.106240,-0.228367,-0.008489,0.977416,0.028103,0.230215
835411507,-0.029140,-0.045092,0.012303,0.976664,0.029464,0.229136
835431571,-0.251985,0.038596,-0.067658,0.974837,0.030008,0.229166
835451603,-0.235105,0.053828,-0.014462,0.974605,0.024916,0.231085
835471639,-0.213843,0.152377,-0.144892,0.973296,0.014912,0.233757
835491683,-0.035566,0.129446,-0.025687,0.971451,0.015272,0.232789
835511728,0.156549,0.091279,0.031767,0.969702,0.018270,0.232269
835531772,0.447990,-0.045706,0.133304,0.969718,0.020637,0.233263
835551816,0.414565,0.015099,0.026582,0.972392,0.023737,0.234756
835571861,0.360213,0.045501,0.035059,0.973044,0.025832,0.235558
835591905,0.328425,0.167162,0.012221,0.970963,0.030925,0.236947
835611949,0.067126,0.067508,-0.028140,0.969840,0.028192,0.235337
835631993,0.097230,-0.001171,-0.043730,0.969473,0.019366,0.234722
835652039,0.175481,-0.107320,0.077310,0.971079,0.018463,0.237510
835672084,0.549979,-0.038411,0.115508,0.970762,0.019187,0.235245
835692128,0.394557,0.030037,0.041582,0.969081,0.024193,0.238443
835712172,0.509738,0.098711,0.130618,0.971620,0.025924,0.237580
835732216,0.515182,0.044936,0.076874,0.970271,0.023922,0.238604
835752261,0.390577,0.067513,0.017917,0.970517,0.023465,0.237058
835772305,0.330150,-0.046629,0.103502,0.969056,0.024555,0.237172
835792348,0.474389,-0.031154,0.115527,0.967923,0.023921,0.240006
835812392,0.494761,0.014276,0.030729,0.969818,0.022739,0.238705
835832437,0.496425,0.090801,0.190696,0.971367,0.018101,0.238232
835852481,0.650468,0.022446,0.332429,0.973921,0.023191,0.233460
835872525,0.529710,0.075050,0.081752,0.971355,0.029009,0.233403
835892570,0.606724,0.136048,0.186717,0.967603,0.017002,0.237118
835912614,0.973636,-0.138063,0.294534,0.959656,0.008703,0.231730
835932658,1.250275,-0.517794,0.526287,0.951399,0.001210,0.219628
835952703,2.522372,-1.367769,0.961079,0.954626,-0.004432,0.216042
835972747,3.896055,-1.905861,1.416492,0.954890,-0.018436,0.219511
835992791,5.675769,-2.628556,1.766437,0.950119,-0.025641,0.213068
836012837,7.495791,-4.029179,2.255402,0.919988,-0.013327,0.204756
836032881,8.679228,-6.847612,2.685026,0.902354,-0.010658,0.185172
836052925,9.744230,-9.673193,3.330932,0.897271,-0.001589,0.172898
836072970,10.069302,-12.454016,3.647182,1.013778,-0.000010,0.146217
836093014,10.481435,-12.917850,4.045726,1.050487,0.011970,0.151290
836113058,10.829566,-10.404503,3.335232,1.082541,0.016459,0.194945
836133102,11.612497,-5.831696,3.343023,1.069088,-0.001526,0.221620
836153146,12.481153,-1.854034,3.037832,1.044604,-0.013731,0.181753
836173190,13.249774,0.341351,3.183721,1.001574,-0.014806,0.122938
836193234,13.861446,0.471061,3.179061,0.979062,-0.013512,0.101352
836213278,14.945539,-0.160355,3.534559,0.981136,-0.022146,0.104236
836233323,16.849468,-0.654162,3.980670,0.981804,-0.042654,0.133670
836253367,19.918331,-0.933930,4.571576,1.027163,-0.059579,0.145180
836273411,23.263336,-0.215245,5.176724,1.018905,-0.061358,0.123628
836293456,26.182148,-0.395617,5.923039,0.997609,-0.062012,0.079148
836313500,28.879671,-0.659814,6.696852,0.991884,-0.065154,0.056194
836333544,31.288288,-0.749601,7.131826,1.004119,-0.046220,0.052232
836353589,33.119469,-0.215192,7.323757,1.012910,-0.022798,0.069472
836373635,34.677135,0.540358,7.604316,1.019258,-0.014769,0.077248
836393679,36.224277,1.074543,7.732988,1.012223,-0.023613,0.071755
836413723,38.264549,1.548388,8.073893,1.022567,-0.021364,0.048789
836433767,40.052879,1.801225,8.443347,1.010577,-0.019590,0.033014
836453812,41.674206,1.650296,8.893800,1.001091,-0.006791,0.024803
836473856,43.029068,1.307944,8.990912,1.006181,-0.001418,0.023800
836493900,44.802406,0.867365,9.401174,0.992764,-0.017060,0.037943
836513943,46.436489,0.632286,9.714113,1.027235,-0.005005,0.035701
836533988,47.869495,1.341779,9.867340,1.035941,-0.000449,0.032641
836554032,49.036102,1.730312,9.675298,1.020947,0.024664,0.048014
836574076,49.614868,2.591263,9.516014,1.016601,0.041502,0.055958
836594120,49.685009,3.025813,9.574337,0.997923,0.053480,0.054350
836614165,49.067215,3.040094,9.234770,1.109416,0.125160,0.061771
836634209,46.668766,6.559362,8.818748,0.842550,0.145355,0.128107
836654253,42.730293,3.492840,8.034255,1.079960,0.246269,0.100925
836674298,36.931305,5.781592,6.496248,1.052942,0.248375,0.131248
836694342,31.417564,7.729793,5.947228,1.011843,0.250567,0.170526
836714388,26.265665,8.495277,4.730319,0.998676,0.156560,0.110539
836734432,27.362675,8.641823,5.350426,1.001347,-0.043620,0.084773
836754476,32.161495,7.793235,6.918329,1.061645,-0.132122,0.094513
836774521,37.206268,9.350921,7.625247,1.049353,-0.055377,0.188822
836794565,39.307148,11.867951,8.286757,1.067351,0.037832,0.204518
836814609,38.975975,14.414726,8.911303,0.947533,0.104511,0.302221
836834654,38.275726,10.162805,9.237063,0.867686,0.114894,0.219505
836854697,37.256779,7.814211,8.783242,0.882088,0.080609,0.162308
836874741,35.587490,3.354554,8.379635,0.881590,0.136730,0.105216
836894785,32.827328,1.248619,7.607286,0.936107,0.193572,0.103102
836914829,27.527073,-0.446712,6.730031,0.954181,0.263764,0.170034
836934874,21.458216,-1.777986,5.194029,0.925064,0.264405,0.248961
836954918,15.908995,-2.331884,3.614791,0.962249,0.176796,0.268353
836974962,12.216584,-1.526036,3.194703,0.978007,0.089986,0.294645
836995007,11.304554,-0.330169,3.032665,0.978254,0.047928,0.329478
837015051,11.584814,0.394488,3.284624,0.943603,0.015726,0.359807
837035095,13.378093,0.617486,3.929174,0.945830,-0.009129,0.399026
837055140,16.257284,1.351364,4.566235,0.923441,0.021765,0.449011
837075185,15.227776,1.600924,3.859442,0.862745,0.232852,0.308991
837095229,4.306227,-3.247282,1.313660,0.742863,0.420285,0.114191
837115274,-3.401419,-11.016528,0.709658,0.775093,-0.028771,0.129456
837135318,0.806936,-20.750809,2.494354,0.768360,-0.129644,0.144081
837155362,2.151996,-27.523024,3.545321,0.920490,0.054917,0.264819
837175407,3.495696,-32.480785,4.880648,1.296359,-0.065127,0.077327
837195451,4.704812,-23.535042,4.200805,1.042484,-0.039188,0.140255
837215494,5.461713,-19.628586,2.790010,1.141163,0.006221,0.013406
837235538,5.836742,-12.611100,2.140413,1.113132,0.012782,0.043557
837255583,5.442277,-6.461188,2.097027,1.161507,0.066077,0.098381
837275627,4.738338,3.039130,0.886991,1.159962,0.164717,0.114584
837295671,1.832819,10.270041,0.628922,1.127624,0.115823,0.169774
837315715,-1.722741,13.916225,-0.781383,1.010102,0.080624,0.116008
837335760,-5.367752,12.740004,-1.470884,0.907646,0.056944,0.082119
837355804,-8.875328,7.959375,-2.044071,0.901755,0.081983,0.047228
837375848,-12.185270,2.957660,-2.673847,0.926342,0.080895,0.028565
837395892,-15.513260,-2.052039,-3.456076,0.917453,0.072864,0.021649
837415938,-18.687653,-5.581279,-3.405654,0.977710,0.056581,0.024007
837435983,-21.439899,-6.619338,-3.776715,1.012396,0.036847,0.050682
837456027,-23.303699,-5.431822,-4.141858,1.120799,0.023793,0.039051
837476071,-24.949804,0.373150,-4.893388,1.152640,0.022679,0.051582
837496116,-26.344416,6.961987,-6.141460,1.157036,-0.003107,0.128347
837516160,-26.242620,14.444502,-6.695606,1.150848,-0.082088,0.280273
837536204,-23.999250,23.756567,-7.274474,1.417970,-0.110851,0.256158
837556251,-23.829107,40.128002,-9.861600,1.485884,0.050664,0.117931
837576291,-26.115547,58.576866,-13.493060,1.304472,-0.104033,0.244193
837596336,-25.678026,22.042652,-9.994759,-0.902913,0.137240,0.273261
837616380,-24.953140,-0.532435,-7.587740,1.432980,-0.329622,-0.475219
837636424,-27.414043,0.407323,-6.289919,0.753770,0.050576,0.054433
837656469,-30.168036,-7.812295,-7.775612,0.790556,0.062014,0.165625
837676513,-28.993832,-9.384854,-5.783460,1.196230,-0.057173,0.183779
837696557,-28.208714,-4.333665,-6.518526,0.843211,-0.010065,0.469677
837716602,-26.995321,-3.053423,-6.691519,0.989030,-0.093020,0.354674
837736646,-25.176487,-2.106146,-5.927614,0.962687,-0.099672,0.318278
837756690,-23.891304,-2.319084,-5.883070,0.869592,-0.050224,0.320419
837776736,-23.006453,-4.702297,-5.067029,0.942572,-0.054718,0.290860
837796780,-22.614294,-6.026851,-4.474195,0.975875,-0.047722,0.362267
837836869,-20.645994,-7.216651,-5.096819,0.929676,-0.119021,0.465842
837856913,-16.320599,-6.692634,-3.119303,0.883817,-0.142223,0.449596
837876958,-12.440548,-7.999845,-2.028739,0.870416,0.027872,0.291317
837897002,-16.577076,-10.724400,-3.207884,0.784804,0.157309,0.249443
837917045,-22.410881,-16.472685,-3.427053,0.865835,0.177042,0.124844
837937089,-23.645357,-22.282146,-4.262525,0.776500,-0.076605,0.138226
837957134,-20.214062,-29.257711,-2.418445,0.773212,-0.079345,0.186671
837977178,-17.693014,-29.535297,-0.831169,1.453392,-0.106573,0.124192
837997222,-15.863132,-20.366220,-0.591544,1.241940,-0.122644,0.162411
838017266,-15.040856,-12.702379,-1.901495,1.152864,-0.001638,0.139763
838037311,-15.697207,-4.476404,-3.818866,1.167305,0.009976,0.058343
838057355,-16.130651,2.876420,-4.369837,1.166664,-0.008759,0.061925
838077399,-17.513496,8.582826,-4.935110,1.074464,0.014412,0.071175
838097444,-18.877094,11.004394,-5.589160,0.991589,-0.008167,0.078072
838117488,-19.169182,13.555937,-6.188021,1.035529,-0.029244,0.057568
838137534,-19.361837,12.596519,-5.814299,0.930332,-0.046053,0.053217
838157578,-19.673687,9.258941,-5.606099,0.943788,-0.042989,0.025749
838197667,-17.802399,2.975387,-4.223105,0.992815,-0.098516,0.069668
838217711,-14.085768,2.841294,-3.331955,1.083783,-0.148777,0.124392
838237755,-9.860606,7.910549,-3.255064,1.230558,-0.133424,0.197663
838257800,-5.991556,18.914389,-4.054504,1.305076,-0.055991,0.196627
838277843,-8.865866,32.968246,-6.635971,1.336588,0.164881,0.113024
838297887,-16.007954,46.768326,-9.706888,1.307256,0.127207,0.183032
838317931,-21.995771,19.642832,-10.081142,-0.526971,0.348469,0.319151
838337975,-25.635710,2.249526,-7.377438,1.271479,-0.134309,-0.186477
838358020,-26.596836,-2.623486,-5.386354,0.752886,-0.007860,-0.015626
838378064,-25.656942,-7.332673,-5.251368,0.930707,-0.089351,0.055915
838398108,-21.266104,-8.074051,-3.416096,1.061208,-0.207526,0.154104
838418153,-16.726452,-9.143596,-1.796580,0.805161,-0.202250,0.367522
838438197,-11.488238,-6.086337,-1.862552,1.073369,-0.190179,0.335695
838458241,-8.298769,-2.414319,-2.777226,1.037214,-0.112970,0.351071
838478286,-6.690829,0.770719,-3.185820,1.007605,-0.030624,0.384573
838498331,-6.158010,0.662874,-3.738343,0.926131,0.030033,0.388494
838518376,-5.895740,-1.774271,-3.101078,0.976093,-0.019177,0.297854
838538420,-5.878649,-2.131197,-2.565320,0.929309,0.025948,0.338610
838578509,-3.155988,-6.736709,-0.669531,0.816269,0.011863,0.442050
838598553,-1.326918,-9.187764,0.357658,0.874287,0.013641,0.370070
838618597,0.561818,-9.449976,2.071774,0.854172,0.071108,0.319119
838638640,-3.513676,-11.548674,1.286717,0.816176,0.284162,0.244885
838658684,-12.768863,-15.823974,-0.880669,0.891378,0.385819,0.257504
838678729,-19.310238,-19.578440,-2.246605,0.789668,-0.048594,0.174720
838698773,-11.614067,-28.472397,0.002517,0.827909,-0.311803,0.127664
838718818,-6.435268,-24.389833,1.691817,1.481874,-0.143315,0.106429
838738862,-2.869309,-15.812639,2.824341,1.145428,-0.024573,0.296791
838758906,-5.379997,-8.825154,-0.543009,1.174918,0.093904,0.133237
838778950,-8.537384,-0.904771,-2.494888,1.100912,0.051286,0.066396
838798995,-11.308233,4.862688,-2.865320,1.144238,0.066833,0.025236
838819039,-13.605672,10.187220,-3.679026,1.124519,0.072338,0.016394
838839084,-15.802659,14.665065,-4.828086,1.086070,0.001652,0.099865
838859129,-15.847020,17.751486,-4.852784,1.065282,-0.039968,0.143045
838879173,-15.519852,19.817467,-4.590918,1.232895,-0.026637,0.187642
838899218,-15.638692,27.291456,-5.507545,1.244686,-0.049508,0.313024
838919262,-13.734894,38.484249,-6.750892,1.276170,-0.103584,0.264374
838939306,-9.606194,39.205303,-8.476317,-0.160495,0.010513,0.537048
838959351,-7.495543,-3.654181,-1.864069,0.990042,-0.297158,-0.425599
838979395,-5.059581,-0.382821,-1.303270,0.665442,-0.020214,-0.348538
838999438,-7.247720,-13.161902,-0.507612,1.091487,0.089490,-0.136303
839019482,-9.485435,-10.514263,-2.154124,1.104227,0.057788,0.296722
839039527,-10.988530,-5.677327,-2.996904,1.031425,0.053686,0.456740
839059571,-12.884009,-1.961004,-3.935319,1.041888,0.032595,0.404672
839079615,-14.973707,1.944386,-5.474269,0.994277,0.077202,0.357660
839099660,-17.905163,1.439267,-6.049945,0.896728,0.037760,0.253361
839119704,-20.293808,0.325653,-6.183284,0.984055,0.043113,0.224721
839139748,-22.296833,-1.732348,-6.099358,0.969728,0.015677,0.257781
839159793,-26.060654,-1.234646,-7.923060,0.974167,0.382379,0.458350
839179837,-33.762177,-0.750272,-8.478244,0.994365,-0.098410,0.336890
839199882,-33.716225,0.126089,-8.504978,0.867390,0.121784,0.466686
839219927,-35.066887,1.715747,-9.683769,0.952392,-0.114731,0.454917
839239971,-29.717209,2.320176,-6.029994,0.806397,-0.456987,0.514801
839260016,-26.239435,-2.075971,-5.937655,0.777409,0.141287,0.093095
839280060,-33.716576,-6.136880,-7.880445,0.966879,0.112291,0.209376
839300104,-36.022755,-5.626561,-7.738056,1.051215,0.023012,0.326823
839320148,-36.814602,-2.786932,-8.924212,1.094512,0.058550,0.324210
839340192,-39.441216,0.541922,-9.266398,1.101432,0.104709,0.286978
839360236,-45.540318,4.095320,-10.955622,1.092438,0.268548,0.241380
839380280,-57.284096,7.939178,-14.882207,1.034479,0.233416,0.280372
839400325,-67.160034,7.160268,-17.675789,0.852089,0.080780,0.233172
839420369,-72.312378,4.991866,-18.814148,0.890469,-0.115942,0.178106
839440413,-72.720383,3.284442,-18.907528,0.951428,-0.283280,0.208481
839460458,-67.978889,3.204998,-17.577957,0.928120,-0.433201,0.281023
839480502,-58.712940,1.414919,-15.023797,0.901948,-0.413494,0.231055
839500546,-53.574528,-0.646785,-14.085044,0.921479,-0.203405,0.077867
839520590,-54.412712,-2.750843,-14.275736,1.051119,-0.056704,0.000794
839540635,-60.387199,-2.244258,-15.307710,1.008228,0.144475,0.059107
839560680,-69.864342,-1.787420,-17.654655,1.067003,0.213432,0.114182
839580725,-79.749557,-1.917821,-20.136913,0.925315,0.135678,0.196066
839600769,-88.393425,-3.951634,-21.979761,0.965786,0.029213,0.146079
839620813,-94.080513,-3.560677,-23.605318,1.038360,-0.142625,0.142858
839640858,-96.443222,-4.218659,-24.436047,0.953477,-0.263177,0.153492
839660902,-94.640533,-3.037250,-24.574301,1.034154,-0.417452,0.198578
839680946,-89.575020,-2.438022,-23.108089,0.977980,-0.424844,0.232228
839700989,-83.218063,-2.783462,-21.648510,0.930159,-0.391733,0.270570
839721034,-77.196129,-3.784159,-20.088551,0.995393,-0.357503,0.229732
839741078,-72.032440,-3.709874,-18.248066,0.901528,-0.296579,0.240218
839761122,-68.969742,-5.870683,-17.085312,0.920135,-0.205399,0.239568
839781167,-67.887314,-5.708810,-16.426765,1.015171,-0.177837,0.262865
839801211,-67.763985,-5.091399,-16.393007,0.936455,-0.107866,0.336350
839821255,-68.460892,-6.051896,-16.422134,0.966308,-0.117147,0.310620
839841300,-69.025475,-5.572800,-16.794847,0.956828,-0.115620,0.306876
839861344,-68.881805,-5.061415,-16.478397,0.989598,-0.184951,0.325768
839881388,-67.635818,-4.473361,-16.091892,0.946861,-0.159768,0.352236
839901434,-66.093895,-4.009431,-16.673542,0.986349,-0.134605,0.350431
839921478,-65.139183,-4.045425,-15.881954,0.935660,-0.210535,0.307122
839941523,-58.112003,-5.196796,-13.691475,0.832321,-0.479148,0.201396
839961567,-43.421906,-10.715006,-9.136396,0.807789,-0.587114,0.284328
839981611,-28.928667,-13.351538,-4.151531,0.957177,-0.432125,0.247573
840001655,-25.719282,-16.527611,-3.721822,0.801697,0.082203,0.152148
840021700,-30.249432,-22.981075,-5.820812,0.859312,0.035258,0.206436
840041745,-30.018032,-26.688883,-4.307592,0.923726,-0.086383,0.146353
840061787,-25.285671,-24.658680,-3.557978,1.459807,-0.154238,0.068879
840081831,-18.860151,-10.433060,-2.201730,1.281591,-0.346454,0.066336
840121920,-4.516965,1.782460,-0.969501,1.072647,-0.133752,0.193820
840141965,-0.254770,7.638448,-0.139444,1.106180,-0.074456,0.207765
840162009,0.511356,12.719632,-1.080559,1.052678,0.034448,0.206045
840182053,0.235846,16.215275,-2.064957,1.054087,0.045221,0.174776
840202097,-0.973481,19.026691,-2.234245,1.086120,0.073552,0.170188
840222142,-4.751409,23.831024,-3.720506,1.360689,0.162659,0.175344
840242186,-11.998764,35.039394,-7.025279,1.248693,0.153300,0.222840
840262232,-13.574715,46.983578,-9.189352,0.845015,0.013888,0.640086
840282276,-13.852479,9.160792,-5.879198,0.023357,-0.289882,0.016708
840302320,-4.415726,5.216522,-2.259021,1.175973,-0.305937,-0.190192
840322365,6.803818,-0.677907,1.501169,0.799239,-0.299606,0.051244
840342413,19.714046,-3.303630,4.774466,0.959032,-0.308414,0.135226
840362453,31.310520,-2.233667,7.992177,1.017525,-0.194610,0.241248
840382498,38.683563,-1.230142,9.358776,0.942301,-0.031805,0.336215
840402541,42.287491,-0.108636,9.468506,0.905066,0.083245,0.349912
840422585,41.738419,0.027577,9.119559,0.918847,0.229543,0.295149
840442629,39.218479,-2.008303,8.945992,0.895486,0.244265,0.253493
840462674,36.010082,-2.734705,8.284727,1.031576,0.251608,0.229102
840482718,32.320229,-2.286681,8.018610,0.949700,0.237957,0.294519
840502762,28.816942,-3.447093,7.555550,0.953289,0.232076,0.310172
840522807,25.836864,-2.756187,6.785800,0.918915,0.215194,0.361077
840542851,22.896002,-2.584319,5.665508,0.990769,0.202030,0.368225
840562895,20.078531,0.209116,4.511172,0.964190,0.181190,0.386505
840582940,20.980263,1.244668,4.024098,0.904584,-0.048304,0.296671
840602984,29.273363,-3.113962,6.567479,0.880122,-0.356343,0.157076
840623030,40.123131,-4.215659,10.005588,0.947438,-0.194368,0.230097
840643074,47.207703,-4.111142,11.518324,1.077113,-0.098995,0.297535
840663118,53.495049,-2.664933,13.294230,1.010741,-0.007626,0.319576
840683162,59.193504,-1.671478,13.806947,1.014594,0.017404,0.219886
840703207,64.683319,-2.076539,15.940713,0.939030,0.029464,0.156157
840723251,68.831909,-2.645374,16.633892,0.955430,0.117322,0.130223
840743295,70.869690,-2.538621,16.425886,1.001142,0.181245,0.126615
840763338,71.453575,-0.062484,16.070087,1.084431,0.268767,0.165263
840783383,69.218925,6.063401,15.741548,1.196685,0.335134,0.203090
840803427,64.197327,15.851439,14.224623,1.198148,0.451272,0.234645
840823471,61.183121,21.940050,14.339254,0.565343,0.235625,0.426258
840843516,63.099907,1.280852,17.901190,1.045500,0.086641,-0.114363
840863560,68.278610,6.063481,19.137316,0.883702,-0.055226,-0.003253
840883604,77.726311,0.936507,22.134621,1.073202,-0.139382,0.043129
840903648,89.171036,1.370124,23.745049,1.003950,-0.123242,0.174639
840923693,99.936127,2.277124,25.810295,0.990604,-0.072594,0.172332
840943737,107.962173,3.784169,27.330656,1.000301,0.081451,0.129155
840963782,112.395088,2.827947,28.539230,0.949677,0.223621,0.107723
840983827,112.575706,2.872353,27.954826,0.977764,0.339145,0.078367
841003872,109.564514,2.238234,27.625652,0.903121,0.387008,0.094992
841023916,104.729012,0.580914,26.655195,0.999211,0.484979,0.115522
841043960,98.891884,1.094130,25.184971,0.988964,0.512897,0.169845
841064005,93.990295,1.050673,23.461563,0.984452,0.427463,0.167522
841084066,90.530777,0.331980,22.866278,0.984786,0.339944,0.165301
841104114,88.542229,0.704764,22.819567,1.015565,0.330288,0.183946
841124136,87.188644,1.739742,22.345692,0.982671,0.319844,0.221653
841144181,85.613220,1.242958,21.919430,1.004468,0.306589,0.219033
841164225,82.628983,3.220167,20.450104,1.004833,0.292547,0.252184
841184269,80.126213,4.132614,19.853748,0.999597,0.279270,0.259467
841204314,76.891609,5.867151,18.924992,0.984066,0.298726,0.265419
841224358,73.329979,5.872009,18.153526,0.933666,0.307752,0.267080
841244402,69.134598,5.685308,17.012924,0.915253,0.317496,0.235696
841264446,66.159180,3.342933,16.184408,0.865810,0.222385,0.199206
841284491,66.756554,0.609506,17.182945,0.916818,0.057120,0.122993
841304535,73.950935,-0.434275,19.736612,0.979332,-0.042854,0.177104
841324581,78.633881,-1.811827,19.986551,0.978603,0.134704,0.270777
841344625,80.796829,-3.075341,20.407274,0.968888,0.068921,0.221215
841364669,82.738235,-2.228058,20.764137,1.009455,0.092714,0.111460
841384714,85.120499,-1.684814,21.411478,1.035057,0.119782,0.065953
841404758,86.652206,0.045741,21.490616,1.042802,0.181941,0.073615
841424802,87.074547,3.709486,20.614380,1.091454,0.228964,0.079607
841444847,87.299660,9.042236,19.766981,1.172165,0.292419,0.091379
841464890,85.994720,16.600594,19.216955,1.209827,0.322833,0.128813
841484934,82.096741,25.455557,19.408300,0.732759,0.350400,0.476318
841504978,79.584496,2.497220,21.245167,0.719369,0.316594,-0.116809
841525022,79.218758,3.418356,20.859482,0.902674,0.145771,-0.152694
841545067,82.167267,-3.151618,23.475725,1.014509,0.129679,-0.083950
841565111,85.823685,-4.270610,23.607178,0.985941,0.118919,0.081861
841585155,90.173248,-2.814084,23.502647,1.119114,0.068117,0.156291
841605200,95.133705,0.673480,24.976564,1.089724,0.053306,0.190585
841625244,99.639717,4.035590,25.000196,0.969801,0.134652,0.196126
841645289,101.688202,3.472153,24.985249,0.943220,0.244853,0.081382
841665334,100.390968,2.015663,24.755461,0.951402,0.311278,0.083401
841685378,97.228867,-0.012758,24.586685,0.897007,0.379905,0.148394
841705423,93.665787,-1.082554,23.772978,1.010875,0.425576,0.158995
841725467,88.970947,-1.307811,22.497007,0.984908,0.428160,0.201554
841745518,84.826744,-0.381239,21.611515,1.028446,0.378189,0.201621
841765556,81.844543,0.310381,21.147459,0.967996,0.330536,0.209358
841785600,80.088539,-0.003183,20.876919,0.972942,0.278585,0.202007
841805643,78.667740,1.115807,20.488125,1.003019,0.252587,0.240662
841825687,77.740997,2.013560,19.945293,1.018980,0.253304,0.273432
841845732,75.812218,4.314125,19.753458,1.029268,0.307974,0.313924
841865776,71.905685,5.781887,18.884478,0.981477,0.348762,0.320300
841885820,67.060036,6.394109,17.272421,0.900874,0.328607,0.307274
841905865,62.180214,4.711143,15.118485,0.882861,0.226088,0.222148
841925909,64.499725,1.697450,16.650007,0.866605,-0.147561,0.116564
841945953,75.528740,-0.936438,19.906345,0.925621,-0.165608,0.203460
841965998,84.533684,-1.549540,20.665909,1.080600,-0.045966,0.238473
841986042,91.766243,1.910301,23.058653,1.054762,0.004774,0.247090
842006086,96.763382,3.978309,23.650173,1.051244,0.095452,0.133528
842026132,100.263313,6.587140,24.299513,1.029877,0.115990,0.086563
842066221,101.296089,9.149907,25.088575,0.986488,0.317775,0.128090
842086265,97.137665,10.008031,24.264717,1.014602,0.444794,0.168976
842106309,91.953369,9.279686,22.999920,0.888396,0.442139,0.160602
842126354,89.690224,6.902534,23.510235,0.884246,0.196276,0.080108
842146398,93.341766,3.914256,25.978651,0.974472,0.086281,-0.000678
842166441,100.515610,2.731629,27.822521,1.000733,-0.019818,0.014664
842186485,110.239441,1.604528,30.304457,1.022680,-0.086926,0.065327
842206530,121.461403,2.397101,32.269520,1.038421,-0.046843,0.083965
842226574,130.734619,3.112082,33.867661,0.998755,0.037097,0.049008
842246618,136.522217,3.572793,34.678432,0.985172,0.179589,0.025219
842266663,137.661972,2.506317,34.743927,0.969179,0.288072,0.012058
842286707,136.366486,1.697783,34.588360,1.009624,0.378557,0.011763
842306751,132.498001,1.284300,34.198669,0.980141,0.461958,0.076307
842346840,122.907677,-1.194510,31.191250,0.951869,0.454739,0.029597
842366884,118.947571,-2.492951,30.416574,1.000798,0.428505,0.021544
842386930,115.378685,-2.053685,29.651445,1.034995,0.443317,0.087476
842406974,111.789032,-1.438874,29.000757,1.034682,0.411563,0.136917
842427018,108.679924,0.585678,28.236712,1.026766,0.358463,0.159562
842447063,106.785332,0.324302,27.487274,0.976318,0.291108,0.129670
842467107,104.723007,0.802116,26.738634,1.005710,0.299147,0.124253
842487151,101.205986,1.264042,25.880722,1.007292,0.346787,0.157916
842507196,97.277946,1.519359,24.710539,0.999390,0.344357,0.179569
842527239,93.209198,1.927637,23.787096,0.974629,0.324108,0.221692
842547283,89.892403,1.558195,22.614773,0.952962,0.282893,0.237562
842567327,87.794113,0.900862,22.031080,0.904041,0.235805,0.246463
842587372,86.349731,-0.512173,20.848818,0.892704,0.254390,0.271316
842607416,84.659393,-0.999411,21.257671,0.925248,0.140270,0.168463
842627460,90.722412,-4.697327,23.070339,0.803669,-0.094035,0.032308
842647504,94.547104,-12.123922,24.274048,0.849107,0.331425,0.036455
842667549,88.212959,-17.686234,22.168886,0.915237,0.328976,0.089708
842687593,85.082573,-20.827068,22.102539,1.037832,0.204528,0.092453
842707637,83.648293,-20.480476,20.570360,1.294027,0.179513,0.036383
842727682,84.670380,-12.166738,20.140778,1.115741,0.107179,0.022931
842747727,85.609474,-8.152725,19.077595,1.060558,0.096737,0.079990
842767772,86.720428,-3.860889,19.477314,1.118583,0.173826,0.051912
842787816,85.286087,2.003809,18.171291,1.096965,0.310256,0.105703
842807861,82.065979,8.613276,16.179144,1.097700,0.380623,0.183189
842827905,78.343613,14.385674,14.772639,1.025876,0.246382,0.158765
842847949,79.559425,17.099846,15.106802,1.026170,0.135631,0.084960
842867993,82.218819,18.900761,15.813348,1.121111,0.071040,0.005107
842888036,85.877846,20.955143,17.248514,1.281832,0.028253,0.009972
842908081,89.340149,26.484615,18.675930,1.220816,0.060237,0.143222
842928125,93.026939,31.936316,19.411516,1.109888,0.141452,0.170487
842948169,94.873863,36.708687,19.902332,0.584831,0.218110,0.538700
842968214,96.723320,7.339620,23.853722,0.618115,0.108141,-0.156494
842988258,97.357330,7.436792,22.969971,0.888166,0.108237,-0.066691
843008302,98.248062,1.229928,24.669750,0.840422,0.235542,0.044751
843028347,97.843140,-1.461112,24.357986,0.912317,0.344475,0.163715
843048391,96.758774,-0.722054,24.407133,0.952978,0.291379,0.200056
843068435,95.284164,-0.609000,24.038013,1.021757,0.323719,0.167966
843088479,93.368965,0.303453,23.376766,0.939134,0.333767,0.156195
843108526,90.460129,0.461269,22.760239,1.023230,0.314371,0.075635
843128570,86.285294,-0.166723,21.926367,1.003607,0.335619,0.121505
843148614,82.109276,-0.315780,20.586582,0.999012,0.351262,0.174481
843168658,76.949455,0.328734,19.782867,1.019151,0.391784,0.232803
843188703,70.469116,0.453015,18.272928,1.029536,0.374123,0.269057
843208747,64.775818,1.995819,17.109785,0.976508,0.324581,0.282843
843228791,60.390720,2.030244,16.040901,0.912748,0.258270,0.288307
843248834,56.906864,1.530368,14.513104,0.911833,0.207483,0.275335
843268879,57.209427,1.537644,14.331457,0.921919,-0.038417,0.213570
843288923,65.158127,-0.496919,16.774443,0.862120,-0.252366,0.221390
843308967,78.045769,-3.496000,20.079987,0.921842,-0.126560,0.218620
843329011,81.768524,-6.366980,20.559851,0.889765,0.194670,0.145285
843349056,74.477577,-11.051367,19.211555,0.850500,0.446248,0.044774
843369100,68.085060,-15.895037,18.083241,0.953052,0.247380,0.113799
843389144,64.686752,-18.878933,16.722523,0.895850,0.276895,0.080411
843409189,63.197697,-22.827412,16.542959,0.921097,0.221874,0.069270
843449279,62.596115,-11.331145,15.003353,1.238543,0.138944,0.085237
843469323,58.813595,-2.690726,11.433579,1.087721,0.213034,0.181367
843489368,54.991383,1.568114,11.325456,1.102399,0.235210,0.156934
843509412,50.866356,8.666674,10.014047,1.077654,0.283526,0.131222
843529456,48.885765,12.461031,9.864092,1.079218,0.125716,0.092877
843549500,50.353699,15.228589,10.185542,1.069857,0.084367,0.073407
843569545,52.305706,15.718103,10.719144,1.019968,0.032526,0.122819
843589587,54.442654,14.729509,11.383984,1.100749,0.072480,0.117381
843609632,55.574066,17.259739,11.284832,1.054405,0.129955,0.196961
843629676,55.928638,19.089087,11.378843,1.001756,0.126923,0.224008
843649720,56.355488,21.216095,11.653854,1.073072,0.098059,0.201598
843669765,58.112801,25.392347,11.437738,1.058542,0.113157,0.211897
843689809,57.588432,20.124311,13.918357,0.325969,0.302520,0.383569
843709853,51.838993,3.903757,13.235723,1.048814,0.373864,-0.051534
843729898,42.895622,2.812633,10.440370,0.740431,0.374360,0.020808
843749942,33.950874,-3.115601,8.585762,0.964583,0.342217,0.077043
843769986,25.904051,-4.105180,6.743138,0.999288,0.328999,0.241234
843790030,20.242250,-2.150751,5.616220,0.948425,0.199108,0.345803
843810076,17.211180,-0.933729,4.967970,1.023510,0.087532,0.309850
843830121,17.757687,0.941494,5.103951,0.966465,-0.034949,0.338622
843850165,21.601021,1.760543,6.203432,0.899264,-0.046276,0.368563
843870209,26.537809,-0.437755,7.414002,0.928442,-0.103540,0.371973
843890254,34.295025,-0.013028,8.904978,0.934916,-0.159804,0.445668
843910298,38.714722,-0.832810,9.800053,0.868407,0.210780,0.220060
843930364,25.738510,-5.796593,6.950659,0.844852,0.732454,0.053564
843950385,10.124894,-7.758613,4.020185,0.964372,0.337520,0.357193
843970429,0.755423,-9.481079,1.785387,0.919742,0.400251,0.319270
843990474,-6.899212,-9.305343,-0.397309,0.987914,0.256275,0.229385
844010518,-9.536449,-9.403051,0.487108,0.871167,-0.011445,0.124703
844030562,-8.995732,-13.418110,0.933187,0.887452,0.027123,0.109019
844050607,-11.402395,-16.026659,0.277916,1.018941,-0.019926,0.094056
844070651,-14.133869,-15.540926,-0.266733,0.985743,0.008152,0.103381
844090695,-17.191998,-16.337206,-1.496146,0.979688,0.013780,0.048827
844110739,-19.099529,-17.579319,-1.233395,1.243411,0.003809,0.005403
844130784,-20.691130,-8.696581,-2.462357,1.211625,0.087690,0.034945
844150829,-23.785324,-2.454375,-5.089965,1.093868,0.034252,0.059918
844170874,-25.526100,2.771048,-5.982916,1.204873,-0.057856,0.045832
844190918,-27.063477,9.794529,-7.107401,1.177027,-0.024244,0.145834
844210963,-27.450745,14.959376,-7.988206,1.257092,-0.136202,0.199847
844231016,-23.062748,27.564491,-8.474465,1.321117,-0.156390,0.203147
844251051,-23.394741,40.401272,-10.375275,1.273300,0.102791,0.138989
844271095,-30.036970,54.468567,-13.296310,0.387972,0.184141,0.890608
844291138,-35.911461,-2.314110,-8.889819,0.199723,0.160926,-0.316025
844311183,-41.885429,1.076681,-11.688940,1.180371,-0.003396,-0.316587
844331227,-44.367325,-3.005116,-10.106543,0.933895,-0.108050,0.025118
844351271,-45.164925,-5.407042,-10.579763,1.040322,-0.112164,0.132516
844371316,-42.110615,-1.397461,-10.522473,1.007480,-0.221331,0.264067
844391360,-37.302254,-2.314384,-8.847548,0.936115,-0.248772,0.290112
844411404,-33.075989,0.082260,-7.768394,0.904652,-0.162952,0.283516
844431449,-30.393337,-1.378280,-6.929178,0.917086,-0.108858,0.253439
844451493,-29.655464,-2.840684,-6.663534,0.934083,-0.049586,0.267212
844471537,-29.294056,-3.101397,-7.387976,1.004655,-0.044869,0.304491
844491581,-29.284029,-3.132558,-7.678441,0.981174,-0.093279,0.369242
844511627,-27.593407,-2.299391,-6.812329,0.990030,-0.113837,0.362861
844531672,-25.143032,-1.748600,-6.204545,0.934151,-0.142806,0.386556
844551716,-21.057217,-1.979392,-4.342131,0.943441,-0.203645,0.391129
844571760,-15.009871,-1.130996,-3.980887,0.891880,-0.149954,0.392100
844591805,-9.804067,-2.771763,-2.288340,0.913656,-0.182888,0.372539
844611849,-4.835196,-2.484637,-0.658745,0.885215,-0.046750,0.369439
844631893,-5.769827,-4.550236,-0.687222,0.894556,0.228101,0.271056
844651936,-12.698919,-7.550107,-1.956450,0.764152,0.237214,0.336536
844671980,-19.316277,-13.536302,-2.793864,0.780893,0.249899,0.241458
844692025,-27.200321,-20.164597,-4.315216,0.797315,0.115287,0.295323
844712069,-31.490835,-25.828800,-4.602818,0.830672,0.091415,0.246138
844732113,-33.931629,-29.632229,-4.565718,0.990645,0.054313,0.172665
844752158,-37.996887,-23.622549,-5.492590,1.486242,0.166695,0.037212
844792247,-55.950932,-2.700753,-12.236353,1.133753,0.145916,0.206112
844812291,-62.498241,2.550252,-14.671391,1.086889,-0.052081,0.169295
844832335,-62.794426,6.186324,-14.265112,1.073261,-0.211216,0.114780
844852379,-58.795456,11.629328,-14.024607,1.164949,-0.310033,0.078431
844872425,-53.131142,17.889950,-13.047350,1.144570,-0.318249,0.130899
844892470,-48.241219,27.918180,-14.016180,1.619581,-0.387097,0.108843
844912514,-38.675377,49.715012,-14.740492,1.511911,-0.421986,0.224572
844932558,-31.385906,66.175278,-16.006542,-0.571483,-0.031819,1.071905
844952603,-35.894726,-13.090067,-8.854269,0.953122,0.209999,-0.297997
844972647,-45.097157,6.982199,-14.886256,1.056983,0.309214,-0.301295
844992691,-56.429546,-3.464815,-16.274492,0.891895,0.068761,-0.118614
845012734,-65.790039,-5.930923,-17.139170,1.053585,0.060762,-0.094033
845032778,-70.331474,-4.487221,-18.446596,1.007580,-0.061086,0.079975
845052823,-72.314873,-3.665160,-18.647734,0.923077,-0.244581,0.252745
845072867,-70.732239,-3.435142,-18.236004,0.905354,-0.307135,0.287647
845092911,-66.968475,-3.623394,-17.697094,0.953000,-0.298317,0.296079
845112956,-62.200401,-4.633030,-16.555979,0.954139,-0.290703,0.279344
845133000,-56.651592,-4.307796,-14.991255,1.010840,-0.294520,0.234175
845153044,-51.649349,-4.883382,-14.024240,0.978697,-0.267402,0.265542
845173089,-46.344513,-5.691568,-11.534035,0.959709,-0.256983,0.257043
845193133,-42.178329,-4.703570,-9.921762,0.922969,-0.139752,0.321564
845213177,-40.177395,-5.356696,-9.178986,0.938453,-0.120417,0.388443
845233223,-38.796162,-4.509824,-8.933515,0.954972,-0.065117,0.420295
845253267,-39.266838,-3.703742,-9.622437,1.010047,-0.007613,0.379864
845273312,-39.487343,-0.947064,-10.498462,1.008497,-0.115636,0.358737
845293356,-35.344334,-0.349723,-9.732641,0.922047,-0.322230,0.329235
845313400,-25.104816,-2.780313,-7.439767,0.920779,-0.415936,0.275400
845333445,-14.292610,-1.786341,-4.038472,0.984949,-0.396090,0.386111
845353489,-3.608589,-1.556188,-1.358085,0.926027,-0.268390,0.369383
845373532,0.849016,-4.342047,-0.411352,0.839894,0.085370,0.162929
845393576,-2.977903,-9.572130,-0.869866,0.903496,0.104538,0.146108
845413621,-1.704092,-12.573606,-0.510160,0.963179,-0.015432,0.213555
845433665,0.809763,-13.714212,0.285418,0.931203,-0.022808,0.183611
845453709,4.594688,-14.265490,2.009551,0.967507,-0.022407,0.122624
845473754,6.356605,-14.246365,3.465382,0.993018,0.072021,0.100700
845493798,3.502052,-12.115761,2.398027,1.109852,0.206854,0.114279
845513842,-4.565377,-5.669578,-0.424134,1.180887,0.355483,0.199695
845533887,-12.369215,3.413782,-3.137925,1.218405,0.118214,0.212975
845553931,-13.566224,12.328702,-3.686921,1.210076,-0.092483,0.164992
845573977,-7.556499,21.887211,-3.598472,1.315781,-0.269716,0.169838
845594021,3.231528,33.957016,-2.350263,1.393118,-0.449865,0.195961
845614066,14.382052,38.692909,1.024368,0.247877,-0.371170,0.633932
845634110,23.453840,3.407358,6.284261,0.999387,-0.096294,-0.017957
845654154,26.238182,9.074818,4.881752,0.494277,0.160722,0.154173
845674199,24.014595,-3.896404,4.991007,1.123443,0.164450,-0.059449
845694243,19.971195,-1.530372,3.709052,0.964216,0.227848,0.172011
845714287,14.794674,-0.109763,2.375817,0.987761,0.257699,0.211593
845734330,8.510048,0.539974,0.676937,0.977018,0.278897,0.273106
845754374,2.198356,0.780647,0.034464,0.854086,0.194082,0.307569
845774418,-2.674517,0.121693,-0.923309,0.912610,0.136512,0.215072
845794463,-6.160399,-2.631090,-1.213293,0.936861,0.116501,0.196809
845814507,-8.291606,-3.073381,-1.086410,0.978186,0.042779,0.194320
845834552,-8.100040,-3.431431,-1.050728,0.927279,0.010537,0.215031
845854596,-6.416309,-5.472026,-0.465290,0.972482,-0.061348,0.219736
845874640,-3.844434,-3.520161,-0.376506,1.048104,-0.061634,0.253215
845894685,-1.710842,-2.557394,0.457655,0.967232,-0.060670,0.300071
845914729,0.434847,-0.873089,0.242301,1.044977,-0.042839,0.287278
845934775,2.023916,0.978912,0.105961,1.006773,-0.020985,0.331194
845954819,2.414546,1.451567,0.127374,0.978463,0.017764,0.299840
845974864,1.693191,1.838677,-0.455951,0.945809,0.070639,0.286148
845994908,0.692891,0.642186,-0.340860,0.918873,0.064123,0.276542
846014960,-0.853230,-0.380559,-0.819431,0.975201,0.074103,0.265852
846034996,-2.202430,0.837877,-1.057117,0.946204,0.088699,0.313163
846055041,-3.589274,0.174155,-1.196108,0.946723,0.080864,0.306268
846075086,-4.763227,0.920098,-1.450904,0.940276,0.043390,0.315700
846095128,-4.301694,-0.207228,-1.257429,0.905834,0.000916,0.298202
846115172,-4.039786,-0.876503,-0.702457,0.951052,0.034149,0.276134
846135217,-4.129030,-1.127672,-0.554702,0.961709,0.053873,0.309779
846155261,-4.675679,-1.706464,-0.320566,0.961795,0.061035,0.295332
846175305,-5.049467,-0.913937,-0.300668,0.957844,-0.002123,0.285338
846195349,-4.953184,-1.234370,-0.461940,0.916155,0.021741,0.284829
846215394,-4.975101,-1.974408,-0.802916,0.967933,0.003875,0.273355
846235438,-4.794201,-0.633518,-0.994285,0.978581,-0.019800,0.303804
846255483,-4.162509,-0.770893,-1.151273,0.986348,-0.018176,0.289508
846275527,-3.825987,0.090308,-1.175953,0.936785,-0.007055,0.292059
846295572,-3.049241,-0.472803,-0.906417,0.939087,-0.014379,0.263437
846315617,-1.655965,-1.676220,-0.768975,0.931872,-0.015598,0.248856
846335661,-0.466944,-1.362961,-0.563847,1.028520,0.009035,0.260512
846355706,-0.504667,-0.265577,-0.574410,0.975673,0.066258,0.305073
846375750,-1.132913,0.108477,-0.234882,0.999399,0.034105,0.262964
846395794,-1.316447,0.900939,-0.264525,0.980797,0.064668,0.276302
846415838,-2.262663,1.226619,-1.019035,0.946747,0.085273,0.278664
846435881,-3.436330,0.791447,-1.216414,0.950133,0.046594,0.266870
846455926,-4.020940,0.790833,-1.411387,0.931781,0.044783,0.286612
846475970,-5.328520,-0.223039,-1.382640,0.903459,0.047345,0.267029
846496014,-6.528894,-0.922443,-0.508818,0.938633,0.091126,0.250652
846516059,-8.934767,-0.855161,-0.790940,0.951264,0.144778,0.279668
846536103,-11.696432,-0.902808,-1.295020,0.972929,0.084342,0.296284
846556147,-14.552157,-0.226849,-1.952512,0.992771,0.090841,0.302652
846576191,-17.162836,-0.054709,-2.995154,0.942278,0.057253,0.282146
846596236,-19.098709,-0.606065,-3.903294,0.963415,0.011979,0.281316
846616280,-20.309269,-0.387709,-4.896844,0.987591,-0.051998,0.300073
846636325,-20.310858,0.106415,-5.425719,0.986946,-0.068706,0.318176
846656370,-20.610350,0.196618,-5.924543,0.983785,-0.041546,0.297488
846676415,-20.800238,1.553150,-5.902451,0.989242,-0.008141,0.303149
846696459,-21.461252,2.458351,-6.549803,0.974728,-0.001528,0.299210
846716503,-21.834116,2.458483,-6.450871,0.931881,0.009426,0.304370
846756592,-24.103441,1.107287,-7.166483,0.947339,0.018497,0.276859
846776636,-25.274874,0.961978,-7.250249,0.920352,0.023111,0.284664
846796679,-26.643188,-0.059474,-7.197372,0.917857,0.013427,0.263118
846816723,-27.850992,-0.937096,-7.576011,0.911207,0.009797,0.273586
846836768,-28.844042,-1.135372,-7.517876,0.970639,-0.010036,0.275510
846856812,-29.677563,-0.884139,-7.533103,0.964528,-0.006206,0.285957
846876857,-30.327972,-0.824409,-7.986809,0.987963,-0.023115,0.273058
846896901,-30.459173,0.333689,-8.095099,0.972729,-0.032117,0.288129
846916945,-30.166258,-0.648949,-7.929399,0.916805,-0.061150,0.275424
846936990,-29.541023,-2.210182,-7.546621,0.922312,-0.054674,0.228659
846957034,-28.916117,-2.910361,-7.212550,0.938513,-0.035507,0.251046
846977078,-28.273277,-3.320618,-6.742247,0.982341,-0.072796,0.272147
846997124,-26.889917,-2.618256,-6.374073,0.969141,-0.034937,0.291463
847017168,-26.161289,-1.116561,-6.301513,1.036595,-0.044860,0.283430
847037212,-25.224257,-0.011804,-6.529693,0.981680,-0.040739,0.292439
847057257,-24.379698,0.362274,-6.348648,0.962448,-0.031037,0.290391
847077301,-24.289463,0.279269,-6.006258,0.932295,-0.019280,0.275998
847097345,-24.463051,-1.153105,-5.830009,0.925017,0.013978,0.260181
847117390,-25.417236,-1.907573,-5.717285,0.923300,0.009843,0.290082
847137442,-25.502163,-2.669736,-5.736024,0.973522,-0.033401,0.281673
847157477,-25.106535,-2.235525,-5.859768,0.975102,-0.015274,0.293961
847177521,-25.093702,-1.846212,-5.586220,0.939317,-0.030999,0.279529
847197566,-25.142769,-1.807545,-5.340870,0.966643,0.022779,0.264177
847217610,-25.830008,-1.388495,-5.306006,0.959552,-0.014150,0.273437
847237654,-25.587723,-1.068685,-5.449318,0.982353,-0.018470,0.281043
847257698,-25.666824,-0.916643,-5.601119,0.976017,-0.024678,0.273990
847277743,-25.655851,-0.985783,-5.837986,0.940410,-0.032098,0.274428
847297787,-25.679995,-1.900387,-5.872680,0.946831,-0.027661,0.256701
847317832,-25.750643,-2.251179,-5.961839,0.965150,-0.019061,0.269627
847337876,-26.276417,-2.191116,-6.288060,0.959154,-0.019231,0.281077
847357922,-25.951399,-2.426755,-6.064339,0.965249,-0.054270,0.267869
847377966,-25.505938,-2.381646,-6.378791,0.979851,-0.023242,0.259398
847398010,-25.738552,-1.437207,-6.591382,0.993969,-0.035920,0.280784
