Timestamp (us),Gyroscope X (deg/s),Gyroscope Y (deg/s),Gyroscope Z (deg/s),Accelerometer X (g),Accelerometer Y (g),Accelerometer Z (g)
6113519876,-0.026010,-0.091679,0.009580,-0.302799,-0.390318,-0.868362
6113539905,0.042445,-0.145353,-0.073352,-0.301597,-0.390590,-0.869897
6113559934,-0.086368,0.000291,-0.021456,-0.301181,-0.391152,-0.867705
6113579964,-0.040418,-0.038285,-0.119443,-0.303501,-0.391486,-0.870484
6113599993,-0.161681,0.122605,0.030926,-0.303318,-0.388307,-0.869083
6113620023,-0.040819,-0.167296,0.018205,-0.301769,-0.388405,-0.869515
6113640052,0.021309,0.091065,-0.052191,-0.301942,-0.387402,-0.869600
6113660082,0.043597,0.121592,0.099218,-0.302328,-0.387953,-0.868424
6113680111,0.005466,0.029971,0.023920,-0.301287,-0.388670,-0.871427
6113700141,-0.002048,0.022144,-0.051800,-0.302185,-0.390057,-0.866889
6113720170,-0.048006,0.022844,0.084651,-0.302409,-0.389766,-0.869812
6113740201,-0.017911,-0.121973,0.040216,-0.301316,-0.389771,-0.870068
6113760230,0.020920,0.022260,-0.036829,-0.300261,-0.390335,-0.868139
6113780260,0.028836,0.128739,-0.022480,-0.303500,-0.389305,-0.869551
6113800289,0.043153,-0.023495,0.031901,-0.302720,-0.390686,-0.867817
6113820319,-0.147025,-0.213249,-0.140928,-0.300564,-0.390708,-0.866321
6113840348,-0.176074,0.122545,-0.006985,-0.301609,-0.390958,-0.869262
6113860378,-0.199057,-0.014516,0.016847,-0.302402,-0.388854,-0.869894
6113880407,-0.061089,0.152109,0.000317,-0.304138,-0.389120,-0.869286
6113900445,-0.015691,0.060002,-0.036769,-0.300323,-0.387690,-0.868754
6113920465,0.029074,-0.122638,-0.004792,-0.300941,-0.388497,-0.870233
6113940494,-0.115066,-0.137052,-0.080489,-0.302117,-0.387126,-0.869874
6113960524,0.052381,-0.076692,-0.027759,-0.300680,-0.388412,-0.869497
6113980554,-0.046665,-0.091181,-0.012403,-0.301664,-0.389491,-0.870893
6114000583,0.076260,0.174494,-0.059967,-0.302405,-0.389491,-0.869992
6114020613,0.037318,-0.008158,-0.050752,-0.302191,-0.388118,-0.871436
6114040642,0.075324,0.044984,-0.005628,-0.303336,-0.389676,-0.868548
6114060671,0.120595,0.014115,-0.028032,-0.303614,-0.389131,-0.867999
6114080701,0.059365,-0.000687,0.010017,-0.301801,-0.389325,-0.867881
6114100730,-0.032044,0.007560,0.040209,-0.300812,-0.390243,-0.867690
6114120760,-0.002025,-0.114230,0.048625,-0.302413,-0.388223,-0.868885
6114140789,0.021535,0.075879,0.039348,-0.301804,-0.388327,-0.867232
6114160820,0.013696,-0.015703,-0.020542,-0.302483,-0.387942,-0.870070
6114180850,0.059026,-0.092013,-0.042533,-0.302932,-0.387755,-0.870349
6114200879,0.036247,-0.061266,-0.080554,-0.302990,-0.388413,-0.866887
6114220909,-0.001722,0.015486,0.025008,-0.301234,-0.388139,-0.868773
6114240938,0.013820,0.068377,-0.020947,-0.301417,-0.388320,-0.868778
6114260967,0.028554,-0.015548,-0.027771,-0.301591,-0.390588,-0.870263
6114280997,-0.055214,-0.091096,-0.057323,-0.301259,-0.388875,-0.867502
6114301027,-0.100789,-0.075304,0.003203,-0.299259,-0.389432,-0.867931
6114321055,-0.001048,0.122175,0.031911,-0.301792,-0.388232,-0.867962
6114341084,-0.085225,-0.090861,-0.034616,-0.300846,-0.386861,-0.869759
6114361113,0.067083,-0.061153,-0.065050,-0.300235,-0.389236,-0.869315
6114381143,0.029584,0.076010,-0.096279,-0.301975,-0.389866,-0.868619
6114401173,0.081637,-0.068386,0.049133,-0.300780,-0.389414,-0.869326
6114421202,0.013492,-0.045432,-0.049682,-0.302785,-0.389132,-0.868716
6114441232,0.089784,0.106502,0.017265,-0.302438,-0.389413,-0.867800
6114461261,0.020359,-0.106309,-0.003738,-0.301234,-0.389230,-0.869240
6114481290,0.013305,-0.007293,-0.042352,-0.302320,-0.389676,-0.869718
6114501320,0.082038,0.114118,-0.020481,-0.302709,-0.389138,-0.867802
6114521349,-0.032076,0.106689,-0.035608,-0.302109,-0.390154,-0.865976
6114541379,0.058557,-0.007996,0.003316,-0.303149,-0.390220,-0.869189
6114561408,-0.131274,-0.007013,-0.064896,-0.300599,-0.390415,-0.869788
6114581439,-0.100271,0.152778,0.039930,-0.301943,-0.389401,-0.870440
6114601469,-0.115573,0.000301,-0.011885,-0.303332,-0.387948,-0.868075
6114621498,-0.069654,0.015071,-0.027164,-0.300969,-0.387417,-0.867941
6114641528,-0.038809,0.022315,-0.110436,-0.302417,-0.387134,-0.868144
6114661557,-0.023288,0.060028,-0.133233,-0.300688,-0.389596,-0.869508
6114681587,-0.023254,0.067543,-0.125305,-0.303161,-0.389952,-0.868274
6114701617,-0.045335,0.158589,-0.193985,-0.299996,-0.390794,-0.867865
6114721646,-0.000616,0.006124,-0.086185,-0.300968,-0.390687,-0.869523
6114741676,-0.296544,-0.038488,-0.237161,-0.300721,-0.391062,-0.868062
6114761703,-0.266383,-0.152029,-0.084152,-0.302645,-0.385753,-0.870326
6114781733,-0.014300,-0.107846,-0.250808,-0.301138,-0.387230,-0.868672
6114801762,-0.128179,-0.023086,-0.175148,-0.297427,-0.396103,-0.866138
6114821792,-0.363632,-0.067255,-0.121526,-0.302429,-0.389955,-0.868627
6114841821,-0.149791,-0.205857,-0.332004,-0.301946,-0.379738,-0.871720
6114861851,-0.317962,-0.119196,0.130354,-0.294715,-0.409818,-0.860012
6114881880,-1.304570,0.344632,0.753875,-0.313630,-0.403650,-0.866836
6114901910,-1.581579,0.596692,0.886311,-0.299257,-0.387705,-0.867276
6114921939,-1.562781,0.274725,0.598878,-0.299768,-0.381296,-0.872338
6114941969,-1.125922,0.256565,0.605063,-0.302733,-0.377269,-0.872531
6114961998,-0.728240,0.154511,0.468370,-0.301893,-0.383386,-0.870931
6114982028,-0.612236,-0.007061,0.180956,-0.304372,-0.385834,-0.870264
6115002059,-0.701246,0.046283,0.073897,-0.303386,-0.388934,-0.870824
6115022088,-0.669145,0.259750,0.336999,-0.301477,-0.389217,-0.871161
6115042117,-0.637526,0.183008,0.367118,-0.300835,-0.386857,-0.870490
6115062147,-0.636416,0.053430,0.382407,-0.301212,-0.383011,-0.873655
6115082176,-0.375700,0.081411,0.138916,-0.299478,-0.381564,-0.873614
6115102206,-0.253618,-0.056423,0.086894,-0.299740,-0.383557,-0.875189
6115122235,-0.055515,-0.202287,-0.078633,-0.303766,-0.382726,-0.872781
6115142265,0.105132,-0.066320,-0.231021,-0.302810,-0.382476,-0.869933
6115162293,0.309764,-0.204403,-0.350435,-0.302942,-0.377732,-0.870987
6115182322,0.811709,-0.147182,-0.713270,-0.303279,-0.371146,-0.875496
6115202352,1.486039,-0.593437,-1.374076,-0.305145,-0.369575,-0.877338
6115222381,2.426587,-0.928058,-2.548883,-0.301197,-0.367675,-0.879356
6115242411,3.519727,-1.491839,-3.549144,-0.299789,-0.364578,-0.880857
6115262440,4.616114,-2.026636,-4.673858,-0.301685,-0.370229,-0.878292
6115282470,5.446479,-2.521890,-5.776287,-0.294769,-0.380689,-0.872434
6115302499,5.657062,-2.742317,-5.349735,-0.276913,-0.409505,-0.854516
6115322529,3.481680,-2.316979,-2.253275,-0.285634,-0.487374,-0.831277
6115342559,-2.919082,1.835897,4.843527,-0.334434,-0.555652,-0.801022
6115362588,-9.146879,3.138686,6.702357,-0.319973,-0.494447,-0.815650
6115382618,-13.073643,4.989974,10.058954,-0.301438,-0.443957,-0.840261
6115402647,-15.465858,5.152858,11.724494,-0.293508,-0.424271,-0.850814
6115422678,-17.248936,5.380385,13.200233,-0.297879,-0.416698,-0.863962
6115442707,-19.259212,5.845152,14.696616,-0.297850,-0.423989,-0.863298
6115462737,-22.122387,6.407555,16.722515,-0.304269,-0.447059,-0.852204
6115482766,-26.301283,7.634678,19.682379,-0.309518,-0.446326,-0.847170
6115502796,-30.756104,8.620935,23.015656,-0.307445,-0.437738,-0.853904
6115522825,-35.212132,9.684870,26.810787,-0.299744,-0.430003,-0.861011
6115542855,-39.951515,10.752388,31.227484,-0.295477,-0.423966,-0.869924
6115562884,-45.188416,11.321473,36.034809,-0.285882,-0.417518,-0.876829
6115582912,-51.012875,11.796473,41.365810,-0.286034,-0.411171,-0.887455
6115602942,-56.868988,12.295849,47.106030,-0.289849,-0.382941,-0.897846
6115622971,-62.482822,12.389865,52.652630,-0.283381,-0.369097,-0.904642
6115643001,-69.225975,11.874924,58.681469,-0.276689,-0.373986,-0.916812
6115663030,-76.830803,11.137825,65.197014,-0.284907,-0.349892,-0.931969
6115683060,-84.575462,10.144632,72.298470,-0.274280,-0.325508,-0.938691
6115703089,-91.773300,8.224281,78.437462,-0.276835,-0.246452,-0.966029
6115723119,-97.476692,5.366943,84.448555,-0.252111,-0.187002,-0.987535
6115743148,-102.328438,1.740627,89.480858,-0.248971,-0.133233,-0.995660
6115763177,-106.959869,-2.345281,94.001534,-0.240263,-0.085938,-1.008684
6115783207,-111.713982,-7.125053,97.974480,-0.236143,-0.033033,-1.010227
6115803236,-116.050842,-12.509929,101.482620,-0.227709,0.018681,-1.015272
6115823266,-120.082069,-18.188412,104.174507,-0.215905,0.089514,-1.006574
6115843297,-122.928101,-24.651920,106.168427,-0.211389,0.168468,-0.992533
6115863326,-124.165443,-31.120863,106.813538,-0.217924,0.256006,-0.970467
6115883356,-124.806870,-37.404831,106.812920,-0.200667,0.315929,-0.955390
6115903385,-125.209961,-43.761520,105.933510,-0.193791,0.378051,-0.931515
6115923415,-125.006256,-49.822021,103.543053,-0.191494,0.436883,-0.900807
6115943444,-124.921242,-55.625008,100.581718,-0.185101,0.468110,-0.889094
6115963474,-125.499725,-61.751060,97.835075,-0.191445,0.518598,-0.855316
6115983503,-126.592842,-67.723938,94.556152,-0.189623,0.550396,-0.858736
6116003531,-128.700455,-74.368347,91.441589,-0.180499,0.579576,-0.842615
6116023561,-132.005173,-82.691963,89.599190,-0.175743,0.602510,-0.828631
6116043590,-136.062225,-91.348305,87.228477,-0.170961,0.662917,-0.805171
6116063619,-139.658020,-99.523064,83.921333,-0.154107,0.716472,-0.743874
6116083649,-142.882431,-107.049042,79.456444,-0.115498,0.768665,-0.675207
6116103678,-144.677460,-114.032410,73.365120,-0.115614,0.850232,-0.572662
6116123708,-143.464539,-119.041786,65.969719,-0.109986,0.887566,-0.450895
6116143737,-140.552704,-122.038284,57.716621,-0.117546,0.920690,-0.358688
6116163767,-137.278320,-124.025421,49.136780,-0.117107,0.944091,-0.294741
6116183796,-134.225891,-124.725914,40.280647,-0.127149,0.953437,-0.246249
6116203826,-131.331238,-124.365074,32.158577,-0.144162,0.966638,-0.179759
6116223855,-128.411499,-123.593948,23.851103,-0.144717,0.967244,-0.126447
6116243885,-125.726387,-122.157661,16.045933,-0.153796,0.982772,-0.061267
6116263916,-123.004608,-120.391548,9.049297,-0.154503,0.981629,-0.004778
6116283945,-119.963158,-118.344666,2.300666,-0.170590,0.973507,0.062442
6116303975,-115.839211,-115.121719,-3.865911,-0.171232,0.965622,0.134938
6116324004,-111.939667,-112.413353,-9.482364,-0.162944,0.947586,0.189134
6116364063,-103.670639,-104.307243,-19.259109,-0.188551,0.925573,0.290033
6116384092,-99.708740,-100.102646,-23.492987,-0.197120,0.903928,0.340636
6116404122,-95.265747,-94.939682,-27.181183,-0.195518,0.881494,0.390757
6116424150,-90.390869,-89.762199,-30.399202,-0.204395,0.845268,0.442863
6116444179,-84.771568,-83.938293,-32.613873,-0.214480,0.808211,0.513839
6116464209,-78.038399,-78.376305,-33.999352,-0.234938,0.783405,0.556916
6116484238,-71.165070,-70.922882,-34.058609,-0.232429,0.772532,0.559960
6116504268,-66.491653,-67.276680,-35.717117,-0.235724,0.807277,0.524989
6116524298,-67.132011,-69.320091,-40.022076,-0.241791,0.933490,0.348399
6116544327,-77.328568,-75.012939,-46.810684,-0.244549,1.086848,0.152396
6116564356,-92.420609,-80.749466,-53.927330,-0.237401,1.031159,0.245117
6116584386,-101.789490,-83.587234,-61.482555,-0.178945,0.852197,0.461599
6116604416,-105.300949,-83.791779,-69.003990,-0.161144,0.787483,0.559888
6116624445,-108.308289,-82.411514,-75.272278,-0.165094,0.803164,0.593199
6116644475,-112.400291,-79.789894,-80.793297,-0.160272,0.786096,0.625529
6116664504,-116.796135,-76.800064,-85.946022,-0.158948,0.753644,0.659851
6116684535,-121.320984,-73.771591,-91.129486,-0.139051,0.695616,0.702454
6116704564,-125.361267,-69.994675,-97.077194,-0.140930,0.650332,0.738340
6116724594,-129.402069,-65.644081,-104.462738,-0.135714,0.599103,0.770725
6116744623,-132.694290,-61.002911,-112.540344,-0.132785,0.527409,0.800693
6116764653,-135.680664,-55.952385,-120.636406,-0.135879,0.476725,0.842261
6116784682,-138.856659,-49.731892,-127.430649,-0.104628,0.401176,0.894016
6116804712,-140.447220,-41.628311,-133.110245,-0.085883,0.300944,0.927355
6116824741,-141.075317,-33.006901,-137.201447,-0.088864,0.206106,0.964864
6116844769,-140.529938,-23.446474,-138.615906,-0.119113,0.100557,0.993797
6116864799,-138.297516,-14.238016,-137.911179,-0.113901,0.008523,0.978789
6116884828,-135.926346,-5.108649,-137.872955,-0.108613,-0.048881,0.992129
6116904858,-134.715027,3.511312,-139.491501,-0.129866,-0.046185,1.005503
6116924887,-135.230621,12.065015,-140.898026,-0.135187,-0.068622,1.016347
6116944917,-138.114395,21.116415,-142.901276,-0.106783,-0.064126,0.995944
6116964946,-143.298645,32.324387,-145.545486,-0.067693,-0.094315,1.008076
6116984976,-148.276199,43.331245,-146.550156,-0.069574,-0.215984,0.974603
6117005005,-151.721436,54.532246,-146.259186,-0.054520,-0.316572,0.947533
6117025035,-154.644760,65.977806,-144.847855,-0.052224,-0.426116,0.907849
6117045064,-154.994812,76.825546,-140.594559,-0.049565,-0.573522,0.862707
6117065094,-152.944580,87.036224,-134.128357,-0.095789,-0.675176,0.770909
6117085123,-149.906723,96.157181,-126.469727,-0.069400,-0.729228,0.701820
6117105154,-146.556366,104.045235,-118.254662,-0.117802,-0.780706,0.661757
6117125183,-143.085358,110.183418,-109.592682,-0.149725,-0.828625,0.602915
6117145213,-139.439026,115.242607,-100.095100,-0.134463,-0.862831,0.563499
6117165242,-136.349426,119.572731,-90.978348,-0.167403,-0.898998,0.505388
6117185272,-133.180618,123.043236,-81.581398,-0.153478,-0.912544,0.438844
6117205301,-130.173691,125.821312,-72.368256,-0.178577,-0.924251,0.395420
6117225331,-128.199814,128.428101,-63.654598,-0.179325,-0.942290,0.365388
6117245361,-127.161743,129.313202,-54.578171,-0.187105,-0.957928,0.321570
6117265389,-126.115654,129.830917,-46.082466,-0.190089,-0.972583,0.244334
6117285418,-123.946190,129.687286,-37.823288,-0.192367,-1.014619,0.144398
6117305448,-119.731949,129.181656,-29.870955,-0.227385,-1.036930,0.039456
6117325477,-114.107208,127.273499,-22.535477,-0.225485,-1.032486,-0.022095
6117345506,-108.445236,125.014397,-15.386589,-0.236324,-1.019229,-0.066244
6117365536,-103.066002,122.238457,-8.453375,-0.234038,-1.005920,-0.101962
6117385565,-98.317207,119.320038,-1.875632,-0.253641,-0.990843,-0.136376
6117405595,-93.721107,115.439987,3.701692,-0.256964,-0.967010,-0.174462
6117445654,-83.185890,105.290794,12.746475,-0.284331,-0.956223,-0.277604
6117465683,-78.249115,99.392570,16.286158,-0.269082,-0.953321,-0.276051
6117485713,-75.823433,96.498154,19.541613,-0.281368,-0.943478,-0.263835
6117505742,-75.416397,94.520180,22.780815,-0.271645,-0.942498,-0.223225
6117525773,-79.451660,94.532204,26.797281,-0.247471,-0.960314,-0.145580
6117545803,-86.434563,95.275948,30.995731,-0.272262,-0.965344,-0.194050
6117565832,-91.733810,95.411240,35.730850,-0.229796,-0.917157,-0.287129
6117585861,-93.770050,97.492241,42.475636,-0.240022,-0.899828,-0.374503
6117605891,-97.068016,99.357903,48.842514,-0.264121,-0.904805,-0.385805
6117625920,-101.552376,98.356361,54.065247,-0.236950,-0.924826,-0.402346
6117645950,-107.188614,95.866737,58.609943,-0.221560,-0.903969,-0.465718
6117665979,-111.827438,93.683739,63.107056,-0.216151,-0.848994,-0.543086
6117686007,-114.761307,90.832558,68.520454,-0.219262,-0.800760,-0.595367
6117706037,-116.542755,88.039734,74.995422,-0.228300,-0.741961,-0.641165
6117726066,-117.314331,84.914238,81.466095,-0.250692,-0.707200,-0.674073
6117746096,-118.284027,81.323967,87.493217,-0.264495,-0.671325,-0.704184
6117766125,-119.725235,77.644638,93.452621,-0.243452,-0.639919,-0.723545
6117786155,-121.843109,74.007103,99.456848,-0.220270,-0.602218,-0.778326
6117806184,-123.677147,69.540100,105.976173,-0.214431,-0.566113,-0.821992
6117826214,-125.427979,64.538063,111.969284,-0.212435,-0.518176,-0.875836
6117846243,-126.969887,58.545322,117.940491,-0.207734,-0.459790,-0.912103
6117866273,-127.515343,51.713684,122.743980,-0.195883,-0.384890,-0.945270
6117886302,-127.526299,44.815731,126.774910,-0.196287,-0.322096,-0.966606
6117906332,-127.208984,37.326122,129.673660,-0.205757,-0.259481,-0.994573
6117926361,-126.634178,29.025990,131.881775,-0.197638,-0.200842,-0.999651
6117946392,-126.409576,20.789310,134.301498,-0.189682,-0.159003,-1.013467
6117966422,-127.096161,12.632711,136.462311,-0.191345,-0.115931,-1.009536
6117986451,-128.711426,4.100016,138.496948,-0.190214,-0.079109,-1.030448
6118006480,-130.333847,-4.570694,140.221863,-0.180397,0.004072,-1.028424
6118026510,-131.048859,-13.501156,140.827240,-0.173310,0.084292,-1.015698
6118046539,-130.961945,-22.523613,140.235825,-0.167841,0.152413,-1.003659
6118066569,-130.384003,-31.300995,138.596252,-0.168472,0.226503,-0.993672
6118086598,-129.151978,-39.501263,135.306824,-0.166300,0.295895,-0.961773
6118106626,-127.911476,-46.693687,130.682068,-0.172231,0.362432,-0.947194
6118126656,-126.447815,-53.377876,125.886360,-0.166672,0.422150,-0.915694
6118146685,-124.519218,-59.630058,121.269203,-0.186495,0.487763,-0.883913
6118166715,-122.077194,-65.506897,115.898521,-0.177245,0.533719,-0.839152
6118206774,-116.985870,-75.566971,104.339333,-0.192134,0.670892,-0.759612
6118226803,-111.672318,-78.498901,96.435631,-0.190594,0.738193,-0.664841
6118246833,-104.425957,-79.379166,88.265419,-0.187515,0.793778,-0.546051
6118266862,-93.082092,-77.674454,78.847191,-0.235186,0.898980,-0.463049
6118286891,-82.376755,-75.775398,69.631744,-0.176797,0.848976,-0.463202
6118306921,-73.477257,-72.127815,61.447075,-0.230074,0.863236,-0.446134
6118326950,-66.276329,-66.985352,53.734276,-0.241341,0.836081,-0.463640
6118346980,-59.090992,-59.274448,44.695793,-0.253366,0.878015,-0.377996
6118367011,-50.578350,-51.345642,36.907162,-0.266886,0.875925,-0.332862
6118387040,-42.621082,-45.637535,31.093096,-0.266650,0.870379,-0.350530
6118407070,-36.453373,-40.046955,25.991875,-0.265946,0.875349,-0.375943
6118427099,-31.550222,-34.408958,21.685757,-0.261594,0.877419,-0.392104
6118447128,-27.492935,-28.848577,17.865141,-0.278799,0.878963,-0.388443
6118467158,-23.538113,-23.666124,14.676964,-0.270009,0.883219,-0.362151
6118487187,-18.923277,-18.875507,11.446901,-0.258400,0.882645,-0.338414
6118507217,-14.177987,-13.987450,7.973458,-0.251723,0.879183,-0.314053
6118527247,-8.878741,-9.238822,4.653095,-0.273197,0.882808,-0.303505
6118547275,-3.797064,-4.942867,2.193206,-0.300011,0.873013,-0.329228
6118567304,-0.689111,-2.573120,1.029913,-0.312335,0.853447,-0.397715
6118587334,-0.251597,-1.746535,0.795721,-0.305292,0.836851,-0.449335
6118607363,-1.013379,-3.582933,1.280862,-0.311940,0.828867,-0.463302
6118627392,-2.376976,-5.155060,2.445884,-0.314331,0.852706,-0.456365
6118647422,-2.022948,-5.512799,3.010135,-0.317309,0.872721,-0.401908
6118667451,-0.324808,-4.744898,3.156151,-0.317115,0.859872,-0.385226
6118687481,1.165498,-3.170848,2.764549,-0.316021,0.839775,-0.423737
6118707510,1.617901,-1.518643,1.340623,-0.274493,0.877625,-0.350773
6118727540,12.715422,7.948216,-4.495903,-0.260637,0.998119,0.171581
6118747569,34.995068,17.243061,-9.916142,-0.188077,1.045239,-0.052756
6118767599,51.849365,30.797527,-17.990599,-0.271303,1.027918,-0.149671
6118787629,62.331623,36.575626,-21.643133,-0.308811,0.925644,-0.363941
6118807659,67.598305,35.686344,-19.745173,-0.292401,0.833278,-0.538170
6118827688,71.630234,35.945499,-17.811958,-0.206308,0.773053,-0.596212
6118847718,74.656990,34.193741,-17.879190,-0.236334,0.789036,-0.555653
6118867747,81.999832,34.683781,-19.039818,-0.245021,0.785914,-0.494930
6118887777,90.326454,34.500576,-21.930622,-0.230978,0.795493,-0.465399
6118907806,102.569366,35.511028,-25.860718,-0.251656,0.786952,-0.493932
6118927836,117.048180,36.027458,-30.574127,-0.227748,0.744399,-0.532646
6118947865,133.647873,36.120239,-35.699966,-0.251631,0.730483,-0.573515
6118967893,153.254501,36.567825,-41.494564,-0.272485,0.691931,-0.610180
6118987923,169.261047,36.159298,-49.505264,-0.277705,0.721583,-0.628797
6119007952,181.327271,34.833675,-55.758705,-0.255553,0.709871,-0.674831
6119027982,185.916321,32.244125,-62.581390,-0.218944,0.674432,-0.744587
6119048011,182.002884,28.433376,-67.934578,-0.225506,0.643787,-0.809248
6119068041,172.241333,24.662708,-72.843590,-0.227590,0.568101,-0.855446
6119088070,162.862961,20.764729,-76.523048,-0.237065,0.472006,-0.908526
6119108100,162.395996,16.291533,-78.767929,-0.217354,0.327691,-0.939576
6119128129,167.001892,10.918501,-80.297668,-0.202442,0.242516,-0.985495
6119148158,171.301666,5.358168,-79.149506,-0.199444,0.165550,-1.020484
6119168188,173.835327,-0.335659,-75.203262,-0.183248,0.028729,-1.020756
6119188217,172.070114,-5.751093,-67.667519,-0.188562,-0.145883,-1.015245
6119208248,166.590515,-9.430634,-59.071495,-0.211346,-0.276760,-0.993363
6119228278,161.263718,-12.760233,-52.563408,-0.205392,-0.261276,-0.983903
6119248307,159.964264,-15.543296,-44.685600,-0.132701,-0.187141,-0.965785
6119268337,167.583115,-21.584082,-45.374245,-0.167144,-0.052068,-1.100302
6119288366,180.012985,-24.905043,-49.093494,-0.412117,-0.174315,-1.119108
6119308395,187.519882,-26.720791,-49.817661,-0.244139,-0.372357,-0.965658
6119328425,189.023804,-28.966549,-47.523445,-0.291877,-0.573627,-0.935703
6119348454,187.201645,-24.044540,-37.633091,-0.210055,-0.482941,-0.797050
6119368489,189.082977,-22.506004,-29.843105,-0.304689,-0.579503,-0.803864
6119388512,188.354889,-14.898666,-18.716137,-0.228644,-0.673594,-0.681256
6119408542,183.903000,-8.098775,-9.108194,-0.238500,-0.783911,-0.605749
6119428571,178.460754,-1.910861,-1.967360,-0.283292,-0.807761,-0.544618
6119448601,172.941971,5.569627,4.624256,-0.271827,-0.826295,-0.502243
6119468630,168.400131,12.238523,9.077420,-0.303785,-0.880467,-0.503537
6119488660,165.396347,20.265017,12.223389,-0.332033,-0.844308,-0.457193
6119508689,162.266052,28.763285,15.122707,-0.316017,-0.880395,-0.377019
6119528719,156.257080,41.332428,19.851654,-0.228825,-0.917170,-0.238819
6119548748,148.146240,50.912273,19.630816,-0.342269,-1.052300,-0.250311
6119568778,161.030212,45.175823,15.871410,-0.350259,-0.924776,-0.588236
6119588807,176.641312,56.478416,6.200269,-0.312263,-1.088210,0.114563
6119608836,185.608444,59.859261,4.834185,-0.253718,-1.050309,0.411931
6119628868,193.177582,60.579250,4.505768,-0.335159,-0.974095,0.440891
6119648897,202.640671,63.099873,6.164826,-0.397383,-0.831214,0.088807
6119668926,189.340118,51.670689,6.709286,-0.477198,-0.720520,-0.663362
6119688956,135.801056,36.690258,6.013058,-0.542944,-0.738684,-0.507664
6119708985,118.535477,36.574474,3.230630,-0.384167,-0.938481,0.147462
6119729015,108.105247,38.149471,0.179518,-0.393442,-0.826319,0.513433
6119749044,89.824478,40.389423,-3.108436,-0.404499,-0.912687,0.606944
6119769074,89.362854,63.845375,-14.011545,-0.203426,-1.001123,-0.601345
6119789102,117.602097,55.218052,-11.195893,-0.543537,-1.325726,-0.619278
6119809131,141.718506,65.079636,-14.951939,-0.343097,-1.029395,-0.256686
6119829161,153.769318,63.379990,-17.001757,-0.337055,-0.978519,0.153061
6119849190,153.781708,56.076042,-18.236963,-0.462498,-0.851715,0.348477
6119869219,148.881989,51.962833,-20.009338,-0.406397,-0.794160,0.369093
6119889249,146.357819,47.879578,-20.446367,-0.449865,-0.829658,0.316843
6119909279,147.132355,42.541672,-19.824932,-0.405708,-0.832836,0.330677
6119929308,147.295670,36.598602,-19.039488,-0.376312,-0.751695,0.490939
6119969367,167.979019,9.392072,-7.359645,-0.487025,-1.266008,-0.280659
6119989396,195.582016,1.079166,-2.583173,-0.333188,-1.131313,0.156002
6120009426,209.245575,-0.140660,-2.005248,-0.359263,-0.881963,0.537849
6120029457,210.547607,2.013188,-6.844926,-0.359995,-0.681421,0.669877
6120049486,209.818176,2.222971,-6.725726,-0.232238,-0.687118,0.730146
6120069516,213.963806,0.945655,-4.279139,-0.306531,-0.848893,0.606296
6120089545,227.078690,-0.369205,-1.130346,-0.270971,-0.934411,0.534508
6120109575,241.920975,-3.169770,4.329137,-0.253082,-0.709344,0.752608
6120129613,248.869568,-3.167700,6.842158,-0.396228,-0.476962,0.745584
6120149634,249.924988,-4.425045,12.630793,-0.265579,-0.265656,0.765364
6120169663,249.882935,-2.188950,14.302810,-0.279089,-0.255919,0.844295
6120189693,250.891373,-0.387744,15.061548,-0.304632,-0.211606,0.895506
6120209721,253.252441,1.078218,13.321660,-0.257880,-0.154993,0.915596
6120229750,255.207092,2.404541,10.157310,-0.320711,0.054504,0.999224
6120249780,250.013657,0.636351,5.825096,-0.308397,0.452669,0.855850
6120269809,235.592331,0.107262,2.319631,-0.292012,0.618879,0.748010
6120289838,225.637299,-5.019197,1.379769,-0.328593,0.025054,1.107007
6120309868,247.126282,2.147968,7.137877,-0.513683,-0.577455,0.954456
6120329898,281.196899,1.843663,11.069276,-0.209576,-0.562163,1.196356
6120349927,315.493866,6.790602,15.085588,-0.277966,-0.108424,1.153429
6120369957,333.010681,5.062402,10.885332,-0.257880,0.445765,0.751345
6120389986,331.357269,5.395640,7.773070,-0.228274,0.903756,0.387966
6120410015,319.403076,-0.768072,0.798009,-0.222658,0.961608,0.112428
6120470105,294.596619,-9.871640,-4.285802,-0.334940,0.845570,0.168871
6120490135,294.546997,-9.645603,-2.786466,-0.336255,0.884538,0.078829
6120510164,292.169800,-7.671261,-1.143710,-0.322140,0.954708,-0.130725
6120530193,285.500702,-7.596386,-0.700219,-0.310101,0.934366,-0.358769
6120550226,275.696625,-2.427407,-0.134210,-0.329679,0.888291,-0.387541
6120570253,267.057495,-0.361803,-1.596332,-0.104883,0.802200,-0.642132
6120590282,251.008057,-24.314154,0.901983,-0.408024,0.869549,-0.448785
6120610311,260.049622,-20.091288,1.060451,-0.196712,0.959178,-0.062000
6120630340,263.126740,-26.739029,11.945010,-0.482022,0.873910,-0.760711
6120650369,253.492340,-20.090702,11.300706,-0.442876,0.716172,-0.885602
6120670398,240.232010,-20.019478,16.131083,-0.331657,0.492879,-0.888051
6120690428,228.189316,-23.204069,21.224432,-0.310749,0.465378,-0.785808
6120710457,222.065201,-26.393017,25.289511,-0.364176,0.613900,-0.721579
6120730487,219.059357,-28.475960,30.423473,-0.362733,0.534571,-0.692893
6120750517,216.772110,-28.273918,32.581566,-0.423112,0.495369,-0.826704
6120770546,213.916748,-20.886759,31.441504,-0.513595,0.394921,-0.984942
6120790575,205.663696,-12.760838,26.440914,-0.363157,0.092418,-0.988217
6120810605,194.281509,-6.141924,34.689827,-0.305627,0.640559,-0.732158
6120830634,209.159454,-13.419403,33.052155,-0.310601,0.714927,-0.781124
6120850664,230.978210,-13.899278,49.254536,-0.301191,1.008227,-0.681121
6120870695,262.833862,-9.129701,53.271156,-0.477933,0.667085,-0.802270
6120890724,275.787018,-4.082619,57.973866,-0.452588,0.109919,-0.910174
6120910754,273.039734,1.513909,58.721664,-0.451506,-0.178971,-0.964957
6120930783,266.385742,6.044459,55.473175,-0.449426,-0.209125,-0.966480
6120950813,262.622650,10.007689,53.315086,-0.400260,-0.134337,-0.941527
6120970842,266.422852,12.472651,49.861530,-0.390672,-0.023979,-0.976594
6120990872,276.946411,14.349364,47.310856,-0.363056,-0.075090,-1.035685
6121010901,285.968384,17.284964,44.909782,-0.402203,-0.301079,-1.008923
6121030945,286.963806,19.825188,41.310181,-0.344289,-0.627996,-0.865483
6121050959,275.950958,24.220823,40.881260,-0.385401,-0.841294,-0.637242
6121070988,261.743256,26.792835,36.364185,-0.430956,-0.792851,-0.570068
6121091018,253.751434,26.942984,29.929430,-0.452725,-0.706787,-0.654621
6121111047,254.278778,21.655674,20.284147,-0.464481,-0.651717,-0.714100
6121131077,256.376556,16.738125,14.427567,-0.179412,-0.838660,-0.542303
6121151106,248.212708,34.068558,25.992468,-0.411830,-0.973699,-0.347486
6121171135,233.408615,48.700424,28.152250,-0.215704,-1.111641,-0.079727
6121191165,215.044601,65.393555,31.043633,-0.395757,-1.027208,-0.121677
6121211194,201.556610,75.614990,27.524178,-0.420650,-1.031858,-0.047081
6121231224,184.472061,81.124809,22.897638,-0.354275,-0.916986,0.068447
6121251253,170.235367,84.322296,18.724073,-0.419401,-0.839010,-0.051393
6121271283,158.291580,87.258690,15.221038,-0.395651,-0.840038,0.037812
6121291314,150.552673,84.508995,13.799783,-0.518881,-0.849107,0.053071
6121311343,146.577484,76.495979,10.460773,-0.565715,-0.925798,-0.023260
6121331373,144.972809,60.630249,4.853555,-0.467682,-0.854887,0.068274
6121351402,136.827606,51.886261,1.662727,-0.536340,-1.399460,0.230285
6121371432,137.529190,75.373978,-16.086731,-0.068210,-0.633050,-0.745009
6121391461,166.591644,68.681686,-9.215335,-0.418936,-1.162791,-0.466481
6121411490,179.843185,86.381531,-14.816664,-0.356434,-0.955524,-0.305245
6121431520,190.598373,94.979134,-19.372259,-0.355124,-0.885495,0.026547
6121451548,193.041504,91.646454,-21.936176,-0.515694,-0.884691,0.170198
6121471577,190.098907,92.617371,-27.594425,-0.496877,-0.861363,0.289767
6121491607,186.834137,87.470993,-30.714531,-0.482129,-0.834289,0.270355
6121511636,186.500412,87.808006,-35.153057,-0.455844,-0.822373,0.150567
6121531666,191.257629,87.272881,-37.405735,-0.451909,-0.820225,0.184429
6121551695,195.455124,84.505974,-40.989559,-0.539407,-0.787891,0.325725
6121571725,199.711227,82.253143,-43.265965,-0.593613,-0.966384,0.204420
6121591754,219.428955,64.115700,-43.437752,-0.800016,-1.059273,0.013602
6121611784,235.623245,44.708870,-37.299854,-0.675176,-0.984578,0.413723
6121631813,240.450195,31.469582,-37.178772,-0.598155,-0.690257,0.469369
6121651843,246.332733,17.981697,-30.079556,-0.578926,-0.810955,0.497323
6121671872,257.204742,7.492125,-22.131157,-0.418067,-0.836478,0.469483
6121691902,271.391388,2.411696,-14.340304,-0.384870,-0.868986,0.526598
6121711933,286.502869,-1.753695,-6.875137,-0.363030,-0.790592,0.634492
6121731962,298.769135,-4.213223,0.877615,-0.275836,-0.629372,0.745948
6121751992,306.821991,-3.821236,7.914416,-0.230433,-0.436607,0.850170
6121792053,313.293579,0.392993,17.321890,-0.248631,-0.013577,0.881449
6121812080,306.307526,3.562460,16.245565,-0.189542,0.480063,0.826721
6121832110,287.137177,5.960043,13.160576,-0.203689,0.641781,0.677809
6121852139,278.583191,9.369246,19.807655,-0.428927,0.314399,0.953766
6121872167,296.188354,4.158473,19.101709,-0.201369,-1.031634,1.173432
6121892197,343.083130,18.379164,32.425316,-0.329701,-0.478729,1.514247
6121912226,373.707336,23.988062,35.099842,-0.131479,0.074704,0.878509
6121932255,381.005920,36.606682,41.555943,-0.202333,0.778358,0.559682
6121952285,377.455017,45.208813,40.716206,-0.043640,0.795625,0.317661
6121972315,372.548431,50.403694,31.776402,0.057441,0.834274,0.251556
6121992344,369.929138,55.251339,22.779961,-0.020913,0.876164,0.148513
6122012374,367.423645,55.872086,13.265570,-0.027868,0.924968,-0.029537
6122032403,361.533356,50.871750,4.153099,-0.075787,0.994364,-0.243575
6122052432,353.470428,46.148708,-2.877670,-0.153613,0.981900,-0.445802
6122072462,343.011597,41.393570,-7.376903,-0.140166,0.928869,-0.598535
6122092491,330.962830,36.280983,-12.025545,-0.091014,0.847085,-0.794957
6122112522,315.466187,29.776516,-14.988523,-0.165211,0.774309,-0.873066
6122132552,303.990753,25.842493,-16.841402,-0.155793,0.682375,-0.721120
6122152581,303.886322,27.208826,-22.675985,-0.244610,0.795727,-0.522586
6122172610,311.781708,28.928820,-26.174379,-0.187628,0.732115,-0.467837
6122192640,325.253906,29.040596,-37.382748,-0.262885,0.826366,-0.949307
6122212669,322.779572,37.272667,-49.265995,-0.203737,0.446796,-0.932136
6122232699,322.719391,35.873093,-60.407555,-0.111595,0.427093,-1.010338
6122252728,327.450775,29.891428,-68.452728,-0.145031,0.454777,-0.926270
6122272774,339.243591,21.741680,-76.309479,-0.203515,0.370449,-0.992545
6122292786,354.371521,10.481609,-82.569023,-0.203834,0.231346,-1.052630
6122312815,367.925659,-2.420962,-86.283081,-0.123627,0.063023,-1.108208
6122332845,372.843536,-13.604358,-83.540665,-0.102090,-0.176953,-1.200732
6122352875,365.225708,-24.157055,-75.957031,-0.134869,-0.529235,-1.109851
6122372904,347.288971,-36.548660,-63.305687,-0.075272,-0.552933,-0.919484
6122392933,351.474670,-43.744183,-66.473221,-0.085623,-0.239738,-1.213917
6122412963,374.391205,-58.548801,-64.207268,-0.022394,-0.339672,-1.389828
6122432992,397.870056,-75.419533,-59.770370,-0.143379,-0.633377,-1.315724
6122453021,414.012970,-102.196129,-60.970757,-0.079623,-0.945065,-0.992839
6122473051,421.788635,-122.412018,-50.629639,-0.073213,-1.005490,-0.773458
6122493080,426.501343,-133.494385,-33.982567,-0.006944,-1.033388,-0.541301
6122513110,429.517242,-140.813171,-7.670389,0.085328,-1.095071,-0.338430
6122533141,429.038177,-138.164886,16.342434,0.124431,-1.180551,-0.090265
6122553171,426.590698,-133.993652,39.689453,0.214792,-1.163754,0.136763
6122573200,421.905609,-125.902878,59.347908,0.235432,-1.083216,0.363339
6122593229,416.858795,-110.965118,81.875389,0.172982,-0.937773,0.434239
6122613259,412.743042,-100.117821,93.663483,0.206770,-0.892184,0.657602
6122633289,406.801605,-85.346428,108.298965,0.300807,-0.638419,0.808825
6122653318,396.558472,-70.997360,119.584602,0.306712,-0.426255,1.050165
6122673347,380.048401,-56.429810,124.837601,0.481832,0.011332,1.144426
6122693375,359.396332,-24.385675,125.771698,0.329828,0.180101,0.995438
6122713405,341.096252,-5.907697,125.319580,0.365993,0.301315,1.007646
6122733434,320.341064,7.667637,113.996780,0.478949,0.618795,1.005023
6122753464,307.911041,33.114601,108.173927,0.268652,-0.043388,0.881546
6122773493,322.381378,37.324081,115.181786,0.330995,-0.175574,1.085379
6122793523,329.830383,54.008987,108.729401,0.207590,0.506024,0.982498
6122813552,323.968872,68.675713,103.637123,0.129642,0.702607,0.795532
6122833582,321.496460,82.370918,100.192390,0.026601,0.601669,0.766996
6122853611,324.868103,98.575302,96.084938,0.051163,0.620303,0.731598
6122873641,330.609863,114.432739,89.866135,0.072601,0.639812,0.768736
6122893670,340.514038,123.951027,74.786011,0.245970,0.689900,0.584316
6122913700,348.398682,134.493393,55.465485,0.258316,0.844109,0.398243
6122933729,350.541351,133.947205,32.178864,0.218239,0.989193,0.082418
6122953760,340.631409,125.976784,9.471917,0.154503,1.066182,-0.324802
6122973790,330.993439,119.138077,-6.723785,0.028115,0.912300,-0.009847
6122993819,344.778900,119.659164,-22.492285,0.109170,1.030838,0.353543
6123013849,368.320129,116.787239,-40.449135,0.283046,1.123658,0.103613
6123033878,387.222046,115.531082,-60.582699,0.256240,1.118489,-0.327869
6123053908,396.460907,112.575523,-80.676331,0.269231,0.901497,-0.746786
6123073937,393.032745,98.773720,-95.627762,0.121806,0.620008,-1.102263
6123093966,388.242401,82.297745,-108.919662,0.069212,0.586286,-1.011040
6123113994,387.102570,58.892506,-114.925850,0.266652,0.370096,-1.089895
6123134024,382.051697,38.736736,-115.994949,0.228156,0.130763,-1.244830
6123154053,373.172028,19.866919,-114.165138,0.164940,-0.087352,-1.277910
6123174083,361.672363,2.781243,-111.047485,0.072948,-0.298776,-1.255799
6123194112,348.329773,-10.247834,-92.838448,0.009774,-0.433722,-1.195720
6123214142,338.241486,-19.404053,-74.493576,-0.051193,-0.436868,-1.153284
6123234171,332.582031,-26.830229,-64.395241,-0.041366,-0.512819,-1.119317
6123254201,328.983887,-34.772953,-59.803772,-0.086452,-0.576749,-1.057466
6123274230,326.543152,-42.677814,-57.979530,-0.129158,-0.731043,-0.997051
6123294260,318.747131,-51.300533,-56.235249,-0.079031,-0.864830,-0.645262
6123314289,307.264709,-54.921276,-48.666199,-0.169328,-0.969582,-0.532212
6123334318,293.700775,-56.866589,-41.870438,-0.217644,-0.982925,-0.362583
6123354348,278.236176,-58.358589,-34.548649,-0.152844,-0.988771,-0.177536
6123374379,262.268341,-59.219677,-26.011683,-0.178170,-1.013418,-0.235508
6123394408,265.039795,-68.256874,-22.219229,-0.263551,-0.881974,-0.679733
6123414438,273.026672,-72.498657,-17.008753,-0.204708,-0.972249,-0.395505
6123434467,274.822693,-79.701599,-10.275149,-0.200661,-1.129564,-0.115162
6123454497,272.001495,-84.921165,-2.749143,-0.202074,-1.122905,-0.068107
6123474526,272.369751,-91.445549,4.326850,-0.249585,-1.125199,-0.061505
6123494556,276.577332,-99.648491,14.019458,-0.187170,-1.115186,-0.001514
6123514585,287.007629,-101.162155,21.733053,-0.246560,-1.249499,-0.259344
6123534613,304.242706,-97.881493,33.056679,-0.137320,-1.205136,-0.031115
6123554643,326.893372,-86.751602,51.087837,0.048518,-0.966154,0.089237
6123574673,341.217590,-75.079781,65.493759,0.015246,-1.071464,0.300346
6123594702,336.806274,-67.266449,68.678749,0.144674,-0.833851,0.654759
6123614731,325.735413,-53.663410,71.827072,0.145813,-0.517411,0.841478
6123634761,321.098175,-45.354057,79.564636,0.109889,-0.727950,0.697716
6123654791,332.324615,-32.623718,80.145554,0.098906,-0.982135,0.687152
6123674820,352.151276,-22.477097,91.048843,0.055098,-0.853922,0.882173
6123694849,366.183380,-11.450155,105.626862,-0.029462,-0.507497,1.000677
6123714879,372.141479,-0.037058,115.921394,0.091633,-0.187637,1.018658
6123734908,375.678131,17.094067,122.853378,0.154666,-0.037450,0.922109
6123754938,379.447815,34.295029,121.474884,0.148120,0.081820,0.906947
6123774967,381.671753,51.307587,115.949814,0.238634,0.377688,0.790920
6123794998,378.432892,68.352638,104.682175,0.247258,0.572604,0.704673
6123815028,376.602631,80.565384,91.454109,0.230446,0.671750,0.605168
6123835057,373.370300,94.171967,76.272659,0.274410,0.833268,0.444143
6123855086,367.360016,100.886932,60.374332,0.259285,0.972880,0.307152
6123875123,360.518616,109.366592,45.059788,0.224521,1.079493,0.069844
6123895145,350.728027,113.351707,28.560827,0.189840,1.094200,-0.057391
6123915175,341.827637,114.312523,12.754920,0.164212,1.099718,-0.227837
6123935204,331.942566,111.017708,-2.522894,0.140003,1.060575,-0.410541
6123955232,320.682526,105.428574,-16.379417,0.120994,0.997142,-0.588364
6123975262,306.759277,95.820419,-27.625566,0.073839,0.872998,-0.869272
6123995291,285.898285,84.709007,-37.323280,0.021304,0.856875,-0.797149
6124015321,285.201477,86.215118,-47.807159,-0.110779,0.916842,-0.188989
6124035350,305.516327,87.689194,-61.889690,-0.063056,1.145272,-0.316195
6124055380,315.726562,85.334618,-71.479095,0.020212,0.725771,-0.617800
6124075409,319.613678,79.158699,-86.574417,-0.012139,0.683909,-0.919983
6124095439,320.829956,71.761139,-97.930374,-0.052775,0.610123,-0.938306
6124115468,322.751282,60.991413,-108.211342,-0.027229,0.471697,-0.985822
6124135498,324.472107,49.109825,-116.701286,-0.034284,0.343038,-1.080703
6124155527,320.705170,32.731197,-122.047447,0.051348,-0.028063,-1.185997
6124175557,306.031677,14.328066,-121.854538,0.056846,-0.309004,-1.171069
6124195586,292.239502,-1.954460,-123.460793,0.011655,-0.237817,-1.099479
6124215617,293.431610,-11.688446,-118.851959,-0.198016,0.332735,-1.123537
6124235646,323.726654,-28.140732,-115.059753,0.026914,0.346108,-1.440565
6124255676,344.402100,-42.101818,-105.401825,0.179132,0.037752,-1.316144
6124275706,364.296631,-68.252228,-111.420288,-0.006395,-0.426772,-1.261832
6124295735,366.363525,-81.048203,-101.500610,0.040864,-0.754188,-0.941917
6124315765,363.507629,-97.880638,-93.194717,0.050326,-0.922530,-0.792502
6124335794,360.514343,-115.697441,-81.301880,0.049217,-0.955827,-0.672503
6124355823,353.745972,-112.616699,-56.294895,0.105816,-1.133831,-0.493746
6124375851,344.588806,-99.425545,-32.223148,0.110986,-1.147588,-0.278518
6124395880,335.800995,-89.122528,-15.345141,0.070360,-1.134986,-0.130344
6124415910,327.887634,-74.865425,-2.836882,0.005149,-1.136801,-0.077192
6124435940,320.555695,-71.399460,4.507865,-0.224314,-1.200850,0.187346
6124455969,306.620148,-68.383499,10.230625,-0.114409,-0.897549,0.560126
6124475999,284.485260,-61.583427,14.659018,-0.231011,-0.679857,0.811941
6124496028,250.245316,-42.657745,13.581282,-0.203985,-0.434787,1.105235
6124516058,227.119720,-33.274555,14.984990,0.050185,-0.814208,0.289781
6124536087,240.483063,-29.941074,24.592745,-0.307444,-1.292005,0.225413
6124556116,246.879105,-33.179424,22.355976,-0.454103,-0.693651,0.428954
6124576146,243.108276,-26.571518,21.191681,-0.073778,-0.657112,0.695021
6124596176,237.535980,-19.190184,20.831308,-0.228823,-0.581637,0.710362
6124616206,234.412659,-14.161412,19.650257,-0.223187,-0.682440,0.699114
6124636236,237.237976,-7.616088,12.514975,-0.295022,-0.712939,0.663429
6124656265,242.681244,-3.532896,6.197752,-0.331485,-0.685092,0.691304
6124676295,248.735062,-1.526403,1.240296,-0.280679,-0.555799,0.787084
6124696324,251.008743,0.975486,-2.691980,-0.251174,-0.331840,0.853724
6124716354,247.348846,3.198756,-6.018217,-0.278566,-0.137272,0.882010
6124736383,241.734039,3.706189,-6.571105,-0.372530,-0.067213,0.901946
6124756413,235.780258,0.902911,-5.261487,-0.484157,0.120016,0.966590
6124776466,227.913620,-1.212410,9.772631,-0.351083,0.190629,0.773033
6124796470,228.762268,-5.387169,7.806417,-0.210053,-0.590522,0.934803
6124816500,255.857574,0.776345,6.865496,-0.456496,-0.830006,1.154900
6124836529,283.428375,-3.538090,-3.616498,-0.227194,-0.420540,0.935001
6124856558,298.436768,-3.763071,-6.139777,-0.388492,0.188824,0.888899
6124876588,296.798889,-6.907785,-9.033278,-0.385903,0.572085,0.687075
6124896618,285.794464,-9.086047,-10.908255,-0.280324,0.767356,0.514217
6124916647,275.818481,-8.466703,-9.947768,-0.342108,0.660921,0.509764
6124936677,270.259827,-11.012173,-12.848195,-0.342562,0.693525,0.495451
6124956706,264.026428,-14.633620,-15.353227,-0.343260,0.828744,0.409413
6124976736,256.241211,-19.965700,-17.435213,-0.356639,0.909716,0.314360
6124996765,246.080276,-24.907017,-17.967293,-0.364854,0.954451,0.226907
6125016794,236.449951,-25.492855,-14.941769,-0.388877,0.951106,0.106708
6125036825,226.746445,-22.251991,-10.371333,-0.422412,0.909525,0.119108
6125056855,218.291046,-16.794842,-5.727915,-0.372962,0.959751,-0.019121
6125076884,207.883728,-19.798019,-5.237641,-0.392306,0.976033,-0.104462
6125096914,199.754623,-33.686649,-8.119890,-0.315932,0.832772,0.062065
6125116943,195.399643,-42.301617,-7.708466,-0.332450,1.061015,-0.184046
6125136973,184.537796,-47.061825,-5.277802,-0.390506,0.996944,-0.256974
6125157002,175.956192,-49.471756,-2.046902,-0.390603,0.984513,-0.186520
6125177031,171.172775,-52.548134,1.388565,-0.373002,0.914487,-0.130189
6125197061,169.914047,-56.213272,5.058144,-0.397116,0.883573,-0.082481
6125217089,171.451050,-59.600571,9.742743,-0.449638,0.886698,-0.078102
6125237119,174.906891,-60.173035,14.730668,-0.347193,0.921278,-0.087985
6125257148,180.914124,-61.634747,19.605978,-0.399086,0.898639,-0.118161
6125277178,187.980286,-60.291557,25.004164,-0.456983,0.940158,-0.147566
6125297207,196.090363,-58.367718,30.420723,-0.339865,0.893730,-0.104645
6125317237,203.954361,-53.138329,29.243299,-0.292159,0.845159,-0.042056
6125337266,215.082794,-52.919876,27.980635,-0.448550,0.867626,-0.057537
6125357295,233.925858,-55.536903,33.205463,-0.627330,0.874256,-0.082565
6125377325,248.989548,-56.933048,42.429153,-0.614712,0.776382,-0.371206
6125397355,256.389191,-52.968983,49.071701,-0.499299,0.694101,-0.584358
6125417384,259.692017,-47.540024,52.530655,-0.466887,0.643974,-0.676958
6125437414,262.646088,-40.444187,53.139725,-0.471692,0.585769,-0.750336
6125457444,265.330658,-33.977993,51.691620,-0.399648,0.483964,-0.817025
6125477474,265.298645,-29.359921,50.955276,-0.382935,0.359579,-0.920427
6125497503,261.526276,-23.797472,51.270687,-0.421340,0.229429,-0.944439
6125517533,257.627441,-18.122543,50.879963,-0.434785,0.146625,-0.928990
6125537562,253.494781,-13.143721,51.366905,-0.409084,0.104440,-0.954434
6125557592,250.908691,-9.070494,52.089664,-0.398206,0.062442,-0.949168
6125577622,248.318939,-4.542664,52.179291,-0.412938,-0.048379,-0.986128
6125597651,242.740234,0.231207,50.551849,-0.406967,-0.232532,-0.980979
6125617679,234.893982,3.337418,47.413311,-0.387224,-0.164220,-0.970166
6125637708,243.979568,3.196618,28.865461,-0.293742,0.354918,-0.919203
6125657738,266.522400,4.513789,23.717049,-0.295754,-0.162440,-1.234146
6125677767,264.738983,9.013835,21.335533,-0.607548,-0.355976,-0.872085
6125697797,260.682068,11.324899,16.325136,-0.150838,-0.676433,-0.903687
6125717826,249.730606,9.100884,16.778276,-0.328462,-0.697823,-0.794298
6125737856,244.903198,9.462179,14.748485,-0.301016,-0.552256,-0.794149
6125757885,249.310623,6.093331,11.313878,-0.228602,-0.403556,-0.864175
6125777915,261.290375,6.689712,10.601945,-0.395631,-0.461194,-0.955704
6125797944,274.559326,7.802177,9.203912,-0.340630,-0.547008,-0.871339
6125817974,281.218170,9.212790,9.096720,-0.348350,-0.655845,-0.786564
6125838003,289.311829,10.182178,6.795114,-0.451208,-0.834041,-0.733829
6125858034,294.725800,8.838062,2.676768,-0.378718,-0.956877,-0.582605
6125878063,296.610962,6.267793,-2.668874,-0.429674,-1.348210,-0.665291
6125898093,307.680359,12.408033,-4.087440,-0.482459,-0.533253,-0.514824
6125918122,315.667664,-1.120758,-5.857929,-0.154342,-0.903689,-0.444538
6125938152,333.116302,0.017698,-1.984593,-0.292083,-1.084831,-0.915511
6125958181,367.666534,-1.520485,-2.061121,-0.322036,-1.188181,-0.747513
6125978211,388.517273,1.354021,-1.726397,-0.245759,-1.056893,-0.095412
6125998240,390.552216,8.255075,-3.906348,-0.332018,-0.912157,0.343283
6126018268,384.189880,8.340758,-6.563883,-0.336770,-0.711451,0.482733
6126038298,376.422272,12.964780,-10.935849,-0.338597,-0.700525,0.564056
6126058327,372.081207,15.157953,-15.232672,-0.324775,-0.657066,0.547428
6126078356,371.771393,15.218661,-18.046295,-0.379039,-0.681756,0.575167
6126098386,374.636322,13.271116,-20.007488,-0.390921,-0.592122,0.650025
6126118416,375.490540,10.260235,-19.913555,-0.420309,-0.323893,0.763954
6126138445,370.696808,7.316311,-22.393253,-0.483502,-0.209569,0.798585
6126158475,368.227081,2.696660,-19.269737,-0.416762,-0.129046,0.805253
6126178504,365.723145,0.832465,-16.207287,-0.381319,0.019367,0.777166
6126198534,363.099762,-1.392556,-14.248855,-0.399673,0.108665,0.806907
6126218563,360.575684,-2.670830,-11.274736,-0.370672,0.271495,0.750092
6126238593,355.631927,-3.720335,-9.729146,-0.341883,0.424005,0.713900
6126258622,350.483490,-5.174538,-8.885393,-0.384328,0.513658,0.629502
6126278653,344.801147,-6.249611,-7.051826,-0.360489,0.631407,0.545618
6126298682,338.338837,-7.063923,-5.865304,-0.339930,0.717536,0.483117
6126318711,333.503082,-9.223915,-6.167955,-0.368952,0.725980,0.455883
6126338741,330.309418,-10.513477,-5.347386,-0.351156,0.734914,0.372539
6126358771,329.117493,-11.257867,-4.492516,-0.312668,0.771245,0.302109
6126378800,327.977295,-12.421447,-3.717504,-0.356897,0.801815,0.229642
6126398829,327.779053,-11.303839,-2.157487,-0.338947,0.851354,0.102489
6126418859,325.840088,-10.490841,-1.118919,-0.336035,0.886065,-0.027693
6126438887,323.745300,-10.437417,0.153414,-0.314792,0.905061,-0.106324
6126458917,322.113312,-9.567772,0.410697,-0.319984,0.875180,-0.194418
6126478946,321.486908,-9.400924,1.508399,-0.320272,0.860044,-0.270063
6126498976,321.990112,-8.273788,2.477270,-0.336070,0.841343,-0.342523
6126519005,322.580414,-6.844940,2.761261,-0.316604,0.824848,-0.503675
6126539035,320.315430,-6.206886,3.323467,-0.316050,0.758384,-0.650808
6126559064,317.247925,-5.950104,4.684607,-0.311166,0.668918,-0.684330
6126579093,316.652374,-4.507594,4.899670,-0.313619,0.668212,-0.748556
6126599123,317.048615,-4.113074,5.139177,-0.296351,0.575184,-0.809299
6126619152,316.483063,-4.275271,5.815073,-0.296238,0.501816,-0.896339
6126639182,316.516510,-3.544784,5.793792,-0.305962,0.417192,-0.916634
6126659211,316.694611,-3.052194,5.425801,-0.285566,0.294284,-0.964456
6126679242,315.573639,-2.163998,5.213084,-0.303206,0.158110,-1.024430
6126699272,313.208344,-1.439828,6.328012,-0.311726,0.080904,-1.037060
6126719301,312.723175,-0.987742,6.452878,-0.312079,0.020294,-1.030231
6126739331,312.781860,-0.848271,7.278185,-0.263176,-0.093884,-1.027571
6126759360,312.362610,-0.944168,9.796047,-0.312684,-0.176404,-1.022383
6126779390,312.987549,-0.100631,10.373091,-0.316657,-0.314659,-1.004920
6126799419,310.406525,1.047853,10.566916,-0.322622,-0.477802,-0.981694
6126819448,306.565613,2.850480,10.898699,-0.324844,-0.571381,-0.910747
6126839491,303.672058,5.025490,10.280052,-0.349210,-0.582538,-0.861217
6126859506,302.595703,6.143712,8.367032,-0.337044,-0.630913,-0.778390
6126879536,302.796265,7.492480,6.854547,-0.381945,-0.653309,-0.779418
6126899565,305.236359,7.242944,4.393636,-0.373199,-0.759260,-0.707129
6126919595,305.566956,6.488413,2.360543,-0.328813,-0.875026,-0.566977
6126939624,302.946106,6.492442,1.692017,-0.345691,-0.945826,-0.465749
6126959653,300.295776,6.809008,1.111837,-0.295857,-0.943405,-0.370975
6126979683,298.076141,6.988472,1.185078,-0.288316,-0.945283,-0.290714
6126999712,297.675262,9.327257,1.134918,-0.318295,-0.955525,-0.235972
6127019742,297.687836,10.277573,0.808496,-0.311382,-0.966353,-0.119469
6127039771,296.956451,11.184786,0.072643,-0.365594,-1.002645,-0.007207
6127059801,295.338928,12.162017,-1.611991,-0.351919,-0.941981,0.103950
6127079830,292.044495,12.304028,-3.055377,-0.340065,-0.928579,0.246412
6127099861,290.270599,12.453336,-4.460179,-0.355464,-0.902727,0.250052
6127119891,289.824829,12.391700,-5.384895,-0.344426,-0.885918,0.324152
6127139920,290.106812,11.525846,-6.643701,-0.343047,-0.833382,0.404999
6127159949,290.163910,11.414532,-7.969607,-0.362938,-0.779089,0.488347
6127179979,288.958130,9.545255,-8.909842,-0.396762,-0.693120,0.606179
6127200008,286.796204,7.877902,-10.163099,-0.377304,-0.594784,0.654695
6127220038,284.114197,7.225265,-11.538860,-0.353790,-0.524781,0.715522
6127240067,282.265961,7.258580,-13.602369,-0.355917,-0.459099,0.747774
6127260095,280.521912,6.903839,-15.457850,-0.341891,-0.364310,0.816983
6127280125,277.928009,6.559556,-17.806665,-0.356286,-0.293765,0.840499
6127300154,275.712341,6.138782,-19.669403,-0.340704,-0.133860,0.862773
6127320184,269.865967,5.015155,-23.491762,-0.366956,0.004397,0.908815
6127340213,265.131836,2.821202,-24.681187,-0.404181,0.007201,0.857842
6127360243,261.549744,0.288380,-27.497360,-0.365664,0.107240,0.843508
6127380272,257.574127,-2.267081,-28.607563,-0.417694,0.194407,0.836987
6127400302,253.012268,-5.789216,-30.634945,-0.425084,0.283329,0.809753
6127420331,248.633698,-9.328388,-30.645256,-0.417681,0.368705,0.781267
6127440361,243.678162,-12.857735,-30.906139,-0.443946,0.449514,0.743974
6127460390,237.636871,-16.306385,-31.517000,-0.388657,0.544507,0.670708
6127480420,232.713074,-18.958250,-31.095264,-0.430617,0.528900,0.705395
6127500449,228.462296,-23.260941,-31.599524,-0.396609,0.610236,0.622435
6127520480,224.327347,-25.892162,-30.586174,-0.422524,0.646670,0.571683
6127540510,220.158020,-29.986694,-30.174704,-0.432836,0.703616,0.548488
6127560539,215.396011,-33.680958,-29.372612,-0.413311,0.752366,0.477134
6127580568,211.175629,-36.340469,-27.851063,-0.428700,0.801064,0.420641
6127600598,205.621185,-40.342182,-26.917879,-0.414923,0.841027,0.347104
6127620627,200.264664,-43.863655,-25.465464,-0.418812,0.852772,0.304972
6127640657,195.066772,-47.369602,-23.671906,-0.410906,0.872776,0.255348
6127660686,190.720093,-51.109070,-22.073114,-0.416580,0.852320,0.254792
6127680714,188.609680,-54.051178,-19.774799,-0.425691,0.858495,0.236351
6127700744,185.472641,-57.132858,-17.589539,-0.413244,0.924703,0.067907
6127720773,178.751038,-60.757507,-15.014767,-0.440005,0.938443,0.020401
6127740803,172.516922,-63.735977,-11.914436,-0.420205,0.937684,-0.027031
6127760832,166.587387,-66.899963,-9.176341,-0.411529,0.923554,-0.065821
6127780862,160.116119,-70.510086,-6.412016,-0.419972,0.948720,-0.124245
6127800891,153.325424,-73.591003,-2.962317,-0.419993,0.929701,-0.143136
6127820921,147.814606,-76.192162,0.302002,-0.424677,0.907816,-0.149623
6127840950,142.097549,-79.272781,3.266962,-0.418105,0.906446,-0.187416
6127860980,136.408661,-82.939819,6.183785,-0.423693,0.885304,-0.211256
6127881009,131.325867,-85.132797,9.270495,-0.435880,0.882255,-0.269454
6127901039,126.085167,-86.738197,12.549330,-0.424578,0.888864,-0.321703
6127921068,119.722954,-88.998657,16.189484,-0.432116,0.888532,-0.350768
6127941099,113.335342,-89.850082,20.045256,-0.410044,0.877952,-0.356259
6127961128,107.626572,-90.264008,23.783953,-0.411613,0.890863,-0.366208
6127981158,101.331520,-90.903259,27.501511,-0.411389,0.883437,-0.389735
6128001187,94.588821,-91.349983,31.171741,-0.392163,0.861779,-0.398205
6128021224,89.076706,-93.124458,33.542011,-0.399444,0.832440,-0.404528
6128041246,84.851799,-94.747566,35.411209,-0.389285,0.824514,-0.430820
6128061276,80.915703,-96.349167,37.341034,-0.426731,0.835380,-0.458169
6128081305,76.369141,-98.052277,39.817322,-0.389822,0.815593,-0.446979
6128101333,73.088806,-99.796883,40.998028,-0.401155,0.830275,-0.406402
6128121363,71.447418,-100.446289,42.230984,-0.390377,0.814674,-0.429286
6128141392,69.047684,-101.957253,44.107712,-0.396810,0.815432,-0.458871
6128161422,66.273140,-102.508598,45.551605,-0.413434,0.807389,-0.467706
6128181451,63.401070,-102.640381,47.113228,-0.416072,0.812500,-0.482491
6128201480,60.275322,-103.555252,48.552429,-0.385650,0.804320,-0.486729
6128221510,57.301476,-104.501335,49.999531,-0.384430,0.811198,-0.480346
6128241539,54.671391,-105.229256,51.225090,-0.375394,0.815669,-0.475593
6128261569,51.978966,-106.192238,52.619404,-0.378136,0.809774,-0.477062
6128281598,49.252502,-106.562927,53.538631,-0.376593,0.808297,-0.506812
6128301628,45.926613,-108.253853,54.764355,-0.379637,0.799634,-0.501829
6128321657,42.907837,-109.796585,55.268684,-0.367607,0.785074,-0.517197
6128341688,39.673660,-112.000610,55.717808,-0.350096,0.792683,-0.513008
6128361718,36.571735,-113.650414,55.942463,-0.363620,0.807577,-0.506517
6128381747,33.734753,-115.560303,56.199749,-0.332548,0.815559,-0.486857
6128401777,30.553591,-117.986046,56.438465,-0.334474,0.812259,-0.481259
6128421806,28.984468,-119.037209,56.014351,-0.362594,0.821838,-0.437806
6128441835,28.514910,-120.672157,55.747311,-0.340347,0.822179,-0.426212
6128461865,27.387722,-121.650200,55.125668,-0.385311,0.827341,-0.451453
6128481895,25.460524,-121.078415,54.619514,-0.369388,0.824234,-0.466743
6128501933,23.236998,-120.459389,54.112823,-0.361017,0.835330,-0.457101
6128521952,20.999695,-119.528374,53.558010,-0.362329,0.858479,-0.426508
6128541981,19.938623,-119.128700,53.030975,-0.344909,0.852896,-0.393411
6128562011,19.162445,-120.193977,51.917397,-0.330430,0.861385,-0.380681
6128582040,19.310669,-120.466125,50.441238,-0.344691,0.877622,-0.337946
6128602070,20.518757,-121.396576,49.539787,-0.357051,0.860433,-0.344970
6128622099,20.977959,-120.087555,47.936768,-0.349388,0.855732,-0.343611
6128642129,22.392908,-117.665482,46.082245,-0.350634,0.885925,-0.302452
6128662158,23.743668,-114.215530,44.211479,-0.341304,0.866088,-0.315904
6128682188,24.062248,-111.786087,42.826454,-0.327619,0.891498,-0.314442
6128702217,25.544796,-109.279449,41.327614,-0.340981,0.887013,-0.280557
6128722247,27.371109,-108.006775,40.119835,-0.334620,0.895051,-0.259838
6128742276,29.933126,-106.843193,39.322762,-0.341969,0.904604,-0.250010
6128762307,32.319237,-105.723473,38.783768,-0.360551,0.896769,-0.261248
6128782337,33.666294,-104.012321,38.193817,-0.344519,0.885932,-0.310295
6128802366,33.400311,-102.558907,37.643150,-0.328486,0.878198,-0.328913
6128822396,32.656902,-100.966965,36.787811,-0.339818,0.877729,-0.330197
6128842425,32.446243,-98.958015,36.285583,-0.343103,0.904682,-0.293666
6128862454,34.220512,-96.944855,35.632641,-0.324250,0.891704,-0.227748
6128882484,37.556713,-94.415962,34.619766,-0.352672,0.907743,-0.214276
6128902513,40.402924,-92.377831,34.027786,-0.333029,0.889302,-0.259683
6128922541,41.797932,-91.930351,33.478794,-0.328313,0.889133,-0.282705
6128942571,42.721767,-91.220718,33.185165,-0.340027,0.886580,-0.301178
6128962600,42.839100,-90.888397,32.598606,-0.330430,0.880319,-0.331390
6128982630,42.348587,-90.048767,32.515499,-0.334084,0.879005,-0.336391
6129002659,41.779152,-89.633812,32.784695,-0.340516,0.881957,-0.335920
6129022689,41.555931,-88.345856,32.895084,-0.340246,0.884010,-0.329050
6129042718,42.152592,-87.267365,33.128944,-0.348486,0.883834,-0.289747
6129062747,43.824032,-85.624107,33.229687,-0.356108,0.887301,-0.282626
6129082777,45.679375,-83.685211,33.259796,-0.353469,0.883300,-0.302340
6129102806,46.683254,-81.550766,33.507736,-0.351177,0.873526,-0.331424
6129122836,46.842766,-79.755371,33.462410,-0.347890,0.866594,-0.364849
6129142865,46.185745,-78.449402,33.724083,-0.348739,0.863146,-0.381875
6129162896,45.114834,-78.039749,33.886932,-0.326971,0.860641,-0.381636
6129182926,44.498535,-77.898438,34.196316,-0.330987,0.860839,-0.380147
6129202955,43.852596,-77.635452,34.421257,-0.328985,0.858194,-0.381691
6129222985,43.091324,-77.638077,34.709030,-0.332252,0.856828,-0.393990
6129243014,42.298313,-77.914330,35.059742,-0.327166,0.847201,-0.404313
6129263053,40.736671,-78.567947,35.163044,-0.330121,0.852901,-0.410151
6129283073,40.837948,-78.150574,34.939705,-0.326816,0.857009,-0.352453
6129303102,43.656059,-76.007645,33.778179,-0.328859,0.881575,-0.251105
6129323132,50.238415,-71.699554,32.767097,-0.351674,0.904419,-0.239031
6129343160,54.126801,-67.611549,32.234234,-0.339515,0.875420,-0.356506
6129363189,56.195206,-64.068954,31.887043,-0.343893,0.864299,-0.366083
6129383219,59.109936,-60.365131,31.015739,-0.342682,0.863203,-0.351101
6129403249,62.184284,-57.969013,30.853046,-0.331274,0.864224,-0.319501
6129423278,66.689201,-55.489994,30.432558,-0.346332,0.864390,-0.331887
6129443307,71.490837,-51.522408,29.484131,-0.356394,0.864559,-0.350307
6129463337,75.820801,-47.697247,28.445686,-0.311582,0.862585,-0.372056
6129483366,80.232857,-43.229012,26.363131,-0.336100,0.862075,-0.383597
6129503396,85.526489,-37.121853,24.115601,-0.331619,0.849785,-0.373778
6129523425,91.577515,-31.512571,22.137991,-0.307866,0.824188,-0.383214
6129543454,97.772057,-26.438131,19.785833,-0.329446,0.822989,-0.420459
6129563484,103.074417,-21.845448,17.634428,-0.334609,0.799798,-0.484115
6129583515,106.573814,-18.686623,16.328220,-0.306858,0.728807,-0.555073
6129603544,109.794014,-14.405018,13.458117,-0.333026,0.783298,-0.546504
6129623574,114.065598,-10.964198,11.209734,-0.290013,0.728047,-0.599267
6129643603,117.200180,-7.421534,8.027346,-0.282395,0.683706,-0.642096
6129663633,119.528320,-3.958123,4.905890,-0.294191,0.652631,-0.674072
6129683666,121.879044,-0.869124,1.393320,-0.296854,0.617794,-0.711228
6129703692,123.030693,1.811352,-0.994248,-0.287679,0.589946,-0.788206
6129723721,125.200508,2.843853,-2.912560,-0.298864,0.625127,-0.701242
6129743750,130.327377,3.952927,-4.564711,-0.308644,0.587367,-0.760726
6129763779,134.852234,4.623281,-6.342366,-0.282742,0.537761,-0.779114
6129783808,139.354340,4.858013,-8.677450,-0.283345,0.501811,-0.814970
6129803838,142.986694,5.696505,-11.662503,-0.269696,0.426707,-0.868393
6129823867,145.235519,6.068217,-15.296369,-0.270114,0.344562,-0.902117
6129843896,146.068466,6.273402,-18.618652,-0.266928,0.283677,-0.930199
6129863926,146.792938,6.091401,-21.808842,-0.268900,0.234119,-0.942649
6129883955,147.811218,5.581971,-24.571541,-0.280101,0.190750,-0.960121
6129903985,148.984711,4.701699,-26.451529,-0.272664,0.160348,-0.955991
6129924014,151.985397,3.411777,-29.570662,-0.254795,0.147933,-0.954720
6129944044,155.981567,1.574403,-33.207878,-0.264219,0.106854,-0.991953
6129964073,159.846481,-0.886986,-37.006725,-0.240240,0.027230,-0.999603
6129984103,162.295578,-3.820715,-40.893276,-0.237572,-0.069977,-0.999363
6130004133,163.280777,-7.147563,-44.019024,-0.244693,-0.165301,-0.999265
6130024163,163.571014,-10.673955,-46.461040,-0.247380,-0.206570,-0.979606
6130044193,164.696564,-14.226664,-48.621902,-0.248688,-0.257164,-0.971057
6130064222,165.764709,-18.241064,-50.088940,-0.236672,-0.334296,-0.955690
6130084252,165.701797,-22.319942,-49.872749,-0.236582,-0.429092,-0.928720
6130104281,164.116486,-25.532866,-48.057156,-0.223463,-0.505337,-0.878910
6130124310,162.484756,-28.882301,-46.164627,-0.232661,-0.537323,-0.850871
6130144340,161.180008,-31.981289,-43.978333,-0.232232,-0.586093,-0.813154
6130164369,160.128464,-34.755337,-42.097931,-0.248604,-0.632671,-0.774139
6130184397,159.328003,-38.058258,-40.910522,-0.240995,-0.671150,-0.743879
6130204427,158.837997,-41.514416,-39.532124,-0.242155,-0.711717,-0.705382
6130224456,158.430405,-44.809261,-37.586380,-0.250615,-0.758794,-0.667428
6130244486,157.445312,-47.314106,-34.768032,-0.241596,-0.810376,-0.593902
6130264515,155.908600,-48.734108,-31.640602,-0.253445,-0.828849,-0.552727
6130284545,154.995361,-49.905235,-28.219261,-0.235449,-0.865400,-0.489049
6130304574,152.571335,-49.901142,-24.019979,-0.235264,-0.910339,-0.404924
6130324604,148.730942,-48.771481,-20.081039,-0.256368,-0.937016,-0.321249
6130344633,144.141037,-47.205410,-16.570726,-0.265873,-0.968521,-0.250030
6130364663,138.666214,-44.523438,-13.092958,-0.266458,-0.961089,-0.180039
6130384692,133.785034,-42.173893,-10.203516,-0.260247,-0.958930,-0.134911
6130404722,128.382141,-38.869122,-7.019063,-0.255093,-0.958861,-0.057865
6130424753,121.374115,-34.614883,-4.700136,-0.286371,-0.970330,0.021402
6130444782,113.949371,-30.642735,-3.175163,-0.297002,-0.961862,0.049061
6130464811,107.377258,-26.546263,-1.817628,-0.289859,-0.946234,0.063837
6130484841,101.949127,-23.621164,-0.669586,-0.290321,-0.953296,0.072803
6130504870,98.078331,-21.291550,0.143014,-0.299539,-0.947863,0.072521
6130524900,95.252243,-20.216410,0.777100,-0.296433,-0.945729,0.078068
6130544929,93.638039,-20.060215,1.677279,-0.312438,-0.940107,0.099771
6130564959,92.266281,-20.477674,2.135047,-0.325355,-0.940444,0.124481
6130584987,90.886292,-21.054985,2.578990,-0.310162,-0.932948,0.166610
6130605016,89.188866,-20.883480,3.372851,-0.300483,-0.930235,0.222482
6130625046,86.812752,-19.514050,3.951608,-0.301508,-0.920571,0.269297
6130645075,83.824013,-17.533180,4.305054,-0.292778,-0.906253,0.303989
6130665105,80.775612,-15.407960,4.482871,-0.293612,-0.888275,0.330617
6130685134,77.499603,-13.274382,4.524029,-0.297840,-0.876865,0.362424
6130705164,74.132835,-11.148442,4.413565,-0.309469,-0.865904,0.385342
6130725193,71.254662,-10.425779,4.269628,-0.322737,-0.861978,0.382150
6130745223,69.799149,-11.003199,4.561893,-0.326388,-0.870707,0.367768
6130765268,69.709351,-11.951859,5.259786,-0.325039,-0.869209,0.375108
6130785281,69.406654,-12.708290,6.198591,-0.300373,-0.837323,0.426289
6130805311,66.971588,-11.386325,6.148403,-0.309007,-0.813955,0.489814
6130825340,64.352432,-10.719052,5.785175,-0.320304,-0.793798,0.513097
6130845371,60.951092,-9.735205,5.525060,-0.319932,-0.775910,0.538100
6130865401,58.011230,-9.309424,5.277436,-0.324609,-0.773379,0.530653
6130885430,56.080326,-9.184796,5.343695,-0.320116,-0.778114,0.525661
6130905460,54.567402,-8.978119,5.568691,-0.308449,-0.760918,0.547920
6130925489,52.914566,-7.911633,5.475534,-0.306135,-0.744846,0.569834
6130945519,50.179626,-6.225522,4.588111,-0.317553,-0.721257,0.614053
6130965548,47.008541,-5.122812,3.819108,-0.318837,-0.701062,0.635673
6130985578,43.708359,-4.103657,2.899102,-0.329042,-0.697675,0.627961
6131005605,40.724754,-3.343242,2.497005,-0.315538,-0.683413,0.635890
6131025635,38.310020,-2.798481,2.241053,-0.322388,-0.690654,0.635255
6131045665,36.252869,-2.294079,1.864300,-0.324935,-0.693671,0.640024
6131065694,34.436737,-2.224307,1.642955,-0.323338,-0.681010,0.653953
6131085724,32.515564,-1.872603,1.343371,-0.321785,-0.673691,0.662445
6131105753,30.404200,-1.573275,1.013806,-0.323651,-0.665703,0.669335
6131125782,28.201439,-1.258011,0.752302,-0.321428,-0.652016,0.678536
6131145812,26.090336,-0.882517,0.437262,-0.323869,-0.645308,0.686684
6131165841,23.796415,-0.536272,0.190618,-0.320418,-0.634155,0.691681
6131185871,21.448883,-0.326931,-0.107977,-0.320850,-0.633178,0.696522
6131205900,19.232700,0.368756,-0.440921,-0.313186,-0.622162,0.704965
6131225930,17.223965,1.275146,-1.169803,-0.329769,-0.642148,0.682235
6131245959,16.372154,1.180579,-1.207331,-0.325167,-0.651999,0.679571
6131265990,15.307966,1.277706,-1.163169,-0.322223,-0.626485,0.706147
6131286020,13.460842,1.279444,-1.292972,-0.327192,-0.625297,0.710916
6131306049,11.880592,1.431847,-1.469405,-0.322473,-0.629109,0.703471
6131326078,10.678616,1.270783,-1.461052,-0.324814,-0.635629,0.699265
6131346113,9.843601,1.442024,-1.652446,-0.329068,-0.634961,0.698745
6131366138,9.097022,1.118831,-1.604601,-0.326975,-0.636881,0.697575
6131386167,8.487176,0.924972,-1.360640,-0.323034,-0.636891,0.695174
6131406197,7.960915,0.700149,-1.139126,-0.325794,-0.636706,0.697596
6131426224,7.556270,0.497643,-0.879829,-0.314234,-0.632406,0.697641
6131446254,7.382213,0.757614,-0.806275,-0.344415,-0.666779,0.672913
6131466283,8.925579,-0.351063,0.151544,-0.316364,-0.659232,0.676543
6131486313,9.158085,-0.708285,0.677821,-0.323636,-0.631979,0.712738
6131506342,8.314781,-0.704455,0.487829,-0.323090,-0.618298,0.724650
6131526372,7.144432,-0.568835,0.493706,-0.320720,-0.610826,0.721654
6131546401,6.484439,-0.329889,0.339738,-0.324316,-0.624872,0.712975
6131566430,5.960222,-0.373367,0.165461,-0.321593,-0.624946,0.707176
6131586460,5.745613,-0.408687,0.643327,-0.320557,-0.626426,0.709918
6131606489,5.364038,-0.688016,0.728891,-0.327101,-0.621755,0.712502
6131626519,4.930814,-0.540643,0.863922,-0.325331,-0.608519,0.721418
6131646548,3.926626,-0.626436,0.932396,-0.320779,-0.598946,0.730801
6131666579,2.688143,-0.528971,0.802083,-0.324763,-0.598191,0.730469
6131686609,1.541219,-0.432321,0.573254,-0.324009,-0.599457,0.728096
6131706638,0.402254,-0.206138,0.396415,-0.323175,-0.604816,0.724591
6131726668,-0.319329,-0.172455,0.221395,-0.324647,-0.608720,0.724075
6131746697,-1.024751,-0.009893,-0.083595,-0.323302,-0.611460,0.723888
6131766727,-1.830695,0.047910,-0.008649,-0.326199,-0.611803,0.723199
6131786756,-2.309220,0.004113,-0.205648,-0.325013,-0.613501,0.716264
6131806786,-2.704206,0.028760,-0.289449,-0.322728,-0.620413,0.712129
6131826813,-2.916851,0.167226,-0.192147,-0.321806,-0.623866,0.709648
6131846843,-3.129628,0.145314,-0.252723,-0.322209,-0.626241,0.711171
6131866872,-3.168154,0.069605,-0.191449,-0.324084,-0.630760,0.707082
6131886902,-2.977986,0.152581,-0.116233,-0.325132,-0.633918,0.703019
6131906931,-2.879285,0.228632,0.019655,-0.324831,-0.635726,0.700359
6131926961,-2.659535,0.090637,0.073994,-0.324390,-0.634916,0.701561
6131946990,-2.462712,-0.039472,0.173749,-0.323956,-0.635198,0.702661
