Timestamp (us),Gyroscope X (deg/s),Gyroscope Y (deg/s),Gyroscope Z (deg/s),Accelerometer X (g),Accelerometer Y (g),Accelerometer Z (g)
5826154188,-0.966234,-0.263764,-0.082591,0.981799,0.114034,0.168139
5826174233,-0.644468,0.974894,-0.032901,0.981151,0.107969,0.172736
5826194277,0.524716,0.760916,-0.361632,0.977462,0.112341,0.177134
5826214322,0.195717,-0.067343,-0.510692,0.977751,0.119623,0.176166
5826234367,-0.440953,0.123416,-0.086985,0.977731,0.117034,0.171089
5826254413,-0.553247,0.921620,-0.010696,0.979120,0.112934,0.174319
5826274457,0.098997,0.502921,-0.228613,0.976465,0.113662,0.181213
5826294502,0.119939,-0.234427,-0.365206,0.976495,0.115382,0.179651
5826314546,-0.579939,-0.461844,-0.367243,0.979096,0.118148,0.176734
5826334592,-1.240328,-0.149588,-0.240582,0.978506,0.114394,0.173301
5826354636,-0.881899,0.108600,-0.075972,0.977263,0.111348,0.178143
5826374681,-0.335796,-0.515147,-0.117661,0.980590,0.108387,0.178920
5826394725,0.028623,-1.062655,0.009574,0.980657,0.112281,0.175428
5826414768,0.150689,-0.621965,-0.090816,0.981041,0.113266,0.173784
5826434813,0.060323,-0.067053,-0.128740,0.977966,0.115047,0.174202
5826454858,-0.198071,-0.287191,0.002961,0.976716,0.110508,0.174231
5826474903,0.424413,-0.667793,-0.062399,0.981567,0.112270,0.175890
5826494947,0.159802,-0.302634,0.152597,0.981943,0.112331,0.172433
5826514992,0.214744,0.229457,0.349749,0.975998,0.110306,0.170039
5826535037,0.419252,0.289982,0.119575,0.979527,0.115467,0.172480
5826555081,0.204576,-0.317970,-0.061044,0.980676,0.119654,0.173911
5826575126,-0.237424,-0.401301,-0.293743,0.984402,0.118585,0.172490
5826595171,-0.809682,0.405350,0.776443,0.982090,0.110056,0.173363
5826615215,-0.550442,0.739573,0.812231,0.978895,0.104114,0.177031
5826635260,0.882025,0.388252,-0.188798,0.976020,0.108017,0.181256
5826655306,0.857207,-0.683431,-0.202831,0.975154,0.117414,0.180444
5826675350,-0.571387,-1.008871,0.143635,0.974569,0.120030,0.175502
5826695395,-0.859508,-0.917341,0.305741,0.979946,0.113191,0.173777
5826715440,-0.289328,-0.636671,0.163975,0.980692,0.108267,0.175189
5826735484,0.158222,-0.819555,-0.014504,0.980039,0.107182,0.175102
5826755529,0.179971,-1.002077,-0.204956,0.981109,0.111623,0.173707
5826775574,-0.160648,-0.834425,0.109847,0.982528,0.114400,0.169871
5826795619,-0.591758,-0.165070,0.379160,0.978821,0.109418,0.166698
5826815662,-0.184261,-0.112590,-0.446790,0.979851,0.112636,0.172506
5826835706,-0.178888,-0.682787,-0.758642,0.977712,0.116137,0.173099
5826855751,-0.920137,-0.940063,0.367174,0.983491,0.111370,0.168810
5826875796,-0.971720,0.101246,0.298020,0.984972,0.105572,0.164408
5826895841,0.252305,1.224847,-0.245707,0.979795,0.108811,0.172901
5826915885,0.236627,0.662474,-0.100308,0.974204,0.113846,0.176825
5826935930,-0.753391,-0.438730,-0.007875,0.979413,0.114014,0.173038
5826955975,-0.577173,-0.043571,0.158003,0.981364,0.109213,0.168721
5826976019,-0.165760,0.708482,0.024626,0.979339,0.108914,0.173626
5826996064,-0.501265,0.450288,-0.109686,0.977739,0.112236,0.175772
5827016108,-0.625046,-0.469344,-0.229761,0.980508,0.114278,0.173954
5827036153,-0.586402,-0.218534,-0.184584,0.981949,0.111941,0.168976
5827056199,-0.752431,0.199703,-0.061814,0.979856,0.112154,0.168959
5827076244,-1.223129,0.450958,-0.005115,0.979596,0.114200,0.173857
5827096288,-1.937352,0.185660,0.236779,0.975051,0.115278,0.174816
5827116333,-2.095232,-0.148352,0.863006,0.979324,0.114954,0.176762
5827136378,-1.809286,-1.098831,0.541744,0.986014,0.110644,0.174479
5827156423,-2.212406,-0.323399,0.125095,0.983010,0.108705,0.164914
5827176468,-1.059300,1.180820,0.739532,0.979608,0.108354,0.172358
5827196512,-0.848738,0.853605,0.288748,0.978644,0.105854,0.177652
5827216559,-0.590757,0.336585,0.401533,0.978709,0.102713,0.172033
5827236600,-0.110516,1.438183,0.206352,0.978041,0.106913,0.171630
5827256644,0.330587,1.969753,-0.010845,0.973750,0.114037,0.177002
5827276689,-1.014162,0.093159,-0.859628,0.978377,0.119643,0.180176
5827296734,-1.325209,-0.598007,-0.353782,0.986926,0.110251,0.172486
5827316779,-0.642059,1.005573,0.584133,0.989257,0.094530,0.171814
5827336823,0.602192,1.748898,-0.454580,0.978523,0.098320,0.181901
5827356868,2.272377,0.364141,-0.427984,0.974048,0.111080,0.184676
5827376912,0.993870,-1.390284,0.086284,0.976245,0.116273,0.176274
5827396957,-0.721813,-0.658992,0.403479,0.979574,0.111519,0.168689
5827417002,-0.509792,1.135000,1.314353,0.975469,0.112344,0.173478
5827437046,-0.306570,0.313884,1.168823,0.977025,0.108185,0.181445
5827457091,-1.089822,-1.715307,0.102568,0.982736,0.104494,0.174506
5827477137,-0.271305,-0.476773,0.826477,0.994473,0.100875,0.164971
5827497182,0.572213,-1.267850,1.102635,1.026799,0.110666,0.161303
5827517227,1.608567,1.891844,-1.780396,0.968829,0.120020,0.174823
5827537271,-3.549459,8.113729,-1.647693,0.937299,0.097795,0.187795
5827557316,-3.805935,-5.680795,-0.497559,0.970901,0.113595,0.210671
5827577360,-6.237534,-6.455445,-3.776905,0.983883,0.109063,0.178392
5827597405,-3.294124,-4.069950,-0.632517,0.978867,0.088284,0.143930
5827617450,-1.442331,0.367709,0.369941,0.962152,0.110502,0.168479
5827637493,-1.894017,-0.779727,0.100231,0.971340,0.141294,0.196880
5827657538,-4.534722,-5.375175,1.633245,0.979303,0.127954,0.184211
5827677583,-4.068185,-4.167002,1.780891,0.987788,0.098416,0.164032
5827697627,0.271262,-1.259617,1.927710,0.996601,0.083605,0.163855
5827717672,2.383940,0.531830,0.835639,0.973294,0.093204,0.169705
5827737716,1.777541,-0.645284,1.877489,0.968327,0.116652,0.174392
5827757761,-1.571957,-3.621727,2.180243,0.982138,0.132384,0.172360
5827777806,-4.980679,-3.026375,1.192582,0.978048,0.115701,0.151527
5827797851,-3.180119,-1.241405,1.992247,0.989855,0.081357,0.154264
5827817895,-0.394803,1.226202,1.519079,0.997653,0.055617,0.166005
5827837940,3.004307,2.210323,-0.770547,0.990449,0.063153,0.172081
5827857984,5.514694,1.515916,-2.046157,0.977274,0.093215,0.179294
5827878030,4.022427,-0.853952,-1.468721,0.988963,0.105555,0.170264
5827898075,1.225610,-0.076314,-1.577523,0.994910,0.090668,0.153860
5827918120,1.482944,3.867235,-3.769676,0.984542,0.093132,0.157861
5827938165,1.105625,4.695292,-5.420736,0.978315,0.106247,0.168268
5827958209,-1.890400,2.585279,-4.550139,0.993531,0.092885,0.167488
5827978254,0.916822,2.880331,-2.225506,1.000503,0.060108,0.150147
5827998299,12.748140,7.567396,-2.107338,0.986788,0.043135,0.144816
5828018344,17.853592,10.063548,-2.255498,0.985539,0.069019,0.166261
5828038387,16.446341,9.715120,-2.282471,0.980858,0.121724,0.183091
5828058432,15.010672,10.568502,-0.367696,0.966244,0.172601,0.191486
5828078476,15.452142,10.540485,5.761674,0.955598,0.170957,0.206718
5828098521,21.059713,5.503781,5.319672,0.996520,0.129429,0.221835
5828118566,31.603786,5.128007,1.254815,1.010631,0.094492,0.185445
5828138610,46.058632,12.247271,6.340554,0.966216,0.135461,0.149002
5828158655,54.696381,9.399683,11.952650,0.958278,0.255621,0.145585
5828178699,40.083942,2.584763,7.263984,0.950988,0.353897,0.155372
5828198744,3.620971,9.741453,-2.161307,0.884616,0.379243,0.131735
5828218789,-18.255232,7.860221,-2.052746,0.949366,0.387128,0.183401
5828238833,-38.985573,2.065131,1.357070,1.022071,0.334974,0.244543
5828258878,-56.716850,-3.430862,-0.421596,1.012923,0.241852,0.182515
5828278924,-54.454258,-2.644673,-5.582037,0.994411,0.201565,0.120529
5828298968,-45.061386,7.478063,-7.530107,0.982536,0.206306,0.121132
5828319013,-50.520382,14.694256,-11.037581,0.958763,0.252203,0.177937
5828339058,-67.595299,10.239063,-12.654662,0.958553,0.284296,0.215363
5828359102,-83.159325,0.311905,-10.194744,0.932557,0.270449,0.188339
5828379147,-92.984276,-3.291219,-13.026199,0.926078,0.252343,0.167500
5828399192,-100.177422,0.232345,-16.951130,0.927978,0.230094,0.158320
5828419237,-103.741669,1.237771,-19.042641,0.937615,0.223809,0.166363
5828439296,-109.287086,0.115744,-23.280546,0.929475,0.236669,0.175393
5828459325,-121.787361,-2.497990,-28.355057,0.919756,0.265280,0.178364
5828479369,-138.956665,-7.986946,-30.305641,0.926289,0.287003,0.170220
5828499414,-151.750290,-13.410805,-31.215654,0.950981,0.266908,0.140613
5828519458,-159.651825,-16.239597,-32.447506,0.972501,0.236035,0.114258
5828539503,-164.016800,-16.604296,-40.504326,0.982359,0.224286,0.085930
5828559548,-172.191666,-11.681771,-45.344864,0.957591,0.181361,0.087014
5828579592,-175.984116,-8.943978,-32.344418,0.941493,0.140438,0.093061
5828599637,-173.829422,-26.118437,-21.321028,1.049196,0.164109,0.122331
5828619682,-185.644608,-47.893478,-24.980909,1.165685,0.170765,0.036635
5828639726,-188.933289,-54.133575,-31.090139,1.264425,0.117361,-0.095675
5828659771,-190.511688,-29.201557,-30.278835,1.273708,-0.013579,-0.217800
5828679816,-197.066559,22.787382,-25.584860,1.203157,-0.171534,-0.207634
5828699862,-190.880554,67.216591,-23.624971,1.062999,-0.248673,-0.046872
5828719906,-172.118057,87.828995,-39.771500,0.898373,-0.219914,0.171105
5828739951,-140.221222,65.473007,-68.121674,0.803098,-0.119753,0.396648
5828759996,-110.541161,-1.451831,-80.261925,0.770764,-0.012991,0.381054
5828780040,-110.181969,-52.160908,-73.444061,0.875993,0.055929,0.246599
5828800085,-124.741920,-52.837227,-67.305717,0.993670,0.091169,0.144925
5828820136,-130.805634,-23.340073,-64.605469,1.020276,0.060306,0.067804
5828840175,-126.866219,-1.900102,-60.603020,1.031496,0.024390,0.103872
5828860218,-123.989426,3.159633,-60.256561,1.014934,0.000170,0.186710
5828880263,-118.401031,-3.692798,-58.875931,0.990333,0.008821,0.222421
5828900307,-89.511742,-17.455183,-48.632111,0.982319,0.081384,0.230231
5828920352,-72.782112,-27.923712,-38.709568,1.028530,0.188325,0.250444
5828940396,-93.692986,-33.216877,-35.032204,1.026509,0.201482,0.200246
5828960441,-118.450005,-34.585510,-33.005081,0.985053,0.145552,0.146325
5828980486,-112.729691,-28.514847,-27.142885,1.021273,0.109731,0.146703
5829000530,-79.089554,-17.147766,-21.179790,1.005146,0.115406,0.141622
5829020575,-59.510124,-8.629764,-22.663546,0.927288,0.160763,0.150694
5829040620,-70.036217,-2.305417,-24.706707,0.852808,0.204098,0.177014
5829060664,-78.045647,2.744632,-16.132814,0.829859,0.285622,0.220330
5829080709,-73.100113,-11.485527,-10.336900,0.902580,0.410809,0.297034
5829100755,-110.360413,-24.004684,-16.073076,0.837167,0.450651,0.237868
5829120800,-157.485382,-40.719860,-24.807442,0.815755,0.427017,0.102978
5829140844,-185.607407,-59.824120,-19.477123,0.908572,0.333672,0.019846
5829160889,-197.734421,-61.565498,-10.819530,1.059660,0.185270,-0.004956
5829180934,-197.947372,-44.283279,-15.130957,1.162912,0.015348,-0.016183
5829200978,-183.624420,-16.430895,-30.633209,1.141608,-0.057115,-0.032948
5829221023,-164.765060,7.020531,-54.645248,1.069036,0.038151,0.055232
5829241068,-164.360764,9.045191,-81.184784,1.028560,0.228987,0.138033
5829261111,-196.477509,-0.391807,-85.325378,0.898067,0.315809,0.174420
5829281156,-220.442642,-33.676109,-65.713982,0.881490,0.284600,0.061024
5829301200,-220.903885,-84.188133,-44.864738,1.041299,0.279296,-0.000586
5829321245,-236.056564,-97.762192,-38.458252,1.166240,0.221996,-0.163354
5829341290,-251.817001,-72.386032,-40.608803,1.224016,0.076000,-0.325243
5829361334,-268.955322,-19.937855,-32.253517,1.219730,-0.101049,-0.372157
5829381379,-256.452057,28.467329,-16.404343,1.167311,-0.265084,-0.245636
5829401424,-232.606003,68.572495,-12.678814,1.032253,-0.361223,-0.054362
5829421468,-201.978867,79.359375,-34.955952,0.877404,-0.364627,0.098582
5829441513,-154.002625,43.758099,-77.030777,0.763077,-0.266310,0.231864
5829461558,-105.464050,-19.854704,-107.747406,0.825756,-0.067815,0.326826
5829481602,-95.384254,-73.038269,-108.604805,0.995125,0.165615,0.305652
5829501647,-112.171387,-90.152061,-100.468315,1.023746,0.311531,0.158439
5829521693,-127.515953,-85.919792,-99.074799,1.024944,0.355651,0.009954
5829541738,-145.019409,-66.991264,-92.673401,1.044220,0.340436,-0.099306
5829561782,-166.346390,-39.466114,-76.247978,1.057287,0.308886,-0.136006
5829581827,-190.856781,-16.846945,-56.913811,1.012354,0.253703,-0.069325
5829601873,-212.359634,-9.579542,-45.016022,0.985897,0.182355,0.018929
5829621917,-196.217850,-0.379697,-41.156494,1.070808,0.054468,0.058570
5829641961,-142.619141,5.675062,-46.273663,0.982324,0.044707,0.151143
5829662006,-133.098557,-35.208347,-60.104736,0.918145,0.152094,0.205962
5829682049,-133.363281,-61.969624,-58.896572,0.977160,0.225553,0.149157
5829702094,-121.214218,-77.108047,-47.707947,0.991919,0.236900,0.060130
5829722138,-123.105583,-80.121239,-41.824509,1.018860,0.274998,0.014035
5829742183,-131.678711,-71.273109,-39.344521,1.039838,0.322838,-0.033550
5829762228,-137.572113,-59.271461,-33.452213,1.015635,0.307974,-0.083952
5829782272,-141.730331,-52.156395,-22.769066,1.013805,0.232149,-0.134233
5829802317,-139.490845,-48.306404,-9.534039,1.085165,0.178880,-0.141466
5829822362,-140.859131,-33.442741,-2.627806,1.082558,0.197205,-0.071623
5829842406,-148.777054,-21.931347,-9.045916,1.015863,0.248553,0.006948
5829862451,-149.816086,-25.258533,-6.779787,0.986592,0.247555,0.034966
5829882496,-144.339066,-34.148399,10.228753,1.028298,0.228232,0.046355
5829902541,-151.211548,-28.089066,17.414057,1.042660,0.160709,0.042647
5829942631,-167.560532,-10.579185,-1.728579,1.012307,-0.060842,-0.059718
5829962676,-138.930832,-2.732464,-8.095852,0.975184,-0.030134,-0.000336
5829982721,-112.048149,-1.452323,-16.873760,1.055268,0.085991,0.098893
5830002765,-121.963142,-12.157246,-25.967667,1.062301,0.204594,0.137752
5830022810,-160.133286,-17.219751,-32.625725,0.991776,0.230547,0.076296
5830042855,-176.189178,-25.493620,-22.377707,1.046749,0.172213,0.040852
5830062899,-178.862610,-20.461708,-10.104125,1.050314,0.055953,0.032552
5830082943,-171.141174,-5.733265,-15.944304,0.976685,-0.035673,0.018203
5830102987,-157.069046,0.184873,-28.909859,0.945324,-0.065827,0.056917
5830123032,-146.532532,-3.559067,-35.333138,0.959406,-0.037375,0.112140
5830143076,-133.617096,-11.209269,-36.102959,0.912465,-0.000714,0.104848
5830163121,-129.770370,-17.376358,-35.220047,0.876186,0.014855,0.089887
5830183166,-134.318893,-22.289265,-33.413086,0.924867,0.016715,0.095053
5830203210,-133.172821,-20.631189,-28.730570,0.983569,-0.012247,0.107101
5830223255,-125.710281,-15.422380,-26.126310,1.033320,-0.048918,0.118784
5830243300,-118.477173,-14.700578,-29.709719,1.011254,-0.055125,0.122407
5830263345,-108.129524,-13.039489,-34.422546,1.006511,0.011408,0.135116
5830283389,-97.036880,-15.480740,-33.202560,1.007990,0.114307,0.159405
5830303434,-102.426872,-20.575008,-30.665239,0.996973,0.192720,0.163048
5830323480,-115.189606,-30.815733,-27.144707,0.996567,0.186205,0.118942
5830343524,-123.212906,-34.044487,-22.234898,1.012660,0.105306,0.084675
5830363569,-120.104630,-32.093464,-21.506363,1.059755,0.043038,0.043653
5830383614,-109.305649,-25.087601,-22.068123,1.060780,0.010005,0.003964
5830403659,-104.005020,-10.896066,-26.472227,1.061725,0.026253,0.008662
5830423703,-100.967644,1.041683,-27.184826,1.046631,0.108961,0.080614
5830443748,-108.545044,0.341819,-26.173784,1.012312,0.220113,0.162934
5830463792,-129.742401,-16.375793,-24.372755,0.978015,0.226873,0.144327
5830483859,-145.028503,-33.264328,-19.470535,1.016428,0.119068,0.079308
5830503880,-157.718979,-19.006613,-12.713086,1.110782,0.027755,0.065547
5830523925,-145.452911,5.379689,-15.679432,1.069293,0.029664,0.079613
5830543970,-124.584038,9.001031,-35.551392,0.915833,0.041583,0.123643
5830564014,-134.587494,-11.065523,-39.440090,0.997494,-0.040082,0.131742
5830584059,-133.899292,-22.366743,-19.032887,1.084021,-0.158854,0.049320
5830604104,-102.330963,6.381608,-20.406759,0.968921,-0.184070,0.017914
5830624149,-102.084808,14.237758,-43.354763,0.911782,-0.022826,0.134160
5830644193,-111.344582,1.574580,-45.161133,1.002838,0.090222,0.209095
5830684282,-89.029961,-3.476008,-10.717526,1.018715,-0.194489,0.104310
5830704327,-64.485870,4.359598,-15.849774,1.062613,-0.258971,0.140762
5830724372,-33.637993,5.939867,-25.679220,1.017152,-0.196151,0.185889
5830744418,-15.307022,-0.878834,-26.224709,0.912496,-0.040081,0.232454
5830764463,-14.209332,-12.025051,-32.096291,0.933186,0.136177,0.304623
5830784507,-21.148878,-18.299267,-36.600510,0.977849,0.262349,0.296078
5830804552,-26.107708,-19.857008,-28.356115,0.978442,0.287240,0.222404
5830824597,-32.835026,-22.191971,-10.985939,1.065818,0.285679,0.225331
5830844641,-50.912987,-11.546415,-1.745915,1.062331,0.276322,0.247780
5830864686,-65.707489,11.011512,1.545874,0.944039,0.193752,0.246049
5830884731,-66.046310,10.098108,14.812789,0.912803,0.068954,0.308215
5830904774,-58.306168,-4.826356,20.100361,0.970360,-0.083917,0.353690
5830924819,-45.641823,-11.395097,6.799347,0.920031,-0.179196,0.248679
5830944863,-15.155748,-3.118479,-3.422187,0.911949,-0.065339,0.205618
5830964908,4.301549,3.638390,-0.202853,0.987376,0.090320,0.340996
5830984953,-13.510901,5.646624,3.047703,0.998497,0.153886,0.367046
5831004998,-35.742332,3.167421,7.981934,0.978531,0.065387,0.316737
5831025042,-34.920338,10.115952,12.867627,0.980886,-0.042812,0.323747
5831045087,-15.632881,21.020845,11.429564,0.958593,-0.109143,0.358182
5831065132,6.248580,20.877747,5.692955,0.940981,-0.097637,0.387184
5831085176,19.423090,18.568626,0.527960,0.947856,-0.024039,0.417582
5831105221,21.018248,18.756159,-1.929920,0.947547,0.052247,0.426692
5831125265,12.390594,18.642200,-1.482749,0.912328,0.112075,0.419841
5831145311,-1.161730,19.223337,-2.857340,0.864963,0.127856,0.423826
5831165356,-9.708391,16.768486,-1.981951,0.814701,0.077632,0.384269
5831185401,-7.522754,3.924630,5.121305,0.857078,0.031919,0.353454
5831225490,9.731226,-1.265335,-9.480839,0.992671,0.068060,0.324739
5831245535,8.917763,17.008896,-6.254104,1.018412,0.118435,0.422384
5831265579,-0.642596,13.986495,-1.782189,0.987133,0.192636,0.444395
5831285624,-16.845749,8.610262,-21.574718,0.827855,0.128574,0.345888
5831305667,-50.404949,3.903164,-23.453709,0.773740,-0.034063,0.297762
5831325712,-24.694994,-11.622217,15.194304,1.004896,-0.160588,0.186780
5831345757,57.899975,-32.198669,18.648661,1.014363,-0.030991,0.112853
5831365801,47.750332,14.945236,-7.890708,0.932355,0.205344,0.161288
5831385846,9.708116,41.893776,-4.295316,1.049739,0.242898,0.189058
5831405891,7.103145,32.967068,16.660557,1.195588,0.067674,0.200947
5831425936,24.412264,50.453362,9.654845,1.024387,0.026552,0.198397
5831445980,19.162041,53.505005,-8.888808,0.895176,0.147506,0.242250
5831466025,24.012486,37.351009,-5.177760,0.839873,0.197548,0.202375
5831486070,34.091362,10.180304,1.215730,0.911891,0.155170,0.152175
5831506114,35.371132,7.011589,5.383739,0.990157,0.102428,0.068784
5831526159,35.570057,9.703430,8.411752,1.027954,0.099904,-0.074952
5831546204,47.318245,16.597052,13.587019,1.190564,0.138689,-0.160668
5831566250,58.204803,53.084137,25.871639,1.387388,0.201617,-0.178231
5831586294,61.936356,116.205788,45.141441,1.441482,0.250453,-0.146101
5831606339,62.461979,173.759903,49.768253,1.322112,0.344892,0.007661
5831626384,50.979847,214.997131,35.502522,1.140545,0.389873,0.265258
5831646434,29.578972,209.003067,34.628567,0.958637,0.298564,0.535086
5831666473,42.700283,140.795410,45.059986,0.668650,0.145208,0.524947
5831686518,64.228439,68.763748,52.855583,0.718371,0.111831,0.475602
5831706562,41.108543,46.482700,51.591202,0.817206,0.166567,0.395935
5831726606,28.876396,80.488411,45.474396,0.804596,0.136108,0.356126
5831746650,35.880302,105.550560,47.895805,0.745317,0.023617,0.548452
5831766695,26.798347,101.057060,60.897934,0.663034,-0.118081,0.763886
5831786740,49.081036,90.159439,73.818008,0.375312,-0.147304,0.740994
5831806784,119.659927,72.579361,74.870468,0.239601,-0.010734,0.862878
5831826829,175.827484,12.594118,63.244324,0.546814,0.379388,1.072124
5831846874,163.365952,11.832304,35.533802,0.564717,0.749360,0.885928
5831866918,71.853012,73.240784,0.592327,0.514103,1.048808,1.002628
5831886963,-27.538734,62.953819,5.340855,0.252185,0.858555,1.141402
5831927052,-165.038208,-73.278275,17.844671,-0.118351,0.103407,1.291055
5831947097,-151.782043,-125.982422,24.314121,-0.052138,-0.251413,1.151709
5831967143,-76.855743,-155.830399,32.871735,0.237638,-0.531775,0.780308
5831987188,4.825094,-134.369110,47.637005,0.524609,-0.581383,0.404706
5832007232,110.374908,-92.221046,35.566135,0.632514,-0.226793,0.307061
5832027277,246.990585,-54.063408,-18.220768,0.802479,0.509808,0.403009
5832047322,226.330963,-23.540705,-61.507896,1.156670,1.184452,0.670157
5832067366,24.672207,-0.131696,-79.418144,0.846622,0.762784,-0.071369
5832087411,-24.323570,-25.577032,-68.154739,0.747300,0.374070,0.040095
5832107456,-183.777664,-17.587158,17.470982,1.008413,0.174427,0.378876
5832127499,-262.220245,-48.303566,98.725876,1.386169,0.343643,1.082829
5832147544,-60.800900,-3.860144,17.375986,0.888137,0.093024,0.658540
5832167588,47.304966,41.296322,-43.596306,0.950030,-0.024515,0.306527
5832187633,-25.274893,6.716753,-6.096488,0.838318,-0.078632,0.595043
5832207677,-78.456871,-31.288559,5.965101,0.658594,-0.031854,0.401786
5832227722,-29.098700,-52.922771,-23.311935,0.717186,0.202125,0.365868
5832247767,-12.655386,-22.491739,-30.292772,0.797830,0.425138,0.509468
5832267811,-62.739357,6.063627,-9.244476,0.753431,0.400306,0.601213
5832287856,-120.716537,-25.387806,-1.753770,0.488101,0.061940,0.436821
5832307901,-102.080368,-99.246101,-21.771530,0.653707,-0.058968,0.186198
5832327945,-51.797573,-207.279221,-36.377312,1.217290,-0.106414,0.163393
5832347990,-85.665054,-206.767197,6.011048,1.968498,-0.336585,0.222494
5832368037,-49.471046,-74.860489,67.766518,2.350279,-0.827348,-0.158334
5832388081,93.385872,100.137154,69.949226,1.625881,-0.715124,-0.347096
5832408126,142.371933,181.497375,17.410433,0.731753,-0.360250,0.061884
5832428170,196.144958,221.982666,-56.175774,0.273014,-0.048865,0.790693
5832448215,205.006317,125.518684,-80.713898,0.194872,0.195987,0.864851
5832468260,136.904327,27.831198,-66.889267,0.324364,0.397691,0.661376
5832488304,24.491188,-17.183546,-36.974350,0.507655,0.624132,0.673137
5832508349,-72.756859,-61.080318,-10.231699,0.657152,0.469167,0.745339
5832528394,-166.845154,-86.086220,12.667337,0.785959,-0.093767,1.163540
5832548437,-122.043297,-59.939114,15.765440,0.818241,-0.431659,0.399242
5832568482,29.360424,-13.940647,0.269192,0.804341,-0.197364,0.006989
5832588526,160.809570,33.726570,-27.280148,0.883470,0.179197,0.451306
5832608571,133.380280,81.495789,-31.800259,1.066250,0.573887,0.856716
5832628616,31.691978,65.487762,-26.442108,0.739772,0.493140,0.413796
5832648660,-68.200684,40.560146,-26.422094,0.722192,0.376107,0.656721
5832668705,-139.007217,0.663437,-11.808586,0.860514,0.156457,0.799571
5832688749,-100.640358,-26.550323,-29.835270,0.855496,0.002891,0.319996
5832708794,-38.389027,-5.307546,-48.029945,1.009227,0.034606,0.271693
5832728839,-42.835110,62.632118,-46.246937,0.947922,0.214551,0.518858
5832748884,-67.841423,99.746002,-44.277145,0.650320,0.205752,0.738996
5832768928,-100.186966,52.696892,-40.579288,0.513628,0.049438,0.888601
5832788974,-118.693489,-12.260201,-45.739258,0.524290,0.016452,0.800001
5832809019,-102.493484,-11.687040,-58.373249,0.552863,0.078041,0.690630
5832829064,-91.691605,29.739780,-64.681297,0.443555,0.079206,0.788514
5832849108,-102.806351,18.806795,-59.313881,0.320046,-0.010716,0.930657
5832869153,-112.584915,-42.600578,-64.186073,0.282170,-0.083311,0.936806
5832889197,-96.433929,-96.018661,-67.824760,0.458921,-0.039294,0.672066
5832909242,-39.758423,-141.407150,-70.859940,0.853732,0.144864,0.420235
5832929287,-49.025688,-161.656845,-74.990273,1.407833,0.064846,0.537292
5832949330,-213.329773,-113.132568,-32.546188,1.650826,-0.387157,0.461495
5832969375,-204.600281,27.416084,10.251665,1.425105,-0.831374,0.265126
5832989420,-17.314320,140.706055,1.676919,0.657900,-0.800919,0.327463
5833009464,161.356720,62.510780,-59.072235,0.053460,-0.519899,0.655044
5833029509,257.712067,-64.388290,-122.549591,0.135213,-0.078499,0.656550
5833049554,220.656799,-135.001221,-148.398041,0.657718,0.417904,0.880603
5833069598,45.759689,-109.685081,-133.352859,0.811098,0.610903,0.494648
5833089643,-53.141983,-95.455711,-135.434402,0.743918,0.521693,0.186890
5833109687,-106.610336,-81.133682,-97.906403,1.108838,0.608060,0.491475
5833129733,-131.747101,-39.965240,-4.466567,1.255223,0.329149,0.500309
5833149777,-71.418602,-19.356148,51.602013,0.968222,0.000174,0.116082
5833169822,2.070215,-14.658547,41.480782,0.752612,-0.008635,0.065234
5833189868,54.029259,-5.698033,-12.223671,0.885465,0.185826,0.314152
5833209912,60.263718,-4.011602,-52.863346,1.117127,0.530450,0.517304
5833229957,19.539982,-7.499689,-62.024979,1.111405,0.640096,0.288837
5833250002,-49.761940,-3.702726,-50.572578,1.090624,0.688569,0.192142
5833270046,-123.947266,21.752869,-22.205841,1.107421,0.546381,0.318898
5833290091,-186.540329,31.254509,11.290402,1.046618,0.219553,0.432317
5833310136,-176.823212,23.976114,3.010259,0.849566,0.036245,0.356095
5833330180,-108.922066,33.055538,-43.015400,0.687000,0.132064,0.372599
5833350225,-72.410477,44.508247,-77.603729,0.633990,0.413599,0.503268
5833370268,-97.856926,56.245766,-71.248917,0.555943,0.584011,0.671180
5833390313,-150.990860,48.027294,-42.897465,0.378334,0.562409,0.707116
5833410357,-175.459427,-31.621799,-25.455297,0.435351,0.410020,0.554561
5833430402,-218.710083,-140.441742,-8.862399,0.856442,0.327599,0.330797
5833450447,-297.960175,-195.107330,21.614918,1.399610,0.163343,0.187263
5833470491,-369.192993,-121.318497,73.400528,1.782672,-0.472516,0.040169
5833490536,-318.191650,123.945152,163.892426,1.632704,-1.245728,-0.172231
5833510581,-235.433395,284.428864,193.312744,0.411067,-1.765664,0.392803
5833530625,-58.230827,106.181587,36.579865,-0.383033,-1.810027,0.691912
5833550670,152.610977,-80.808121,-126.741089,0.117048,-0.615205,0.016798
5833570715,271.519989,-158.302780,-180.953323,0.536187,-0.174533,0.562672
5833590760,208.414703,-135.528183,-160.538666,1.100351,0.155448,1.066908
5833610805,-23.515280,-33.250389,-109.719124,0.809037,0.179349,0.243908
5833630850,-123.638733,-33.839153,-90.156555,0.817525,0.032819,0.044881
5833650895,-163.725693,-37.178524,-38.056870,1.307656,-0.124315,0.382617
5833670940,-122.094040,44.841175,26.080976,1.364498,-0.356484,0.666914
5833690985,-20.864559,77.088974,30.203384,0.775526,-0.349625,0.384323
5833711029,16.627392,-1.692285,0.812336,0.723083,-0.390402,0.611068
5833731074,4.565596,-28.253113,2.560243,0.768327,-0.386739,0.531158
5833751118,19.630192,-29.022415,27.776299,0.859926,-0.423125,0.342391
5833771162,52.653587,-12.832607,41.159786,0.824618,-0.452705,0.476941
5833791206,103.234444,1.339301,46.236134,0.693756,-0.345474,0.548391
5833811251,137.979340,-20.829418,50.919739,0.660160,-0.194029,0.669441
5833831296,137.586838,-46.663330,52.067059,0.609361,0.075409,0.795947
5833851340,112.343269,-63.060265,49.327827,0.539202,0.344474,0.818889
5833871385,94.848633,-91.289619,48.711586,0.489993,0.382744,0.589509
5833891429,39.702824,-135.525635,61.152184,0.702587,0.075450,0.404772
5833911474,-58.139767,-205.156067,91.839516,1.093510,-0.203431,0.131971
5833931519,-12.066778,-262.373413,97.337891,1.576810,-0.012581,-0.057905
5833951563,152.001709,-185.058838,24.592953,1.606908,0.403941,-0.173837
5833971609,154.196899,-2.777967,-53.219036,1.210522,0.550478,-0.233843
5833991653,44.153061,111.078934,-48.231945,0.924123,0.323266,-0.100224
5834011699,-54.168102,128.856689,32.451488,0.772316,0.093592,0.059709
5834031744,-150.469543,89.158936,135.975342,0.710653,-0.108003,0.229901
5834051788,-224.000366,2.902947,190.070602,0.974290,-0.564572,1.109896
5834071833,-99.910088,-82.308372,124.588997,1.060369,-0.866003,0.330485
5834091878,90.663841,-41.768158,64.032478,0.908055,-0.478131,-0.439878
5834111922,206.460129,9.463579,-10.763166,0.909162,-0.201612,-0.097913
5834131967,106.197762,60.174911,-52.186802,1.321238,0.062835,0.446086
5834152012,-64.161499,101.826782,-41.237152,0.981492,-0.056644,0.215705
5834172076,-108.989807,87.171837,-10.909216,1.024401,-0.332565,0.359688
5834192100,-53.190117,54.601456,25.391087,1.094379,-0.569464,0.534684
5834212144,60.789375,42.311703,8.995101,1.052093,-0.547195,0.037543
5834232189,123.155121,78.997498,-12.506157,1.164870,-0.417003,0.207910
5834252234,145.662643,136.376907,0.781883,0.908780,0.058172,0.547176
5834272278,183.774185,135.896408,2.691818,0.586285,0.213357,0.562294
5834292323,136.849594,54.095493,25.831457,0.688146,0.178059,0.644542
5834312368,61.320980,6.709703,59.785393,0.582580,0.027298,0.606503
5834332412,38.526356,22.503542,65.788460,0.539803,-0.196745,0.699904
5834352457,84.781578,50.530499,60.333534,0.379756,-0.299061,0.642312
5834372502,155.560257,34.727776,59.097301,0.303048,-0.148217,0.817589
5834392546,216.291473,-20.991404,43.958176,0.409111,-0.073366,0.535325
5834412591,204.467239,-68.712082,30.396255,0.794109,-0.277554,0.254034
5834432637,140.707397,-123.624443,65.874535,1.451646,0.003553,0.586007
5834452682,262.052032,-91.767975,49.768875,1.269608,0.812708,0.493964
5834472726,261.472168,62.605164,-62.552036,1.144490,1.639262,1.030674
5834492771,37.113476,155.576935,-121.226189,0.430514,0.915176,0.018747
5834512816,31.824432,90.709579,-87.527618,0.392397,1.303111,1.032963
5834532860,5.511627,-22.423164,38.521072,0.151246,0.698301,0.898352
5834552905,-0.556602,-176.272934,135.777740,0.351027,0.317504,0.546333
5834572950,-34.859386,-251.895782,180.199326,0.527031,0.292159,0.319852
5834592993,-90.367767,-251.080307,213.573273,0.838268,0.173282,0.197010
5834613037,-116.870354,-205.593399,239.841385,1.304255,-0.278103,0.163989
5834633083,-48.149910,-58.789837,211.170853,1.479738,-0.874813,0.033265
5834653127,82.803032,52.661224,112.676765,0.974959,-0.674863,-0.038262
5834673171,209.039963,13.172189,-23.844213,0.865015,-0.096509,0.235577
5834693216,213.839264,-18.443592,-91.958687,1.162574,0.412918,0.545737
5834713261,83.196014,-12.330696,-68.214577,1.051214,0.255199,0.153642
5834733305,-0.914121,-17.348913,-14.130212,0.978602,-0.023985,-0.100511
5834753351,-53.592194,-0.127783,65.777168,1.316644,-0.216946,0.011986
5834773395,-24.736416,52.242062,123.321663,1.779907,-0.544711,0.211180
5834793440,150.622879,151.724701,82.024178,1.011776,-0.474467,0.114309
5834813484,275.672150,152.169815,27.660732,0.564933,-0.059403,0.382028
5834833531,261.274353,74.843193,23.280867,0.686260,0.089302,0.696063
5834853575,151.114548,19.376348,54.978699,0.721063,0.005813,0.557526
5834873620,118.078072,2.207930,62.561787,0.620076,-0.108099,0.619002
5834893664,167.902069,9.947996,45.686470,0.587466,-0.218811,0.434311
5834913709,240.542633,-25.850044,35.861427,0.832801,-0.237433,0.247066
5834933754,324.347931,-69.333214,28.738726,1.077728,0.189448,0.318167
5834953798,361.058258,-39.131481,-26.514442,1.196045,0.975427,0.566103
5834973843,125.644554,75.508377,-109.670456,0.801253,1.322523,0.445729
5834993894,118.089607,111.984222,-174.410156,0.415014,1.211303,0.340035
5835013931,35.372532,151.096405,-99.115532,0.166794,1.163831,0.847280
5835033976,59.204224,27.211203,61.100201,0.150927,0.557554,0.912166
5835054020,86.855057,-120.086304,173.366837,0.215348,0.325565,0.259759
5835074065,140.192490,-178.425125,200.339874,0.608858,0.539264,0.231189
5835094110,76.411079,-179.093079,198.208862,1.030132,0.727186,0.212868
5835114154,30.637127,-174.114395,178.496124,1.153050,0.491303,-0.140272
5835134199,-65.130035,-86.258430,145.725861,1.188472,0.188369,-0.253503
5835154243,-118.588989,39.871685,86.334763,1.240400,0.082796,-0.146914
5835174288,-54.853615,123.118835,-1.027862,1.328964,0.057281,0.513015
5835194333,11.622864,130.386566,-38.980728,0.969966,0.042609,0.526447
5835214377,47.166756,64.468994,-31.115530,0.806022,0.092553,0.399742
5835234422,44.879356,-33.778980,-21.703167,0.995760,0.325687,0.505179
5835254468,8.849681,-75.814545,-31.527134,1.170762,0.519773,0.400792
5835274513,-65.366013,-34.223526,-38.790947,1.062958,0.427222,0.126542
5835294558,-133.204468,21.006210,-27.047958,0.999457,0.217589,0.152937
5835314602,-171.727539,42.212357,0.737024,0.946359,-0.058515,0.362227
5835334647,-167.205048,45.732979,12.705456,0.843493,-0.274271,0.556271
5835354691,-66.913742,18.217163,-17.177462,0.585144,-0.223265,0.456364
5835394781,53.923008,-149.693695,-80.841835,1.264933,0.142018,0.449756
5835414824,-113.033485,-119.636322,-37.285778,1.649582,-0.093494,0.223074
5835434869,-172.289566,20.758579,23.121315,1.515875,-0.638879,-0.068385
5835474958,62.900063,192.824310,37.892803,-0.162302,-0.832311,0.864539
5835495003,191.153595,18.939867,-77.672920,-0.125327,-0.266268,0.350378
5835515047,269.043152,-124.394257,-164.838440,0.353128,0.230117,0.243254
5835535092,195.198975,-206.850861,-180.794571,1.303963,0.869098,1.084993
5835555136,-69.150490,-86.595741,-120.959541,1.171558,0.768868,0.293585
5835575181,-130.653870,-10.133581,-88.951973,0.902258,0.512216,-0.087923
5835595226,-81.953735,19.062244,-26.006828,1.155177,0.433490,0.075268
5835615271,-12.456801,57.853294,33.189186,1.245675,0.469793,0.351859
5835635316,30.164377,95.269623,43.203148,0.902895,0.425919,0.294362
5835655362,7.069341,68.815536,24.534712,1.012361,0.478027,0.326415
5835675406,-74.141548,22.173002,-6.467789,1.098325,0.535318,0.320743
5835695451,-177.231155,27.993876,-38.113976,1.042239,0.303146,0.322159
5835715496,-235.752274,53.089790,-18.887058,1.134406,0.078001,0.253767
5835735540,-169.152679,91.044960,-15.312073,0.976774,-0.020308,0.313243
5835755585,-112.956123,139.157974,-41.164970,0.567051,0.078593,0.419780
5835775629,-99.909454,138.614700,-74.724045,0.336302,0.182790,0.758105
5835795674,-143.815796,114.388306,-81.160027,0.204299,0.149956,0.960442
5835815717,-205.130737,46.151325,-76.031570,0.173768,0.062592,0.969134
5835835762,-211.810745,-54.978088,-76.737991,0.298614,0.089031,0.725191
5835855806,-144.363510,-129.747772,-86.021652,0.748452,0.180579,0.213046
5835875851,-160.584579,-155.897430,-90.595901,1.416346,-0.003610,0.506144
5835895896,-361.823822,-27.675768,-8.763076,1.792695,-0.809368,0.700911
5835915941,-353.512207,215.673569,86.590836,1.189365,-1.961047,0.627712
5835935985,-204.933365,129.339264,21.661489,-0.343264,-2.368443,0.645736
5835956030,96.278412,-70.645172,-148.503250,-0.311822,-1.304420,-0.276722
5835976075,312.725250,-145.080917,-193.730011,0.163874,-0.474785,-0.033911
5835996119,406.269196,-219.474808,-196.174835,0.537313,0.031695,0.729137
5836016164,322.297150,-219.849686,-193.847000,0.954612,0.617423,0.846710
5836036209,118.438805,-150.050308,-208.653137,0.871583,0.663346,0.058553
5836056255,-6.951510,-150.795685,-247.588074,1.062233,0.692845,-0.255858
5836076299,-127.392006,-131.845612,-222.060196,1.484532,0.917949,-0.286497
5836096344,-211.279297,-52.734715,-89.969551,1.603203,0.941027,-0.128132
5836116389,-145.647232,39.308929,50.721523,1.318147,0.699885,-0.076965
5836136434,-29.718987,68.229042,102.981049,0.981470,0.470779,-0.018992
5836156478,-19.822968,77.000183,88.079292,1.061569,0.578845,0.238175
5836176523,-92.207314,68.488747,36.754112,1.247049,0.758462,0.296954
5836196567,-180.709183,47.862186,-44.566410,1.064944,0.601741,0.084055
5836216614,-316.475464,81.519409,-65.604637,1.048838,0.267376,0.180928
5836236656,-397.831970,113.294106,-10.814346,1.069778,0.030442,0.300211
5836256700,-363.133820,137.832779,13.107364,0.695025,-0.152325,0.471330
5836276745,-262.826538,123.852753,-19.066345,0.338549,-0.172998,0.354271
5836296789,-185.859238,72.585503,-75.130135,0.231889,-0.241481,0.708585
5836316834,-180.612473,30.228649,-128.420303,0.435168,-0.289282,0.884997
5836336879,-202.644470,-18.920008,-142.557770,0.698143,-0.119032,0.329686
5836356923,-231.714005,-57.459694,-123.199387,1.006684,-0.203878,0.430422
5836376968,-341.483429,-8.897913,-44.887524,1.239001,-0.776590,0.757778
5836397013,-431.187225,92.255615,60.593315,0.881392,-1.932693,0.808137
5836417057,-333.060822,129.785889,41.940582,-0.000082,-2.625532,0.237387
5836437102,-8.602749,9.590413,-141.276581,-0.499031,-1.870350,-0.319487
5836457147,305.685822,-105.967827,-224.231934,-0.022076,-0.844026,0.119732
5836477193,425.713226,-207.707825,-240.703995,0.444828,-0.229033,0.840596
5836497238,329.637115,-210.001556,-235.577057,0.907454,0.474090,1.072702
5836517282,80.990463,-126.175415,-227.289566,0.799498,0.632423,0.371293
5836537327,-48.335236,-130.750046,-253.673828,0.749378,0.489646,-0.008825
5836557375,-123.828308,-170.344940,-236.061188,1.032877,0.605939,-0.043950
5836577416,-200.906204,-158.143402,-142.447098,1.442467,0.739224,0.097604
5836597461,-210.652313,-90.252060,-5.269141,1.565204,0.474834,0.098771
5836617506,-146.935638,-20.203873,100.215179,1.338246,0.019081,-0.019212
5836637549,-96.622421,12.370893,141.943024,1.132789,-0.212839,-0.077796
5836657593,-76.749123,32.589474,114.223778,1.001039,-0.324330,-0.047611
5836677638,-42.496933,66.682755,20.574335,0.947160,-0.286658,0.207611
5836697683,9.850922,88.314178,-64.837189,1.015401,-0.044147,0.411686
5836717727,18.608210,26.899235,-101.535980,1.208492,0.233459,0.521697
5836737772,-101.281143,27.461353,-62.236328,1.251324,0.307525,0.539972
5836757817,-157.560471,50.078415,-24.153734,1.144453,0.130263,0.365394
5836777861,-152.763245,69.245766,-35.354206,0.820422,0.047919,0.259187
5836797906,-140.826187,79.438278,-79.930969,0.600021,0.075806,0.330183
5836817951,-163.980484,69.756027,-88.269165,0.577857,0.137483,0.579429
5836837995,-178.824127,45.557896,-77.482101,0.556578,0.218827,0.839354
5836858040,-182.090332,10.622318,-89.887558,0.469620,0.239794,0.622679
5836878086,-191.621643,-54.858387,-109.712524,0.837395,0.149338,0.475251
5836898131,-307.296600,-114.100281,-83.019768,1.292574,-0.123155,0.485833
5836918175,-449.102356,-82.094864,13.639221,1.751942,-0.873844,0.588979
5836938220,-389.109100,100.304886,107.732697,1.490669,-1.818423,-0.149513
5836958265,-204.218887,204.317490,101.386772,0.066438,-2.059835,-0.112948
5836978310,58.861694,52.896854,-51.009445,-0.735145,-2.121881,0.308981
5836998354,295.240631,-87.961716,-176.737350,-0.095286,-0.741433,-0.014211
5837018399,393.286926,-181.930084,-193.345337,0.271504,-0.181177,0.532934
5837038442,352.899017,-214.938843,-184.037735,0.905161,0.345338,1.214958
5837058486,116.556534,-134.632828,-171.316010,0.907516,0.597670,0.553457
5837078531,-32.074554,-108.937408,-208.711197,0.707914,0.507535,0.096427
5837098576,-100.646774,-133.516953,-219.612518,0.904036,0.657489,0.172462
5837118620,-159.098206,-102.461403,-165.027634,1.185856,0.760622,0.317429
5837138665,-158.545837,-59.352859,-68.693550,1.292786,0.521618,0.216665
5837158710,-140.211395,-63.085640,31.890900,1.299258,0.198453,0.145088
5837178755,-138.672424,-55.590630,86.975151,1.244546,-0.038232,0.067706
5837198799,-123.351326,-6.777049,69.990326,1.130064,-0.169044,-0.028467
5837218844,-74.810684,51.855076,-4.746130,0.935145,-0.117967,-0.013105
5837238889,-24.413553,79.939758,-76.458717,0.957342,0.093787,0.229491
5837258933,-18.002748,57.360634,-109.085213,1.245385,0.478551,0.452207
5837278979,-112.093643,47.879292,-94.299088,1.061153,0.432488,0.370394
5837299024,-232.873505,57.240067,-29.555809,1.066011,0.066550,0.355969
5837319069,-264.357361,44.654629,14.152241,0.981365,-0.177462,0.512960
5837339113,-217.799866,78.153732,-8.367545,0.647184,-0.265268,0.449607
5837359158,-148.617859,77.988426,-56.992119,0.391747,-0.207418,0.494424
5837379203,-87.398499,40.232277,-82.314781,0.395215,-0.093316,0.884544
5837399247,-32.475060,-24.195219,-87.108810,0.470394,0.138077,0.752899
5837419292,-13.077193,-83.602798,-101.706627,0.643817,0.419417,0.420987
5837439335,-92.949196,-128.587509,-111.359245,1.199605,0.609441,0.529910
5837459380,-346.244568,-108.507919,-43.545532,1.437886,0.128742,0.459869
5837479425,-550.912842,-41.942848,99.661057,1.569378,-0.814643,0.568583
5837499469,-440.111542,146.341949,194.585968,0.981497,-2.094601,0.451034
5837519514,-193.737900,152.679565,107.305115,-0.263015,-1.936120,-0.227268
5837539559,152.003113,-28.717640,-87.764755,-0.411889,-1.288057,-0.150945
5837559603,363.986481,-155.933746,-177.702988,0.171997,-0.394219,-0.020587
5837579648,425.046509,-284.094452,-207.517532,0.492596,0.061848,0.370848
5837599692,272.799744,-318.258148,-209.410980,1.665783,1.244470,1.847673
5837619737,-122.302155,-144.689285,-208.983612,0.787770,0.594395,-0.230647
5837639782,-107.838013,-156.462189,-264.209351,0.800041,0.484006,-0.566785
5837659827,-62.076813,-155.124344,-226.934723,1.084450,0.653128,-0.481249
5837679873,-65.963905,-64.034477,-109.555000,1.594205,0.881817,-0.114962
5837699917,-124.990448,58.947647,53.294785,1.696795,0.684180,0.097913
5837719962,-145.117279,95.694489,160.740906,1.129154,0.159423,0.094093
5837740007,-129.946426,77.732407,186.162842,0.781415,-0.059357,0.094997
5837760052,-63.456085,40.003170,129.511429,0.664483,-0.075058,0.051846
5837780096,28.871685,19.140102,21.755733,0.910951,-0.008703,0.256674
5837800141,43.889557,0.534034,-66.424561,1.357984,0.277782,0.543455
5837820186,-70.803650,27.592079,-84.768875,1.218645,0.437128,0.279915
5837840229,-178.533859,76.491463,-46.065250,1.077679,0.238508,0.069301
5837860273,-186.390930,90.401100,-9.747449,0.912137,0.187585,0.247415
5837880318,-157.154099,107.084869,-20.630146,0.696076,0.097993,0.545111
5837900362,-148.166458,53.013882,-36.318768,0.577120,0.084389,0.460321
5837920407,-141.677521,-9.013956,-37.544041,0.664249,0.116655,0.463331
5837940452,-146.668060,-1.624137,-25.948193,0.705663,0.092525,0.402287
5837960496,-146.193466,-12.518511,-13.904623,0.820209,0.085979,0.352374
5837980541,-185.664841,-60.092735,-8.490844,1.160530,-0.016857,0.439197
5838000586,-259.679413,-72.870010,17.160530,1.521434,-0.378076,0.378079
5838020631,-301.848450,5.793624,80.130913,1.611705,-0.906260,0.180433
5838040675,-232.269547,169.860321,124.801659,1.009652,-1.176019,0.018843
5838060720,-154.366364,197.308441,93.072914,0.092796,-1.338178,0.527613
5838080766,-25.582832,44.015820,-34.926552,-0.158571,-1.142337,0.400522
5838100811,62.153969,-64.203278,-120.517113,0.244095,-0.614414,0.136442
5838120855,122.133575,-114.820023,-131.838531,0.704692,-0.511482,0.521708
5838140900,132.686005,-93.005470,-110.425995,1.046463,-0.341275,0.460889
5838160945,115.786697,-46.469177,-98.372086,1.071097,-0.036220,0.387992
5838180989,39.619873,-11.571710,-69.793381,1.204774,0.035771,0.433532
5838201034,-44.686520,13.374882,-9.740244,1.118552,-0.071097,0.328355
5838221079,-66.351845,59.134598,40.823341,0.952297,-0.261447,0.450347
5838241123,-44.656307,80.667854,49.725273,0.725246,-0.403447,0.702145
5838261167,6.048694,23.883387,29.597858,0.515338,-0.410719,0.698851
5838281212,57.404518,-54.172657,16.867695,0.578351,-0.328391,0.628801
5838301256,85.837074,-61.762482,28.000519,0.739620,-0.236639,0.627856
5838321301,78.747940,-30.915699,38.279938,0.705325,-0.185519,0.578839
5838341346,59.607807,-19.126904,35.589153,0.627231,-0.236900,0.799020
5838361390,43.461540,-39.301208,33.812214,0.477142,-0.315027,0.841086
5838381435,62.494175,-82.635109,31.383673,0.410160,-0.209281,0.627044
5838401480,110.813301,-144.402725,29.959332,0.641959,-0.270446,0.266065
5838421524,118.906204,-197.765472,32.507484,1.074354,-0.307082,0.018061
5838441569,162.682571,-237.830734,27.646360,1.534605,0.022910,-0.040844
5838461613,192.226395,-210.884674,-13.317808,1.817979,0.656702,0.016630
5838481660,109.940872,-79.889191,-92.155312,1.475309,1.067232,-0.186737
5838501704,-1.773371,42.764030,-152.620132,0.905222,0.789033,-0.377522
5838521749,-25.419128,95.852707,-118.503822,0.756515,0.544852,-0.112564
5838541794,-62.012886,97.273735,-3.942528,0.662864,0.312661,0.034340
5838561838,-95.059174,48.744968,121.769112,0.753963,0.172011,0.161899
5838581883,-173.478088,-29.191874,225.854797,1.048218,0.017898,0.486434
5838601928,-216.212662,-86.316376,233.428146,1.398885,-0.465557,0.544518
5838621972,-54.750366,-6.880647,140.131775,1.346022,-0.728792,-0.195618
5838642023,115.128998,71.900192,43.373726,0.883725,-0.488054,-0.287474
5838662061,140.523331,104.352066,-49.657738,0.758984,-0.191247,0.165389
5838682105,40.835251,116.243805,-79.408310,1.013555,0.001293,0.676328
5838702150,-46.943390,75.221672,-31.066933,0.941277,-0.020884,0.436718
5838722194,-27.415249,32.921566,18.205130,1.065672,-0.053641,0.325548
5838742239,26.715555,49.185482,34.100731,1.222172,-0.099377,0.263520
5838762284,75.902206,110.469284,25.834063,0.885819,0.092154,0.383940
5838782328,84.176773,109.168831,23.189247,0.855652,0.089703,0.598878
5838802373,34.457134,49.495987,46.428436,0.818844,-0.130256,0.526679
5838822418,28.862501,46.880165,49.940125,0.748624,-0.357624,0.495084
5838842463,75.213539,94.489449,34.318378,0.556399,-0.496819,0.615190
5838862507,127.096329,95.513588,28.228748,0.290200,-0.389309,0.909892
5838882552,164.677475,46.962555,37.676983,0.170742,-0.197205,0.929193
5838902598,206.650681,-12.090444,43.558964,0.235242,-0.121239,0.539185
5838922642,201.531204,-61.141449,42.372337,0.576752,-0.334854,0.276136
5838942687,165.730743,-127.089912,64.230858,1.121559,-0.105892,0.514122
5838962731,288.392822,-147.553909,39.837769,1.264283,0.735365,0.503395
5838982781,205.658569,-31.309334,-85.827255,1.234936,1.756113,1.000508
5839002821,22.213842,64.170914,-166.735306,0.529443,1.056578,-0.102878
5839022866,-20.002548,79.923012,-121.950897,0.595573,1.249011,0.619275
5839042910,-38.869873,42.302322,16.432838,0.358205,0.646023,0.817900
5839062953,-70.351036,-118.566254,141.804443,0.455787,0.214577,0.674317
5839082998,-70.170792,-255.615997,222.778000,0.678788,0.086083,0.313557
5839103043,-62.746925,-275.323914,288.980804,1.050187,-0.125714,0.286699
5839123088,-27.308260,-137.704834,291.466309,1.325815,-0.576683,0.044247
5839143133,89.467331,39.728085,233.654526,1.091886,-0.792779,-0.103443
5839163177,141.603882,56.420895,135.069656,0.756077,-0.837556,0.330759
5839183221,214.859070,-31.031685,8.066005,0.752361,-0.362274,0.502616
5839203266,265.640137,-87.887802,-35.945282,1.118777,0.202887,0.395289
5839223311,218.964844,-51.690029,-33.823715,1.093193,0.529360,0.218148
5839243356,168.145981,0.419748,-31.350224,1.036425,0.475926,0.062215
5839263400,77.669823,44.847179,34.308388,1.134493,0.265862,0.124117
5839283445,-45.607422,86.558952,116.501358,0.964490,0.004699,0.304298
5839303491,-79.718483,88.730339,130.100479,0.849048,-0.436198,0.803560
5839323536,37.907017,21.166729,83.453682,0.910888,-0.747242,0.319309
5839343580,209.499435,-47.943314,48.157234,1.250073,-0.584439,-0.187768
5839363625,365.197052,-9.832170,12.058504,1.015734,-0.046582,0.240727
5839383670,374.246216,79.518410,-28.228537,0.911314,0.368258,0.368373
5839403714,300.590973,63.318691,-40.294865,0.770409,0.338023,0.233120
5839423759,194.035690,21.105583,-22.708204,0.702052,0.177340,0.398920
5839443804,121.343300,-52.508247,37.859493,0.979756,0.083649,0.611306
5839463847,207.732422,-83.106483,90.074188,0.964231,0.101769,0.050118
5839483892,356.210358,-54.159920,61.139725,1.098853,0.535723,-0.010840
5839503937,329.828888,-9.174110,-12.194242,1.224658,1.288217,0.536963
5839523981,140.038666,60.083115,-89.783440,0.644533,0.833840,-0.344471
5839544026,182.252350,69.511246,-153.317413,0.728438,1.214403,-0.091984
5839564070,44.652069,133.702652,-105.653412,0.614464,1.161681,-0.255169
5839584115,4.417829,159.051895,-12.189512,0.695083,1.259491,0.134557
5839604160,-102.156380,133.118439,70.411682,0.472316,0.961499,0.431921
5839624204,-172.785522,21.921154,71.957298,0.362978,0.731520,1.101015
5839644249,-181.303864,-115.033432,60.892250,0.393881,0.510578,0.857699
5839664294,-111.874313,-165.477295,63.363514,0.729745,0.375233,0.401859
5839684338,-50.585754,-145.848648,104.501419,1.015476,0.331147,0.181069
5839704384,-5.291810,-86.890305,123.250793,1.067055,0.336655,0.066957
5839724429,15.782584,-22.562963,68.397591,1.107793,0.476065,0.090413
5839744474,-40.785400,18.440187,-11.930922,1.248979,0.597167,0.172657
5839764518,-144.380890,24.683363,-68.782578,1.268498,0.521951,0.061982
5839784563,-213.711273,37.815319,-71.257416,1.147842,0.217803,0.011898
5839804608,-244.289749,63.075264,-5.605677,1.316496,-0.197091,0.372266
5839824652,-227.409210,135.391357,84.039101,1.457191,-0.960949,0.653006
5839844697,-115.672806,128.804688,102.729553,0.900505,-1.049106,0.396563
5839864740,15.972875,24.100889,42.129845,0.767130,-1.383737,0.453433
5839884785,151.839569,29.096344,-30.711412,0.459810,-0.939741,0.374050
5839904830,213.007812,43.808453,-54.673897,0.198621,-0.519642,0.751244
5839924875,258.705475,43.665401,-65.263123,0.108788,-0.115727,0.885915
5839944919,240.047226,17.207079,-84.780731,0.104989,0.186136,0.967247
5839964964,154.535461,-3.818054,-83.571945,0.236129,0.295144,0.945364
5839985008,59.755138,-35.118496,-47.733398,0.396046,0.356483,0.833859
5840005053,6.475103,-74.106911,8.874047,0.573587,0.413774,0.778690
5840025098,14.940327,-88.180077,32.439167,0.656366,0.444039,0.510464
5840045142,58.911598,-77.321869,8.459813,0.816725,0.551884,0.438911
5840065187,61.057575,-53.966297,-24.131701,1.081525,0.692492,0.374314
5840085232,-9.435977,-40.166016,-46.855301,1.250260,0.716237,0.301514
5840105278,-129.854675,4.480317,-41.867981,1.135436,0.499031,0.183928
5840125323,-184.753998,34.166367,-34.062523,1.139991,0.396188,0.267387
5840145367,-188.816956,60.770203,-55.578217,1.000983,0.341316,0.396017
5840165412,-176.970871,81.740578,-83.312805,0.790080,0.301525,0.444606
5840185457,-182.484879,77.525826,-85.803436,0.657010,0.336813,0.685157
5840205501,-205.994598,59.527641,-79.694374,0.545376,0.324517,0.907867
5840225546,-210.227737,28.015909,-86.122917,0.423985,0.269426,0.829774
5840245590,-170.804169,-29.470308,-99.657135,0.433943,0.164989,0.417275
5840265634,-204.871307,-121.382347,-107.262550,0.843557,-0.056427,0.425099
5840285678,-311.969482,-165.899551,-59.478230,1.443807,-0.488568,0.644547
5840305723,-300.581970,-44.121338,29.407681,1.911320,-1.390053,0.325094
5840325768,-167.234726,94.521515,79.281555,0.861861,-1.337329,-0.115014
5840345813,-57.179516,68.912460,48.994392,-0.283242,-1.951336,0.834654
5840365857,136.034332,-55.254395,-73.843353,-0.234041,-0.973961,0.268933
5840385902,280.016754,-155.738312,-141.123840,0.097509,-0.218244,0.142389
5840405946,380.890656,-228.947296,-181.793640,0.497206,0.229359,0.586003
5840425991,298.949036,-217.727295,-200.838806,1.092554,0.787560,0.907951
5840446036,48.020370,-140.233398,-215.748428,0.890985,0.724248,0.048815
5840466080,-32.201466,-150.847794,-259.827454,0.877978,0.655548,-0.348396
5840486125,-87.561943,-135.316681,-224.617310,1.214019,0.817978,-0.249318
5840506171,-161.282959,-56.606354,-68.050468,1.628297,0.831953,0.031005
5840526216,-119.722252,6.726838,88.126999,1.369450,0.534082,0.070176
5840546261,-29.372660,26.750507,133.909790,0.903692,0.225992,-0.016902
5840566305,12.087339,21.532801,120.996201,0.763676,0.143195,-0.094629
5840586350,10.298820,32.546352,67.374306,1.142568,0.198577,0.177720
5840606395,-38.039612,59.452850,8.631980,1.506311,0.424052,0.415778
5840626439,-36.210392,79.448318,-59.569462,1.028048,0.442455,-0.031892
5840646484,-42.092178,78.541748,-92.312660,1.068612,0.458441,-0.019255
5840666548,-123.061249,65.161484,-51.881226,1.301195,0.484726,0.300792
5840686572,-181.403290,67.592453,-14.723638,1.063034,0.472893,0.276571
5840706616,-160.140762,70.436363,-38.658432,0.872246,0.345519,0.257656
5840726661,-165.022400,63.949505,-55.664616,0.779877,0.325423,0.237390
5840746706,-182.298203,51.038158,-50.088108,0.762359,0.318534,0.269367
5840766751,-201.288315,36.707733,-42.798233,0.739299,0.287689,0.217740
5840786795,-209.130295,42.775436,-52.609543,0.741737,0.279958,0.162557
5840806840,-214.390671,68.010719,-60.508476,0.719541,0.278671,0.228231
5840826885,-223.001328,79.310349,-49.101883,0.726114,0.228699,0.315093
5840846929,-261.117676,75.018166,-16.092613,0.789583,0.002115,0.491049
5840887018,-375.501892,117.449387,111.032776,1.008014,-1.257540,1.014985
5840907063,-270.145813,131.781540,121.288437,0.463894,-1.691653,0.561921
5840927109,-105.792534,30.480225,33.260281,0.102391,-2.207101,0.382538
5840947154,123.099861,-40.364437,-47.635124,0.078143,-1.355714,0.330084
5840967199,280.402710,-92.889374,-42.056950,0.213488,-0.829490,0.735519
5840987243,310.387848,-81.076859,-49.756340,0.310858,-0.361062,0.875213
5841007288,263.579895,-58.650261,-61.882187,0.274473,-0.019878,0.805668
5841027333,180.183792,-51.568466,-57.623165,0.242391,0.120813,0.805092
5841047377,90.095772,-75.567009,-34.892879,0.302838,0.256289,0.804597
5841067422,18.348221,-123.281227,-14.086329,0.475372,0.302791,0.784898
5841087465,-40.478863,-149.595673,-10.624041,0.704305,0.238925,0.735839
5841107510,-82.503738,-135.346970,-12.600791,0.892369,0.055522,0.650322
5841127554,-82.493797,-105.550308,-8.301845,1.022582,-0.145179,0.536575
5841147599,-38.400120,-81.088821,-2.697919,1.030508,-0.254177,0.395139
5841167644,25.645592,-65.953613,-9.960705,0.914549,-0.239428,0.354111
5841187688,70.305595,-66.675537,-25.226681,0.837920,-0.125906,0.424630
5841207733,79.797073,-82.900230,-34.563198,0.841680,0.009896,0.452398
5841247823,41.176601,-98.973595,-36.415489,0.933503,0.184106,0.276916
5841267867,26.322128,-94.051620,-38.416519,0.984219,0.225234,0.220044
5841287912,7.282197,-67.748955,-31.743668,1.013462,0.258299,0.201139
5841307956,-9.361218,-36.501587,-11.053349,1.008681,0.215685,0.223579
5841328003,-14.193106,-27.854578,7.655584,1.022696,0.165081,0.289105
5841348047,-17.254292,-35.808720,10.185376,1.068928,0.086849,0.332606
5841368092,-28.026495,-33.944237,11.530843,1.043706,-0.020312,0.275220
5841388137,-15.028844,-20.874258,12.439683,1.002387,-0.070581,0.260311
5841408181,13.403312,-9.188027,8.256744,0.972117,-0.075693,0.297278
5841428226,36.824280,-15.384458,-1.576969,0.967348,-0.008913,0.318816
5841448271,35.750168,-21.398235,-7.231060,0.990522,0.098991,0.336304
5841468315,18.647825,-16.356428,-0.644385,0.938095,0.131891,0.289490
5841488358,7.002345,-17.765364,4.535257,0.909408,0.132400,0.312947
5841508403,-2.285960,-20.267460,0.350209,0.917419,0.123869,0.334745
5841528448,-7.988237,-22.560175,-4.586268,0.933718,0.113411,0.321840
5841548492,-14.505595,-19.962582,-4.302588,0.943248,0.104903,0.324802
5841568537,-16.648144,-16.394806,-1.645985,0.930847,0.083514,0.316603
5841588582,-10.146057,-17.594166,-2.616518,0.915828,0.082571,0.306486
5841608627,-7.845376,-18.950935,-6.731517,0.925288,0.087813,0.307149
5841628671,-12.656865,-19.319008,-6.275272,0.932727,0.063832,0.296840
5841648716,-15.075193,-18.046154,-3.065869,0.925003,0.033121,0.295126
5841668761,-7.272419,-16.379025,0.735206,0.914539,0.016548,0.301286
5841688805,8.068361,-20.382866,0.232838,0.934836,0.022304,0.307214
5841708850,17.862453,-25.964827,-4.621267,0.994095,0.071458,0.293584
5841728896,17.928705,-27.866703,-8.269140,0.998648,0.117809,0.245527
5841748941,16.718876,-20.661873,-11.976787,0.955359,0.191439,0.201995
5841768985,17.951248,-20.174713,-8.032800,0.948852,0.246321,0.201130
5841789030,10.112322,-21.730705,-1.427111,0.982191,0.261510,0.189685
5841809075,-5.662979,-22.063885,4.834503,0.980042,0.217162,0.179566
5841829119,-17.330700,-18.616938,7.838510,0.985949,0.150002,0.170877
5841849164,-18.162275,-11.714818,7.769795,1.003285,0.093319,0.197146
5841869209,-7.671151,-9.665518,4.609630,0.983955,0.076848,0.211525
5841889252,9.834071,-9.757993,1.618640,0.958173,0.103685,0.213301
5841909297,15.288612,-12.461769,-0.195687,0.969234,0.151686,0.217537
5841929341,7.346195,-15.783903,0.051188,0.977755,0.161104,0.188752
5841949386,2.175384,-13.635715,0.774449,0.974605,0.145849,0.165547
5841969431,4.931776,-12.201378,1.186202,0.976303,0.144770,0.171122
5841989475,5.837093,-13.168069,-0.191118,0.984561,0.156452,0.177368
5842009520,4.217451,-13.591348,1.939586,0.979721,0.147814,0.170485
5842029565,4.046379,-11.500112,3.927296,0.981309,0.132135,0.174086
5842049610,6.586392,-11.927771,4.311996,0.986612,0.126763,0.173349
5842069654,7.332580,-12.802175,5.023222,0.982037,0.121507,0.155697
5842089699,8.649035,-11.373650,6.642093,0.975672,0.114246,0.147152
5842109743,9.897212,-10.341101,6.494417,0.988173,0.110746,0.155466
5842129790,11.952192,-10.579081,5.199013,0.990693,0.102989,0.159554
5842149834,16.839802,-11.222637,3.257572,0.987336,0.115203,0.152237
5842169879,18.277243,-11.597070,1.578498,0.980617,0.160290,0.145442
5842189923,15.775123,-12.081345,1.598141,0.980857,0.180237,0.130894
5842209968,11.772141,-11.416335,2.245285,0.986732,0.161849,0.121620
5842230013,11.479347,-7.866884,1.520436,0.989999,0.154791,0.123159
