Timestamp (us),Gyroscope X (deg/s),Gyroscope Y (deg/s),Gyroscope Z (deg/s),Accelerometer X (g),Accelerometer Y (g),Accelerometer Z (g)
3473874349,-92.786171,30.253862,-2.138784,0.834695,-0.303020,0.343053
3473894350,-75.613968,22.890848,8.736398,0.819562,-0.474501,0.324829
3473914351,-40.081280,24.094046,16.699923,0.862884,-0.465319,0.439874
3473934351,-14.903687,32.176113,13.820115,0.890018,-0.309252,0.535808
3473954352,-25.725811,41.844852,4.136569,0.881751,-0.121927,0.584749
3473974352,-53.708485,43.776516,-5.593105,0.841941,-0.066663,0.569725
3473994354,-72.285332,40.075485,-7.596487,0.818033,-0.100726,0.548936
3474014355,-80.501984,38.277355,-8.979478,0.789238,-0.044116,0.606155
3474034355,-109.477646,35.514771,-23.600105,0.824037,0.109948,0.694261
3474054356,-182.273926,36.344212,-52.969543,0.817409,0.295870,0.704746
3474074357,-231.193893,41.028591,-70.352173,0.895566,-0.207807,0.448288
3474094357,-196.478348,53.670792,-78.813339,0.857477,-0.341515,0.240525
3474114358,-162.999176,51.846569,-91.664093,0.899440,-0.040953,0.139184
3474134357,-159.211273,38.535969,-111.607307,0.896355,0.074505,0.039777
3474154358,-148.757080,26.915773,-132.933716,0.919065,0.086852,0.053225
3474174358,-129.606415,34.000183,-158.685867,0.972110,0.171479,0.131361
3474194359,-119.160950,41.250893,-204.605652,0.923832,0.505030,0.168804
3474214360,-120.293915,44.497379,-257.704132,1.044816,0.661650,0.169349
3474234360,-113.697784,49.383144,-291.550659,1.192866,0.810282,0.051890
3474254361,-97.881195,53.149685,-303.251770,1.231410,0.929277,-0.113467
3474274361,-82.736961,46.288967,-310.060852,1.267037,0.931824,-0.193965
3474294362,-70.916473,43.503929,-305.010651,1.274248,0.905798,-0.216935
3474314362,-114.376678,9.945676,-306.833435,1.803900,1.618062,0.034867
3474334365,-433.447388,-12.436533,-274.322418,3.129043,1.736904,-0.350593
3474354365,-633.981689,46.018036,-186.051025,2.398311,-0.916478,-1.274136
3474374366,-396.938904,51.570107,-149.405487,1.680385,-1.081404,-1.144924
3474394366,-188.515610,23.777653,-138.163818,1.456782,-0.167910,-0.912736
3474414367,-172.052155,-8.321708,-155.564377,1.224781,0.337359,-0.760287
3474434368,-150.100754,-37.386375,-148.541504,1.126127,0.149157,-0.603229
3474454367,-107.575066,-41.090427,-129.188675,1.074277,0.259747,-0.276523
3474474367,-116.591034,-50.745842,-115.546509,1.064938,0.624983,-0.076261
3474494368,-187.806351,-61.557961,-109.434692,1.030618,0.814647,-0.156599
3474514369,-260.875122,-64.231682,-102.264595,1.053408,0.602339,-0.322588
3474534369,-276.988312,-59.667320,-89.794373,1.087094,0.384082,-0.373625
3474554370,-265.173340,-54.659866,-76.663399,1.170344,0.381673,-0.355146
3474574371,-245.591522,-57.397770,-79.673775,1.216936,0.532551,-0.351522
3474614372,-238.169037,-69.140755,-91.600601,1.265824,0.396494,-0.308712
3474634373,-237.819550,-59.974728,-87.965668,1.166131,0.360916,-0.242764
3474654375,-255.885834,-48.148571,-82.571625,1.134384,0.337956,-0.267998
3474674375,-280.668518,-39.566418,-85.179886,1.295280,0.405109,-0.260203
3474694376,-315.952209,-28.489851,-90.608841,1.244474,0.447342,-0.287361
3474714376,-337.458954,-22.936871,-88.438370,1.114825,0.335424,-0.321426
3474734377,-333.079346,-24.358507,-88.163139,1.218045,0.229070,-0.307807
3474754378,-311.974457,-23.293663,-85.832588,1.394736,0.175701,-0.256133
3474774378,-294.518646,-8.614578,-78.402328,1.361943,0.166736,-0.251491
3474794377,-286.842285,6.093524,-72.272614,1.146676,0.125439,-0.279933
3474814378,-283.653656,13.214904,-76.939865,1.099253,0.163743,-0.284465
3474834379,-280.571930,13.747860,-81.766731,1.220404,0.236795,-0.240949
3474854379,-260.146606,3.762971,-84.968491,1.248590,0.224510,-0.200067
3474874380,-239.254639,-2.661456,-87.975739,1.118348,0.162573,-0.204532
3474894381,-232.756104,-5.253089,-95.281448,1.057994,0.146815,-0.207178
3474914381,-253.210587,4.917059,-106.253151,1.069051,0.239823,-0.183684
3474934382,-284.113312,13.632206,-115.065514,1.126108,0.251276,-0.200891
3474954382,-295.678253,15.702678,-121.124344,1.149575,0.165621,-0.256531
3474974383,-282.986511,12.591832,-124.869095,1.134055,0.112858,-0.269377
3474994385,-265.263428,6.952792,-126.520348,1.184446,0.140227,-0.219759
3475014386,-256.654602,5.929806,-123.249321,1.229988,0.212376,-0.179818
3475034386,-255.679031,6.814119,-117.824265,1.258212,0.258113,-0.169017
3475054388,-255.280792,5.268040,-115.577263,1.245883,0.293877,-0.152907
3475074387,-260.748413,4.990252,-109.798347,1.170217,0.315721,-0.148805
3475094388,-279.322021,6.010103,-103.448669,1.105134,0.328470,-0.148379
3475114387,-301.689606,8.083516,-97.466408,1.177827,0.379756,-0.223871
3475134388,-318.315491,13.138894,-92.792984,1.238127,0.404732,-0.294979
3475154389,-320.447083,10.436589,-89.845245,1.206342,0.367957,-0.339157
3475174389,-316.404144,13.611132,-88.502632,1.220856,0.296957,-0.387633
3475194390,-314.837372,22.796942,-91.302391,1.250885,0.194801,-0.347906
3475214390,-302.520416,33.951393,-92.237541,1.283180,0.093820,-0.292576
3475234391,-283.862000,41.841103,-88.011719,1.290988,0.068388,-0.285813
3475294405,-284.969482,54.155712,-98.374779,1.260342,0.237001,-0.389689
3475314395,-294.067749,56.150532,-97.947090,1.126611,0.229656,-0.389646
3475334396,-291.338989,49.920067,-89.990005,1.057918,0.192140,-0.394139
3475354396,-290.727112,46.968204,-89.835045,1.177922,0.180119,-0.433794
3475374397,-300.178314,49.244976,-96.162834,1.258759,0.197209,-0.498280
3475394397,-293.142761,50.170456,-99.466873,1.149382,0.097277,-0.522383
3475414398,-257.110779,54.577908,-98.959908,1.091683,-0.019018,-0.425400
3475434397,-233.894577,62.356331,-101.099846,1.307718,0.082215,-0.260408
3475454398,-247.249664,67.430313,-114.892632,1.532058,0.127283,-0.253551
3475474398,-270.705048,71.271111,-134.302780,1.461986,-0.085356,-0.345216
3475494399,-270.987152,81.804443,-140.284332,1.379120,-0.337218,-0.287268
3475514399,-246.555115,74.762886,-136.184387,1.207287,-0.497375,-0.171969
3475534400,-219.353561,49.603680,-130.578674,1.338670,-0.551090,-0.179855
3475554401,-226.407928,70.193939,-90.287315,0.769679,-0.862362,-0.178429
3475574401,-168.874313,61.385212,-91.976875,0.655478,-0.727750,0.038458
3475594402,-165.971359,51.281715,-65.924202,0.846507,-0.722916,-0.103085
3475614402,-186.052124,31.431454,-42.708908,0.879075,-1.005684,-0.026443
3475634405,-122.669754,7.658790,-1.025929,1.128204,-2.049684,-0.065817
3475654405,6.030219,-8.401673,30.117819,1.287244,-2.067219,0.227674
3475674406,71.468422,-4.934784,55.815716,1.346163,-1.675380,0.425112
3475694407,76.296906,-10.110153,88.410675,1.204758,-1.420278,0.127967
3475714407,114.871719,-36.956215,124.863365,1.111552,-1.394592,-0.254378
3475734408,186.571472,-66.347305,163.653671,1.080135,-1.419565,-0.349906
3475754408,240.493484,-85.817635,177.288422,1.006284,-1.224487,-0.307400
3475774408,273.532928,-95.957512,185.998688,1.014342,-1.037361,-0.356167
3475794408,281.087555,-97.215500,203.569962,1.304796,-0.987360,-0.389494
3475814409,300.929871,-95.900490,225.974976,1.469865,-0.988472,-0.311558
3475834409,292.799103,-96.148468,244.646820,1.523259,-0.770383,-0.549801
3475854410,276.495758,-128.073273,261.098175,1.316065,-0.778653,-1.034479
3475874411,343.235016,-166.860458,260.672791,1.337217,-0.797858,-1.297040
3475894411,379.188232,-187.448685,259.287201,1.336234,-0.351573,-1.118919
3475914412,358.894226,-194.058960,252.122101,1.366029,-0.201117,-1.144282
3475934413,357.375580,-194.158737,236.436859,1.348431,0.072544,-1.180864
3475954415,340.463898,-176.378326,222.823090,1.462892,0.134133,-1.160590
3475974415,312.115570,-169.878296,187.061874,1.485818,0.318287,-1.071060
3475994416,292.494873,-159.204468,145.785522,1.599126,0.498316,-0.983384
3476014416,269.157196,-162.265778,135.882477,1.646818,0.734564,-0.774273
3476034417,256.904633,-174.304108,151.624847,1.502419,0.525862,-0.580235
3476054418,294.056335,-201.830490,170.601059,1.354640,0.577072,-0.530334
3476074418,328.968719,-231.399109,154.343430,1.417991,0.726563,-0.243018
3476094418,322.731445,-230.230911,133.050491,1.427316,0.565117,0.114115
3476114418,276.331207,-198.469666,128.688065,1.244693,0.305055,0.327895
3476134419,209.448410,-157.906113,130.595551,0.998097,0.195201,0.347350
3476154419,121.555244,-138.676102,95.747734,0.961135,0.325357,0.265620
3476174420,32.962902,-146.608505,43.737751,1.245910,0.060094,0.287522
3476194421,5.863178,-177.472427,29.532314,1.253881,-0.578894,-0.056774
3476214421,122.415466,-186.099075,59.785934,1.286387,-1.185776,-0.268323
3476234422,280.219238,-152.984344,98.993889,1.481725,-0.872929,-0.077966
3476254423,308.232056,-128.141312,133.869827,1.667191,-1.581881,0.560996
3476274423,230.308182,-81.343506,222.857498,2.190224,-1.754876,0.167019
3476294425,155.348801,-106.510132,227.432816,1.243250,0.151911,-0.319868
3476314426,124.234360,-126.770271,171.241699,1.106000,0.287883,-0.582029
3476334426,186.304993,-152.424469,170.238541,1.216937,0.179893,-0.512482
3476354427,267.005920,-158.281448,174.501663,1.277784,0.455460,-0.001094
3476374427,256.506317,-160.597717,173.450592,1.281174,0.344066,0.312886
3476394428,211.163895,-144.226685,154.440796,1.266836,0.360510,0.627642
3476414427,137.380219,-119.671967,126.959351,1.069259,0.205511,0.766684
3476434428,73.091385,-99.520752,105.967117,1.080269,0.049900,0.797189
3476454429,44.398567,-78.672104,102.196411,1.037590,-0.211262,0.696785
3476474429,52.851925,-72.416618,93.268616,1.014419,-0.409402,0.614217
3476494430,69.984444,-67.419716,78.060226,0.952689,-0.466039,0.624226
3476514430,83.923477,-54.193268,67.913071,0.908206,-0.251068,0.709138
3476534431,58.684296,-44.357178,56.007217,0.853212,0.043594,0.795182
3476554432,22.772179,-31.848003,46.759773,0.985409,-0.096162,0.810884
3476574432,5.032896,-20.275206,37.342369,0.923889,-0.197089,0.819933
3476594433,-14.848379,3.224335,26.915569,0.813087,-0.126204,0.800398
3476614435,-69.690109,22.299858,8.210462,0.745762,-0.044086,0.696295
3476634435,-110.432678,25.741680,-12.334823,0.709822,-0.156718,0.535207
3476654436,-113.921280,26.984510,-29.073458,0.719851,-0.419611,0.404529
3476674437,-110.645401,16.887476,-50.214397,0.719754,-0.583808,0.263294
3476694437,-86.875572,15.836525,-68.214645,0.783398,-0.785246,0.148721
3476714438,-33.422668,16.062105,-92.139366,0.804805,-0.676117,0.100740
3476734448,11.635572,8.186696,-125.047424,0.841246,-0.607666,0.154602
3476754438,23.020844,-4.262387,-168.108429,0.879086,-0.475754,0.134896
3476774438,19.021822,-8.739558,-206.568100,0.931527,-0.511544,0.074676
3476794439,42.696117,-9.058464,-239.253159,1.013226,-0.425794,0.133928
3476814440,59.702621,-6.476769,-270.393433,1.111672,-0.145016,0.309298
3476834441,57.284138,7.046926,-305.013062,1.255576,0.007167,0.554603
3476854441,46.572926,33.808159,-342.854126,1.347254,0.094661,0.737800
3476874442,76.444046,85.336044,-362.708862,1.394080,0.209051,0.745727
3476894442,133.073761,137.629196,-359.420135,1.607792,0.979317,1.145880
3476914443,-192.791275,113.028748,-332.476318,2.677333,1.778316,0.889513
3476934445,-616.244995,134.190598,-146.696030,2.438718,-3.090561,-0.919151
3476954445,-97.185555,51.158672,-39.541389,0.068493,-5.273479,-1.506670
3476974446,529.635742,16.377916,67.244247,0.768959,-1.371917,-1.076845
3476994447,509.635315,12.031502,107.259430,1.610780,0.836767,0.609740
3477014447,147.326370,8.358540,97.060905,1.111403,1.318031,1.178824
3477034448,-102.811966,-5.924126,83.464745,0.807221,0.151842,0.706492
3477054449,-96.609726,2.981940,139.251160,0.704045,-0.754401,0.077577
3477074448,53.146187,46.197121,205.602509,0.574727,-0.997894,0.035320
3477094449,113.866920,39.513557,257.403290,0.686572,-0.264015,0.232049
3477114449,36.374908,11.830578,284.829987,0.781918,0.263702,0.379878
3477134449,-68.299538,-6.148057,305.239105,0.925667,0.078551,0.442184
3477154450,-98.502342,-25.925650,328.127930,1.024909,-0.229330,0.272960
3477174451,-51.660477,-33.006554,330.765442,0.982628,-0.347585,0.255834
3477194451,-1.938252,-48.102657,310.445709,1.077430,-0.156328,0.376445
3477214452,10.594386,-68.746078,273.488464,1.118142,0.152265,0.663004
3477234453,-5.290246,-68.155411,215.925003,0.766669,0.309840,0.481361
3477274455,-16.213865,-67.438797,-3.717561,0.902640,0.910976,0.591802
3477294456,39.057259,0.325618,-38.611015,0.881130,0.457294,0.721060
3477314456,26.537346,53.377357,-62.983002,0.814199,0.708505,1.126271
3477334457,-139.648041,65.627914,-47.741882,1.166679,-0.373232,1.074014
3477354458,-142.251251,99.661247,13.161191,1.003260,-1.514964,0.804129
3477374458,-129.206284,150.022491,5.980713,0.825876,-0.401650,0.425571
3477394457,-187.099884,75.670364,-46.841118,0.231242,0.192709,-0.187838
3477414458,-151.401688,41.267426,-78.909828,0.467984,-0.456349,-0.153590
3477434459,-88.522034,26.280659,-71.271400,0.530726,-0.699327,-0.097688
3477454459,-35.390881,18.075092,-65.671013,0.753988,-0.861299,0.164827
3477474460,-31.878159,9.145157,-81.688774,0.613993,-0.517327,0.019666
3477494460,-20.595602,-18.130100,-146.644180,0.557435,-0.680822,-0.010135
3477514461,28.459776,-22.657986,-195.012314,0.744219,-0.589463,0.088582
3477534462,81.281136,-14.705928,-241.577209,1.097767,-0.474566,0.402063
3477554463,78.751328,1.079997,-306.049194,1.551268,-0.260614,0.905854
3477574463,70.946022,42.106827,-369.950317,1.885280,-0.028195,1.030157
3477594465,148.520508,125.294922,-396.701935,1.804632,0.453381,1.072480
3477614465,-9.221004,118.631172,-419.615509,2.598942,2.306709,1.227411
3477634466,-614.997009,130.111923,-205.980850,3.237208,-3.522503,-0.495278
3477654467,-102.120102,83.299683,-61.641823,1.158101,-5.715293,-1.608223
3477674467,544.642151,44.838745,-23.651386,0.336772,-2.365258,-1.145657
3477694468,532.403320,4.456416,7.942437,1.651560,1.407547,0.261964
3477714483,172.461670,-27.510227,6.220627,1.401955,1.525912,1.201086
3477734468,-50.594723,-19.984722,-5.614667,0.927192,0.125134,0.783820
3477754469,-3.478281,54.803020,60.477264,0.532091,-1.077300,0.127874
3477774469,86.412224,76.718620,122.813812,0.382349,-0.858124,0.058509
3477794470,50.935974,44.134838,167.739258,0.479327,-0.250467,0.122119
3477814470,-34.618721,9.111258,202.197083,0.477259,-0.257966,0.065112
3477834471,-39.649078,-10.786741,242.145981,0.678581,-0.379284,0.074111
3477854472,31.694685,-5.144105,296.342560,0.868464,-0.373693,0.091808
3477874472,89.604050,7.443344,343.782776,1.016021,0.066857,0.216235
3477894473,47.225700,-0.574158,361.506348,1.123915,0.503068,0.328106
3477914475,-49.468021,-36.114079,350.710175,1.451809,0.325583,0.506534
3477934475,-85.869415,-109.459145,312.520721,1.253975,-0.277269,0.540257
3477954476,-21.086845,-119.677917,268.134125,1.271323,-0.198329,0.422188
3477974477,55.354694,-86.135323,221.337769,1.245550,0.607146,0.609226
3477994477,9.633835,-76.182098,131.054214,0.637721,1.364263,0.747455
3478014478,-81.766006,-64.219002,15.968383,0.364707,1.075211,0.497663
3478034478,-123.228378,-44.526119,-38.684704,0.569611,0.059887,0.300237
3478054478,12.946468,-20.474174,-75.170639,1.194899,-0.436255,0.853701
3478074478,124.037964,72.521645,-40.732349,1.153279,-0.486757,1.157080
3478094479,10.212676,124.375511,-7.276364,0.738924,-0.087176,1.397706
3478114479,-181.089264,127.453011,-39.671158,0.759792,0.128131,0.891366
3478134480,-330.515656,71.765297,-94.028923,0.537139,0.465751,-0.156845
3478154481,-257.078674,2.438484,-115.176262,0.769201,-1.240549,-0.586747
3478174481,-18.564861,42.973938,-100.414925,0.850224,-1.154335,-0.197487
3478194482,56.097179,43.104080,-146.618546,0.437948,-0.143160,-0.000079
3478214482,16.534824,6.164233,-223.342865,0.412355,-0.183494,-0.042406
3478234483,16.117165,-13.238551,-283.181335,1.123406,-0.406633,0.092509
3478254486,67.114777,-4.732157,-336.207428,1.604332,-0.420442,0.703972
3478274486,88.270653,38.864513,-397.334381,1.507575,0.300587,0.976880
3478294487,106.754700,126.619980,-430.235382,1.773810,1.005279,1.357407
3478314488,-298.046509,108.107635,-358.821655,4.437660,1.082905,0.951761
3478334488,-571.350891,145.745056,-124.094681,1.669089,-6.522358,-1.073206
3478354488,197.182800,59.138718,-21.505901,0.452679,-4.479544,-2.045973
3478374488,590.370911,27.362986,60.837551,1.194536,-0.658383,-0.998510
3478394488,423.021942,-22.810818,67.521332,2.253019,1.223330,0.546689
3478414489,94.786163,-53.084625,58.807621,0.997850,0.805006,1.115874
3478434489,-87.543747,-47.069145,63.200096,0.821919,-0.306016,0.629299
3478454490,-3.153866,49.777557,145.117157,0.712251,-1.210186,0.021358
3478474491,123.866356,95.929192,220.784637,0.588989,-0.688415,0.007904
3478494491,61.775887,54.072315,259.269897,0.598267,0.362487,0.137433
3478514492,-95.111870,2.363296,271.673157,0.645193,0.237898,0.146478
3478534492,-126.196022,-31.398514,294.029053,0.714648,-0.422727,-0.017808
3478554493,-9.979644,-25.916273,314.895844,1.012880,-0.437534,-0.083447
3478574495,81.979713,-19.107189,322.864990,1.245501,0.126908,0.197829
3478594496,42.213806,-43.405975,301.073120,1.315266,0.521018,0.468406
3478614496,-47.796314,-94.460632,239.431549,0.908072,0.282057,0.642476
3478634497,-68.662514,-107.335602,138.232910,0.964245,0.405030,0.374617
3478654497,-44.059505,-98.123535,44.249763,0.819599,0.656080,0.386634
3478674498,12.667286,-69.026413,-30.660345,0.789069,0.420617,0.403901
3478694520,97.678772,-20.441381,-87.306404,0.941646,0.218395,0.734735
3478734498,-235.531738,70.470505,-215.673950,0.930277,1.663321,1.013982
3478754499,-411.777039,7.455425,-261.668701,1.169243,-0.070027,-0.501825
3478774500,-193.013153,80.950073,-235.111572,1.476774,-2.076756,-0.431136
3478794500,95.613213,104.996681,-225.238785,0.698869,-0.873751,-0.691696
3478814501,180.376358,22.678034,-310.920135,0.574370,0.343799,0.015796
3478834501,86.476906,-3.959910,-353.420685,0.953976,0.328693,-0.007332
3478854502,64.466850,-40.078476,-330.639557,1.056062,-0.057270,0.488820
3478874503,17.498268,-46.043781,-282.909760,2.617375,-0.263208,1.096963
3478894505,-105.595703,46.372116,-140.134476,2.054257,-1.732415,1.071360
3478914505,-204.534790,61.558380,-63.408443,1.465123,-1.594735,0.500507
3478934506,-257.058533,69.914520,-15.383784,1.574903,-1.384013,-0.493059
3478954507,-100.224579,32.228790,22.690472,1.162844,-2.054209,-0.756364
3478974508,142.901917,15.747453,58.693771,1.092895,-1.293448,-0.481425
3478994508,230.893555,10.855206,81.188011,1.058440,-0.420729,-0.175649
3479014509,207.365662,10.215410,80.242081,0.983000,0.301517,0.074104
3479034508,91.118065,2.202920,66.127487,0.700792,0.659834,0.148947
3479054508,-26.866339,-26.520401,50.670845,0.445813,0.422171,0.016673
3479074509,-23.590504,-55.252293,34.531143,0.525493,0.004955,-0.027287
3479094509,72.300957,-43.162785,16.423061,1.058725,0.045207,-0.039139
3479114510,178.632645,6.041188,15.129153,1.143306,0.312888,0.153351
3479134511,176.689621,61.154510,-3.920161,0.937795,0.851082,0.562245
3479154511,56.392929,75.519783,-54.944077,0.901752,1.262820,0.643762
3479174512,-65.994614,32.837517,-96.930191,1.237655,0.955933,0.329226
3479194512,-113.724159,45.084541,-107.376366,1.465548,0.584048,0.172314
3479214513,-116.788673,73.569092,-93.447914,1.399018,0.605983,0.183622
3479234515,-130.062592,72.313385,-84.627159,1.299410,0.878610,0.181987
3479254516,-187.082260,74.359261,-90.660614,1.227183,1.305220,0.308977
3479274517,-287.702576,78.743233,-102.281021,1.297297,1.391805,0.269676
3479294517,-406.534576,101.207825,-106.544037,1.213725,1.065943,-0.188171
3479314518,-468.690216,93.182220,-115.418922,1.198400,0.725780,-0.705679
3479334518,-467.928772,99.288040,-113.717445,1.487155,0.381367,-0.860028
3479354517,-413.553314,131.510788,-115.350578,1.550540,0.195537,-0.589452
3479374518,-380.280518,147.845474,-114.489906,1.510274,0.283334,-0.046917
3479394519,-428.009918,137.391083,-112.324661,1.527002,0.260084,-0.115898
3479414519,-419.178101,132.424225,-99.537605,1.364651,-0.269290,-0.599506
3479434520,-271.001740,113.562859,-83.281235,1.406032,-0.612784,-0.560609
3479454520,-132.711212,113.656395,-60.104626,1.254552,-0.272651,-0.146213
3479474521,-117.985703,102.067993,-67.209541,1.097292,-0.078053,0.075887
3479494522,-159.155075,86.940567,-67.386070,1.369326,0.050023,-0.100028
3479514522,-193.602097,77.495789,-54.966183,1.163841,-0.281259,-0.354877
3479534523,-169.523697,59.404095,-30.265917,1.153005,-0.820151,-0.446953
3479554525,-86.259415,55.319180,3.835244,1.189518,-1.154175,-0.204564
3479574525,-16.277323,54.998737,29.491554,1.288789,-0.888543,0.139616
3479594526,-48.314323,57.834183,49.094543,1.224242,-0.212930,0.481959
3479614527,-152.488861,39.593903,49.774677,1.130069,0.126057,0.132463
3479634527,-172.833542,27.056095,41.952740,1.049867,-0.532570,0.038518
3479654528,-101.373932,43.440720,45.458103,0.978853,-0.433198,0.111986
3479674549,-86.235329,72.178062,47.781662,0.852394,0.080657,0.137754
3479694528,-133.846161,69.443886,47.563175,0.574663,0.242672,0.159651
3479714529,-155.458694,38.063770,-1.895505,0.954918,0.609864,0.209831
3479734529,-193.033005,76.161736,-78.953835,0.796179,0.535370,0.174989
3479754530,-287.298615,98.251091,-161.539719,1.340680,-0.057604,-0.122927
3479774530,-202.147629,156.641037,-167.854874,2.360333,-1.564287,-0.079478
3479794531,-134.916718,198.767288,-225.492340,1.471027,1.106092,0.127314
3479814531,-250.798447,210.417358,-345.586884,1.882115,0.722631,-0.478185
3479834532,-155.763626,210.687683,-380.576385,2.154740,-0.985711,-0.806488
3479854533,-9.761391,181.058090,-401.779205,2.006416,-0.412590,-0.464052
3479874534,50.597767,146.786026,-435.055450,1.461625,0.290218,0.012691
3479894535,-172.591782,98.932236,-352.452942,3.089006,-1.101690,0.331134
3479914536,-204.539871,74.086983,-173.845566,2.496856,-4.807271,-0.434738
3479934537,147.128754,27.936520,-51.692741,1.128346,-3.576107,-1.196983
3479954537,306.846863,-8.724767,84.645897,0.334642,-1.217991,-0.892940
3479974538,263.459778,-6.881005,250.235275,1.302913,0.084623,0.148522
3479994538,116.493790,26.646137,381.713959,2.225280,0.879597,0.510917
3480014537,-8.264339,44.357353,498.488586,1.987288,0.718502,0.589716
3480034538,-81.739517,99.239311,546.588013,1.751413,1.018297,0.258277
3480054539,-234.546570,50.156868,443.473633,1.094252,2.125887,-0.036726
3480074539,-406.552490,-71.568680,268.666107,0.066117,2.216482,-0.654239
3480094540,-303.758453,-69.649155,100.554138,-0.175470,0.645365,-0.540402
3480114540,-201.833282,-50.755791,-25.652111,0.728082,0.442705,0.173629
3480134541,-100.796036,40.311840,40.362896,2.341167,-3.609319,1.226503
3480154542,79.479454,203.881531,13.203373,0.528954,1.970815,0.854710
3480174542,-281.889526,192.562912,-59.393326,0.489690,0.375068,-0.452931
3480194543,-153.087448,217.439224,-51.317211,0.738317,-1.648884,-0.561355
3480214545,-138.852570,188.292816,-113.526665,0.658936,-0.654980,-0.944298
3480234546,-81.594627,113.167534,-127.225250,1.074348,-4.421243,-1.859818
3480254546,219.682297,40.553406,-98.163719,0.427808,0.075385,-0.859698
3480274547,103.499832,-57.174995,-216.438766,0.627593,-0.154553,-0.331117
3480294547,114.484924,-90.522751,-270.832611,1.197186,-0.465946,0.510112
3480314548,51.889351,-50.604851,-322.752716,1.376739,0.089466,0.863144
3480334547,-25.361195,25.124256,-405.302307,1.791127,-0.457397,0.450101
3480354548,-27.800827,118.046967,-501.699585,2.289703,-0.218516,0.539292
3480374548,-34.108948,181.338379,-569.660217,3.119170,0.785995,0.325512
3480394549,-383.218536,195.835205,-453.320435,5.551236,0.193600,0.361471
3480414550,-294.150208,116.152832,-148.115952,0.191100,-10.630726,-3.448589
3480434551,634.193176,30.338783,48.518143,0.530375,-1.665937,-2.188211
3480454551,382.476501,2.398526,116.653572,1.459937,2.142160,0.841747
3480494552,23.706390,126.626060,305.212494,1.449210,-1.059164,0.282776
3480514553,-22.057199,159.297256,466.052551,0.837769,0.738263,-0.151620
3480534555,-168.572098,123.694397,555.088684,1.166980,0.086415,-0.601033
3480554556,-149.759933,68.976593,608.438538,1.215497,0.341402,-0.402508
3480574556,-189.178040,27.491287,572.253845,0.947370,1.393209,0.255915
3480594556,-296.110107,-37.610241,436.674927,0.234548,1.332102,0.869404
3480614557,-420.493744,-83.135689,198.518784,-0.182612,1.268168,0.224112
3480634558,-231.201584,-128.452560,-23.387508,0.419258,-0.672098,-0.329368
3480654557,282.046082,23.077303,-122.504875,1.239400,-0.329279,2.087032
3480674557,69.473190,163.634125,-143.023590,0.498908,2.054700,2.390484
3480694558,-315.574890,175.170288,-203.213623,1.144882,-0.547181,0.543124
3480714559,-135.224228,215.942596,-115.879990,0.814360,-2.928176,-0.217388
3480734560,-26.940210,114.238693,-135.960632,0.442429,-2.436788,-0.797510
3480754560,141.700043,58.537785,-192.713547,-0.428538,-1.362995,-0.385119
3480774560,147.539734,-13.093390,-311.664307,0.302019,-1.158006,-0.097321
3480794561,227.404663,-22.878681,-386.283447,0.914060,-0.202195,0.251633
3480814562,172.708954,-8.023031,-439.752258,1.200191,0.820387,0.997634
3480834563,70.079285,11.552125,-522.037781,1.290493,0.908719,1.034037
3480854564,40.031456,83.372314,-565.952637,2.778204,1.942964,1.408481
3480874565,-437.796692,104.058769,-366.174652,4.908647,-4.157873,0.308569
3480894566,133.385010,44.243790,-107.642593,-0.049004,-10.162098,-2.139579
3480914567,785.148254,-1.271896,50.099705,1.157519,0.045764,-1.225976
3480934567,295.640686,-14.266281,118.980003,1.303607,3.093227,1.397945
3480954568,-120.077827,-11.989017,116.377441,0.857164,-0.328799,0.868171
3480974568,64.215294,63.433567,291.163940,0.967515,-1.493823,0.011411
3480994568,103.981285,123.436661,453.723663,0.842313,0.485844,0.511435
3481014568,-124.255066,117.884880,546.028992,0.816854,0.381686,-0.185484
3481034569,-110.080528,92.256287,619.360779,1.561268,-0.195695,-0.685769
3481054569,-89.485222,11.568354,605.581360,1.346236,1.035234,-0.130358
3481074570,-201.032349,-86.676178,441.797791,0.794806,1.822496,0.654245
3481094570,-302.859589,-145.579651,191.949478,0.414597,1.895614,0.474158
3481114571,-241.337738,-103.588707,-37.847057,0.592513,1.798271,0.338795
3481134572,-134.145615,-41.385643,-131.649734,1.433930,-0.551081,1.372243
3481154573,7.102316,82.109352,-144.337341,1.087648,-0.026665,1.607075
3481174573,-53.662369,158.953857,-172.632080,0.973093,0.335267,1.026700
3481194575,-148.020142,200.937622,-121.718994,0.832637,-2.053413,0.226716
3481214576,-29.741417,90.723938,-165.151886,0.505492,-2.379344,-1.333655
3481234576,185.323105,-11.824797,-197.320663,0.154016,-1.514689,-1.038335
3481254577,217.035965,-88.435745,-271.622101,0.516191,-0.217330,0.205444
3481274577,142.460785,-65.714188,-339.292114,1.483542,0.126788,1.228148
3481294578,70.489403,8.905645,-440.600739,1.924089,0.667390,1.460163
3481314577,73.203133,76.877113,-555.549622,2.876414,1.629668,1.310387
3481334578,-306.150330,146.237717,-504.066803,5.710672,1.190156,0.975061
3481354578,-434.172577,106.698479,-176.645340,1.133751,-12.984310,-2.605339
3481374579,748.188904,67.646011,-13.619918,0.543408,-3.052303,-2.355780
3481394580,448.795746,38.800995,73.652130,1.930517,3.875551,1.067505
3481414580,-103.852921,-24.820988,38.460705,0.707148,-0.419093,0.968295
3481434581,47.919151,80.127434,207.174835,0.608452,-2.095164,-0.068982
3481454582,144.741272,110.335953,370.604462,0.564095,0.083588,0.252202
3481474582,-81.288231,100.979584,472.423737,0.420614,0.429219,-0.093514
3481494583,-99.965660,69.429596,557.643066,1.157123,-0.396351,-0.650998
3481514585,-56.433563,31.857809,615.513855,1.519556,0.584793,-0.248301
3481534585,-128.996582,-37.113930,556.541199,1.237156,0.523558,0.155346
3481554586,-143.502716,-123.580246,403.272461,1.348538,1.705364,0.861658
3481574586,-226.418762,-166.122055,172.573486,0.539568,2.714422,0.653752
3481594587,-229.984680,-101.945213,-62.687798,0.758198,1.888042,0.917854
3481614588,-137.487091,-11.600271,-194.980789,1.447003,0.486962,1.726856
3481634587,-99.979706,91.648361,-205.256104,1.369315,-0.316410,1.209452
3481654588,0.307512,149.313522,-230.232666,0.680414,0.080253,0.610720
3481674588,-55.679474,181.128021,-186.690948,1.079146,-2.110661,-0.162428
3481694589,121.302452,30.235384,-220.890808,0.364407,-2.563443,-1.683340
3481714589,230.047241,-62.228203,-289.734772,0.580538,-0.019309,0.200952
3481734590,87.616089,-78.954529,-338.745972,1.359223,0.147205,1.409837
3481754590,-8.384389,-13.401940,-449.828552,1.906648,1.109124,1.937469
3481774591,-37.059544,139.833817,-532.784119,3.866804,2.188503,1.630027
3481794592,-634.532959,119.834183,-415.966644,5.507423,-2.847032,-1.087293
3481814592,-93.085457,96.588821,-102.019814,0.469964,-12.666085,-3.115045
3481834595,812.677124,54.656269,-71.853745,1.037061,-0.781353,-1.503090
3481854595,311.414825,11.203058,19.879549,1.973734,3.651273,1.073575
3481874596,-149.109787,3.850547,0.290008,0.960525,-1.194277,1.145122
3481894597,59.781399,108.073303,178.580048,0.760162,-2.257092,0.185879
3481914599,79.765915,109.567268,330.324280,0.633843,0.069571,0.430536
3481934598,-108.355576,90.460075,425.919983,0.642027,-0.109076,-0.187366
3481954614,-72.294586,71.852921,544.655212,1.184550,-0.174899,-0.483094
3481974597,-87.809799,34.792946,598.226196,1.408284,0.273530,-0.698898
3481994598,-113.211601,4.556892,587.224670,1.202091,0.534879,-0.147290
3482014598,-176.812103,-113.965271,423.937225,1.055765,1.789747,0.677169
3482034599,-232.803726,-216.844818,184.695145,0.513846,1.786289,0.071014
3482054599,-109.371696,-148.220108,1.724962,1.006562,2.142245,0.938340
3482074600,-146.428497,-64.789246,-116.790421,1.335764,1.171868,1.550385
3482094601,-193.288940,-23.974113,-224.869537,1.557808,0.674325,1.306865
3482114601,-52.767784,134.150970,-212.511414,1.156580,-0.546531,1.533388
3482134602,-91.805351,216.901382,-168.335693,1.138036,-1.495823,0.365710
3482154604,18.376070,136.418243,-175.792313,0.499873,-2.299702,-1.792478
3482174605,249.336182,-3.498593,-274.472473,0.285244,-0.533068,-0.925761
3482194605,198.461975,-69.012955,-375.044678,0.820885,0.380225,0.455285
3482214606,69.006760,-37.802357,-470.217285,1.781593,0.828858,1.478960
3482234606,17.718071,76.765511,-554.072205,3.881487,1.885795,1.824100
3482254607,-489.499786,151.525940,-487.887390,6.160749,0.856142,0.490422
3482274608,-466.908905,88.260689,-137.853195,0.151417,-14.970773,-3.594841
3482294607,832.966003,80.113815,-21.131071,1.265889,-1.016891,-2.656895
3482314607,390.976562,0.058537,-8.178536,2.769912,3.839463,1.282113
3482334608,-150.957657,-46.311966,-86.554947,1.191942,-0.624325,1.593683
3482354609,1.733730,97.636147,79.022049,0.763180,-2.959657,0.378316
3482374609,107.770638,105.112801,210.177490,0.541665,-0.725570,0.168266
3482394610,-74.242996,66.025482,303.981567,0.199118,-0.186303,-0.230591
3482414611,-34.192612,37.407211,408.943604,0.814058,-0.937149,-0.898357
3482434612,72.204933,36.533714,530.385254,1.292367,0.224626,-0.432048
3482454612,-24.269997,53.066242,580.222656,1.802130,1.067198,0.008924
3482474612,-118.579605,-34.495636,496.728180,1.364923,0.550115,0.326435
3482494614,-115.752602,-163.253220,314.139771,1.121016,1.502528,0.173615
3482514615,-71.014557,-163.728882,167.939117,0.938965,2.020561,0.567822
3482534615,-99.823395,-108.287041,23.948761,1.013713,2.396212,1.175778
3482554620,-193.799316,-46.909050,-102.983894,1.138652,1.589879,1.209037
3482574617,-175.791061,10.107313,-206.713577,1.376077,0.918754,1.620720
3482594618,-142.032227,154.795364,-166.054077,1.151868,-0.307193,1.378974
3482614617,-150.067810,205.086212,-166.731705,0.647135,-0.730933,-0.355177
3482634618,-10.706032,106.858887,-215.429596,0.803822,-2.498027,-1.943355
3482654618,270.226959,12.321342,-303.007935,0.176085,-0.471425,-1.004338
3482674618,149.721054,-45.224232,-394.764130,1.169836,0.454758,0.463308
3482714620,-71.676468,84.561081,-556.647705,5.269587,3.120200,2.081539
3482734620,-786.042603,82.723152,-310.075928,4.833910,-8.124070,-1.112786
3482754621,235.589890,85.824738,-54.069096,0.360251,-8.529505,-3.248484
3482774621,648.928833,48.437889,-0.122571,2.144252,1.255979,-0.604511
3482794622,152.148483,-58.263988,-43.847176,1.664303,2.191961,1.086223
3482814624,-86.799637,-11.644841,-27.715145,1.140591,-2.195669,1.503379
3482834625,137.288651,119.394875,135.276428,0.726840,-1.693387,0.332954
3482854625,46.375309,118.685997,254.844910,0.429504,-0.446653,0.193774
3482874626,-59.973682,87.156746,361.856689,0.504955,-0.634749,-0.578192
3482894627,43.934906,93.414894,488.802185,1.275874,-0.621240,-0.925106
3482914627,60.024963,66.590805,575.011536,1.557175,0.671687,-0.123561
3482934626,-67.263496,35.870792,581.849731,1.839439,0.818440,0.125136
3482954627,-77.849152,-72.281036,476.453583,1.475591,1.091539,0.470194
3482974627,-122.319122,-152.735306,279.955444,0.779362,2.339304,0.676068
3482994628,-189.543991,-116.562386,67.256355,0.908562,2.908508,0.952672
3483014629,-317.380157,-72.153229,-100.192337,1.085009,2.182871,0.717215
3483034629,-220.580872,-19.546009,-218.890656,1.323176,0.798115,0.830463
3483054630,-98.681625,89.328232,-256.980164,1.397995,0.305769,1.837330
3483074630,-143.151627,197.901718,-180.857910,0.959503,-1.763706,0.108882
3483094631,2.299691,165.254761,-223.079498,0.671776,-1.742895,-1.169087
3483114632,225.709167,66.847923,-308.470062,0.402380,-1.078339,-1.223240
3483134634,224.114456,-8.872763,-414.525452,0.744329,1.002079,0.301111
3483154635,81.984955,-14.818692,-509.175323,1.137754,1.845743,1.039903
3483174635,-247.404160,99.436089,-550.068604,6.575628,3.384883,1.917492
3483194636,-853.368347,70.776863,-249.170349,3.293315,-12.651943,-2.454433
3483214637,539.001709,58.568340,-35.801197,0.950519,-5.444033,-3.180306
3483234637,587.909180,-3.368081,14.928531,2.558790,1.530246,-0.060171
3483254659,140.329773,-97.594643,-5.618221,1.399845,1.090035,1.269333
3483274637,-32.417454,-8.498764,40.028633,1.135867,-1.666999,1.696615
3483294638,97.279007,122.776718,177.194611,0.853169,-1.409686,0.626777
3483314638,18.978893,131.293411,296.055695,0.433087,-0.277626,0.112311
3483334639,-51.479065,93.775719,401.213318,0.645565,-0.801358,-0.844673
3483354640,68.864914,87.869598,543.998596,1.373153,-0.502403,-0.957331
3483374640,30.172127,85.336945,619.762146,1.901543,1.123149,-0.050408
3483394640,-118.007362,0.448071,553.668579,1.552676,0.402241,0.581352
3483414641,-114.736923,-130.486465,347.758026,1.109629,1.222124,0.210556
3483434641,-106.177216,-148.958420,156.800964,0.892931,2.529629,0.213096
3483454643,-203.864105,-97.417038,-8.218821,0.853473,3.095808,0.695475
3483474644,-285.841644,-100.025734,-151.908340,1.270776,1.037789,0.527154
3483494645,-85.924904,32.539375,-227.774368,1.650082,1.091387,1.817125
3483514645,-198.775543,126.450974,-267.269531,0.827724,0.031859,0.928374
3483534646,-119.615982,170.200958,-236.520172,1.320691,-2.620023,-0.948856
3483554647,188.932953,110.876175,-294.382111,0.419025,-1.375852,-1.705050
3483574647,233.647705,5.711865,-415.729431,0.765130,0.603135,-0.331979
3483594647,106.273949,-36.396461,-518.816772,1.058752,1.507690,0.918514
3483614647,31.343157,52.521355,-615.145996,4.776396,2.642054,2.165651
3483634648,-758.374146,124.103424,-399.302094,6.109359,-3.222386,-0.055755
3483654648,-82.028374,94.813934,-77.128860,-0.641645,-12.343053,-4.384243
3483674649,733.168762,41.358139,30.066454,2.405573,1.655798,-1.315591
3483694649,190.863266,-79.246826,-10.643814,2.135340,1.554595,1.210948
3483714650,-60.526958,-51.003860,6.160305,1.216149,-1.813514,1.550627
3483734651,125.516891,85.482872,171.329987,1.118241,-1.770085,0.527165
3483754651,46.879341,101.658119,306.914459,0.825275,-0.117905,0.324789
3483774653,-78.154350,70.596611,401.652954,0.859754,-0.680851,-0.453596
3483794654,31.229937,80.913216,519.291443,1.554413,-0.444417,-0.530871
3483814654,6.949994,76.830696,601.645630,1.825489,0.982851,-0.203174
3483834655,-117.900185,34.842590,585.892944,1.626124,0.677896,0.196479
3483854656,-116.640884,-57.579735,469.534760,1.182565,0.622946,0.362247
3483874656,-108.803055,-142.191040,242.289993,0.788302,1.973033,0.396551
3483894657,-152.868149,-109.565781,34.911926,0.760010,2.537266,0.136934
3483914656,-120.066750,-67.491188,-122.704491,1.039455,1.539811,0.561716
3483934657,-52.531128,43.448318,-224.526276,1.304130,0.884562,2.015216
3483954657,-249.894485,61.654861,-330.257568,1.346870,1.176520,0.786577
3483974658,-183.489410,103.767326,-331.154510,0.964470,-2.502867,-0.468149
3483994659,143.337326,114.549660,-320.468994,0.780934,-2.640690,-1.445722
3484014659,289.188599,16.401358,-449.263458,0.593048,-0.564868,-0.875106
3484034660,256.034973,-38.235786,-526.970337,0.517655,1.167827,0.227505
3484054660,103.877541,-72.285416,-599.568542,4.840003,3.647177,2.397407
3484074661,-632.388611,138.553329,-359.415863,5.523954,-2.831789,1.234833
3484094662,-260.117798,91.125847,-90.691780,-0.006388,-9.878335,-2.054391
3484114664,426.529297,64.649590,76.554817,1.651182,0.021925,-1.715855
3484134664,229.619614,-58.336079,6.745220,1.960511,1.037024,0.307619
3484154665,-9.093172,-74.285912,-23.819290,1.424201,-0.129370,1.338392
3484174666,33.871330,46.660065,21.176592,0.807236,-0.695728,0.817572
3484194666,37.091072,54.755619,84.450447,0.287782,-0.626281,-0.225584
3484214666,-61.568623,-29.282698,115.626221,0.292635,0.188190,-0.507959
3484234666,-69.236053,-113.807381,104.121040,0.225933,-0.513230,-0.669159
3484254666,171.774902,-111.289238,96.154121,0.348606,-0.923494,-0.608258
3484274667,362.855957,-77.057465,73.179230,0.561367,0.584834,0.329761
3484294667,198.929901,-19.391394,36.353878,0.501461,2.264123,1.166357
3484314668,-143.180252,-97.464348,-45.352577,-0.015099,1.667246,0.516577
3484334668,-169.014496,-77.202690,-92.921066,0.873866,0.057362,0.333167
3484354669,19.403547,-8.507292,-86.858574,0.963160,-0.466783,0.448021
3484374670,176.159851,14.658327,-82.116913,1.035104,-0.085197,0.513667
3484394671,193.366455,18.178656,-103.216026,1.219512,0.625027,0.644994
3484414671,25.358799,12.772171,-135.724365,1.308414,0.936350,0.723565
3484434673,-154.216736,-7.404841,-146.097626,1.082354,0.410222,0.423250
3484454674,-212.612579,0.797068,-139.370636,1.108608,-0.174980,0.078494
3484474674,-100.361343,24.558720,-102.488388,0.914792,-0.682872,-0.075009
3484494675,75.687386,15.023596,-66.073387,0.872828,-0.644768,0.105230
3484514676,143.149567,15.747803,-40.296307,1.092778,-0.010646,0.370895
3484534676,64.143013,-5.656330,-48.813202,0.941680,0.579753,0.531790
3484554677,-40.743443,-20.138880,-42.348557,0.922310,0.433052,0.479210
3484574676,-53.910686,-17.880638,-20.701338,0.773085,-0.143466,0.138301
3484594677,23.432983,-16.913950,-5.586771,0.348589,-0.101084,0.038055
3484614677,79.961357,-25.909966,-2.285714,0.790738,0.086158,0.100471
3484634678,107.360863,-10.164601,4.341956,0.765106,0.249836,0.110194
3484654678,90.174927,-32.864960,-14.269794,0.893739,0.522042,0.220416
3484674679,60.799564,-29.312469,-17.404230,1.064955,0.446844,0.345708
3484694679,45.670834,-26.359541,-19.529518,0.942701,0.295139,0.299284
3484714680,47.010048,-26.429068,-25.424809,1.191534,0.218391,0.443989
3484734681,49.177288,3.613732,-12.652023,1.006745,0.090010,0.448297
3484754683,21.557302,-9.473946,-12.010570,1.186517,0.116433,0.312238
3484774684,5.995864,-3.066369,3.610105,0.922610,-0.018583,0.085073
3484794684,27.286610,-19.186050,3.259152,0.971320,-0.253330,0.060163
3484814684,107.327866,-7.609306,6.146765,1.200754,-0.163338,0.101043
3484834685,114.011765,-8.300110,1.050608,1.017601,0.262318,0.225745
3484874686,67.352707,2.951155,4.921214,1.048091,-0.110002,0.152596
3484894686,92.659889,-0.554324,2.632895,0.898272,-0.017038,0.233214
3484914686,115.461746,9.335135,6.519156,1.019660,-0.045645,0.218092
3484934687,113.467171,14.408865,-2.142776,0.820099,0.170886,0.309354
3484954687,95.845337,18.483078,-12.180267,0.893663,0.186025,0.320078
3484974688,106.902863,29.326698,-11.861969,1.043370,0.082828,0.273823
3484994689,103.941025,30.267344,-9.793284,1.010015,0.193844,0.321038
3485014689,79.015503,25.437681,-5.873065,1.389114,-0.038151,0.317200
3485054691,118.443542,20.682907,21.705959,1.130044,-0.145190,0.229033
3485074691,174.572052,30.010899,31.529604,1.241356,-0.150780,0.200229
3485094693,200.542465,28.227283,27.718180,1.264809,0.158388,0.310831
3485114694,170.486954,27.709162,29.294096,1.375416,0.358562,0.353838
3485134694,118.539482,29.813728,37.197178,1.218183,0.342001,0.310368
3485154695,88.353928,19.640429,51.287964,1.071344,0.230990,0.161729
3485174695,115.341324,6.555169,65.670341,0.943513,0.187327,0.059316
3485194696,171.751038,-4.013401,75.020538,0.797461,0.294271,0.055199
3485214695,218.913528,-10.171826,69.688263,0.639144,0.563257,0.150540
3485234695,235.037811,-13.274707,35.545662,0.492380,0.976013,0.336100
3485254696,195.847580,-19.646612,-23.186882,0.714879,1.216647,0.602455
3485274697,108.366959,-1.142961,-50.076778,1.177539,0.966166,0.605853
3485294697,47.829773,16.297020,-48.610222,1.065365,0.410359,0.547405
3485314698,25.209690,27.329559,-50.958298,1.163013,0.054894,0.366673
3485334699,54.480198,58.035172,-41.572437,1.071778,-0.255995,0.238723
3485354699,99.326607,49.310665,-32.899715,1.082106,-0.347717,0.241514
3485374700,140.105591,39.779827,-5.115229,1.473775,-0.375957,0.201468
3485394701,132.044769,35.583775,22.085440,1.363130,-0.183793,0.182716
3485414703,92.475113,12.698103,28.593790,1.193227,0.055170,0.170310
3485434703,85.961517,1.531698,41.843811,1.073321,-0.012513,0.040068
3485454704,134.988922,-5.855944,55.180168,1.004174,-0.001491,0.009101
3485474705,209.441788,0.827818,63.328629,0.904237,0.336878,0.147930
3485494705,288.844177,21.040560,35.896656,0.879579,0.862950,0.288921
3485514706,279.175415,39.056786,-17.404587,0.822227,1.624772,0.434261
3485534706,137.535553,40.537754,-56.425236,0.426820,1.604403,0.489701
3485554705,-15.421106,-5.799902,-88.110046,0.651939,1.006337,0.315622
3485574706,-77.414726,7.638397,-79.080154,1.005267,0.141266,0.165544
3485594706,-8.992069,49.628269,-56.123890,0.973739,-0.726810,0.092821
3485614707,133.963181,61.770439,-29.899897,0.963779,-0.952633,0.064629
3485634708,214.527222,56.511551,-15.250575,1.012862,-0.344550,0.087068
3485654708,196.745300,52.009483,-21.745163,1.067847,0.074776,0.230227
3485674709,155.276947,37.030350,-26.252625,1.261832,0.208617,0.297076
3485694710,141.107727,19.877523,-12.887300,1.337848,0.240570,0.177765
3485714710,168.967789,18.067593,9.723255,1.388114,0.259207,0.093519
3485734712,189.134140,24.886623,19.053799,1.239205,0.350652,0.228169
3485754713,173.215607,20.026033,20.151661,1.237254,0.457020,0.308336
3485774714,136.482422,20.186155,24.148792,1.108138,0.403413,0.239721
3485794714,113.251907,21.300720,21.886459,0.998756,0.328552,0.176192
3485834715,123.153191,31.757006,16.960657,1.025721,0.392380,0.185152
3485854716,134.392395,34.134151,16.799747,0.955039,0.448934,0.176457
3485874715,139.928284,29.804399,7.370914,0.718783,0.526409,0.158384
3485894715,139.199158,20.358059,-20.502895,0.736692,0.564458,0.188355
3485914716,145.360748,26.201918,-32.404896,0.883353,0.457740,0.196488
3485934717,163.849258,28.626125,-42.577057,0.859869,0.367505,0.221355
3485954717,186.336044,35.925579,-49.734646,1.051140,0.273595,0.351970
3485974718,206.945190,46.123211,-25.344358,1.123005,0.022744,0.373149
3485994719,217.195587,51.069000,-13.292662,1.230680,0.110184,0.442853
3486014719,164.129257,61.907745,-5.294877,1.185789,0.215859,0.531721
3486034720,94.437096,65.972122,-4.736577,1.207947,0.156485,0.512879
3486074722,35.120075,69.775543,30.952837,1.163363,0.065642,0.349636
3486094723,34.215816,74.335121,56.401676,1.079596,0.099453,0.326746
3486114724,35.453289,74.430130,74.155235,1.152447,0.055557,0.346580
3486134724,47.520721,72.822052,104.329964,1.109216,-0.188468,0.267617
3486154725,95.041542,66.231949,117.730377,1.165962,-0.247581,0.248390
3486174726,124.933060,61.054688,130.794556,1.213773,-0.090888,0.285322
3486194725,117.150017,54.372276,141.765442,1.144608,0.017654,0.367060
3486214726,93.976601,50.096931,151.123871,1.061767,-0.038254,0.390437
3486234726,78.512047,55.421799,157.052261,0.967517,-0.129329,0.397819
3486254727,70.887665,50.920494,160.063629,0.928754,-0.103683,0.347504
3486274727,49.887825,46.504349,169.967514,0.950010,-0.109709,0.313605
3486294728,41.504044,35.954609,190.024689,0.939365,-0.229407,0.331482
3486314728,37.414665,20.941494,205.560883,0.868661,-0.263525,0.313690
3486334729,26.953272,4.895567,210.035828,0.743262,-0.311448,0.272937
3486354729,35.819664,-7.971365,212.956604,0.734759,-0.528718,0.266521
3486374730,57.282623,-6.750404,213.020218,0.742482,-0.485926,0.307992
3486394732,45.812408,-21.765686,204.150635,0.599118,-0.388318,0.297022
3486414733,33.414127,-43.837479,174.479950,0.671489,-0.378791,0.225087
3486434733,48.137901,-61.760555,146.589188,0.727336,-0.434620,0.224409
3486454734,77.224968,-62.486683,111.609055,0.720261,-0.195465,0.161646
3486474734,78.549225,-52.452667,58.635742,0.523268,0.059909,0.048924
3486494735,74.293480,-58.359818,-6.877510,0.357476,0.225217,-0.003356
3486514734,68.704811,-79.118858,-67.978119,0.418657,0.207042,-0.007569
3486534735,79.311615,-101.764946,-108.770340,0.699555,-0.090087,0.310052
3486554735,81.493301,-127.371819,-99.803406,1.089715,-0.763066,0.723119
3486574736,107.030128,-88.951935,-47.582809,1.047206,-1.000608,1.066579
3486594736,70.793976,-58.870785,-59.416214,1.062059,0.058072,1.004580
3486634738,-58.184444,-89.208832,-125.001328,0.922402,-0.186517,0.457535
3486654738,-4.140656,-54.756664,-139.219955,1.098580,-0.380438,0.342520
3486674739,72.141541,-25.693878,-143.043854,1.164612,-0.276134,0.277549
3486694740,127.695961,-16.742575,-148.855316,1.048757,0.069691,0.342126
3486714742,120.225876,-33.558052,-165.235519,1.003790,0.457726,0.456483
3486734742,90.641495,-45.441032,-183.672485,1.093387,0.395039,0.439466
3486754743,86.005379,-46.697636,-199.140686,1.218501,0.355365,0.558640
3486774743,85.791641,-41.555511,-216.542694,1.152132,0.404755,0.735359
3486794744,80.828575,-19.577759,-231.977905,1.171604,0.358257,0.697593
3486814744,90.739037,9.314791,-237.093719,1.130901,0.396183,0.740202
3486834758,108.907181,35.056343,-219.769333,1.062507,0.467568,0.640450
3486854744,100.711182,48.329926,-182.714874,1.353713,0.491861,0.654046
3486874745,-67.941193,43.027767,-133.178329,1.812020,0.166337,0.660560
3486894746,-245.194260,59.508617,-50.089375,1.773504,-1.204648,0.468611
3486914746,-175.226105,59.358093,6.921090,1.236276,-1.548014,0.167463
3486934747,-20.434380,38.004074,50.067795,1.188719,-1.300261,0.067492
3486954748,81.564362,34.536861,79.156204,1.216031,-0.780468,0.075378
3486974748,100.345566,36.403076,94.891365,1.222498,-0.323252,0.259700
3486994749,56.922783,22.997585,102.841019,1.167256,-0.054067,0.508955
3487014749,-5.278573,17.018749,120.661133,1.158190,0.056658,0.463743
3487034751,-30.305099,23.301100,139.676910,1.082825,-0.080606,0.288954
3487054752,-20.915737,36.742508,166.147980,1.043075,-0.257890,0.146335
3487074752,15.401258,51.995243,193.399719,0.973254,-0.326531,0.055196
3487094753,52.815228,61.127151,213.606857,0.985821,-0.236248,0.030219
3487114753,62.417782,61.299614,225.249985,1.083053,-0.077202,0.095160
3487134754,40.577267,47.085304,231.379654,1.131370,0.001322,0.203535
3487154755,6.538764,21.900547,230.600586,1.025088,-0.016798,0.272707
3487174754,-27.263988,0.894246,220.195953,0.960726,-0.062395,0.275313
