Timestamp (us),Gyroscope X (deg/s),Gyroscope Y (deg/s),Gyroscope Z (deg/s),Accelerometer X (g),Accelerometer Y (g),Accelerometer Z (g)
3357520927,0.868373,0.368768,0.312552,1.003697,0.012149,0.029704
3357540977,0.809552,0.003363,0.215305,1.003521,0.015292,0.027121
3357567903,0.643234,-0.112992,-0.004026,0.999878,0.018253,0.025062
3357587953,0.042348,-0.297963,0.178717,0.996775,0.015368,0.027073
3357608003,-0.803684,-0.180730,0.383241,0.997157,0.011627,0.025937
3357628053,-1.619180,-0.011021,0.451152,0.997650,0.008020,0.021347
3357648104,-0.736744,0.160992,0.328987,1.000758,0.005751,0.021032
3357668154,-0.157025,0.026787,0.117036,1.001929,0.004525,0.024145
3357688204,-0.118334,-0.056996,0.033943,1.000651,0.006511,0.023385
3357708255,0.301349,-0.071792,-0.337522,1.004820,0.011000,0.025363
3357728305,0.081533,-0.187968,-0.473466,0.999628,0.014767,0.022737
3357748355,0.074292,-0.203919,-0.587093,1.000263,0.011078,0.025148
3357768406,0.020807,-0.136281,-0.640360,1.001081,0.012257,0.024867
3357788456,0.087308,0.176514,-0.467145,0.998897,0.011071,0.024865
3357808506,-0.111118,0.221487,-0.353546,1.000444,0.014690,0.023562
3357828557,-0.621136,0.330730,-0.558376,0.998256,0.012970,0.024384
3357848608,-0.955454,0.154611,-0.451547,1.000668,0.009267,0.019173
3357868659,-0.665799,0.148000,-0.595626,1.003039,0.009360,0.018916
3357888709,0.347163,0.153130,-0.830946,1.001449,0.015048,0.023020
3357908759,-0.010020,0.119420,-0.989862,0.999525,0.017051,0.023619
3357928809,-0.168932,0.056110,-1.232115,1.001617,0.014630,0.025570
3357948860,-0.503575,-0.164214,-0.912923,0.997226,0.012852,0.029014
3357968910,-1.112536,-0.303112,-0.639388,0.995493,0.023317,0.024063
3357988969,-1.328234,0.031719,-0.291835,1.002900,0.014348,0.024674
3358009011,-0.063548,-0.217792,-0.238365,0.999944,0.010244,0.017702
3358029062,0.705780,-0.221605,-0.435674,1.000950,0.011051,0.016791
3358049112,0.646468,-0.293345,-0.912880,1.004551,0.017845,0.021192
3358069162,0.326914,-0.303266,-0.950629,1.000442,0.019656,0.021414
3358089211,-0.032286,-0.182081,-0.625026,0.999780,0.019893,0.025406
3358129312,-0.299183,-0.257626,-0.291198,0.997988,0.011512,0.024127
3358149362,0.439749,-0.209266,-0.609939,0.999557,0.010569,0.021422
3358189462,0.105290,-0.302551,-0.609501,1.000576,0.017389,0.015261
3358209513,-0.040672,-0.112754,-0.458525,1.005746,0.018093,0.019289
3358229563,0.522440,-0.078708,-0.458839,1.003637,0.020374,0.020247
3358249614,0.811669,-0.144276,-0.322293,1.002762,0.012615,0.017877
3358269664,0.644570,-0.228731,-0.299207,0.999561,0.015160,0.018461
3358289714,0.270735,-0.116580,-0.185778,1.000745,0.016698,0.017815
3358309765,0.041480,-0.018378,-0.026878,1.001429,0.024025,0.021825
3358349865,-0.049441,-0.087489,-0.056924,1.003028,0.014348,0.018313
3358369916,-0.431222,0.122916,-0.004463,1.001027,0.017401,0.016082
3358389967,-0.120644,0.301090,0.237341,1.001189,0.021149,0.017676
3358410016,-0.151392,0.369117,0.221960,1.000098,0.017530,0.018892
3358430067,-0.157331,0.072527,0.147194,1.004938,0.013281,0.019611
3358450118,0.009952,0.186532,-0.004836,1.001197,0.010664,0.021433
3358470169,-0.552859,0.084259,0.010871,0.997260,0.024590,0.017426
3358490219,-0.576891,0.394491,-0.126611,1.004739,0.014765,0.021774
3358510270,0.008337,0.475434,0.062379,1.004222,0.010089,0.018916
3358530320,0.762505,0.493864,-0.203212,1.000228,0.008505,0.016725
3358550370,1.425464,0.473884,-0.445902,1.003834,0.016189,0.019842
3358570420,1.144784,0.312242,-0.505878,1.001726,0.022978,0.018386
3358590480,0.535132,0.355008,-0.316338,0.998802,0.021274,0.020384
3358610521,-0.028036,0.336096,-0.323654,0.998440,0.014862,0.023182
3358630572,-0.180109,0.252220,-0.224786,0.993983,0.012841,0.022356
3358650622,0.171059,0.094515,-0.315313,0.996169,0.015289,0.021616
3358670672,0.415264,0.102069,-0.573109,1.001899,0.017228,0.022907
3358690721,0.545876,-0.125017,-0.602688,1.000111,0.015153,0.017829
3358710774,0.576032,-0.004124,-0.724378,1.005046,0.013691,0.016517
3358730821,0.811440,0.178747,-0.861512,1.006300,0.017538,0.018481
3358750872,0.476846,0.100789,-0.838390,1.003584,0.016494,0.015747
3358770922,0.589442,0.375350,-0.756006,1.002486,0.014334,0.017400
3358790972,0.810489,0.346044,-0.816615,1.000471,0.015165,0.018649
3358811023,1.189280,0.637865,-0.681332,1.000818,0.021344,0.018671
3358831073,1.173289,0.737124,-0.575563,0.998521,0.025622,0.019514
3358851124,0.617664,0.673432,-0.469043,0.999644,0.018607,0.018058
3358871174,0.770604,0.470229,-0.347133,1.001651,0.021585,0.016311
3358891224,0.343250,0.575112,-0.127555,1.004650,0.026125,0.015643
3358911275,-0.275232,0.635792,0.501506,1.002376,0.018350,0.018716
3358931325,-0.293860,0.943948,1.228030,1.007625,0.031266,0.018877
3358971426,-2.420155,2.627393,1.920238,1.012644,0.024098,0.005999
3358991476,-2.082562,3.751518,1.658562,1.017074,0.021761,0.013510
3359011526,-2.046749,4.042202,1.968285,1.021342,0.015226,0.019705
3359031577,-1.987650,4.226950,2.308681,1.014030,0.017240,0.021902
3359051628,-2.433719,5.277628,2.047532,1.011900,0.020614,0.010306
3359071679,-2.360158,6.169252,1.309275,1.013085,-0.008562,0.009379
3359091729,-0.157403,6.708807,-0.876096,1.009183,-0.019621,0.011752
3359111779,0.505122,6.877363,-1.316488,1.009122,0.004614,0.010107
3359131830,-0.695240,7.684941,-0.826218,0.999731,0.029264,0.013482
3359151880,-2.749345,8.122498,0.855522,0.973160,0.041757,0.014421
3359171930,-6.777950,7.403707,2.996675,0.966239,0.018808,0.024544
3359191981,-5.245560,6.747828,3.339452,0.976986,-0.031704,0.035929
3359212031,-3.069094,5.135880,6.686565,0.965414,0.050509,0.056072
3359232081,0.175246,2.610877,5.019180,0.957096,-0.015661,0.061868
3359252132,5.281448,1.983733,3.814498,1.030833,0.017776,0.063367
3359272182,-0.087607,6.856094,-1.664839,1.034338,-0.011275,0.070817
3359292231,1.330905,10.409365,-6.664533,1.056359,-0.103162,0.046044
3359312281,12.129488,13.781456,-9.203727,1.110121,-0.144291,0.039812
3359332331,20.281046,19.257286,-7.686922,1.129511,-0.036887,0.037616
3359352382,20.139118,28.611343,-6.180576,1.135799,0.015186,0.011974
3359372432,16.702406,38.368698,-5.917417,1.105181,-0.036402,-0.026726
3359392482,17.970257,43.023109,-10.708641,1.058293,-0.052880,-0.060132
3359412533,19.982487,45.976730,-17.502689,1.015437,0.030833,-0.038320
3359432583,13.298071,48.400032,-24.731449,0.963120,0.071648,-0.060703
3359452633,7.335333,51.371162,-26.528233,0.973258,0.058299,-0.010672
3359472684,4.543639,52.641994,-26.766581,0.984509,0.122495,-0.002428
3359492734,-4.384610,55.241356,-29.061256,0.921257,0.252088,0.054335
3359512784,-17.129551,55.296806,-31.118464,0.951962,0.285155,0.087615
3359532834,-24.888218,56.290379,-29.254745,1.014802,0.275690,0.134249
3359552885,-31.268517,57.370255,-30.764444,0.928572,0.220982,0.159446
3359572936,-35.950851,56.191856,-36.973488,0.932079,0.138160,0.193602
3359592986,-37.227661,54.135742,-42.642593,0.982583,0.000266,0.200373
3359613036,-36.346416,46.200783,-35.423130,1.000971,-0.003197,0.222355
3359633086,-41.042202,35.835396,-27.412706,0.911690,0.043815,0.219724
3359653138,-45.545284,22.912405,-24.259228,0.893687,0.104762,0.227707
3359673188,-57.819908,4.952075,-17.318926,0.916274,0.248669,0.159674
3359693238,-63.736561,-7.580542,-15.795773,0.828064,0.263216,0.052636
3359713289,-62.498047,-23.766920,-21.985493,0.786826,0.412382,0.076792
3359733339,-82.375999,-39.854683,-27.963526,0.814822,0.677366,0.114095
3359773440,-191.836044,-51.286694,-14.289156,0.977642,1.175594,0.176556
3359793491,-259.185669,-44.667660,-3.662683,0.966909,0.914587,0.007274
3359813540,-303.623352,-37.423828,-9.113775,1.081706,0.505856,-0.180765
3359833591,-328.307831,-26.458080,-7.089022,1.172924,0.255818,-0.329184
3359853641,-331.327881,-13.314544,-15.591372,1.246469,0.290657,-0.280170
3359873692,-331.875763,-7.749226,-47.252499,1.331854,0.190199,-0.208239
3359893740,-331.593994,-10.420003,-62.863628,1.192763,-0.094686,-0.132856
3359913791,-333.161133,-24.649536,-59.267094,1.050500,-0.065027,-0.248632
3359933841,-340.033234,-38.835945,-52.978325,0.973052,-0.014539,-0.545322
3359953891,-346.710419,-43.977997,-51.268158,0.869694,0.042297,-0.608787
3359973942,-353.022522,-45.232384,-57.006481,0.892112,-0.007161,-0.582608
3359993992,-353.364685,-42.876930,-64.714691,0.913949,-0.010774,-0.526971
3360014042,-361.373657,-39.348751,-65.148476,1.014989,0.079541,-0.561473
3360034093,-371.264160,-33.197895,-58.299667,1.055232,0.086789,-0.664971
3360054143,-372.893066,-27.288740,-54.984715,1.038371,-0.009008,-0.773406
3360074194,-369.733765,-26.013269,-54.641579,1.057562,-0.082155,-0.853584
3360094244,-364.750885,-24.882629,-58.664070,1.181174,-0.043525,-0.871513
3360114294,-367.797485,-20.008724,-61.506752,1.309651,0.092275,-0.912618
3360134344,-373.529510,-13.799046,-61.639832,1.351369,0.372589,-0.859945
3360154395,-392.893982,-6.055124,-61.970470,1.338734,0.359379,-0.937224
3360174445,-401.878296,6.201213,-64.161987,1.274005,-0.024377,-1.040758
3360194495,-385.648743,16.441456,-66.688850,1.178472,-0.253292,-1.067778
3360214546,-367.049347,20.095940,-66.260796,1.194976,-0.192235,-0.974393
3360234596,-354.511749,22.161713,-58.708504,1.147266,0.013609,-0.963117
3360254646,-344.777161,24.866808,-63.571770,1.077059,0.085270,-0.826209
3360274698,-348.949890,28.277874,-69.667961,1.103053,0.157498,-0.817682
3360294748,-352.570740,26.670065,-70.464523,1.140791,0.161677,-0.772384
3360314799,-351.509827,22.594648,-72.542648,1.136040,0.079259,-0.791640
3360334849,-343.642578,20.014948,-78.023674,1.084852,-0.044972,-0.722038
3360354899,-326.995972,17.417480,-84.583939,1.060227,-0.155787,-0.665036
3360374950,-306.445343,12.373029,-91.963226,1.068657,-0.048653,-0.601416
3360395000,-294.784058,5.737996,-96.779831,1.067715,0.070647,-0.562541
3360415050,-291.940491,-1.291385,-99.621445,1.103935,0.216089,-0.531068
3360435101,-297.710266,-11.245233,-101.025124,1.125250,0.298484,-0.522418
3360455151,-306.541748,-21.751064,-97.726883,1.193171,0.181124,-0.479953
3360475201,-313.703918,-33.777657,-95.333450,1.201431,0.053544,-0.565576
3360495252,-309.753052,-42.795845,-95.690292,1.189021,0.021170,-0.578467
3360515301,-304.529724,-45.641693,-93.726944,1.179178,0.011065,-0.527252
3360535351,-298.838745,-43.333885,-91.228256,1.165047,0.008314,-0.494875
3360555401,-294.874969,-37.867073,-89.209747,1.138977,0.086008,-0.394168
3360575452,-300.708862,-38.170944,-84.424324,1.184601,0.200156,-0.411707
3360595502,-306.366608,-37.857681,-78.276886,1.206763,0.132484,-0.394862
3360615552,-303.622925,-35.153076,-70.026108,1.200954,-0.046194,-0.372295
3360635603,-288.928711,-33.664124,-68.262909,1.208523,-0.108471,-0.357161
3360655653,-273.940979,-31.066282,-70.315842,1.146905,-0.100443,-0.300615
3360675703,-260.262024,-27.034500,-72.358109,1.115095,-0.016508,-0.188206
3360695754,-252.532944,-22.901588,-72.670639,1.125888,-0.004233,-0.138104
3360715804,-243.535248,-21.678530,-72.246002,1.115722,-0.046082,-0.140418
3360735854,-232.455399,-20.609869,-67.190811,1.085913,-0.043007,-0.111218
3360755904,-220.810806,-20.549654,-63.716362,1.005889,-0.003335,-0.056442
3360775955,-210.503677,-23.228580,-70.600014,0.984360,-0.007370,-0.036553
3360796005,-202.191864,-30.987095,-73.145454,1.018139,-0.097191,-0.077626
3360816055,-204.502609,-39.285507,-55.305500,1.119477,-0.010657,-0.052189
3360836106,-205.954315,-42.492260,-29.154114,1.133660,0.063329,-0.020408
3360856156,-200.550491,-35.502136,-9.884068,1.044756,-0.070780,0.018503
3360876208,-188.519684,-26.676195,-10.828167,1.051365,-0.159646,0.055206
3360896258,-167.768219,-21.611115,-21.228481,1.072780,-0.241661,0.066667
3360916309,-142.283096,-16.081717,-35.118366,1.048178,-0.247198,0.051652
3360936359,-121.003586,-13.794590,-47.161507,0.920707,-0.103692,0.170327
3360956409,-110.518204,-17.972450,-52.365105,0.871503,-0.148077,0.219297
3360976460,-105.843521,-29.372709,-42.421761,0.901122,-0.206580,0.125846
3360996510,-100.222984,-45.383999,-18.343262,0.993226,-0.222620,0.082606
3361016563,-78.700470,-52.798424,0.591828,1.018149,-0.110229,0.098114
3361036611,-68.691910,-47.924789,3.398481,0.930642,0.065017,0.257421
3361056661,-71.601669,-42.265404,-9.799809,0.918402,-0.066503,0.140707
3361076711,-53.208199,-38.528484,-15.313870,1.029859,-0.206845,0.061780
3361096761,-29.994888,-33.823132,-20.332747,1.010428,-0.187395,0.116402
3361116811,-13.689681,-27.525394,-20.920998,0.986987,-0.151974,0.240519
3361136861,-0.257487,-22.561867,-14.652269,1.044906,-0.220520,0.254265
3361156912,12.879927,-21.973436,-3.646672,1.118070,-0.233074,0.158773
3361176962,26.907028,-27.567120,10.843499,1.054457,-0.071439,0.136821
3361197012,37.786472,-37.580364,23.606842,0.955597,0.012311,0.163506
3361217062,51.050179,-40.533554,27.886908,0.938780,0.010162,0.187496
3361237113,63.699215,-30.897713,24.726744,1.049491,-0.027098,0.246424
3361257163,67.283432,-15.927287,13.775363,1.124246,-0.036151,0.173261
3361277214,66.605629,-0.258889,7.143074,1.117909,-0.019223,0.048508
3361297264,68.516975,18.493963,2.977570,1.145514,-0.000280,-0.035674
3361317314,69.767502,36.290298,3.090125,1.235729,-0.013202,-0.038248
3361357415,57.067459,68.718193,3.581568,1.152351,0.175831,0.125201
3361377465,46.082436,82.394127,7.032188,1.115583,0.127824,0.154034
3361397516,39.885406,93.532738,6.480608,1.045313,0.033053,0.151542
3361417566,37.264980,98.919601,2.681064,0.999941,0.024496,0.150956
3361437616,33.886917,105.882378,0.361830,0.953782,0.105598,0.162232
3361457666,31.665699,112.425583,-1.077204,0.906681,0.163663,0.221119
3361477717,26.347906,114.940964,-1.182537,0.911503,0.139468,0.250425
3361497769,21.021639,112.190727,0.397649,0.891704,0.143637,0.188890
3361517819,16.897631,112.242569,-0.343823,0.837177,0.170224,0.239636
3361537869,14.654859,112.495285,-4.868546,0.864798,0.114446,0.267834
3361577970,9.539814,110.962364,-7.877897,0.881146,0.188740,0.474306
3361598020,7.868121,106.482742,-6.232401,0.861399,0.194182,0.527816
3361618071,7.570088,101.695946,-5.359380,0.815208,0.089060,0.528433
3361638121,7.454432,96.746429,-9.980606,0.706895,0.108784,0.520166
3361658172,6.325666,91.064728,-12.893689,0.673968,0.148462,0.580911
3361678222,4.679903,84.414383,-11.195247,0.608481,0.116083,0.633353
3361698272,4.373332,74.366028,-11.584936,0.575606,0.072971,0.679879
3361718323,4.441672,64.911423,-10.915750,0.573480,0.121728,0.722651
3361738371,2.330997,56.028660,-7.610291,0.600148,0.163469,0.740352
3361758422,0.909535,48.883633,-6.334645,0.611323,0.146715,0.755258
3361778472,2.307740,40.350426,-6.593731,0.627216,0.122267,0.777829
3361798522,2.130818,31.010822,-5.492854,0.652272,0.111390,0.801309
3361818573,3.139290,24.330784,-2.832711,0.666884,0.119570,0.792865
3361838623,5.536788,19.154207,-1.557607,0.605265,0.100379,0.800921
3361858673,7.702750,9.425059,-2.047788,0.576679,0.128496,0.795576
3361878723,7.181563,-2.761903,-0.664136,0.592050,0.191963,0.847754
3361898774,1.375997,-16.932177,2.281887,0.593663,0.211149,0.874173
3361918824,-1.168053,-31.019144,6.621009,0.566725,0.193784,0.890269
3361938874,-1.404908,-44.358212,9.198428,0.535566,0.163098,0.871227
3361958925,-1.893235,-58.035690,12.542577,0.550019,0.215918,0.852087
3361978975,-7.050624,-70.330154,17.316017,0.560001,0.248811,0.812424
3361999025,-11.361982,-83.480362,20.356525,0.566822,0.215921,0.753869
3362019091,-12.065058,-92.029770,17.316755,0.534829,0.183485,0.675766
3362039126,-9.618444,-96.708061,13.315171,0.562770,0.124294,0.604487
3362059176,-7.178303,-100.684608,13.434126,0.640848,0.093023,0.597677
3362079227,-7.782861,-106.968224,18.018520,0.714948,0.064909,0.583441
3362099278,-8.335943,-113.753128,21.316206,0.781211,0.079946,0.531660
3362139379,-2.058734,-114.219719,20.277296,0.784453,-0.002256,0.424209
3362159429,0.285989,-115.513969,25.661999,0.874215,0.061294,0.445195
3362179480,-5.785117,-119.160591,31.512484,0.919513,0.086072,0.372522
3362199530,-9.778354,-123.782898,33.401810,0.929059,0.065802,0.293755
3362219580,-10.223356,-124.133255,32.486122,0.863581,0.015126,0.260613
3362239631,-2.998515,-121.629639,27.169693,0.847324,0.002273,0.241016
3362259681,0.373689,-113.213692,25.570671,0.950655,0.042455,0.213927
3362279731,-4.704484,-106.495369,24.761086,0.978376,0.040063,0.213969
3362299782,-5.682615,-104.111572,24.571320,0.939470,0.007551,0.195439
3362319832,-7.807576,-107.166611,25.067644,0.880061,0.018005,0.153907
3362339881,-8.186152,-109.067360,25.013697,0.896812,-0.008841,0.077994
3362359931,-5.684953,-108.274765,21.720819,0.941705,-0.014316,0.011848
3362379984,-7.066047,-105.399765,20.392658,1.019740,0.003838,0.049727
3362400032,-11.891689,-103.763275,20.055233,1.015617,-0.030187,-0.023071
3362420082,-12.415128,-104.183464,20.178129,1.002637,-0.069764,-0.044063
3362440132,-13.337404,-105.809807,20.858583,0.979578,-0.070397,-0.091388
3362460183,-13.631085,-108.170303,21.245768,0.952422,-0.083657,-0.195490
3362480233,-9.880979,-108.795822,20.496292,0.972976,-0.087705,-0.138313
3362500284,-12.323251,-111.971230,20.295879,0.944777,-0.050028,-0.167850
3362520334,-17.274609,-116.384651,21.396610,0.906270,-0.081060,-0.146315
3362540384,-17.687410,-116.682976,22.663471,0.936439,-0.075709,-0.241047
3362560435,-17.528812,-104.130211,19.482471,0.881721,-0.080348,-0.328812
3362580485,-14.257600,-98.742844,15.673285,0.850379,-0.094948,-0.309234
3362600535,-13.374334,-95.168556,14.538975,0.977807,-0.102494,-0.348414
3362620586,-14.128069,-92.717232,12.795210,1.011253,-0.120930,-0.461660
3362640636,-9.737474,-90.750473,9.543101,0.964993,-0.142886,-0.490635
3362660687,-7.019405,-93.283821,8.300350,0.959843,-0.127479,-0.537292
3362680736,-5.850907,-91.902313,7.067390,0.944806,-0.133287,-0.566414
3362700788,-4.815979,-86.522255,5.608487,0.904546,-0.110336,-0.537155
3362740889,-8.009506,-72.390656,3.446381,0.852895,-0.069316,-0.564444
3362760939,-10.292136,-66.371536,3.229386,0.831800,-0.131603,-0.558329
3362780989,-6.687745,-63.358578,1.755003,0.817537,-0.143638,-0.623000
3362801040,-4.631049,-59.997116,0.567962,0.787530,-0.131571,-0.657889
3362821090,-4.237358,-55.126659,0.816304,0.781934,-0.103068,-0.697157
3362841141,-4.925969,-51.898151,1.843738,0.731108,-0.084871,-0.744988
3362861191,-4.778333,-45.778389,0.625123,0.779268,-0.068135,-0.757473
3362881241,-4.512659,-37.792816,0.203407,0.800930,-0.051533,-0.775325
3362901291,-6.726796,-28.267845,2.066101,0.793348,-0.058356,-0.800384
3362921342,-8.563163,-20.772984,3.048919,0.784252,-0.103328,-0.843552
3362941403,-8.443575,-13.399724,4.387682,0.779828,-0.112594,-0.861926
3362961441,-10.363347,-6.536127,6.471654,0.778381,-0.086834,-0.845602
3362981492,-11.586045,3.016710,10.509066,0.770356,-0.137728,-0.819804
3363001542,-7.876902,10.136153,13.613343,0.757317,-0.166027,-0.820842
3363021592,-3.875414,20.309265,15.501944,0.759646,-0.153925,-0.819875
3363041643,-3.593107,31.331917,17.517757,0.709035,-0.125982,-0.846913
3363061693,-2.119133,37.282887,21.831900,0.684959,-0.146492,-0.835123
3363081744,6.763075,41.980160,21.933868,0.725750,-0.131718,-0.818373
3363101794,10.945617,47.037155,22.551609,0.742302,-0.102831,-0.763786
3363121844,12.900278,54.195812,24.072365,0.714722,-0.081511,-0.812852
3363141895,19.848829,56.425354,26.100990,0.729400,-0.110090,-0.767520
3363161945,24.124796,60.308002,28.193062,0.732526,-0.096125,-0.763479
3363181995,27.336458,61.706047,28.657017,0.749681,-0.110030,-0.728115
3363202046,28.552475,68.736740,33.505634,0.773113,-0.069492,-0.717784
3363222096,33.107628,71.630119,32.546700,0.786007,-0.090127,-0.714182
3363242146,37.509594,72.368988,33.186821,0.793883,-0.159019,-0.716964
3363262197,46.710121,71.462967,32.868408,0.802362,-0.225052,-0.653066
3363282247,56.304321,76.361267,28.020376,0.826998,-0.314273,-0.612142
3363302297,67.978096,81.404251,22.299530,0.832561,-0.358573,-0.559241
3363322349,76.852867,86.112480,19.347143,0.854475,-0.336994,-0.482719
3363342399,80.577591,90.996735,20.731119,0.861071,-0.308688,-0.486636
3363362449,83.785950,95.233566,19.919603,0.852396,-0.341562,-0.452235
3363382500,89.219818,101.067413,20.837387,0.884730,-0.342245,-0.415826
3363402550,96.733688,105.631447,20.493135,0.915197,-0.346693,-0.401108
3363422601,97.221001,114.947182,20.097075,0.937217,-0.362795,-0.354778
3363442651,98.846176,118.626183,20.341513,0.902322,-0.310944,-0.306638
3363462702,86.538338,123.115089,26.196468,0.878324,-0.280938,-0.224633
3363482752,82.063545,118.052124,29.724541,0.897422,-0.347232,-0.167927
3363502802,77.050934,115.667191,35.911362,0.891688,-0.301244,-0.114878
3363522852,67.110191,112.774803,41.381657,0.827711,-0.248784,-0.051320
3363542903,58.740135,104.798462,46.823452,0.816274,-0.262576,0.009197
3363562952,53.310883,94.832771,49.186432,0.784790,-0.263170,0.061694
3363583002,47.045734,85.488159,49.789246,0.767304,-0.236365,0.154053
3363603052,36.599236,75.972458,51.667381,0.797838,-0.366530,0.157957
3363623103,35.210697,68.326645,52.952324,0.831094,-0.490923,0.145636
3363643153,40.089199,68.232460,53.420834,0.831172,-0.522092,0.241062
3363663204,45.314991,73.617981,47.306965,0.777311,-0.342882,0.444006
3363683254,33.322529,73.141365,40.779743,0.731562,-0.405363,0.363608
3363703304,21.101023,67.670830,38.309395,0.563264,-0.374768,0.349609
3363723354,7.448128,58.885109,36.495186,0.497430,-0.418556,0.404816
3363743405,-3.167707,47.483429,36.841351,0.570000,-0.545765,0.405622
3363763455,-5.915185,40.405014,35.623753,0.635985,-0.643218,0.410762
3363783506,-3.292657,36.179325,33.378864,0.661954,-0.705159,0.459468
3363803556,0.786733,32.248219,29.396873,0.682984,-0.716499,0.470200
3363823606,1.814720,28.437513,24.801636,0.649841,-0.690226,0.418857
3363843656,3.297507,23.558460,20.065926,0.612799,-0.631648,0.410100
3363863707,-1.266013,18.233887,17.152813,0.603438,-0.659035,0.434344
3363883757,-1.011722,14.006596,12.309180,0.640385,-0.716109,0.427542
3363903808,3.566712,12.467693,7.939821,0.656153,-0.714183,0.458259
3363923859,7.391486,11.276585,2.925316,0.669898,-0.648488,0.475773
3363943909,6.282263,10.334691,-1.997372,0.639263,-0.596543,0.465957
3363963960,3.919327,9.667753,-5.366883,0.626185,-0.576717,0.462999
3363984010,3.541283,7.409667,-7.897921,0.643840,-0.592120,0.476027
3364004060,8.406314,5.264167,-10.052233,0.655552,-0.590934,0.468189
3364024111,6.700253,2.706185,-10.618822,0.653027,-0.578568,0.488386
3364044161,5.645943,0.654374,-11.050962,0.648535,-0.531927,0.484906
3364064211,1.965119,-1.015954,-12.067078,0.655128,-0.488241,0.489173
3364084261,-1.228473,-3.961750,-13.594337,0.657726,-0.504363,0.505101
3364104312,-4.560236,-7.261654,-16.946856,0.660964,-0.518184,0.503830
3364124362,-9.538704,-8.500159,-20.358955,0.661469,-0.491907,0.466812
3364144412,-16.212315,-8.956759,-23.227470,0.686710,-0.464088,0.470486
3364164477,-20.575314,-9.851160,-26.883501,0.703448,-0.505760,0.450911
3364184512,-23.227146,-10.378341,-30.662651,0.722044,-0.546712,0.456152
3364204562,-27.090200,-12.778040,-36.367561,0.730846,-0.560437,0.454374
3364224612,-30.932949,-15.737465,-42.964870,0.743020,-0.536813,0.465365
3364244663,-36.229240,-17.473621,-49.103565,0.730575,-0.524898,0.436238
3364264713,-40.946285,-18.945381,-56.046749,0.736191,-0.564289,0.399925
3364284763,-41.700859,-21.324064,-68.823997,0.782747,-0.594638,0.373341
3364304814,-41.248695,-22.666712,-76.299957,0.765270,-0.603129,0.373134
3364324864,-43.779556,-24.788111,-82.589882,0.776490,-0.540433,0.371761
3364344914,-47.755211,-26.341413,-87.592827,0.813379,-0.512617,0.347889
3364364965,-51.288086,-27.302565,-94.250175,0.841604,-0.515742,0.309045
3364385015,-51.061440,-26.145639,-98.801613,0.840001,-0.526381,0.276711
3364405065,-49.290489,-22.187130,-102.514412,0.840823,-0.478902,0.299433
3364425116,-50.395302,-21.516367,-109.329819,0.850195,-0.459159,0.261554
3364445166,-50.720608,-19.225029,-111.603706,0.842229,-0.425212,0.234930
3364465216,-49.579529,-16.160194,-114.327942,0.860203,-0.421277,0.214927
3364485267,-46.488876,-12.286508,-116.017319,0.858154,-0.389641,0.191007
3364505317,-43.423580,-10.764847,-121.048477,0.851154,-0.335316,0.191601
3364525368,-42.517185,-12.162413,-124.484833,0.852624,-0.287396,0.181332
3364545419,-40.622082,-11.309624,-126.042114,0.903049,-0.203462,0.153180
3364565469,-41.673203,-9.721351,-125.903229,0.919591,-0.178663,0.118292
3364585520,-40.240379,-7.002082,-125.958572,0.947394,-0.151042,0.120442
3364605570,-38.408062,-5.331586,-125.404129,0.968468,-0.048030,0.128669
3364625621,-39.921864,-5.156258,-126.124199,0.975950,0.001746,0.164954
3364645671,-38.981041,-6.023716,-126.212486,0.958056,-0.077481,0.193192
3364665721,-37.324203,-5.466823,-126.298347,1.028428,0.072799,0.150690
3364685777,-39.088593,-2.599123,-123.594345,0.889587,0.127776,0.153613
3364705822,-32.106045,0.967903,-122.585938,0.925821,0.124199,0.132826
3364725872,-22.167633,4.840196,-117.191376,0.957637,0.163282,0.128964
3364745923,-13.169553,7.310410,-110.450195,0.910145,0.275499,0.149777
3364765973,-6.210453,7.035626,-104.691666,0.910542,0.397500,0.161183
3364786028,-3.784749,4.770133,-99.311226,0.926851,0.512289,0.167695
3364806072,-6.949131,3.926651,-92.584686,0.901329,0.593984,0.172749
3364826122,-8.307328,0.783726,-85.191467,0.884315,0.598454,0.195752
3364846173,-7.001421,-4.700165,-76.184387,0.853425,0.598494,0.177810
3364866223,-3.684741,-7.774666,-66.413261,0.806799,0.608283,0.164188
3364886273,0.592339,-8.739202,-55.323414,0.769403,0.607435,0.167841
3364906324,7.556718,-12.191493,-45.438568,0.751503,0.603681,0.174937
3364926375,16.108469,-11.358252,-36.592209,0.763914,0.599708,0.174798
3364946425,19.420599,-11.853377,-27.102812,0.788732,0.616171,0.178601
3364966475,20.631907,-16.430021,-18.591455,0.789119,0.643672,0.176558
3364986526,19.851524,-19.477543,-11.115407,0.795847,0.655613,0.127118
3365006576,23.592066,-23.203024,-5.071030,0.807745,0.614813,0.092956
3365026626,27.158455,-19.429794,0.849043,0.877651,0.593446,0.106605
3365046677,26.559391,-20.789406,8.539001,0.902112,0.549867,0.092287
3365066727,24.756992,-20.569283,16.375515,0.928779,0.565537,0.123104
3365086777,20.883883,-21.677814,23.936913,0.915718,0.511192,0.092286
3365106828,21.227732,-20.276789,26.630072,0.893124,0.480807,0.073846
3365126878,24.900085,-20.572779,28.842863,0.889162,0.454569,0.063033
3365146929,29.989319,-20.704746,30.319431,0.882121,0.423671,0.050890
3365166980,30.979733,-20.201935,31.969566,0.895885,0.447291,0.054986
3365187031,27.909143,-19.543461,34.818062,0.898735,0.486433,0.046919
3365207081,23.165920,-17.299725,36.774937,0.878779,0.505223,0.036017
3365227131,19.070993,-14.822472,37.775833,0.879107,0.495260,0.031772
3365247182,13.978178,-12.529849,39.421932,0.905115,0.474103,0.022295
3365267232,4.053544,-10.580158,41.055744,0.899024,0.455696,0.013013
3365287282,-3.155728,-11.104727,42.386395,0.906862,0.423693,0.029435
3365307332,-9.284878,-13.251349,44.207314,0.919008,0.369668,0.068317
3365327383,-6.367273,-18.753124,45.142303,0.885270,0.263553,0.029135
3365347433,9.118731,-25.346050,41.824856,0.923847,0.229267,-0.049446
3365367483,30.230232,-29.800016,37.194485,0.958236,0.184262,-0.108029
3365387534,51.710545,-26.517931,30.998806,0.952974,0.210672,-0.141181
3365407583,66.521111,-22.805883,21.666290,0.932935,0.272851,-0.097418
3365427633,75.216568,-24.517504,6.170175,0.954899,0.256859,-0.088171
3365447683,78.230766,-22.026625,-1.600316,0.993618,0.188103,-0.111730
3365467734,82.624054,-16.673532,-3.590829,1.013400,0.192814,-0.160449
3365487784,87.677505,-10.918293,9.264219,0.949126,0.243202,-0.185118
3365507834,90.916740,-9.794086,8.417947,0.958869,0.300563,-0.165264
3365527885,93.849243,-11.819270,5.680315,1.000593,0.293250,-0.187605
3365547935,90.620132,-9.181688,7.127518,1.020975,0.268411,-0.199624
3365567985,89.018517,-8.944786,13.811901,1.037883,0.269080,-0.238229
3365588036,88.916077,-8.220931,16.727341,1.018526,0.262253,-0.229744
3365628136,82.441025,3.105609,17.365108,1.005784,0.230790,-0.248828
3365648187,81.610947,8.379935,19.113121,0.967837,0.240466,-0.265387
3365668237,82.103943,13.445149,18.845387,0.967084,0.210130,-0.277310
3365688288,84.797554,17.731712,16.828829,0.978986,0.151177,-0.271909
3365708338,87.833885,20.321636,15.075683,0.992895,0.120730,-0.281182
3365728388,90.616844,23.053770,16.853928,0.998862,0.142863,-0.252677
3365748438,90.371750,24.907833,19.765522,0.987409,0.187802,-0.234192
3365768489,87.417740,27.068554,18.758688,0.992451,0.192283,-0.194583
3365788540,81.162857,29.812387,18.531635,0.995722,0.152042,-0.188095
3365808591,75.704834,33.305698,20.742142,0.999667,0.149323,-0.175494
3365828641,71.396194,32.791149,21.859531,1.000364,0.131901,-0.161200
3365848692,65.093872,32.843178,24.589983,0.986615,0.112124,-0.169794
3365868742,59.515633,30.111818,29.406410,0.966717,0.105733,-0.162499
3365888792,55.148674,29.163162,30.366156,0.950203,0.125705,-0.154759
3365908842,50.361778,27.798876,29.667690,0.938272,0.116772,-0.167736
3365928893,45.621750,26.694454,27.998203,0.935812,0.091683,-0.155467
3365948943,40.827328,23.961475,26.963402,0.938172,0.099819,-0.126734
3365968993,32.492893,21.019316,26.521725,0.964720,0.078167,-0.088123
3365989044,28.262163,18.974998,26.954670,0.969239,0.039762,-0.093282
3366009094,24.219191,19.258915,26.811108,0.966755,0.008377,-0.089301
3366029143,19.782196,19.588396,25.879314,0.984948,-0.014764,-0.071000
3366049193,19.255188,19.090824,24.577633,1.009097,-0.037549,-0.073382
3366069244,21.423204,18.812136,22.690674,0.993292,-0.041524,-0.050182
3366089294,21.733498,18.589966,20.857222,0.990439,-0.002454,-0.049563
3366109344,19.081451,18.546824,19.183350,0.955409,-0.000763,-0.046650
3366129395,17.300999,16.516592,16.917282,0.955811,-0.015518,-0.030118
3366149445,16.026321,14.188881,13.909325,0.971307,-0.018198,0.002651
3366169495,13.157079,13.243279,12.610007,0.967615,-0.020752,-0.003889
3366189546,10.940805,11.094981,11.329763,0.945073,-0.016773,-0.001732
3366209596,6.224097,8.163639,10.060672,0.947840,-0.020645,0.025870
3366229646,2.605676,4.851633,8.686402,0.967154,-0.048177,0.041867
3366249696,0.092522,2.289002,8.218638,0.953372,-0.038194,0.024022
3366269747,-4.476499,0.149639,7.181714,0.954583,-0.062289,0.016221
3366289797,-9.356341,-1.563788,7.788064,0.959754,-0.057255,0.018017
3366309847,-11.622751,-3.686511,8.197857,0.980524,-0.079856,0.016335
3366329898,-14.738533,-5.451395,9.645031,0.951382,-0.044037,-0.022366
3366349948,-22.411547,-7.303823,10.366524,0.953052,0.006419,-0.052385
3366369998,-30.026371,-9.074281,11.982030,0.949902,-0.039596,-0.067598
3366390049,-33.448219,-10.012342,12.441198,0.996648,-0.030689,-0.068187
3366410100,-39.736153,-10.835233,11.271497,0.988688,-0.032533,-0.062497
3366430151,-49.368977,-8.822426,11.783302,0.968390,-0.043635,-0.124496
3366450201,-61.019867,-8.072767,15.111961,1.008773,-0.065322,-0.128775
3366470251,-68.839455,-8.725430,17.223898,0.995065,-0.102478,-0.119990
3366490302,-74.917648,-8.901599,22.046850,0.989610,-0.050033,-0.117636
3366510352,-83.146744,-10.033092,24.494055,0.985135,0.031208,-0.141420
3366530402,-100.299728,-8.868336,23.533520,0.936967,0.011760,-0.172619
3366550453,-112.192207,-11.371583,20.552620,0.952875,-0.008575,-0.154731
3366570503,-123.405685,-11.973684,22.165359,0.957745,-0.043416,-0.190465
3366590553,-128.304367,-8.864605,26.658262,0.955187,-0.061310,-0.196183
3366610604,-130.557129,-4.058721,29.029865,1.003712,-0.056252,-0.218528
3366630654,-140.124222,4.147781,24.503035,1.032340,-0.013382,-0.255902
3366650703,-143.665436,7.023689,19.560463,1.008076,-0.038480,-0.240879
3366670753,-139.495300,8.365866,17.409533,1.021831,-0.026825,-0.260365
3366690804,-138.454514,6.589230,18.703714,1.039116,-0.041212,-0.278071
3366710854,-142.123657,6.037484,16.887951,1.005444,-0.134067,-0.272873
3366730904,-138.803467,-0.223878,7.768141,1.009555,-0.158656,-0.277558
3366750954,-129.150772,-12.362962,1.425108,1.023051,-0.138749,-0.272603
3366791055,-113.367996,-9.139657,20.560501,1.000667,-0.220355,-0.270363
3366811105,-103.218628,-4.544364,22.428270,1.013641,-0.212146,-0.263732
3366831156,-96.687157,2.079675,33.089493,1.110895,-0.188650,-0.287671
3366851206,-90.258408,9.192808,32.395782,1.034638,-0.166148,-0.322736
3366871256,-89.742249,15.520827,32.510216,0.967177,-0.212372,-0.253243
3366891307,-89.504013,19.494652,32.792015,0.880620,-0.135518,-0.253383
3366911357,-93.446930,22.862305,29.189367,0.893823,-0.125307,-0.240229
3366931407,-92.511177,24.553297,23.127625,0.984997,-0.257852,-0.253317
3366951458,-91.037323,24.131262,22.097824,0.917609,-0.291726,-0.280123
3366971508,-88.098557,23.668888,22.772917,0.906933,-0.245008,-0.270833
3366991558,-84.434265,23.970310,21.035013,0.960166,-0.257373,-0.247682
3367011610,-82.458199,26.345524,11.658547,0.928224,-0.194545,-0.226733
3367031660,-79.307091,23.157461,6.090316,0.925245,-0.202161,-0.212397
3367051711,-75.954086,21.400436,2.108665,0.951147,-0.173763,-0.212815
3367071761,-72.510193,20.282562,-2.936274,0.985792,-0.179286,-0.210415
3367091811,-69.153099,19.797642,-5.050308,0.999681,-0.192646,-0.193712
3367111862,-65.452713,19.065594,-6.981715,0.966922,-0.196071,-0.186724
3367131912,-59.410076,17.353111,-9.107616,0.946241,-0.178570,-0.166715
3367151970,-53.703255,14.062223,-10.780804,0.941591,-0.198749,-0.141067
3367172013,-48.755920,11.575787,-11.713758,0.941094,-0.185387,-0.140589
3367192063,-45.182648,9.869944,-12.641344,0.929996,-0.161886,-0.141031
3367212113,-41.688236,9.377654,-14.861506,0.952253,-0.119296,-0.133186
3367232164,-38.899361,9.148578,-15.551378,1.005355,-0.113485,-0.096978
3367252213,-33.047153,8.938606,-17.583864,0.998852,-0.100797,-0.098170
3367272263,-28.699667,7.963057,-19.075079,1.000984,-0.078232,-0.115412
3367292313,-26.884403,6.207524,-20.039772,0.993061,-0.066813,-0.122598
3367312364,-26.273220,5.748577,-20.015669,0.984725,-0.054774,-0.137247
3367332414,-23.831118,5.119059,-21.242146,0.961631,-0.060298,-0.145163
3367352464,-22.143820,4.037717,-21.110168,0.973602,-0.057156,-0.104944
3367372515,-19.778364,2.366603,-20.104815,0.974028,-0.053384,-0.101712
3367392565,-17.391344,2.149658,-18.467850,0.992895,-0.035881,-0.094147
3367412615,-16.338022,1.264535,-17.866430,0.989382,0.007029,-0.091760
3367432665,-17.853245,1.949362,-16.056887,0.997904,-0.029002,-0.096736
3367452716,-17.225376,1.037001,-15.720490,0.978404,-0.021438,-0.117683
3367472766,-15.722747,0.844201,-16.546457,0.976696,-0.025560,-0.119738
3367492816,-13.718534,-1.131787,-16.555508,0.975464,-0.007047,-0.121052
3367512867,-10.312614,-1.890496,-16.402508,0.972254,-0.029509,-0.121996
3367532917,-6.521905,-2.045946,-16.092562,0.971913,-0.001161,-0.109148
3367552967,-5.910419,-3.720497,-13.820897,0.983277,0.023157,-0.100352
3367573018,-6.427638,-4.782175,-11.907160,0.992832,0.030076,-0.100818
3367593068,-4.885652,-3.410894,-10.351161,0.981842,0.000465,-0.124093
3367613119,0.735939,-4.314256,-10.152963,0.972227,-0.001027,-0.131687
3367633170,4.052209,-5.670112,-9.497662,1.000533,0.038109,-0.112126
3367673271,0.106192,-9.099950,-7.566986,0.951775,0.044383,-0.148989
3367693321,-0.800230,-11.590137,-5.451138,0.967108,0.006832,-0.102186
3367713372,4.919234,-17.180462,-4.607770,0.973474,-0.050532,-0.086390
3367733422,10.898054,-20.937073,-4.581761,0.952496,-0.015989,-0.133017
3367753472,17.861898,-23.138954,-5.819561,0.951081,0.037377,-0.104834
3367773522,22.782078,-26.076063,-7.160218,0.935498,0.079769,-0.111525
3367793573,22.572794,-28.988665,-8.923584,0.968626,0.102388,-0.097737
3367813623,21.125736,-29.524586,-10.535548,0.965776,0.049299,-0.176031
3367833674,24.476168,-30.236864,-12.580585,0.927018,0.031484,-0.196094
3367853724,31.004524,-32.205147,-13.644723,0.927393,0.050405,-0.207307
3367873773,34.425293,-31.444437,-13.337804,0.974463,0.020359,-0.212624
3367893823,38.555347,-31.357426,-12.255758,0.961471,0.019797,-0.282145
3367913873,44.244652,-30.979963,-11.273787,0.960530,0.010352,-0.288041
3367933924,49.159023,-29.928701,-12.181026,0.974211,0.027469,-0.313226
3367953974,51.849529,-26.980534,-13.351707,0.982494,0.039207,-0.332389
3367974024,53.220261,-24.033777,-13.385078,0.990523,0.053774,-0.325139
3367994075,53.881245,-21.567045,-11.764333,0.981883,0.041436,-0.322513
3368014125,52.566185,-18.269554,-9.986602,0.974672,0.032792,-0.347821
3368034175,49.445747,-16.476326,-7.718001,0.977664,0.056965,-0.341536
3368054226,50.013027,-17.547302,-7.191562,0.963908,0.040491,-0.335081
3368074276,51.850433,-17.812580,-7.820344,0.947796,0.021325,-0.345061
3368094327,56.030945,-15.656067,-9.663347,0.954881,0.005072,-0.332644
3368114377,60.170101,-13.667852,-12.862389,0.929743,0.002397,-0.350787
3368134427,59.643761,-10.556361,-18.481354,0.934124,0.045569,-0.388700
3368154477,54.152573,-6.055331,-20.139578,0.950462,0.102008,-0.358064
3368174528,48.895432,-5.762290,-18.789692,0.982782,0.143542,-0.355771
3368194578,42.046192,-5.142704,-20.570482,0.983493,0.101377,-0.362821
3368214628,43.616817,-5.123841,-21.609413,0.991855,0.058359,-0.399072
3368234680,43.363148,-0.672759,-23.375402,0.953460,0.045832,-0.437098
3368254731,39.690548,2.896742,-22.961996,0.925406,0.034112,-0.419893
3368274781,35.751854,5.034951,-16.927553,0.935336,0.063047,-0.386530
3368294832,31.505423,5.443255,-9.219674,0.925822,0.083121,-0.359838
3368314882,28.653816,4.337968,-8.184129,0.909963,0.082575,-0.344675
3368334932,29.292147,3.178755,-8.475937,0.918223,0.082641,-0.354069
3368354983,26.035387,3.589896,-9.719163,0.918740,0.082573,-0.333434
3368375033,23.200367,0.914405,-12.088743,0.917202,0.096987,-0.373783
3368395083,17.383928,2.491462,-14.790251,0.913046,0.123952,-0.393664
3368415134,12.742961,7.727135,-14.010875,0.947250,0.126989,-0.351468
3368435184,9.797597,11.096316,-14.809665,0.945313,0.095464,-0.331850
3368455234,9.105227,11.458539,-15.636777,0.946678,0.055729,-0.295935
3368475283,11.446548,10.416462,-12.382633,0.983630,0.050130,-0.267253
3368495333,11.073971,10.735194,-7.229910,1.034137,0.107563,-0.280647
3368515384,7.752462,12.579502,2.102173,1.048010,0.273787,-0.273020
3368535434,-8.230818,18.676460,10.325087,1.042094,0.369225,-0.275712
3368555485,-27.316917,24.465738,9.144662,1.045269,0.253469,-0.308522
3368575535,-37.155651,30.992350,6.958035,0.982561,0.083769,-0.303912
3368595585,-29.330555,33.183598,5.636585,1.004205,0.029674,-0.252237
3368615636,-23.128414,36.001835,6.693335,1.031862,0.036008,-0.245571
3368655736,-18.769815,44.547932,9.034575,1.024561,0.030856,-0.210573
3368675786,-15.954466,48.137970,8.392164,1.040280,0.013063,-0.192805
3368695836,-12.144623,49.723995,6.755889,1.035666,0.005650,-0.163942
