Timestamp (us),Gyroscope X (deg/s),Gyroscope Y (deg/s),Gyroscope Z (deg/s),Accelerometer X (g),Accelerometer Y (g),Accelerometer Z (g)
606627206,0.495182,-0.070741,0.087030,0.994365,-0.007630,-0.085285
606667295,0.228388,-0.017364,0.130237,0.994245,-0.009435,-0.077200
606687337,-0.080713,-0.124555,-0.046804,0.994385,-0.013260,-0.079738
606707381,0.034198,-0.147357,-0.033675,0.994303,-0.014078,-0.079282
606727426,0.356848,-0.185175,0.051888,0.994329,-0.009808,-0.082466
606747470,0.432466,-0.162402,0.004496,0.993381,-0.009085,-0.084267
606767514,0.509934,-0.040325,0.056077,0.994522,-0.010179,-0.086826
606787558,0.661764,-0.162351,0.000047,0.995046,-0.012182,-0.088194
606807603,0.837055,-0.078554,-0.034199,0.995287,-0.009820,-0.089836
606827647,0.645280,-0.086307,-0.068660,0.993868,-0.006906,-0.087365
606847691,0.456751,0.035908,0.072138,0.993011,-0.005083,-0.084267
606867736,0.334032,0.012964,0.051671,0.994144,-0.009445,-0.082555
606887781,0.159078,0.035895,0.100838,0.997354,-0.013533,-0.082149
606907825,0.218641,-0.078602,0.016008,0.995252,-0.010525,-0.077125
606927870,0.327599,-0.040223,0.120746,0.993506,-0.007799,-0.077554
606947914,0.172506,-0.078648,0.001620,0.994166,-0.010071,-0.076563
606967958,0.218486,-0.109104,0.008471,0.994438,-0.012718,-0.081737
606988002,0.195245,-0.170112,-0.006158,0.996096,-0.010440,-0.080861
607008054,0.333307,-0.048093,0.013681,0.994779,-0.009535,-0.082838
607028090,0.203578,-0.170021,0.031887,0.995056,-0.007988,-0.082572
607048134,-0.033853,-0.063452,0.005574,0.994983,-0.005811,-0.086297
607068179,-0.125439,-0.071076,0.015018,0.997077,-0.007719,-0.086783
607088223,0.067021,-0.070854,0.087697,0.994304,-0.011812,-0.083915
607108267,-0.194802,-0.109267,-0.014075,0.994965,-0.010081,-0.082658
607128311,-0.279057,0.058338,-0.028281,0.994455,-0.008804,-0.080564
607148355,-0.018554,-0.040586,0.005201,0.995899,-0.011169,-0.081674
607168399,0.103099,-0.193049,-0.027218,0.994361,-0.013626,-0.081008
607188444,0.294202,-0.154902,-0.031053,0.995894,-0.010533,-0.081856
607208488,0.340898,-0.139542,0.013838,0.994509,-0.010081,-0.082650
607228533,0.364406,-0.093740,0.043796,0.995206,-0.007718,-0.084300
607248578,0.432302,-0.208146,-0.002990,0.993174,-0.011089,-0.085712
607268622,0.516667,-0.185228,0.010580,0.994877,-0.010544,-0.087376
607288666,0.272041,-0.017641,0.007127,0.992159,-0.011365,-0.086239
607308710,0.331569,-0.193105,-0.077500,0.992336,-0.009727,-0.086427
607328754,0.408512,-0.025375,-0.056627,0.997729,-0.008263,-0.086158
607348801,0.395228,-0.139423,0.058632,0.996492,-0.008352,-0.083958
607368842,0.348581,-0.070952,0.013461,0.996029,-0.009172,-0.084312
607388886,0.417370,-0.070937,0.012126,0.995343,-0.009351,-0.081940
607408930,0.478378,-0.070941,0.003301,0.992238,-0.010174,-0.081976
607428974,0.381391,-0.017312,0.134909,0.994298,-0.011085,-0.084188
607449019,0.563730,-0.009794,0.070214,0.995517,-0.011990,-0.082574
607469063,0.615887,-0.192845,0.001038,0.993093,-0.010989,-0.080265
607489107,0.683111,-0.276857,-0.084042,0.995885,-0.009624,-0.082312
607509151,0.539102,-0.086223,-0.020751,0.993475,-0.008812,-0.084087
607529196,0.691277,-0.086279,-0.061911,0.994989,-0.007539,-0.086112
607549240,0.571538,0.035951,0.077552,0.994785,-0.008178,-0.087288
607569286,0.426672,-0.063099,0.103617,0.993378,-0.010632,-0.084537
607589330,0.387366,-0.040388,0.043172,0.995476,-0.011812,-0.084752
607609374,0.586266,-0.215589,0.055179,0.993879,-0.010991,-0.082184
607629418,0.561338,-0.093929,-0.059364,0.995709,-0.009987,-0.081945
607649463,0.547091,0.035749,-0.006029,0.994873,-0.007988,-0.082569
607669507,0.448926,-0.040321,0.064902,0.994083,-0.008623,-0.080921
607689552,0.201687,-0.101683,-0.075284,0.995849,-0.009073,-0.079316
607709594,0.393440,-0.132035,-0.040696,0.996568,-0.009619,-0.079963
607729638,0.073108,-0.139638,0.003752,0.995631,-0.009622,-0.081218
607749682,0.005181,-0.078578,0.050715,0.993725,-0.009351,-0.080550
607769727,0.203626,-0.086191,0.031607,0.994074,-0.011626,-0.081551
607789771,0.080778,-0.093911,0.003451,0.992974,-0.006533,-0.081450
607809815,-0.040785,-0.025260,0.043788,0.995872,-0.007805,-0.082859
607829859,0.104535,-0.093798,0.048838,0.995779,-0.010717,-0.083125
607849903,-0.071746,0.020405,0.021313,0.993575,-0.010266,-0.083724
607869948,-0.072457,-0.017789,-0.016753,0.994827,-0.009713,-0.080296
607889993,-0.010661,-0.086274,0.020483,0.995063,-0.008260,-0.082209
607910038,-0.049838,-0.078787,-0.032272,0.996330,-0.007532,-0.082777
607930082,-0.008919,0.066359,0.111638,0.993521,-0.007989,-0.081639
607950126,-0.169528,-0.108958,0.115338,0.994680,-0.009536,-0.083199
607970170,0.133547,-0.170197,-0.035526,0.995013,-0.013633,-0.085195
608010259,-0.209613,-0.002524,0.008782,0.993507,-0.009082,-0.082453
608030302,-0.025956,-0.101519,0.020830,0.994921,-0.012632,-0.085195
608050346,0.118990,-0.101523,0.002735,0.994370,-0.011996,-0.085277
608070391,0.217525,-0.101608,-0.045026,0.996188,-0.008992,-0.085586
608090435,0.218516,-0.055757,0.008293,0.994352,-0.007085,-0.085921
608110479,-0.147933,-0.032923,0.038252,0.994748,-0.006900,-0.084294
608130523,0.090538,-0.009810,0.117603,0.995133,-0.010628,-0.083477
608150567,0.205022,-0.055528,0.107893,0.994578,-0.008446,-0.083744
608170612,0.081877,-0.101388,0.064586,0.994354,-0.009442,-0.081106
608190655,0.142458,-0.124309,0.032921,0.993525,-0.009899,-0.081545
608210700,0.187797,-0.071024,0.001298,0.994543,-0.008804,-0.080747
608230745,0.226448,-0.032857,0.023345,0.994081,-0.007350,-0.080923
608250790,0.173987,-0.139418,0.085850,0.994615,-0.008260,-0.081748
608270834,0.088515,-0.170100,0.011196,0.994775,-0.008080,-0.082931
608290878,0.103543,-0.139649,-0.004480,0.995728,-0.010167,-0.080946
608310923,-0.033142,-0.025258,0.043640,0.994806,-0.012262,-0.081563
608330967,-0.026860,0.005048,-0.032997,0.994498,-0.010719,-0.083285
608351011,0.135530,-0.078495,0.071110,0.993954,-0.010356,-0.083004
608371054,0.118607,-0.048230,-0.020360,0.994586,-0.006534,-0.083202
608391098,0.152605,-0.085880,0.170142,0.995054,-0.009353,-0.082752
608411142,-0.033996,-0.071091,-0.002039,0.993933,-0.009994,-0.084093
608431187,0.029779,-0.055495,0.141859,0.995975,-0.009268,-0.087216
608451231,-0.064547,-0.032994,-0.001573,0.994036,-0.008173,-0.083372
608471275,-0.048774,-0.147232,0.029067,0.993126,-0.009175,-0.083264
608491319,0.027181,-0.017731,-0.003404,0.992917,-0.012726,-0.084888
608511364,0.309627,-0.154880,-0.023711,0.994697,-0.010808,-0.082380
608531408,0.043148,-0.032880,0.034544,0.995680,-0.006624,-0.083312
608551452,0.042139,-0.109215,-0.018673,0.994347,-0.007805,-0.081381
608571498,0.196129,-0.070933,0.039343,0.994955,-0.010354,-0.083202
608591542,0.119808,-0.116657,0.048618,0.993317,-0.009264,-0.082813
608611586,0.065647,-0.063412,0.011284,0.996611,-0.010533,-0.082595
608631631,-0.039122,-0.009803,0.135402,0.996944,-0.010444,-0.084325
608651675,0.142208,-0.078619,0.017491,0.997743,-0.007980,-0.080530
608671719,-0.101842,-0.109086,0.052894,0.993448,-0.009079,-0.080728
608691763,-0.073311,-0.063622,-0.062433,0.994275,-0.010268,-0.085369
608711806,0.066474,-0.063305,0.057117,0.995566,-0.007445,-0.084579
608731850,0.042583,-0.055815,0.004065,0.994652,-0.008174,-0.084653
608751895,0.188909,-0.055639,0.062357,0.994567,-0.010994,-0.084465
608771939,0.294721,0.028054,-0.008748,0.993946,-0.011721,-0.083546
608791983,0.073049,-0.002479,-0.004345,0.995218,-0.011083,-0.083841
608812028,0.113334,-0.002202,0.109494,0.994193,-0.008357,-0.084736
608832072,0.082187,-0.040385,0.079660,0.994803,-0.008168,-0.081479
608852116,0.166095,-0.093730,0.070568,0.995139,-0.009353,-0.083116
608872160,-0.079010,-0.040510,0.044581,0.994060,-0.009080,-0.082191
608892204,0.197103,-0.055565,0.092763,0.993989,-0.009170,-0.081100
608912250,0.233251,-0.055826,-0.022559,0.994497,-0.009809,-0.083286
608972383,0.136353,-0.086009,0.116968,0.994872,-0.009535,-0.082748
608992427,0.012661,-0.124320,0.043081,0.993499,-0.009628,-0.082906
609012471,-0.012075,-0.147421,-0.055701,0.994980,-0.007987,-0.081754
609032536,0.027849,-0.055746,0.034917,0.995949,-0.010172,-0.083764
609052559,0.127055,-0.086226,0.025452,0.993401,-0.010084,-0.083267
609072603,-0.084852,-0.025037,0.143982,0.995392,-0.009628,-0.084209
609092647,-0.026129,-0.162505,0.013395,0.995539,-0.010350,-0.081306
609112691,0.081312,-0.124322,0.034108,0.993322,-0.009992,-0.082630
609132740,0.103311,-0.063476,-0.020012,0.994044,-0.011993,-0.083184
609152779,0.142907,-0.063288,0.055634,0.993338,-0.007625,-0.081636
609172824,0.165677,-0.101405,0.047677,0.993057,-0.010719,-0.082171
609192868,0.134215,-0.208212,0.002795,0.995399,-0.009081,-0.083847
609212912,0.095535,-0.055874,-0.027528,0.994697,-0.008716,-0.082293
609232957,-0.117400,-0.101504,0.037888,0.992912,-0.010270,-0.084983
609253002,-0.002031,-0.048042,0.073678,0.994681,-0.011629,-0.083286
609273047,-0.011729,-0.025450,-0.040831,0.993255,-0.013174,-0.081535
609293091,0.058750,0.035747,0.049295,0.995535,-0.009532,-0.081489
609313135,0.203906,-0.078534,0.046859,0.995828,-0.010166,-0.080494
609333179,-0.069957,0.013017,0.120642,0.996870,-0.006622,-0.083150
609353224,-0.077809,-0.108937,0.113559,0.994655,-0.007901,-0.084472
609373268,-0.101842,-0.109086,0.052894,0.994933,-0.009174,-0.084293
609393310,-0.017352,-0.109013,0.074178,0.994785,-0.010899,-0.082563
609413355,-0.019537,-0.071195,-0.048168,0.993501,-0.011266,-0.082904
609433399,0.018693,-0.048324,-0.048986,0.993271,-0.010898,-0.080540
609453443,0.004004,-0.208277,-0.009961,0.995174,-0.009350,-0.081211
609473488,-0.001569,0.035841,0.096314,0.994405,-0.008627,-0.083196
609493532,0.173101,-0.002367,0.031921,0.995884,-0.011807,-0.082489
609513576,-0.009950,-0.048080,0.058549,0.996029,-0.011447,-0.084490
609533620,0.005462,-0.070921,0.065967,0.996344,-0.008804,-0.082139
609553664,-0.202758,0.065958,-0.037428,0.994397,-0.008446,-0.083650
609573709,-0.072772,-0.086413,-0.031802,0.995495,-0.009081,-0.083577
609593754,0.173729,-0.108971,0.070471,0.994599,-0.012083,-0.082830
609613799,0.049938,-0.078711,-0.011284,0.994236,-0.011082,-0.082644
609633843,0.203488,-0.086209,0.023969,0.995602,-0.009170,-0.082761
609653887,0.020210,-0.048127,0.035040,0.993933,-0.010903,-0.084182
609673931,-0.140548,-0.002473,0.022724,0.994790,-0.010899,-0.082291
609693976,0.019542,-0.010112,-0.003281,0.995503,-0.010445,-0.083211
609714022,0.119235,-0.154833,0.018190,0.994694,-0.007988,-0.082385
609734063,-0.108916,-0.078532,0.083495,0.995068,-0.010898,-0.082114
609754107,-0.094025,-0.048099,0.060181,0.995639,-0.009348,-0.080765
609774151,-0.026383,-0.124436,-0.002010,0.993759,-0.010994,-0.083725
609794196,0.127318,-0.109052,0.040806,0.994901,-0.008168,-0.081117
609814240,0.065100,-0.055863,-0.019296,0.997173,-0.007710,-0.081701
609834284,-0.111376,-0.040750,-0.054129,0.993268,-0.009269,-0.085445
609854328,0.233354,-0.116775,-0.014716,0.994024,-0.008174,-0.084007
609874373,0.227033,-0.215669,0.062150,0.994679,-0.007990,-0.083201
609894417,0.004323,-0.132032,0.005061,0.993826,-0.009896,-0.080097
609914462,0.119839,-0.063311,0.048440,0.993806,-0.010262,-0.081186
609934507,0.171595,-0.223553,-0.043728,0.995125,-0.008527,-0.078942
609954551,-0.010385,-0.086238,0.035760,0.994128,-0.008991,-0.083372
609974595,-0.002457,-0.070959,0.050838,0.994560,-0.009539,-0.084740
609994639,-0.011747,-0.055934,-0.040729,0.994559,-0.009903,-0.084830
610014684,-0.062999,0.020550,0.082274,0.994852,-0.011720,-0.083924
610034729,0.036702,-0.108930,0.103695,0.993679,-0.010811,-0.083089
610054771,0.103259,-0.154926,-0.019706,0.994887,-0.010807,-0.082020
610074816,0.203799,-0.025205,0.039042,0.993709,-0.008716,-0.081368
610094860,0.356193,-0.124297,0.013491,0.994708,-0.008715,-0.081658
610114904,0.142040,-0.131983,0.010030,0.994835,-0.007173,-0.084567
610134948,0.227681,-0.047938,0.092145,0.994871,-0.007897,-0.082660
610154992,0.074798,-0.078455,0.095213,0.995138,-0.008626,-0.083117
610175036,-0.132616,0.020427,0.037777,0.993802,-0.008715,-0.081279
610195081,-0.079606,-0.116791,0.014281,0.993987,-0.010171,-0.081280
610215125,-0.126391,-0.048339,-0.038530,0.994639,-0.014445,-0.080830
610235169,-0.048610,-0.101489,0.036553,0.995240,-0.010353,-0.082662
610255215,-0.032866,-0.025222,0.058918,0.994942,-0.006080,-0.083663
610275259,0.095900,-0.139650,-0.004332,0.997180,-0.009620,-0.081426
610295303,0.218757,-0.116689,0.023774,0.994409,-0.011356,-0.083191
610315348,0.133315,-0.094024,-0.051058,0.993083,-0.009625,-0.080721
610335392,0.103681,-0.139631,0.003159,0.995201,-0.009447,-0.084660
610355436,0.003540,-0.055931,-0.041025,0.993200,-0.008903,-0.084173
610375481,-0.079485,-0.147257,0.022021,0.996089,-0.006073,-0.080959
610395523,-0.033151,-0.040500,0.043691,0.994439,-0.009260,-0.081471
610415568,-0.109178,-0.055705,0.068141,0.993625,-0.010626,-0.081091
610435612,0.126944,-0.040518,0.017660,0.995371,-0.011358,-0.085477
610455656,-0.156222,0.043195,-0.000048,0.995135,-0.008899,-0.083299
610475700,0.127263,0.035727,0.032683,0.993632,-0.009724,-0.085541
610495745,0.043321,0.028105,0.041979,0.994173,-0.009996,-0.085913
610515789,0.226726,0.096709,0.061024,0.994767,-0.010901,-0.083561
610535833,0.113417,0.012823,0.154886,0.996342,-0.010260,-0.082318
610555878,0.034688,-0.162560,0.042240,0.994911,-0.009258,-0.080662
610575922,-0.056839,-0.063127,0.058768,0.994515,-0.009808,-0.082288
610595967,0.020397,-0.108542,0.095484,0.994925,-0.009985,-0.079934
610616012,0.141122,-0.047543,0.016339,0.994251,-0.012264,-0.081916
610636056,0.088844,-0.077679,0.101352,0.993972,-0.010627,-0.082096
610656100,0.139215,-0.070173,-0.052565,0.994956,-0.011893,-0.078389
610676144,0.079306,-0.031801,0.024935,0.992382,-0.011716,-0.079253
610696189,0.163087,-0.024090,0.030859,0.994203,-0.008529,-0.079380
610716233,-0.013817,-0.069818,-0.011463,0.994712,-0.009806,-0.081565
610736276,-0.049851,0.059920,0.095704,0.994787,-0.010717,-0.082473
610756320,0.108817,-0.199156,0.001667,0.994991,-0.010442,-0.081296
610776364,0.070642,-0.092208,0.009558,0.996645,-0.008710,-0.080692
610796409,0.085745,-0.129890,0.017104,0.995491,-0.007443,-0.083670
610816453,-0.340091,0.000002,0.124088,0.994197,-0.008538,-0.084554
610836497,-0.278117,-0.022879,0.130311,0.994281,-0.009813,-0.085007
610856541,-0.134441,-0.114378,0.005447,0.993975,-0.012355,-0.082002
610876586,0.217656,-0.075884,0.036559,0.995160,-0.011262,-0.082115
610916674,0.118056,-0.113490,0.046208,0.992971,-0.006534,-0.081632
610936720,0.117289,-0.105657,0.023168,0.995685,-0.010990,-0.083304
610956764,0.050107,-0.036660,0.123432,0.995939,-0.012811,-0.084486
610976808,0.094787,0.031844,0.061025,0.992949,-0.009538,-0.082988
610996852,0.040388,-0.074880,0.031707,0.995079,-0.007349,-0.081303
611016897,-0.013162,-0.029128,0.024898,0.993211,-0.009985,-0.078816
611036941,-0.112000,-0.105041,0.049871,0.994181,-0.011161,-0.075835
611056985,0.155361,-0.127619,0.044589,0.994856,-0.009710,-0.078754
611077028,0.147120,-0.165400,0.029558,0.994684,-0.006988,-0.082840
611097072,-0.135556,-0.073646,0.042196,0.995346,-0.007994,-0.086572
611117117,0.094697,-0.126663,0.083726,0.994447,-0.008358,-0.085829
611137161,-0.396785,-0.058222,-0.044624,0.995912,-0.008447,-0.085673
611157205,-0.393805,-0.012146,0.054575,0.995568,-0.010720,-0.084665
611177249,-0.361959,-0.080557,0.076920,0.994595,-0.011091,-0.087825
611197294,-0.001800,-0.019387,0.084797,0.995984,-0.012543,-0.086938
611217338,0.143948,-0.087758,0.127835,0.992244,-0.011911,-0.086603
611237382,0.363092,-0.102885,0.016436,0.994759,-0.011994,-0.084013
611257427,0.241154,-0.056846,0.087232,0.993854,-0.011175,-0.083545
611277472,0.285393,-0.049199,0.025018,0.995795,-0.010716,-0.082308
611297516,0.390467,-0.087238,-0.030358,0.994897,-0.006621,-0.081210
611317560,0.245444,-0.094557,0.026009,0.992568,-0.009358,-0.083799
611337605,0.251551,-0.010763,-0.035565,0.994523,-0.010626,-0.081924
611357649,0.548441,-0.071469,-0.041018,0.993547,-0.011534,-0.080453
611377693,0.447249,-0.056269,-0.077250,0.995448,-0.010532,-0.081304
611397738,0.477383,-0.063556,-0.031815,0.994795,-0.008988,-0.081931
611417781,0.560494,-0.078631,-0.018031,0.993624,-0.006441,-0.080917
611437825,0.389774,-0.124342,-0.090854,0.995464,-0.006437,-0.080222
611477913,0.329406,-0.161492,0.063108,0.994813,-0.006803,-0.080846
611497957,0.143712,-0.161367,-0.017429,0.996291,-0.010893,-0.080229
611518002,0.098764,-0.145469,0.052095,0.995603,-0.009343,-0.077859
611538046,0.058085,-0.046512,-0.077335,0.994212,-0.010439,-0.079014
611558090,0.112332,-0.213728,-0.016560,0.994792,-0.008988,-0.082112
611578134,0.135525,-0.167449,0.013353,0.995574,-0.011993,-0.084390
611598179,0.110613,-0.045442,-0.085756,0.995649,-0.008082,-0.085033
611618224,0.272675,-0.204950,0.026379,0.995835,-0.007718,-0.084856
611638269,0.265208,-0.120498,0.071877,0.994458,-0.010268,-0.085373
611658313,0.090687,-0.028677,0.174015,0.993779,-0.008081,-0.082460
611678357,0.271891,0.032094,0.062971,0.994768,-0.008990,-0.083383
611698401,0.171622,-0.059464,0.049844,0.993337,-0.009900,-0.081814
611718446,0.125295,0.039698,0.042566,0.995246,-0.009807,-0.082300
611738514,0.345454,0.016612,-0.015117,0.995960,-0.008715,-0.083131
611758533,0.208001,-0.051808,0.041260,0.996151,-0.007168,-0.082593
611778577,0.109914,0.039844,0.126650,0.993860,-0.009628,-0.083094
611798621,0.038933,0.024201,0.020910,0.994956,-0.011082,-0.083201
611818666,0.121275,0.039294,-0.064786,0.994738,-0.011987,-0.080291
611838710,0.008380,0.100350,0.044294,0.994409,-0.006889,-0.078024
611858754,-0.463515,0.244816,0.129212,1.001433,0.000862,-0.073164
611878798,-0.995216,0.335636,0.222903,0.994914,0.003207,-0.079684
611898842,-0.615876,0.403743,0.359780,0.997346,-0.013716,-0.082602
611918887,-0.038015,0.768638,0.529566,0.994001,-0.030689,-0.057462
611938933,0.230370,0.621364,0.187749,0.996311,-0.007045,-0.064349
611958977,0.131093,0.543549,0.204698,0.994408,-0.027616,-0.069638
611979021,0.449248,0.237537,0.091954,0.987346,-0.033850,-0.091022
611999065,0.559556,-0.304946,-0.473347,0.990566,-0.002852,-0.107287
612019110,-0.195971,-0.342118,-0.365531,0.998158,0.020062,-0.119891
612039154,-0.489040,0.139821,0.272884,1.000597,0.001710,-0.107919
612059198,0.111051,0.383646,0.435200,0.991247,-0.018124,-0.101191
612079241,0.564617,0.260473,0.204391,0.994059,-0.012464,-0.092170
612099285,0.159741,0.282611,0.272734,0.994830,-0.003699,-0.074860
612119330,0.229389,0.244033,0.339455,0.992869,-0.007593,-0.062837
612139374,0.550417,0.000046,0.394318,0.996476,-0.018848,-0.051442
612159418,0.758877,-0.205993,0.176104,0.995837,-0.026565,-0.042159
612179462,1.188866,-0.312259,-0.007883,0.994680,-0.033115,-0.040948
612199506,1.490456,-0.273426,-0.059612,1.004887,-0.033458,-0.037309
612219551,2.868105,-0.365148,-0.574595,0.991393,-0.021647,-0.035283
612239595,3.356415,-0.944916,-0.948574,0.985007,0.007282,-0.081700
612259639,1.672272,-0.853197,-0.641108,0.994400,0.015696,-0.116007
612279685,0.327262,-1.083072,-1.019241,0.989963,0.024144,-0.171773
612299729,-2.414982,0.309388,1.619786,1.014822,-0.008718,-0.100156
612319773,-0.221274,0.162127,0.316870,0.984385,-0.030483,-0.087981
612339818,0.581231,-0.486420,-0.101540,0.987944,-0.007568,-0.096432
612359862,0.476206,-0.158511,-0.001254,1.001450,-0.011544,-0.092480
612379907,1.025838,0.092994,-0.058606,0.996479,-0.023439,-0.075854
612399950,1.589786,-0.143326,-0.152818,0.997015,-0.004879,-0.075349
612419993,1.819587,-0.227033,-0.126432,0.998857,-0.004147,-0.074474
612440038,1.866153,-0.196449,-0.089231,0.992587,-0.022805,-0.073882
612460082,1.871492,-0.128164,-0.219466,0.993619,-0.027003,-0.082426
612480126,1.860841,-0.082835,-0.387522,0.992510,-0.018007,-0.087414
612500170,1.427689,-0.029263,-0.241750,0.994120,-0.004179,-0.088373
612520215,1.497660,0.108072,-0.182433,0.994302,0.001198,-0.083210
612540259,1.153735,0.146100,-0.175886,0.995099,-0.001433,-0.079861
612560303,0.956643,0.108166,-0.080238,0.995956,-0.000428,-0.077971
612580348,0.514830,0.070160,0.012518,0.998117,-0.000882,-0.079641
612600392,0.193675,0.070071,0.011108,0.998533,-0.003425,-0.077102
612620437,-0.142477,0.092876,0.025197,0.997600,-0.007514,-0.073539
612640482,-0.271780,-0.006135,0.066242,0.995056,-0.010791,-0.073036
612660526,-0.372044,-0.135820,0.022771,0.992801,-0.014340,-0.071721
612680570,-0.325865,-0.059565,0.036904,0.993048,-0.012978,-0.073089
612700614,-0.104979,-0.196781,-0.005133,0.991727,-0.016350,-0.075512
612720659,0.252776,-0.128310,-0.096358,0.994302,-0.015981,-0.074558
612740702,0.475517,-0.158601,-0.039448,0.997940,-0.005977,-0.079629
612760746,0.713578,-0.127921,0.016962,0.996147,0.003204,-0.082156
612780790,0.134558,0.001738,0.127105,0.990844,0.001112,-0.077705
612800834,-0.424582,-0.135706,0.077280,0.997029,-0.005697,-0.074622
612820878,-0.737334,-0.013770,0.113509,0.997742,-0.011239,-0.071084
612840923,-0.937050,-0.059665,0.064047,0.994863,-0.010693,-0.068676
612860967,-0.829808,-0.128194,0.077477,0.991233,-0.012524,-0.072423
612881011,-0.722104,-0.112838,0.113543,0.996270,-0.007230,-0.066527
612901056,-1.085535,-0.220149,-0.108291,0.996340,-0.009225,-0.062894
612921100,-1.320425,-0.250417,0.010989,0.997035,-0.002577,-0.059558
612941146,-2.413238,-0.189675,0.039634,0.997259,0.005780,-0.066565
612961190,-3.633963,0.031328,0.177207,0.996877,0.011518,-0.062211
612981234,-4.387491,0.001088,0.367682,0.996151,0.007233,-0.067094
613001278,-5.188137,-0.059808,0.490401,0.995728,0.001222,-0.070526
613021323,-5.790492,0.565115,0.561141,0.989717,-0.014690,-0.060865
613041367,-5.403783,0.694345,0.377453,1.000013,-0.019061,-0.072199
613061411,-4.754133,0.648765,0.364999,0.988414,-0.022279,-0.082072
613081454,-2.976818,0.206719,0.148589,1.000381,-0.034331,-0.116752
613101499,-1.703616,0.222817,0.368356,0.991999,-0.034895,-0.120511
613121543,-0.860022,0.016633,0.092864,0.981360,-0.035262,-0.113158
613141587,0.280756,-0.082919,-0.242240,0.989448,-0.046024,-0.135428
613161631,2.043036,-0.326806,-0.451377,0.996612,-0.029130,-0.156638
613181675,2.152340,-0.030283,-0.760143,0.991721,0.002247,-0.157333
613201720,1.569682,-0.128715,-0.419927,0.987212,0.010287,-0.134303
613221764,0.729703,0.131283,0.053993,0.995397,-0.006957,-0.117802
613241808,0.517925,0.177247,0.180213,0.987411,-0.009122,-0.100596
613281898,0.087022,-0.036592,0.036457,0.991773,0.011791,-0.110236
613301942,-2.386719,0.090765,-0.618979,0.989200,0.048790,-0.123326
613321987,-7.572818,0.614897,-0.756977,0.984528,0.095669,-0.155187
613342031,-16.843937,1.352022,-0.594816,0.976266,0.133749,-0.169634
613362075,-30.970673,2.287583,-3.005962,0.997756,0.246334,-0.209948
613382119,-51.520309,4.379986,-2.086919,0.993817,0.349205,-0.165298
613402162,-81.255966,7.409462,-3.499145,1.005217,0.478806,-0.090181
613422207,-115.080765,9.133281,-2.244866,1.007430,0.605145,-0.052120
613442251,-138.709564,3.138921,8.396717,0.985117,0.595268,-0.063797
613462295,-160.335297,-3.500981,16.510469,1.038002,0.461150,-0.174316
613482339,-189.338043,-0.351193,17.574736,0.981144,0.338487,-0.145275
613502384,-211.986649,-1.557807,15.848057,0.978352,0.369068,-0.238506
613522428,-227.450256,-3.944963,23.361950,0.985103,0.264281,-0.289192
613542472,-239.607208,-5.431209,24.687881,0.929624,0.134104,-0.396236
613582561,-268.373779,-4.627181,19.856174,0.944085,0.158737,-0.524429
613602606,-282.975220,-5.330202,17.467335,0.989648,0.321726,-0.685426
613622651,-297.840271,-2.363791,23.217180,0.951445,0.441154,-0.664639
613642695,-308.374969,-10.369140,29.507921,0.950538,0.390035,-0.711198
613662739,-319.157501,-17.437979,32.201229,0.915730,0.267327,-0.830953
613682783,-329.569031,-17.055866,40.356735,0.964744,0.111370,-0.993205
613702828,-343.393341,3.576503,52.736767,0.895893,-0.278110,-0.899517
613722872,-347.111237,17.102703,46.222797,0.959456,-0.195360,-0.608163
613742915,-345.488678,8.767059,40.251087,0.996407,0.097801,-0.767323
613762959,-354.948120,20.340624,40.189789,0.915266,0.411767,-0.739772
613783003,-380.996368,17.984768,39.503372,0.771782,0.303142,-0.206098
613803048,-390.189148,-21.664448,2.645734,1.044328,0.798355,-1.289730
613823092,-421.604126,-5.752595,44.985794,0.888118,0.666849,-1.240280
613843136,-443.905945,-2.062538,44.932487,0.794271,0.323036,-1.283043
613863180,-458.577118,-7.974664,37.595402,0.805327,0.270944,-1.480495
613883225,-468.854584,-6.925002,37.905952,0.901060,0.122912,-1.571933
613903269,-474.544525,-0.709184,40.578480,0.832569,0.079898,-1.505697
613923313,-481.416687,-1.492445,45.345158,0.792222,0.154569,-1.533728
613943359,-480.759766,-6.759033,54.817699,0.952470,0.114635,-1.665661
613963403,-475.195496,-4.350442,57.590176,0.787505,-0.029099,-1.630838
613983448,-480.282928,1.380969,55.109928,0.861954,0.230423,-1.653417
614003492,-476.971100,2.149990,57.687046,0.759890,-0.037408,-1.521148
614023536,-478.410187,-0.543877,53.032089,0.866271,0.220352,-1.589566
614043581,-473.706848,2.964186,56.780434,0.831581,-0.107471,-1.589338
614063625,-470.635529,6.200373,55.265831,0.871292,-0.057296,-1.490244
614083668,-467.640625,3.386669,50.999004,0.806169,-0.043985,-1.523197
614103712,-459.718719,6.680202,53.890903,0.893465,-0.095944,-1.552195
614123756,-451.628632,13.857838,52.403336,0.835488,-0.207029,-1.300023
614143800,-438.924622,2.170880,49.230854,0.930749,-0.238229,-1.273273
614163844,-420.772766,17.598017,54.642410,0.957874,-0.474281,-1.127646
614183889,-402.156982,15.942905,38.912102,0.775211,-0.261555,-0.539734
614203933,-392.486877,-27.696686,27.208893,0.887712,-0.192887,-1.319910
614223977,-390.204010,38.132557,33.180859,0.832465,0.176444,-0.970542
614244022,-367.631317,-7.344669,48.864891,1.234331,-0.142945,-0.725047
614264066,-371.993103,9.175348,25.633951,0.649696,-0.003256,-0.626439
614284110,-351.852875,-0.568253,37.883980,0.960354,-0.155327,-1.126675
614304156,-336.904572,0.068313,37.889816,0.946067,-0.418638,-0.979661
614324200,-320.772278,11.387139,30.256800,0.976711,-0.248553,-0.816068
614344244,-295.917297,23.558905,34.379990,0.910203,-0.237642,-0.451388
614364288,-282.224152,3.959374,26.981289,0.979562,-0.348985,-0.505309
614384333,-245.957123,8.823568,26.941452,0.968671,-0.340209,-0.471823
614404377,-224.420959,-2.882701,14.511964,0.826936,-0.421526,-0.606618
614424420,-203.922791,2.946287,21.476448,0.988595,-0.484578,-0.694055
614444464,-161.863815,25.694139,26.109367,0.929875,-0.756456,-0.467112
614464508,-134.880478,-0.627717,16.916306,0.980752,-0.879510,-0.387255
614484553,-90.573120,0.561298,5.392776,0.965362,-0.752375,-0.347716
614504597,-66.140663,-2.242577,6.120085,0.981499,-0.657296,-0.197640
614524641,-37.910362,-2.209597,0.696944,0.984458,-0.504732,-0.093913
614544685,-11.023216,-2.164070,-2.468873,0.985677,-0.346629,0.005024
614564730,7.845561,-3.464562,-6.735457,0.969514,-0.193600,-0.077653
614584774,10.212624,-2.819586,-8.204846,1.033173,-0.053494,0.134810
614604818,19.787611,-2.812438,-2.995800,1.017781,-0.105901,0.143692
614624864,22.709801,-2.877388,-5.031423,1.016980,-0.110062,0.105677
614644908,21.325232,-2.057148,-9.332348,1.049298,0.097777,0.268271
614664952,18.493824,-0.914855,-6.117649,1.038611,0.138070,0.168713
614684997,18.886621,-0.840521,-0.455562,1.014924,0.033938,0.102387
614705041,22.097702,-0.107143,-0.069466,1.005628,-0.018251,0.022475
614725085,23.752382,2.481649,-1.256410,1.029069,-0.018802,-0.052270
614745130,25.290840,8.130926,-0.518001,1.044174,-0.053571,-0.179014
614765172,27.865955,10.361465,11.177156,0.860870,-0.362387,0.046031
614785217,50.415554,-9.413519,-16.833693,1.043904,-0.414075,-0.740686
614805261,18.442907,23.380182,-25.889561,1.048952,0.322130,0.069283
614825305,29.733387,1.865260,-1.553809,1.043686,0.206702,-0.125697
614845350,30.084066,-6.877289,-2.150465,1.020536,0.114610,-0.434973
614865394,6.752387,1.896234,-5.219086,1.081241,0.141496,-0.561688
614885438,-2.067205,8.811957,-2.709764,0.904998,0.277764,-0.419475
614905482,-1.769118,4.719859,7.170829,0.822097,0.112081,-0.311033
614925527,-3.794984,1.919400,2.626951,0.917413,0.035492,-0.332774
614945571,2.945008,2.853698,7.047362,0.938020,-0.092658,-0.332913
614965616,8.592043,-0.836749,2.334635,0.983598,-0.125916,-0.349611
614985661,10.029268,0.355042,0.163173,0.988285,-0.113590,-0.327925
615005705,11.951445,-0.131748,0.349098,0.971052,-0.110474,-0.248297
615025749,9.508780,-2.251641,-3.165004,0.885214,-0.006219,-0.123913
615045794,6.265180,-5.308490,-3.153020,0.970926,0.058421,-0.166785
615065838,3.530136,-4.234833,3.284730,0.994205,-0.046283,-0.183711
615085891,-1.555205,-4.611004,-0.558329,1.002141,-0.033086,-0.134849
615105925,-6.141578,-3.358694,-2.231038,1.033800,0.042588,-0.117540
615125969,-12.096148,-1.202536,-1.794090,1.011401,0.097941,-0.022842
615146013,-15.039611,-1.509779,0.770444,1.025839,0.050348,0.008582
615166058,-16.852312,-0.293075,-0.153614,0.924998,0.061570,0.111409
615186102,-17.128580,-3.217506,0.740250,0.962303,0.026400,0.101481
615206146,-17.288649,-2.240775,4.545547,1.023784,-0.065140,0.193450
615226191,-12.740849,-3.222461,7.883939,0.950581,-0.236975,0.365554
615246235,1.408315,-6.717161,4.426894,1.004839,-0.391366,0.365793
615266279,17.737408,-8.740083,-5.389189,0.886450,-0.330937,0.373884
615286323,25.211676,-24.313047,-30.446995,1.241140,0.190917,0.046798
615306369,34.410172,-16.516315,-15.024673,1.018135,0.242589,0.077112
615326413,36.177048,-15.869110,4.050155,1.112865,-0.008027,0.057213
615346458,34.999428,-15.176042,13.760058,1.053339,-0.023743,0.067513
615366502,33.366962,-17.180500,20.392979,1.003258,0.081626,0.174765
615386546,30.892927,-20.544960,22.385473,0.997213,0.114884,0.209944
615406590,23.349941,-20.107162,14.942423,1.070619,0.159254,0.186650
615426649,9.113595,-16.354063,5.088891,1.048083,0.184611,0.087500
615446677,-4.897415,-12.347341,2.627067,1.027416,-0.085990,-0.027711
615466722,-6.034434,-5.680555,2.092033,1.000204,-0.308750,-0.143163
615486766,-3.994528,5.796692,-1.363281,1.014286,-0.180809,-0.187915
615506810,-1.285099,17.698444,-5.864596,0.958733,-0.116517,-0.155666
615526855,10.260036,22.490738,-7.739844,1.007654,-0.415155,-0.078934
615546899,25.194019,20.369225,-13.937047,1.062140,-0.229764,-0.026158
615566943,39.143444,14.805583,-15.679284,0.962364,-0.207821,-0.036113
615586988,45.868355,11.712715,-9.411225,0.967567,-0.066487,-0.061582
615607032,50.933731,13.550703,-2.913421,0.987173,-0.146480,0.009477
615627076,59.823231,5.533166,-4.052610,0.999235,-0.249852,-0.016066
615647122,70.887398,4.587990,-8.650348,0.987238,-0.148580,-0.099000
615667166,77.889923,5.325238,-7.046429,0.990863,-0.140867,-0.061129
615687210,84.766983,5.448455,-7.287263,1.005316,-0.133585,-0.122753
615707254,89.710846,6.673284,-8.770376,1.058085,-0.071366,-0.222431
615727299,94.068535,12.412817,-5.611142,1.021921,-0.075902,-0.236876
615747343,73.638161,12.513600,0.714723,0.962871,-0.180284,0.259948
615767386,115.823570,-8.729990,-31.844486,0.929974,0.123052,-0.422095
615787430,75.788109,4.403713,-6.544091,0.942467,0.159707,-0.279940
615807475,63.228683,1.429456,-9.247725,1.042207,0.235939,-0.260979
615827519,53.025528,0.685063,-0.519404,0.997645,0.155822,-0.206890
615847563,43.103718,0.063193,-4.588738,1.003571,0.112466,-0.346263
615867607,32.022511,3.006022,-6.087557,1.061407,0.248546,-0.507152
615887652,26.476631,3.823181,1.788691,0.892626,0.135011,-0.367284
615907696,22.085571,2.370189,3.407023,0.935902,0.005249,-0.371529
615927740,18.382608,2.471925,4.968620,0.993362,-0.064052,-0.356054
615947784,13.302037,3.343763,6.852402,0.855292,-0.189775,-0.240200
615967830,12.253110,0.512860,2.213253,0.944555,-0.202107,-0.239796
615987874,9.553864,-0.003733,-3.287985,0.992374,-0.062149,-0.150883
616007919,11.308869,0.600267,-2.659244,0.973737,-0.034666,-0.129914
616027963,17.965685,-1.294780,-2.323618,0.921583,-0.097940,-0.114213
616048007,20.823891,-1.640398,-7.046854,1.054710,0.039865,-0.079221
616068051,29.986557,-1.841020,-2.646752,1.065947,0.034580,-0.094019
616088096,29.564981,-1.320426,-4.841043,0.915769,-0.008943,0.009649
616108139,25.470083,-1.841261,-5.485788,1.043909,0.132390,0.037095
616128183,19.004028,-3.068251,-1.497302,1.003824,0.114329,0.095089
616148227,13.076607,-3.167159,-0.747716,1.005372,0.034863,0.119069
616168271,2.508205,-3.934236,-1.663384,1.011618,0.038892,0.232973
616188315,-4.012672,-5.026228,1.401101,0.992222,-0.044779,0.158097
616208359,-6.217733,-5.787578,-1.281575,0.988414,-0.138038,-0.001724
616228404,-8.535583,-3.969386,-5.644128,1.028950,0.036392,0.037147
616248448,-8.470621,-2.497836,-2.097013,1.002744,0.015522,0.089825
616268492,-9.499359,-4.639969,-2.253314,0.927800,-0.007568,0.265979
616288536,-5.781674,-15.211124,-3.054404,0.932343,-0.037929,0.223922
616308582,-5.575588,-6.212491,-3.814300,1.202794,-0.045874,-0.175921
616328627,4.875606,-11.644080,-4.090711,1.049666,-0.059898,-0.003806
616348671,2.446729,0.552778,-5.650684,1.012598,-0.002105,-0.062547
616368715,2.587784,4.718924,-3.489477,1.020741,0.055485,-0.014488
616388759,1.053218,6.589441,-5.124123,1.028053,0.109381,-0.049833
616408804,-4.293652,6.734785,-1.024376,1.045433,0.023623,0.004570
616428848,-11.407586,5.781586,-3.710499,1.009056,0.052714,-0.028899
616448891,-16.132328,3.232522,-1.478369,0.979469,0.038490,-0.126592
616468935,-20.172676,2.340422,-1.205963,1.038219,-0.010129,-0.094652
616488979,-17.909252,1.307670,0.113734,1.065641,-0.175794,-0.171915
616509023,-17.253059,-0.220004,-7.955643,0.938152,-0.043761,-0.099244
616529068,-11.151428,-4.377740,-3.987305,0.904110,0.042895,-0.145831
616549112,-3.697755,-7.379964,-1.401586,0.917048,0.100551,-0.168297
616569157,4.128660,-7.722840,0.984652,0.896381,0.130856,-0.196862
616589201,10.227469,-7.846132,2.960477,0.841402,0.176720,-0.247017
616609245,13.554821,-2.265668,6.652211,0.798026,0.251343,-0.300142
616629289,21.461065,-8.195820,18.316940,1.289866,0.165502,-0.637998
616649335,-32.948280,49.934784,49.683846,1.117746,-0.517438,0.280653
616669379,37.126518,-9.167965,-21.100386,0.909708,-0.065149,0.179418
616689423,32.347713,-1.889631,2.358593,1.130424,-0.135560,-0.212030
616709468,-16.600191,11.984004,-3.561617,0.932825,0.066928,0.256056
616729512,-20.154417,1.023847,-6.925381,0.988416,0.214794,0.073671
616749556,-31.754559,1.319747,-6.158731,1.054315,0.371259,-0.089478
616769600,-43.392673,4.105175,0.041080,0.985589,0.401757,-0.123578
616789643,-44.531353,4.321558,14.466589,1.083927,0.283666,-0.210662
616809688,-54.173931,6.493558,25.344494,0.909808,-0.096560,0.216869
616829732,-32.884281,-7.283403,7.378992,1.067887,-0.150387,-0.211211
616849776,-53.889870,2.334120,16.236580,0.883799,-0.345120,-0.035453
616869820,-47.975422,0.254001,-3.792522,1.028844,-0.059040,-0.120192
616889865,-39.203300,-0.267536,3.550545,0.980906,-0.073788,-0.086216
616909909,-28.588869,-0.499682,4.086574,0.981890,-0.191519,-0.094571
616929953,-15.230461,-0.963473,6.274174,0.979044,-0.327915,-0.108638
616949997,-0.375073,-0.121650,2.819554,0.980482,-0.393513,-0.113910
616970042,14.220295,0.389446,-1.897400,0.982841,-0.275855,-0.097806
616990088,29.637480,0.132895,-2.570135,0.991190,-0.237345,-0.088571
617010132,45.131855,-0.589373,-3.609607,1.004277,-0.237952,-0.082439
617030176,61.827457,-0.366291,-4.637328,0.984421,-0.292887,-0.058498
617050220,80.718361,-1.535037,-4.717266,0.996673,-0.368197,-0.164609
617070265,95.551949,-1.736065,-7.648372,0.956657,-0.350307,-0.149342
617090309,108.992844,-2.523391,-10.198996,0.984385,-0.260590,-0.213961
617110374,119.294922,-3.323348,-11.275002,0.994269,-0.204472,-0.228929
617130396,128.660675,-2.515126,-12.177725,1.037421,-0.191508,-0.342795
617150440,133.662369,-1.665105,-14.256742,1.009080,-0.149063,-0.341474
617170484,136.323288,-0.986162,-14.272429,0.930671,-0.103838,-0.321240
617190529,140.307785,-2.287729,-10.784497,0.865528,-0.128641,-0.352768
617210573,141.575165,-3.492948,-14.656367,0.954238,-0.094644,-0.442119
617230617,145.774475,-3.071177,-10.765701,0.928966,-0.106762,-0.431592
617250662,147.949326,-4.227767,-13.501484,0.984677,-0.066800,-0.463563
617270706,151.307281,-2.598593,-11.363688,0.983858,-0.073051,-0.395728
617290750,155.637955,-4.340420,-13.673225,0.958993,-0.079432,-0.382584
617310794,159.900604,-5.688566,-13.835505,0.962362,-0.040957,-0.337045
617330840,165.175140,-5.607444,-15.596319,0.994096,0.008329,-0.375703
617350884,168.202881,-4.863497,-13.930578,0.958710,0.025159,-0.293973
617370928,169.851151,-7.190655,-15.299709,0.993882,0.045241,-0.336182
617390973,166.660889,-4.081986,-18.480488,1.015016,0.125993,-0.319701
617411017,162.276489,-6.682122,-18.570152,1.041035,0.218755,-0.358425
617431061,148.786133,3.329975,-17.814453,0.940203,0.319729,-0.225246
617451106,138.396072,-2.066245,-20.124201,1.032189,0.414142,-0.311576
617471148,118.995369,5.904624,-11.674343,0.919093,0.451487,-0.086397
617491193,102.783600,1.041164,-10.365470,1.012323,0.470205,-0.072314
617511237,72.514297,2.508847,-8.247073,0.998417,0.502040,0.040344
617531281,44.795681,1.387212,-2.394674,0.998444,0.460924,0.146167
617551326,23.839264,-3.080497,2.481808,1.026242,0.325924,0.124857
617571370,1.122345,-3.149336,4.978391,1.021939,0.195961,0.096824
617591414,-21.599621,-0.948601,0.338042,0.983562,0.225297,0.049317
617611458,-37.949463,-1.076274,-0.238328,1.004318,0.290908,-0.008698
617631502,-46.096790,-2.730031,7.199931,1.021552,0.165639,-0.022855
617651547,-49.247791,-3.424126,10.564491,0.994330,0.028026,-0.036323
617671592,-51.495781,-2.075264,7.547041,0.999611,-0.035499,-0.055734
617691637,-51.111656,-1.168419,4.227820,0.997964,-0.039837,-0.090195
617711681,-43.322723,-2.567459,7.963198,0.979486,-0.146256,-0.064194
617731725,-33.854824,-4.738722,3.927776,0.977338,-0.311499,0.020358
617771814,-8.448216,-6.843790,-6.209362,1.036805,-0.259737,-0.029762
617791857,2.661149,-1.825974,-9.360669,1.020936,-0.138032,-0.025790
617811901,15.152439,1.716902,-7.910805,1.014102,-0.106669,-0.032715
617831945,27.143152,2.925685,-4.036399,1.007461,-0.192413,-0.002503
617851990,36.672611,3.261894,-4.749689,0.992753,-0.172509,-0.001377
617872034,46.346653,1.345409,-4.151597,0.987781,-0.135030,-0.049830
617892078,51.127800,0.728770,-4.418072,0.985027,-0.041747,-0.078805
617912122,54.428345,-1.022354,-4.071290,0.994484,-0.006999,-0.088646
617932167,53.728439,-1.083048,-3.874112,0.987219,0.044209,-0.088063
617952211,51.252335,-1.738908,-3.785674,1.000678,0.049020,-0.105548
617972255,45.605492,-1.703852,-4.440364,0.989988,0.090020,-0.112878
617992301,39.405426,-2.565519,-3.942757,0.990605,0.098727,-0.128153
618012345,32.343277,-4.041758,-5.436077,0.977287,0.100967,-0.136735
618032390,25.373501,-5.678910,-7.312727,0.977076,0.098408,-0.143263
618052434,18.516411,-7.584988,-10.138208,0.979225,0.129202,-0.119386
618072478,7.065380,-6.518219,-12.150866,1.001139,0.229381,-0.074719
618092522,-8.550130,-2.931575,-11.569425,0.983910,0.231164,-0.029039
618112566,-30.164221,0.746347,-10.375195,1.025042,0.314345,0.006795
618132609,-39.495193,1.108201,-1.231920,0.992768,-0.091355,0.106513
618152653,-35.252476,-3.932087,-6.180353,1.124137,-0.021139,-0.063147
618172698,-69.816093,20.278158,0.370056,1.027705,0.691585,0.356524
618192742,-71.381767,2.595765,9.560273,0.956821,0.319170,0.066048
618212786,-87.743927,6.022526,10.294281,1.054791,0.357959,0.212099
618232830,-91.368919,-0.881631,20.657715,1.005509,0.251937,0.178710
618252875,-100.831123,-0.931742,16.615767,0.995354,0.200426,0.019110
618272919,-113.216492,3.638624,10.582531,1.013110,0.240243,-0.064048
618292963,-118.088417,5.778440,10.425416,0.980025,0.250023,-0.166532
618313008,-119.954636,8.090790,12.005144,1.048729,0.211748,-0.313973
618333053,-148.881882,16.938770,25.099545,0.919246,0.151516,0.258053
618353098,-80.310379,-24.471478,5.108863,0.907344,0.203305,-0.498550
618373142,-126.722473,3.926401,24.369015,1.030788,-0.002206,-0.343813
618393186,-123.355789,2.732948,12.264731,0.970922,0.012526,-0.140656
618413231,-113.839455,-1.435176,11.406221,1.045979,0.023812,-0.408749
618433275,-116.006828,2.389501,14.461558,0.983385,-0.081003,-0.260993
618453319,-107.807854,1.078043,9.989410,0.930727,-0.063698,-0.257400
618473362,-102.479408,0.627790,9.115729,0.943285,-0.064063,-0.216219
618493406,-95.040474,-0.011388,8.683135,0.980402,-0.072689,-0.185883
618513450,-86.751091,0.582403,7.458148,0.995380,-0.068622,-0.161454
618533495,-77.671005,0.953166,8.533920,0.984642,-0.111924,-0.152212
618553539,-69.373474,0.903939,6.088284,0.984743,-0.108705,-0.132066
618573583,-60.336987,0.234652,5.632432,1.015740,-0.098733,-0.178363
618593627,-52.571404,0.577319,4.624765,0.998190,-0.083748,-0.178089
618613672,-45.500832,0.350358,4.526528,0.976780,-0.090979,-0.185337
618633716,-39.598389,0.207127,4.519454,0.983730,-0.115186,-0.196127
618653760,-34.056293,0.113046,2.761674,0.987635,-0.092744,-0.215385
618673806,-29.594852,-0.245394,2.141395,0.971552,-0.054175,-0.203646
618693850,-26.042315,-0.351492,1.988758,0.959267,-0.049597,-0.176574
618713894,-22.810738,-0.831050,1.858876,0.978678,-0.049985,-0.154664
618733939,-20.304855,-0.838255,1.749143,0.990084,-0.039018,-0.135178
618753983,-18.416897,-1.052186,1.300583,0.998289,-0.018792,-0.125093
618774027,-20.829514,0.097976,-1.934614,0.967105,0.060381,-0.083208
618794072,-27.401636,2.035192,-0.545056,1.093127,0.166136,-0.058844
618814114,-22.533817,-2.891272,10.495200,0.928621,-0.091177,-0.050347
618834159,-29.381058,0.226771,-1.280054,0.964720,0.022841,-0.115240
618854203,-30.439604,-1.434873,1.978352,1.012373,0.059688,-0.153333
618874247,-33.713493,-1.367355,1.896467,1.005898,0.065312,-0.157316
618894291,-38.284111,0.227259,3.202479,0.967080,0.081444,-0.107571
618914336,-40.927841,-1.334399,3.778596,0.970428,0.057493,-0.125290
618934380,-41.889370,-2.215400,5.183290,1.020250,0.015914,-0.169462
618954424,-41.152496,-1.883187,7.024757,0.980712,-0.086373,-0.155637
618974469,-39.051559,-1.502142,3.528786,0.952442,-0.096807,-0.168391
618994513,-32.746307,-2.255206,3.408945,0.963395,-0.127330,-0.204747
619014559,-26.111965,-2.941541,2.457219,1.000694,-0.132666,-0.217992
619034603,-18.430262,-2.027343,1.441635,1.043636,-0.133794,-0.222354
619054647,-10.610797,-0.377569,2.102047,0.974441,-0.171229,-0.086307
619074692,-1.287932,-3.009713,-0.209698,1.037348,-0.126967,-0.162799
619094736,5.231314,-2.009063,0.027259,0.964764,-0.140911,-0.064678
619114780,11.672627,-1.873690,-1.481283,1.002053,-0.092296,-0.075108
619134824,17.704098,-2.634257,-1.519372,0.994512,-0.107910,-0.049627
619154867,23.341528,-2.875294,-0.955511,1.003770,-0.154556,0.007573
619174911,31.845089,-2.623358,-1.740312,1.011003,-0.168166,0.022179
619194955,42.807339,-3.326708,-3.945103,0.974688,-0.168309,-0.029217
619215000,44.396164,-1.513787,-14.259718,0.950809,0.110927,-0.193853
619235044,40.543171,-3.109428,-5.277353,1.033733,0.125934,-0.213175
619255088,36.653179,0.171779,0.212635,1.030225,-0.071915,0.059454
619275133,48.323296,-4.815417,-2.442474,0.999696,-0.142562,-0.101582
619295177,46.456696,0.457901,-5.648502,1.002242,-0.019154,-0.075142
619315221,49.365761,0.667875,-4.185001,1.011207,0.042373,-0.065775
619335266,50.324726,0.486655,-3.576406,0.979744,0.030330,-0.058954
619355311,51.627281,-1.271945,-2.938662,0.981964,-0.033237,-0.100281
619375355,52.442451,-1.684598,-3.510932,0.993906,-0.059723,-0.117779
619395400,54.986023,-2.570186,-4.466672,0.978073,-0.078236,-0.130278
619415444,57.988033,-2.906036,-5.035782,1.001710,-0.034913,-0.138469
619435488,58.997803,-1.175883,-5.068778,0.991925,-0.001222,-0.112668
619455533,60.258320,-0.329825,-5.157186,0.994172,0.003955,-0.119161
619475577,61.624146,0.059808,-4.902252,0.993295,-0.019226,-0.108940
619495620,62.740185,-0.170521,-5.756059,0.990990,-0.026857,-0.100809
619515664,62.993774,-0.552297,-6.095932,0.983945,-0.032145,-0.101769
619535708,63.637726,-1.391133,-6.396010,0.986892,-0.014150,-0.113923
619555752,64.560249,-1.315023,-6.544069,0.984999,-0.006889,-0.121891
619575797,66.076897,-0.522737,-6.843587,1.003383,-0.004065,-0.135009
619595855,67.569939,0.522913,-6.341138,0.993262,-0.020611,-0.120466
619615885,68.555191,1.422238,-6.432023,0.998810,-0.014029,-0.106773
619635930,69.091835,2.062675,-6.375795,0.993006,-0.002280,-0.094076
619655974,68.508087,1.994583,-6.096790,0.991529,0.029554,-0.044357
619676018,68.362511,-0.399273,-6.452785,1.001128,0.037926,-0.155193
619696064,65.911583,1.162681,-6.318730,0.987645,0.039675,-0.080256
619716108,64.922432,0.309564,-6.021604,0.993932,0.007995,-0.097649
619736152,63.597095,0.270770,-6.163870,0.994846,0.014158,-0.111836
619756197,62.326710,0.110251,-6.222740,0.985832,0.026083,-0.099810
619776241,61.709740,0.088521,-5.668153,0.995309,0.011083,-0.101944
619796285,61.177105,0.416388,-5.536646,0.991267,0.005988,-0.098599
619816344,60.865562,-0.002563,-5.414585,0.997983,0.007996,-0.100804
619836372,60.251675,-0.384032,-5.523666,0.981388,-0.007046,-0.105035
619856416,58.832436,-0.377407,-5.786524,0.999190,0.012580,-0.133512
619876461,56.654716,-0.278749,-5.714029,0.986887,0.010224,-0.117594
619896505,54.906872,-0.073070,-5.550894,0.994145,0.009966,-0.115357
619916549,54.908951,0.422522,-5.453246,1.004408,-0.003240,-0.080380
619936594,56.943817,0.233688,-4.964841,1.001895,-0.025769,-0.059965
619956638,60.823471,-0.054433,-4.779355,0.992932,-0.039175,-0.071137
619976683,64.280556,-0.176277,-5.136406,1.001765,-0.038843,-0.096888
619996727,66.515694,0.104620,-5.853160,0.994098,-0.018829,-0.090436
620016773,68.358543,-0.390185,-5.826139,0.985435,-0.019957,-0.104357
620036817,68.497711,-0.252781,-5.745242,0.986986,-0.006399,-0.103589
620056861,68.818054,-0.329992,-6.209688,0.995112,-0.006586,-0.113531
620076906,68.803032,-0.352823,-6.194037,0.993359,-0.001049,-0.118957
620096949,68.030701,-0.505449,-6.193826,0.983360,0.011223,-0.115629
620116994,66.348915,-0.498239,-6.176499,0.991078,0.032859,-0.131320
620157081,52.836029,-0.883209,-6.302725,0.998651,0.164211,-0.196573
620177125,43.317272,0.338506,-4.204085,0.999649,0.161385,-0.148473
620197169,38.068127,0.478700,-2.314597,1.005836,0.049480,-0.054620
620217214,35.731514,-0.286543,-3.390002,0.984075,0.115821,-0.075964
620237258,33.065872,-0.452560,-2.382544,1.001328,0.078468,-0.069116
620257302,31.055450,-0.055790,-1.947498,0.993946,0.047261,-0.065307
620277346,29.890556,-0.101185,-1.672576,0.993754,-0.009405,-0.059581
620317435,27.965874,-0.484431,-2.390456,0.992552,0.024767,-0.077682
620337479,25.766911,-0.088366,-2.234484,1.001936,0.034795,-0.073502
620357525,24.218042,0.071668,-2.059775,0.994101,0.020510,-0.068442
620377569,23.055717,-0.164893,-2.059358,0.997048,0.018415,-0.072120
620397613,21.873987,-0.271455,-1.867960,0.994885,0.029589,-0.079636
620417658,20.103802,-0.240972,-1.665601,0.993399,0.038955,-0.080353
620437702,18.119736,-0.225761,-1.451399,0.994660,0.042586,-0.085918
620457746,15.790666,-0.126940,-1.291913,0.995066,0.030325,-0.074829
620477791,13.871657,-0.127440,-1.285240,0.998873,0.025332,-0.071800
620497834,11.916492,-0.142920,-1.163194,0.995416,0.015602,-0.066823
620517878,10.749254,-0.188620,-1.018130,0.994794,0.013783,-0.065992
620537922,9.635631,-0.280015,-0.866312,0.995260,0.014058,-0.065456
620557966,8.175991,-0.135525,-0.830828,0.996778,0.018970,-0.067033
620578010,7.094498,-0.158128,-0.595807,0.995390,0.024698,-0.067654
620598055,5.787211,-0.181318,-0.585646,0.995997,0.027061,-0.069212
620618099,4.366459,-0.067213,-0.512608,0.996602,0.023502,-0.076115
620638143,3.048460,-0.051711,-0.250200,0.994097,0.021129,-0.078338
620658187,1.743851,0.024512,-0.095234,0.993473,0.024314,-0.077334
620678232,0.277092,0.123346,-0.028895,0.995532,0.019946,-0.079813
