Timestamp (us),Gyroscope X (deg/s),Gyroscope Y (deg/s),Gyroscope Z (deg/s),Accelerometer X (g),Accelerometer Y (g),Accelerometer Z (g)
6226506078,-0.097268,0.794518,-0.407383,0.988799,-0.058578,-0.130631
6226526130,0.266715,1.190217,-0.636243,0.985399,-0.055543,-0.127509
6226546183,0.596295,0.676865,-0.520905,0.989199,-0.055194,-0.122760
6226566235,0.435902,0.789642,-0.528816,0.987210,-0.052082,-0.127173
6226586287,0.337790,0.561975,-0.414313,0.985081,-0.054804,-0.120249
6226606369,0.172874,-0.022741,-0.268240,0.991458,-0.048104,-0.122826
6226626420,-0.096411,0.454970,-0.080318,0.993755,-0.049135,-0.125434
6226646472,-0.432198,0.709879,-0.240237,0.987876,-0.050754,-0.117004
6226666524,-0.663603,-0.225157,-0.199039,0.984725,-0.056179,-0.121054
6226686576,-0.546954,-0.747876,-0.144226,0.989488,-0.058118,-0.123906
6226706628,-0.493444,-0.980558,0.220347,0.992114,-0.049949,-0.124890
6226726680,-1.007643,-0.313697,0.559282,0.991246,-0.050379,-0.116712
6226746732,-1.042427,-0.779366,0.189530,0.985801,-0.058790,-0.132285
6226766783,-0.651760,0.488096,-0.269712,1.008867,-0.052336,-0.135650
6226786835,-1.050268,0.859545,0.055043,0.998014,-0.058717,-0.116295
6226806887,-0.592918,-0.934937,0.333909,0.984894,-0.058532,-0.133204
6226826938,-0.561253,0.363236,0.299109,0.983511,-0.050017,-0.134766
6226846989,-0.211039,0.552815,-0.095773,0.988444,-0.051346,-0.120356
6226867041,-0.321111,-0.290329,-0.054934,0.993417,-0.054521,-0.127191
6226887093,-0.659145,0.150032,0.299878,0.990308,-0.049635,-0.128088
6226907145,-0.743676,0.368914,0.185468,0.991280,-0.052625,-0.121321
6226927197,-0.400121,0.301153,-0.079682,0.993225,-0.060002,-0.122858
6226947249,-0.136907,0.865611,0.069860,0.994929,-0.060022,-0.118119
6226967301,-0.029035,0.525657,0.222573,0.987925,-0.052588,-0.124526
6226987352,0.405103,0.610320,-0.043134,0.990336,-0.056738,-0.129278
6227007405,0.450507,0.753751,-0.217960,0.995169,-0.058083,-0.128774
6227027456,0.372634,1.027500,-0.067297,0.993906,-0.054691,-0.132821
6227067560,-0.350349,0.864985,0.191200,0.993975,-0.050847,-0.130865
6227087612,0.590708,1.680358,-0.296992,0.992743,-0.058988,-0.134506
6227127715,1.447050,0.979170,-0.416139,0.993666,-0.049952,-0.125334
6227147767,0.575892,1.649270,-0.395406,0.990363,-0.045216,-0.124049
6227167819,0.172981,1.525412,-0.356944,0.990446,-0.052506,-0.119147
6227187871,0.431307,1.730726,-0.569952,0.992672,-0.057463,-0.123073
6227207923,0.651038,1.914601,-0.532768,0.987986,-0.054768,-0.118138
6227227975,0.586378,0.967395,-0.188428,0.985337,-0.055213,-0.117061
6227268080,-0.829729,0.658995,0.525552,0.998738,-0.038403,-0.125432
6227308184,-1.682556,0.819185,0.328246,0.980409,-0.069505,-0.124656
6227328235,-0.628599,2.140855,-0.646784,1.010840,-0.056224,-0.128230
6227348287,-0.335095,2.713390,-0.451807,0.996019,-0.056903,-0.103424
6227368339,0.207719,0.450279,0.063592,0.983060,-0.062840,-0.129168
6227388391,0.066602,1.366783,-0.121412,0.981002,-0.056044,-0.123717
6227408443,1.393399,1.197196,-0.697293,0.991194,-0.046735,-0.109575
6227428494,1.118322,1.325464,-0.538481,0.998181,-0.054258,-0.115800
6227448546,0.517503,1.080338,-0.264583,0.990682,-0.050250,-0.113900
6227468598,0.113486,1.139151,-0.150960,0.992570,-0.048917,-0.109903
6227488650,-0.223769,1.727599,-0.387817,0.994232,-0.055460,-0.110270
6227508702,-0.108146,1.484847,-0.477969,0.990838,-0.055869,-0.106563
6227528757,0.034040,1.814185,-0.168416,0.986558,-0.050025,-0.110206
6227548804,0.317091,1.527603,-0.159949,0.988209,-0.054556,-0.109687
6227568856,0.351375,0.836033,-0.309157,0.997680,-0.050631,-0.109847
6227588908,0.341200,1.307173,-0.227408,0.996985,-0.052792,-0.114735
6227608960,0.342307,1.034508,-0.127943,0.988675,-0.053408,-0.112060
6227629012,0.092833,0.728734,-0.202591,0.985030,-0.052608,-0.112731
6227649064,0.222378,0.774217,-0.346793,0.992759,-0.051008,-0.110059
6227669116,0.906568,0.908274,-0.264126,0.999618,-0.053391,-0.112528
6227689167,0.760411,1.203535,-0.242356,0.996835,-0.048229,-0.106882
6227709219,0.275528,0.707394,-0.164687,0.989881,-0.047101,-0.103218
6227729271,0.267399,0.873586,-0.286520,0.992179,-0.048674,-0.105546
6227749323,0.071474,0.432523,-0.201563,0.992434,-0.049621,-0.101898
6227769375,0.223536,0.463931,-0.194145,0.996923,-0.048311,-0.106335
6227789427,0.100622,0.728352,-0.270803,0.991073,-0.050182,-0.102810
6227829530,-0.579451,-0.368125,-0.084892,0.987515,-0.048830,-0.103033
6227849582,-0.989706,-0.725159,0.303009,0.992123,-0.047135,-0.112290
6227869634,-1.231580,0.322580,0.564747,0.998374,-0.046215,-0.106076
6227889686,-1.633471,-0.111229,0.808909,0.983339,-0.056190,-0.102432
6227909738,-1.114280,-0.291715,0.544086,1.002749,-0.051025,-0.119168
6227929789,-1.059300,1.042934,0.251467,0.999913,-0.052862,-0.100990
6227949841,-1.034793,-0.959350,0.531200,0.986686,-0.063015,-0.110054
6227969894,-0.374092,-0.553880,0.340098,0.985630,-0.056703,-0.119678
6227989946,-0.040099,-0.136997,-0.108614,0.989777,-0.051491,-0.098805
6228009998,0.954978,-1.073963,-0.439208,0.994652,-0.052215,-0.105760
6228030050,-0.137025,-0.540032,-0.114770,0.993367,-0.049041,-0.105988
6228050102,-0.821160,-0.794208,0.015188,0.986596,-0.049898,-0.101300
6228070153,-0.609277,-0.609808,0.143320,0.994495,-0.061659,-0.105380
6228090205,-0.205954,-0.591941,0.150696,0.994732,-0.057602,-0.101244
6228110257,-0.190917,-0.636383,0.310002,0.990665,-0.056072,-0.108016
6228130310,0.204379,-0.527565,0.301910,0.991928,-0.052699,-0.107410
6228150361,0.198526,-0.696877,-0.053716,0.998898,-0.051612,-0.115098
6228170413,-0.847130,-0.036807,-0.237519,0.996875,-0.056176,-0.109880
6228190464,-0.740062,-0.262316,0.005747,0.993540,-0.056995,-0.115892
6228210516,0.216960,0.131398,0.049529,0.991537,-0.057185,-0.116177
6228230568,0.841578,0.179347,-0.216118,0.993781,-0.052224,-0.112674
6228250619,1.084795,0.264300,-0.239233,0.994864,-0.051746,-0.111127
6228270670,0.416627,-0.104078,-0.177098,0.993477,-0.048904,-0.109170
6228290722,0.180732,-0.068287,-0.275665,0.992223,-0.051126,-0.111880
6228310774,0.164068,0.205093,-0.246285,0.990570,-0.050560,-0.110171
6228330826,0.423877,0.151823,-0.534193,0.993012,-0.049153,-0.107443
6228350878,0.082919,-0.184194,-0.495021,0.993470,-0.048797,-0.107990
6228370930,0.022798,-0.456441,-0.266693,0.989054,-0.054073,-0.114140
6228390982,-0.024577,-0.122626,-0.252669,0.989591,-0.053595,-0.112597
6228411034,-0.189852,-0.631476,-0.114437,0.990755,-0.051378,-0.110160
6228431085,0.168466,-0.922994,0.235075,0.992939,-0.044867,-0.112674
6228451137,-0.754301,-0.557279,0.196243,0.989121,-0.045264,-0.114423
6228471189,-1.210365,-0.629305,0.082966,0.987477,-0.043635,-0.114636
6228491241,-1.439515,-0.493866,0.128053,0.988221,-0.061982,-0.107965
6228511292,-0.652182,-0.961801,-0.249558,0.999764,-0.058034,-0.119653
6228531344,-0.916828,0.295613,-0.420535,1.009628,-0.045477,-0.113457
6228551396,-0.944540,-0.491159,0.044502,0.994617,-0.054065,-0.114464
6228571448,-0.548586,-0.443935,-0.099799,0.979839,-0.055919,-0.127544
6228591500,-0.503692,-0.194274,-0.282570,0.984575,-0.055317,-0.111522
6228611552,0.042828,-1.517929,-0.073569,0.993378,-0.046991,-0.108738
6228631604,-1.619218,-1.162233,0.266841,0.997613,-0.041670,-0.118585
6228651655,-3.132593,0.080532,0.270667,0.992935,-0.046843,-0.111106
6228671707,-4.060500,0.012725,0.112068,0.996402,-0.055864,-0.107069
6228691761,-4.665090,0.594190,0.246697,1.006912,-0.049318,-0.114796
6228711813,-7.009491,1.662350,1.107838,1.004545,-0.024070,-0.127919
6228731864,-13.000237,3.528542,3.475719,1.003416,0.009804,-0.154312
6228751916,-39.259701,9.319759,6.405593,1.018741,0.057641,-0.210924
6228771968,-66.561897,20.296333,14.032077,1.031560,0.126796,-0.192820
6228792020,-84.144211,20.715538,21.646061,1.106887,0.092309,-0.195341
6228812072,-80.788055,24.454273,23.541899,1.174196,-0.058199,-0.202846
6228832124,-64.071960,32.952301,18.732021,1.162122,-0.204654,-0.200691
6228852176,-40.513897,42.794319,17.681856,1.066445,-0.368873,-0.188836
6228872227,-13.634229,47.829292,18.958675,0.956937,-0.409572,-0.165238
6228892279,9.142299,45.306458,20.240238,0.880670,-0.341550,-0.174655
6228912331,36.323597,40.902695,17.267365,0.909670,-0.319175,-0.202974
6228932383,66.797142,43.817768,13.358646,0.968428,-0.351808,-0.225900
6228952435,100.712540,51.558628,5.498612,1.016519,-0.514130,-0.230679
6228972485,136.270798,67.186768,-5.337389,1.039658,-0.543832,-0.150647
6228992537,155.472366,72.579262,-11.592597,0.937865,-0.334017,-0.075454
6229012589,172.852173,74.888237,-19.761597,0.843941,-0.114670,-0.180904
6229032641,186.534378,81.038208,-30.170752,0.848848,0.107882,-0.133731
6229052693,187.874207,72.712418,-34.773273,0.819075,0.168791,-0.030857
6229072744,169.375275,61.406754,-38.691631,0.807559,0.366920,0.186163
6229092796,133.935776,34.513615,-37.373920,0.824511,0.487935,0.157618
6229112848,89.678406,29.162897,-32.216614,0.908282,0.620222,0.202214
6229132900,48.370033,14.191290,-18.470541,0.928993,0.609764,0.313361
6229152951,0.579433,-1.676903,-10.130485,0.923017,0.485357,0.197517
6229173003,-34.914551,-4.362792,-8.001852,1.042732,0.210002,0.021420
6229213107,-91.100723,-23.597466,15.647079,1.096570,0.552101,0.059649
6229233159,-125.159248,-28.707108,20.769670,0.874450,0.433650,0.063807
6229253211,-153.856934,-37.003002,7.560289,0.749996,0.275235,0.098477
6229273262,-182.712402,-51.746037,-5.763245,0.899020,0.349768,0.128753
6229293314,-235.176117,-62.562061,4.379988,1.210189,0.667321,-0.033581
6229313366,-305.022461,-56.570457,19.200659,1.093654,0.719852,-0.148621
6229333418,-354.056396,-66.737312,20.435177,0.888467,0.677927,-0.349719
6229353470,-395.462708,-80.148132,21.822206,0.800412,0.702034,-0.627910
6229373522,-449.246185,-85.259315,33.871300,0.915921,0.577155,-0.923475
6229393575,-500.754944,-92.009544,37.709652,0.785915,0.724597,-1.198484
6229413627,-548.347412,-133.986984,61.206573,0.705231,1.135989,-1.512188
6229433679,-611.009460,-222.885117,124.781242,1.099248,0.778620,-1.971315
6229453730,-561.764404,-243.278030,240.148102,0.541827,-0.321832,-2.690424
6229473783,-470.230957,-105.341743,268.190643,0.074899,-1.136018,-2.971416
6229493834,-422.371094,101.945740,145.067062,0.568931,-1.158176,-2.650833
6229513886,-377.143585,265.305573,100.969940,0.633323,-0.640294,-2.028177
6229533938,-354.277405,332.643433,79.660400,0.316616,-1.189971,-1.116578
6229553990,-416.782227,147.676346,10.919139,0.012461,-0.990839,1.260498
6229574042,-327.146759,-174.538223,-10.617558,0.408224,-0.165118,-0.568851
6229594093,-389.499786,-156.365906,-2.958123,0.810537,0.110235,-1.514838
6229614145,-367.336304,-106.450195,63.966206,0.811319,0.289500,-1.489006
6229634197,-364.869537,-68.318939,87.434814,0.592295,0.178279,-1.487999
6229654249,-382.496338,-36.304771,92.408569,0.610280,0.364817,-1.336709
6229674299,-375.109314,-46.944626,117.703308,0.677343,0.420907,-1.280988
6229694351,-395.791046,-76.233261,151.037659,0.678207,0.361918,-1.321107
6229714403,-395.611755,-107.763725,184.054062,0.528764,0.282420,-1.464026
6229734455,-400.725311,-109.448051,207.442749,0.356152,0.244556,-1.672119
6229754507,-385.871735,-76.864883,211.190521,0.302114,0.202993,-1.826434
6229774559,-384.914398,-14.542655,203.282806,0.358357,0.131549,-1.914002
6229794611,-371.373230,46.523243,191.396057,0.357186,0.034117,-1.852354
6229814662,-366.241913,91.091995,166.586334,0.391870,-0.063259,-1.670848
6229834714,-370.301514,101.834137,128.852982,0.501170,-0.138251,-1.492253
6229854766,-377.980804,84.882622,90.223503,0.521705,-0.067491,-1.407131
6229874818,-395.851532,57.401749,71.733269,0.561100,-0.019051,-1.386691
6229894870,-408.169861,43.182404,67.671211,0.585691,-0.094414,-1.438266
6229914922,-413.315491,41.631378,55.855190,0.661102,-0.134142,-1.483532
6229934974,-419.436890,52.955776,46.215775,0.811227,-0.133384,-1.510924
6229955026,-412.210907,78.056847,38.009682,0.821019,-0.305147,-1.509230
6229975077,-400.680267,109.137863,16.616831,0.829739,-0.446832,-1.417552
6229995129,-383.797333,138.826569,-14.360476,0.888176,-0.412508,-1.217135
6230015181,-400.003601,167.297302,-42.866417,0.982645,-0.247029,-0.852661
6230035233,-417.973389,159.664108,-58.408577,1.088527,-0.188329,-0.453243
6230055285,-405.951874,109.996490,-72.383987,1.144601,-0.303620,-0.257109
6230075336,-377.159210,84.059250,-85.916496,1.329904,-0.408422,-0.525237
6230095390,-374.976135,136.404526,-89.326271,1.445719,-0.468484,-0.703308
6230115442,-365.572052,185.342148,-82.063232,1.406556,-0.490646,-0.185651
6230135493,-331.555603,131.632706,-80.889648,1.264971,-0.241838,0.343958
6230155549,-321.065033,108.443909,-65.943504,1.297152,0.202232,-0.002043
6230175597,-311.633270,129.010162,-46.903534,1.193431,-0.120269,0.061392
6230195649,-260.345093,140.636353,-51.387669,1.027125,-0.857562,0.106554
6230215700,-180.725815,126.426605,-46.970787,0.730739,-1.062137,-0.100942
6230235752,-115.385620,145.727036,-51.736385,0.607191,-1.105407,0.312662
6230255804,-38.347172,110.867195,-66.293373,0.475533,-0.750452,0.184654
6230275856,26.508701,121.299408,-93.469551,0.520340,-0.735947,0.309679
6230295908,65.899757,103.316925,-120.538887,0.465534,-0.336618,0.517338
6230315960,51.153805,76.362869,-117.841255,0.704479,0.108679,0.838973
6230336012,16.200581,72.734467,-108.069977,1.011020,0.493511,0.763712
6230356063,-24.073261,60.628044,-93.705093,0.881799,0.535279,0.858468
6230376135,-74.100319,42.185001,-86.848434,0.894131,0.395843,1.094924
6230396165,-114.629059,19.869829,-77.867226,0.749686,0.275481,1.208263
6230416217,-143.844131,-5.527009,-75.670105,0.589718,0.211775,1.251036
6230436269,-168.833771,-36.090900,-78.564896,0.518272,0.186538,1.212377
6230456321,-183.282211,-68.510597,-83.291061,0.535789,-0.054088,1.283631
6230476373,-164.851944,-97.897713,-95.027008,0.741148,-0.459696,1.352310
6230496425,-141.841766,-129.524399,-116.276016,0.791673,-0.586515,1.396761
6230516476,-177.188873,-157.781174,-103.827721,0.615653,0.080434,1.153767
6230536528,-201.557098,-163.470688,-88.808403,0.677609,0.720360,0.762721
6230556580,-262.740112,-144.361237,-111.748856,0.674765,1.449540,-0.701981
6230576632,-199.560471,-53.331158,-93.478310,1.733700,0.395766,-0.573397
6230596684,-82.310738,-50.195656,62.156765,0.612460,-2.966531,0.156651
6230616736,-8.932828,-83.590172,-62.314018,-0.842981,-3.144491,-0.191698
6230636788,52.246162,-84.504829,-197.768250,0.587469,-0.998143,0.000092
6230656840,68.807533,-54.936970,-168.469574,1.164588,0.247117,0.101651
6230676892,75.772537,-27.918768,-135.081284,1.112087,0.085656,0.102693
6230696943,73.881203,2.363571,-133.305389,0.875758,-0.068333,0.293384
6230716995,60.425446,6.402949,-130.116272,0.922014,-0.425211,0.465434
6230737047,90.298882,24.194996,-127.868889,0.731148,-0.986209,0.599811
6230757099,78.654861,27.285568,-116.946609,0.626330,-0.013431,0.825563
6230777151,35.472324,37.638973,-101.430305,0.635716,0.353679,0.316608
6230797202,-10.491032,65.979706,-75.470566,0.610026,0.586713,0.383619
6230817256,-60.434570,74.902130,-53.573055,0.745619,0.328819,0.647041
6230837308,-107.248375,54.454216,-72.873184,1.041447,0.443734,0.465948
6230857360,-141.182297,42.708355,-106.342567,1.323906,0.549964,0.065920
6230877411,-163.035858,62.448200,-100.362503,1.161548,0.477930,0.877838
6230897463,-201.010223,8.822309,-100.376633,1.085672,0.418407,1.067574
6230917515,-233.223648,-11.448325,-93.610855,0.846514,0.544246,1.289997
6230937567,-223.070343,-50.146797,-95.034744,0.767913,0.235951,1.415702
6230957619,-190.060913,-97.201546,-108.897659,0.924655,-0.291306,1.300767
6230977671,-191.174484,-114.427216,-104.161690,0.643384,-0.219972,1.083097
6230997722,-228.302734,-129.383636,-67.195206,0.088843,0.049074,1.272452
6231017774,-251.151703,-180.066956,-76.099731,0.217073,1.160697,-0.255185
6231037826,-286.446442,-155.003281,-143.315704,1.162492,1.064119,-1.627719
6231057878,-102.136070,1.222754,52.603783,2.292495,-2.025788,-0.957569
6231077930,-115.713966,27.791365,-17.573210,-1.434276,-3.469801,0.918666
6231097980,22.514091,-141.871506,-204.775330,0.861540,-1.063646,0.245546
6231118032,-1.030090,-52.328995,-233.489151,2.044738,0.137207,-0.441325
6231138084,-23.610498,50.352562,-123.515762,1.362370,0.827658,-0.071530
6231158136,-34.573284,45.791424,-72.482254,0.897658,-0.137557,0.744128
6231178188,-39.384109,8.422606,-73.867592,0.926909,0.154196,0.274267
6231198240,-104.100647,68.953400,-40.372620,0.905691,0.289228,0.342807
6231218291,-148.382080,77.944221,-0.363622,1.123754,0.290830,1.073410
6231238343,-166.813812,58.691879,-32.781818,1.398007,-0.350364,0.626990
6231258395,-204.284973,70.081993,-38.045006,1.084597,-0.106790,-0.181470
6231278447,-213.834183,150.362091,-11.844996,0.533363,-0.244028,0.066597
6231298499,-189.062119,102.633476,-0.176769,0.022687,-0.189517,0.982187
6231318551,-159.992111,33.174538,28.170330,0.656628,-0.171839,0.153248
6231338602,-131.267288,84.898132,38.228790,0.825911,-0.670736,0.854944
6231358654,-48.785652,20.819899,38.754185,0.827980,-1.282285,0.822956
6231378706,13.139641,-5.163838,11.264949,0.399775,-1.383588,1.246977
6231398758,41.998917,-65.254013,-15.140236,0.519162,-0.749976,1.201683
6231418810,43.297562,-92.891296,-31.370531,1.023979,-0.227986,1.106064
6231438862,48.654457,-114.335915,-12.631541,1.329147,0.031715,1.016609
6231458914,50.513119,-114.963058,26.613813,1.200078,0.122310,1.107621
6231478965,52.199432,-108.365524,59.634739,0.824552,-0.090021,1.325357
6231499017,87.245834,-121.952286,94.509750,0.567727,-0.807733,0.550872
6231519071,220.902466,-146.377121,127.538322,0.423652,-1.807689,-0.576451
6231539122,395.578644,-140.752792,191.462082,-0.342436,-2.422954,-1.166328
6231559174,237.408844,-103.283798,-79.369904,1.122985,1.382289,1.048321
6231579226,219.021637,-160.219955,-109.195107,0.266019,2.723462,-0.707172
6231599278,79.877296,-6.040189,79.591644,1.450487,2.523737,0.705431
6231619330,92.980347,-121.193359,204.657715,0.824381,0.362036,0.709016
6231639381,42.552792,-72.825653,163.400436,1.006965,1.056091,0.055089
6231659433,-41.940731,-35.749702,180.749023,0.801963,0.900633,0.469868
6231679485,-63.231976,-55.635578,172.283508,0.867460,0.477525,0.083426
6231699537,-103.590500,-10.534026,164.661789,0.837188,0.181055,0.030113
6231719589,-100.519081,-4.933340,161.177841,0.720512,-0.056127,0.223706
6231739641,-67.883438,-1.862585,156.843414,0.895946,-0.434464,0.189340
6231759693,-31.671396,2.025525,148.419846,1.217328,-0.532846,0.498583
6231779745,-8.151959,3.144885,137.873001,0.846694,-0.323291,0.168981
6231799814,0.588544,30.035259,96.615952,0.776945,-0.307227,0.146580
6231819847,37.394768,29.144300,49.866711,0.722625,-0.453298,0.201507
6231839899,88.762093,33.952999,12.968103,0.815839,-0.724529,0.236390
6231859951,144.192307,32.114349,-7.295943,1.220813,-0.951380,0.424201
6231880003,179.915680,28.446705,14.395163,1.386556,-1.156009,0.199079
6231900054,194.909302,19.315895,44.744789,1.006395,-0.718374,0.416167
6231920106,197.110138,-10.858438,70.449707,0.653572,-0.364085,0.754653
6231940158,195.344193,-60.580177,69.333229,0.523784,0.118465,0.788410
6231960210,195.393723,-92.374947,70.390137,0.639565,-0.416238,0.635281
6231980262,218.602646,-105.024269,53.410854,0.750414,-0.722788,0.292254
6232000314,331.168488,-107.655075,49.242393,1.162284,-1.326439,-0.678756
6232020365,400.757874,-68.726463,32.273758,1.786965,-0.821796,-1.073516
6232040417,210.611740,77.585426,-41.596359,0.923710,3.418531,1.320080
6232060469,126.653168,-72.469292,107.755356,0.417652,2.009885,0.266538
6232080521,39.889477,-1.479271,95.407204,0.913014,0.854262,0.693041
6232100573,22.062180,-53.494621,110.705139,0.777849,0.298707,0.249634
6232140677,-10.310685,-44.204319,104.265060,1.074016,0.159485,0.355136
6232160729,-33.240311,-21.258200,96.198227,1.028709,0.128630,0.339085
6232180780,-34.338310,-23.160898,85.806839,1.011799,0.034940,0.346866
6232200832,-36.556530,-7.390249,74.142311,1.202198,-0.119287,0.276021
6232220884,-18.505657,8.680071,56.512600,1.077878,-0.425774,0.299590
6232240938,6.194886,13.441090,38.388992,1.003291,-0.521983,0.349980
6232260989,38.328732,17.576298,22.856945,1.029515,-0.615684,0.433319
6232281041,93.100853,12.469286,-4.527409,0.915921,-0.486726,0.338228
6232301093,119.299316,21.034620,-26.454128,0.763282,-0.219867,0.458660
6232321145,155.156860,2.871162,-37.719475,1.059023,-0.085211,0.624335
6232341197,164.285294,14.350651,-57.778255,0.981766,-0.267288,0.240090
6232361248,178.952759,23.302570,-57.139706,0.892314,-0.158469,0.686439
6232381300,178.216660,12.380998,-36.767475,1.195739,0.293337,0.471964
6232401352,148.969940,14.389760,-37.021839,1.115586,0.426299,0.812945
6232421404,115.964737,-9.097906,-44.705357,0.807526,0.640567,0.785924
6232441455,59.463150,-1.769322,-50.690624,0.761434,0.733707,1.074986
6232461507,25.375843,-19.618067,-65.911530,0.682866,0.606894,1.446433
6232481559,-3.452404,-54.725990,-79.869736,0.620862,0.643252,1.150470
6232501611,-52.665283,-70.824310,-59.667324,0.302969,0.426717,1.025302
6232521661,-78.666046,-119.256958,-31.252131,0.059386,0.325150,0.763367
6232541713,-126.166382,-150.355560,-11.460943,0.288413,0.388957,0.665915
6232561765,-167.493759,-169.527405,-14.768206,0.543453,0.856339,0.672584
6232581817,-206.140961,-167.801987,0.268455,1.021085,0.878049,0.176854
6232601869,-203.957779,-107.238777,-1.365845,1.558236,-0.331393,-0.044276
6232621920,-146.353165,-54.816860,-34.262276,0.891093,-1.113412,0.485358
6232641972,-68.068489,-114.987076,-84.740112,0.123070,-0.795826,0.428159
6232662024,-27.116817,-158.229431,-110.169273,0.451154,-0.202984,-0.082058
6232682076,-26.590900,-139.904327,-131.271774,0.654256,0.209872,-0.176917
6232702128,-18.548475,-130.936508,-123.688637,0.822522,0.319426,-0.025305
6232722179,-22.630907,-124.126137,-118.193199,0.899245,0.014958,-0.037779
6232742232,-32.744019,-109.325935,-121.514763,1.052470,-0.036797,-0.008010
6232762283,-30.457024,-92.373047,-126.181992,1.142326,-0.182069,-0.085306
6232782335,-18.148821,-72.872070,-128.443802,1.019389,-0.302666,-0.125953
6232802387,-7.302215,-65.861153,-133.049454,0.970421,-0.282610,-0.056188
6232822439,2.039662,-74.875275,-131.142075,0.966326,-0.081923,-0.235401
6232842491,3.203433,-61.890194,-123.456711,0.987442,-0.020823,-0.337749
6232862543,-13.700441,-36.364407,-117.627167,1.140309,0.020993,-0.091488
6232882594,-28.181921,-40.941078,-107.306519,1.163273,0.169308,0.022654
6232902646,-51.860958,-34.241432,-94.277924,1.182006,0.244779,-0.084603
6232922698,-81.447098,-20.399359,-86.152725,0.992284,0.327925,-0.016111
6232942751,-90.300919,-32.129238,-74.733185,1.030984,0.137144,0.055807
6232962803,-95.522087,-28.246906,-67.688728,1.122759,-0.021643,0.030939
6232982855,-94.676971,-19.394251,-61.269833,1.137044,0.082686,0.139167
6233002907,-86.985992,-22.212902,-53.971863,1.217697,0.232393,0.131371
6233022959,-78.650696,-50.630722,-58.083172,0.915873,0.548457,-0.232602
6233043011,-91.799294,-41.661480,-65.536858,1.071682,0.500780,-0.318922
6233063062,-99.765495,-31.148222,-75.483566,1.253311,0.629303,-0.030291
6233083114,-110.062630,-35.373566,-67.947075,1.244535,0.925653,-0.049688
6233103166,-152.501465,-22.813242,-43.980515,1.225886,0.974979,-0.143275
6233123218,-189.159088,-13.730184,-23.619165,1.332688,0.792951,-0.060523
6233143270,-192.756500,-6.289051,-18.520172,1.282410,0.485006,0.085373
6233163322,-197.030502,-13.289636,2.484002,0.885696,0.539448,0.160818
6233183374,-215.146225,-30.425703,2.966236,0.536377,0.520379,0.336877
6233203425,-210.322052,-85.449341,-19.757040,0.318428,0.784081,0.200679
6233223476,-216.485962,-120.286194,-11.949777,0.500793,0.868724,-0.251612
6233243528,-237.273972,-136.224442,4.187392,0.727960,0.945355,-0.520270
6233263580,-259.242737,-132.790802,-5.138865,1.456154,0.573315,-0.701932
6233283631,-275.359802,-45.306427,-26.072182,1.745072,-0.167458,-0.288146
6233303683,-225.590317,-24.221132,-32.611950,1.387810,-1.027297,0.464980
6233323735,-144.244843,-67.528931,-9.458756,1.176659,-1.046877,0.072724
6233343787,-102.138985,-58.412872,0.741840,0.498280,-1.127701,0.116292
6233363839,-38.140465,-114.004845,-26.562731,0.487812,-0.539230,0.379516
6233383891,-17.625332,-134.434952,-34.662048,0.899416,0.064382,0.281473
6233403943,-30.499144,-140.203888,-40.420406,1.198703,0.504356,0.187619
6233423994,-58.494034,-122.929550,-30.215801,1.254546,0.527509,-0.096813
6233444046,-81.156250,-93.521179,-27.520147,0.933639,0.243301,0.092605
6233464098,-74.212486,-111.745819,-40.169685,0.768833,0.251878,0.178132
6233484150,-71.956772,-117.473450,-47.828224,1.070975,0.223817,-0.091237
6233504202,-74.052147,-85.684761,-52.522301,1.283525,-0.107787,-0.243940
6233524254,-71.429131,-64.660652,-59.606205,1.036806,-0.089406,-0.140022
6233544305,-77.244331,-62.625229,-66.644455,0.876126,0.329034,0.047853
6233564357,-85.531021,-68.346184,-74.352379,1.033172,0.527179,0.016408
6233584409,-98.735802,-49.930424,-69.401520,1.272913,0.326677,-0.019379
6233604461,-117.512085,-29.324720,-62.940464,1.238498,0.231987,0.035731
6233624513,-127.803917,-20.594364,-61.928627,1.132788,0.157321,0.174718
6233644566,-130.588745,-23.606960,-62.440216,1.179083,0.111295,0.138316
6233664618,-124.266945,-26.278637,-67.662712,1.232285,0.197084,0.195412
6233684670,-114.963577,-33.990967,-65.145912,0.955852,0.189702,-0.108472
6233704722,-117.220169,-8.187233,-72.487099,0.995315,0.198177,0.200263
6233724773,-94.860352,-28.807119,-75.303886,1.077729,0.249679,0.314402
6233744825,-94.107536,-16.844135,-77.528114,1.021823,0.322991,0.188191
6233764877,-97.592888,-12.572479,-74.328125,0.924383,0.612867,0.289480
6233784929,-124.750137,-17.653397,-68.200058,1.083753,0.932907,0.127495
6233804981,-163.086548,5.736146,-50.320251,1.257269,0.891528,0.283162
6233825033,-201.071548,2.311342,-46.020615,1.313852,1.132776,0.416734
6233845085,-240.179932,-1.503269,-42.173981,1.294190,1.186094,0.322912
6233865136,-261.347504,5.296790,-41.037998,1.125172,0.776771,0.526761
6233885188,-245.010605,-25.311268,-44.424572,0.856864,0.349070,0.539715
6233905240,-235.808701,-32.398945,-51.042534,0.706077,0.046825,0.597311
6233925314,-210.394135,-56.892044,-68.004532,0.506159,-0.315492,0.916910
6233945342,-192.735840,-102.191887,-74.228531,0.425703,0.006340,0.873171
6233965394,-205.832901,-145.073776,-66.110695,0.534104,0.985063,0.679026
6233985446,-267.679962,-174.453110,-74.059395,1.269986,1.902152,-0.508779
6234005498,-280.579987,-11.292570,-51.357273,2.679335,-0.109537,-1.016994
6234025550,-211.702271,67.530327,-37.715302,-0.555113,-2.727588,1.735451
6234065653,-27.532484,-69.905533,-102.303352,0.909759,-0.535798,0.076550
6234085705,12.561916,-106.898048,-84.667374,0.674585,-0.201103,0.137082
6234105757,6.658955,-70.102615,-83.640091,0.956989,-0.044708,0.172356
6234125809,1.760714,-55.929733,-97.882599,1.199649,0.147092,0.639821
6234145861,-12.203740,-50.134193,-104.552017,1.360063,0.431049,0.348932
6234165913,-44.793552,-2.775848,-82.755127,1.308575,0.372262,0.452492
6234185964,-57.119804,8.349024,-70.776489,0.947057,0.130254,0.721475
6234206016,-55.032623,-1.044841,-59.020203,0.905890,-0.062354,0.562183
6234226068,-48.217346,18.454056,-47.569763,0.886372,-0.367230,0.638099
6234246120,-30.924322,17.800922,-60.647266,1.301700,0.008597,0.966878
6234266172,-47.889679,18.373154,-53.481186,1.284882,0.488541,0.454977
6234286224,-84.954582,58.160267,-14.262941,0.654107,0.386559,0.102234
6234306276,-99.826080,67.128357,-17.729485,0.426025,0.101659,0.739742
6234326328,-130.521683,36.538582,-12.838584,0.989395,0.489537,0.660087
6234346380,-152.439575,51.112659,-7.325754,1.233521,0.553894,0.848113
6234366433,-175.068604,41.343887,-18.425238,1.000581,0.386674,0.995994
6234386485,-176.466034,8.150876,-23.274588,0.658964,0.106048,0.999637
6234406536,-172.444809,-33.808029,-22.532675,0.447244,-0.122667,1.119660
6234426588,-156.242508,-69.409523,-23.082619,0.490092,-0.371361,1.290433
6234446640,-107.689766,-103.008408,-45.265976,0.807574,-0.529869,1.703953
6234466692,-77.296761,-141.915298,-66.901741,1.023177,-0.295884,1.276707
6234486744,-105.813644,-134.715744,-44.278214,0.545216,0.121695,1.018553
6234506795,-78.520180,-142.879135,-27.290359,0.438432,0.227370,0.582145
6234526847,-56.453312,-154.445618,-19.588327,0.256268,0.670434,-0.600138
6234546899,-45.328102,-68.116669,0.581069,1.653637,-0.027171,-0.669770
6234566951,-34.996593,6.288800,38.822166,0.100050,-2.437834,0.696115
6234587003,33.735157,-110.471107,-49.821999,0.028146,-0.385616,0.289138
6234607055,-22.355564,-79.167923,-43.081585,1.139102,0.155065,0.296210
6234627106,-56.247391,-64.309891,-43.893963,1.239810,0.723683,0.328242
6234647162,-109.703354,-21.989023,-26.377270,1.212142,0.444798,0.444152
6234667209,-151.228180,-23.854240,-13.123443,1.302102,0.351265,0.369802
6234687261,-242.775024,7.622913,22.883564,1.095642,0.560699,0.089353
6234707313,-276.776031,45.941002,30.812284,0.632582,-0.004816,-0.058163
6234727365,-227.659302,64.153137,23.198847,0.473774,-0.465344,0.140353
6234747416,-153.051971,67.323425,18.819056,0.646699,-1.093259,0.394143
6234767468,-48.196106,14.770753,-13.087982,0.693139,-1.326085,0.364085
6234787520,-22.872488,8.631089,-12.537586,0.976596,-0.811316,0.274070
6234807572,-10.696046,26.508650,7.071521,0.998250,-0.799390,0.617447
6234827624,45.689556,0.381386,17.722031,0.945930,-0.825438,0.799964
6234867728,112.140068,-33.601219,45.858009,1.128645,-0.352192,0.948923
6234887779,111.627258,-65.292358,31.514318,0.636351,-0.108963,1.076581
6234907831,118.382095,-111.100540,18.626411,0.609289,0.085409,0.852927
6234927883,114.032028,-108.949165,24.767056,0.546721,0.068732,1.005998
6234947935,114.535408,-133.795364,46.035686,0.452444,-0.242482,0.743640
6234967987,140.350204,-141.085800,56.154518,0.473173,-0.745167,0.320267
6234988039,233.901245,-195.529083,60.993156,0.851406,-1.364854,-0.674244
6235008090,349.185486,-176.854462,14.997851,0.367569,-1.142900,-1.558370
6235028142,278.101196,-23.090115,-146.112778,0.347053,2.203851,0.238254
6235048194,185.965332,-152.264633,73.169083,1.466587,2.079919,0.901994
6235068246,134.430466,-104.584717,90.984962,1.451234,0.139749,0.135735
6235088299,107.939331,-116.826912,76.916824,1.139623,0.517814,0.772522
6235108351,95.147026,-120.709290,98.011757,1.267432,0.364660,-0.005406
6235128403,63.147285,-98.682739,123.078888,0.950601,0.301571,0.156033
6235148455,56.315041,-112.604012,140.007599,0.848547,0.300406,-0.069798
6235168507,36.253391,-104.003624,160.523956,0.884960,0.208721,-0.108195
6235188559,41.954601,-99.475533,169.548065,0.892080,0.155680,-0.114347
6235208610,37.444664,-90.797607,171.891953,0.916803,0.191856,-0.104320
6235228662,29.636183,-84.515167,171.009033,0.912006,0.080651,-0.148055
6235248714,29.775734,-73.876541,170.078003,0.825819,0.115064,-0.174603
6235268766,28.874580,-62.710220,173.223007,0.743275,0.141707,-0.243387
6235288818,54.264637,-40.451603,169.734467,0.779014,-0.098699,-0.216994
6235308870,62.943119,-48.671288,152.752563,0.729662,-0.373001,-0.152368
6235328921,93.827339,-60.358059,124.019882,0.887315,-0.651489,-0.375784
6235348977,131.785583,-42.736172,105.468369,1.121369,-0.658481,-0.315786
6235369024,157.030594,-35.867367,93.536896,1.299715,-0.548721,-0.266260
6235389075,170.698593,-22.787506,78.139641,1.273965,-0.405930,-0.283909
6235409127,181.037262,-4.983124,66.562241,1.168555,-0.218395,-0.062615
6235429179,165.000854,-15.113125,70.710556,1.432572,-0.605877,-0.133965
6235449231,158.368668,-1.930805,69.651871,1.225004,-0.646066,-0.334099
6235469283,170.345200,1.798166,73.090828,0.673259,-0.459259,-0.114234
6235489335,172.422394,-6.269443,71.329269,0.627044,-0.244524,0.010827
6235509387,175.443909,-15.077394,56.003601,0.942578,-0.502876,0.029051
6235529439,185.300293,-0.549230,31.098690,1.388027,-0.652978,0.023586
6235549490,201.876160,31.006565,12.332334,1.576483,-0.446546,-0.113612
6235569542,222.315735,61.316139,0.170194,1.262190,-0.087507,0.150385
6235589594,210.797302,57.325050,-15.144253,1.049325,0.014781,0.424890
6235609646,208.997833,61.565723,-28.140987,1.148580,0.101274,0.339161
6235629697,197.458572,67.459229,-33.833893,0.860869,0.051529,0.425037
6235649749,180.221130,70.792496,-38.727772,0.677684,0.030607,0.534587
6235669801,166.851181,57.930443,-47.947834,0.797997,0.002177,0.599661
6235689853,154.357834,45.517433,-61.482182,0.992091,-0.062041,0.615595
6235709905,140.759705,33.239063,-83.770302,1.137046,-0.053099,0.921709
6235729957,123.722366,13.601640,-104.129539,1.217504,0.045962,0.987933
6235750008,105.485725,-6.325706,-122.281876,0.894697,-0.117483,1.114774
6235770062,89.161690,-33.400162,-121.379494,0.802221,-0.036005,1.204333
6235790114,65.300377,-68.577667,-101.158112,1.031602,0.214357,1.108814
6235810165,37.357964,-86.378151,-93.561096,1.109920,0.242511,0.891466
6235830217,-10.556507,-63.366405,-91.857712,0.736695,0.295230,1.206215
6235850269,-55.689541,-97.545563,-89.799072,0.221054,0.310167,1.262825
6235870321,-102.263306,-131.646423,-87.080833,0.141525,0.629634,0.829134
6235890373,-163.282471,-158.471878,-66.678162,0.035952,1.001427,0.737469
6235910425,-233.661850,-173.591721,-40.347904,0.282281,1.262861,0.031562
6235930476,-246.758041,-144.015884,-22.308792,0.799691,0.328425,-0.193980
6235950528,-159.748444,-122.403503,-42.785965,1.269029,-1.334663,0.726171
6235970580,-101.922028,-150.467010,-64.794594,0.500280,-1.398013,0.485427
6235990632,-89.870262,-158.036270,-113.171959,0.682163,-0.416371,0.600230
6236010684,-76.592949,-166.860153,-111.660728,0.706675,0.170791,0.184628
6236030736,-68.402397,-174.887131,-110.923523,0.485853,0.428586,0.214887
6236050786,-48.327637,-210.054794,-93.749138,0.352583,0.189134,0.130010
6236070838,-44.621559,-232.625900,-76.157677,0.613188,0.019609,-0.043496
6236090890,-52.041386,-229.210632,-68.671257,0.875445,-0.006893,-0.197015
6236110942,-69.996185,-204.815659,-54.523323,0.892742,0.127266,-0.259701
6236130993,-86.435638,-179.899124,-32.715397,0.739166,0.106337,-0.193475
6236151045,-89.232880,-175.649689,-21.762308,0.628996,0.012787,-0.155093
6236171097,-94.629753,-174.619934,-17.822910,0.557412,-0.059435,-0.271188
6236191149,-112.868500,-163.754852,-17.967649,0.610779,-0.016876,-0.391724
6236211201,-107.777206,-158.327759,-22.179298,0.832618,0.137511,-0.443560
6236231252,-100.478874,-170.127625,-31.258677,0.946108,0.135720,-0.580698
6236251304,-105.168724,-173.641449,-47.789787,0.989324,-0.004811,-0.822062
6236271356,-133.063019,-141.583054,-49.194065,1.131893,0.217473,-0.961951
6236291408,-158.987564,-78.814331,-29.612627,1.264143,0.398554,-0.969289
6236311460,-176.835037,-28.784559,-0.410312,1.160603,0.259882,-0.795374
6236331512,-183.395813,-76.871155,9.860434,0.817452,0.091241,-0.787948
6236351564,-178.207748,-127.015320,-3.982086,0.518159,0.448157,-0.982150
6236371616,-185.479736,-127.476540,9.793015,0.677773,0.416190,-1.165507
6236391668,-195.371323,-84.348953,22.213778,0.850185,0.255731,-1.135163
6236411719,-197.445374,-46.246731,20.650787,0.954398,0.101062,-0.904332
6236431771,-192.826233,-45.958767,20.595123,0.845229,0.078792,-0.683726
6236451823,-184.168411,-67.401009,25.531670,0.791127,0.090153,-0.713415
6236471876,-181.522903,-75.792526,28.371452,0.887257,0.383464,-0.866906
6236491929,-203.429565,-70.049149,34.831764,0.902048,0.448987,-1.027788
6236511980,-219.561264,-49.674290,40.474159,0.829913,0.359065,-1.072338
6236532032,-225.114639,-27.024517,39.587112,0.768616,0.215961,-0.948331
6236552084,-227.234695,-21.993341,40.237465,0.797765,0.062936,-0.743590
6236572136,-236.336411,-34.992771,52.836197,0.825712,0.073076,-0.539655
6236592188,-225.302963,-58.175846,54.958542,0.862302,0.163390,-0.372577
6236612240,-223.402588,-91.449921,55.474213,1.021085,0.350033,-0.414510
6236632291,-214.100174,-113.070259,73.560631,1.093072,0.291278,-0.519473
6236652343,-197.543076,-121.552505,83.664078,1.098655,0.011394,-0.632253
6236672395,-182.872147,-119.710022,84.933434,1.226033,-0.102413,-0.687745
6236692447,-160.458725,-116.763100,83.581535,1.297936,-0.100389,-0.684259
6236712499,-147.651245,-114.287743,86.008949,1.264480,-0.054015,-0.676490
6236732551,-130.282288,-115.229851,94.320229,1.135047,-0.004768,-0.611541
6236752601,-110.465881,-127.391190,105.109749,0.988386,-0.167301,-0.549989
6236772653,-88.997131,-130.326767,97.722847,1.068532,-0.109684,-0.471927
6236792704,-84.699417,-93.894333,93.245483,1.095555,0.106280,-0.290921
6236812756,-67.590309,-86.797089,98.186836,0.972024,-0.007457,-0.047182
6236832808,-48.673279,-97.881187,101.401566,0.984064,0.057832,-0.096294
6236852860,-39.661152,-87.703102,102.500175,0.839396,0.069356,-0.228327
6236872912,-20.463120,-72.718697,90.823280,0.910291,0.008044,-0.270103
6236892964,0.983487,-83.877785,78.409576,1.032256,-0.014665,-0.365222
6236913016,19.311111,-84.043457,76.486252,1.129719,-0.109316,-0.474678
6236933067,39.120464,-61.637695,67.239151,1.239207,-0.147663,-0.517537
6236953119,63.134926,-37.229908,61.689796,1.188579,-0.155326,-0.492723
6236973171,86.679062,-20.443993,61.449398,1.074339,-0.231899,-0.390674
6236993223,102.384216,-18.074648,56.145622,0.944175,-0.175701,-0.328810
6237013275,109.571167,-23.951227,52.237453,0.907569,-0.022180,-0.350569
6237033327,106.608864,-19.531649,47.099888,0.941832,0.039651,-0.409934
6237053379,92.132942,-1.682391,44.239235,1.003945,0.087363,-0.469757
6237073430,75.369637,25.938965,47.568039,0.986257,0.140120,-0.418053
6237093482,56.314568,36.735802,48.280243,0.859464,0.072152,-0.309558
6237113534,56.793537,24.904701,38.907776,0.853489,0.115475,-0.213855
6237133586,63.608704,1.510993,24.138821,0.912667,0.090340,-0.265494
6237153638,58.793308,4.618795,13.981574,0.985870,0.054519,-0.387073
6237173691,52.371925,22.378708,7.882197,0.998370,0.050579,-0.340224
6237193743,46.779602,24.530010,5.716739,0.974114,0.019183,-0.308042
6237213795,45.099213,20.607929,6.700948,0.987429,-0.002129,-0.313790
6237233847,37.028191,21.112684,9.619934,0.974545,0.034992,-0.327307
6237253899,24.180552,23.857063,12.684454,0.964654,0.064889,-0.318998
6237273950,17.286924,24.754272,12.827776,0.923674,0.047296,-0.348714
6237314054,6.563829,26.325836,11.924219,0.941618,0.049190,-0.269357
6237334110,-2.267459,21.098637,10.808480,0.960767,0.066944,-0.263338
6237354158,-13.536598,20.805878,9.782697,0.963316,0.039685,-0.295813
6237374209,-17.920240,25.143341,9.920864,0.930972,-0.018469,-0.316818
6237394261,-14.533619,24.784409,10.883443,0.868610,-0.098292,-0.291616
6237414313,-7.328539,16.583643,10.371073,0.873702,-0.091805,-0.277114
6237434365,-5.897291,10.563704,10.141210,0.901269,-0.034282,-0.280583
6237454415,-8.919121,10.738930,9.762716,0.907200,-0.010698,-0.277815
6237474467,-11.306620,9.487200,11.169972,0.924959,-0.015488,-0.272362
6237494519,-14.305129,10.084925,12.745386,0.931027,-0.052625,-0.278069
6237514571,-13.742247,11.562957,12.990202,0.944895,-0.081437,-0.281000
6237534623,-9.647372,12.527611,11.242283,0.953281,-0.102385,-0.285879
6237554675,-5.890852,15.065780,7.768638,0.954462,-0.105351,-0.283746
6237574726,-3.221517,17.672287,6.614299,0.994589,-0.088760,-0.247754
6237594778,-8.329993,9.730827,4.619871,1.033958,-0.095046,-0.242222
6237614830,-15.367589,-3.887649,6.063790,1.002802,-0.053660,-0.406695
6237634882,-15.652091,4.564156,11.491616,0.882863,-0.086614,-0.520407
6237654934,-10.135515,17.367073,11.104516,0.883527,-0.077160,-0.405179
6237674986,-1.039624,10.426996,9.912612,0.897521,-0.071204,-0.276002
6237695037,6.372685,-3.407819,7.835579,0.940012,-0.090515,-0.298834
6237715089,7.883285,-0.084662,5.959176,0.974332,-0.086276,-0.370257
6237735141,3.637722,13.316601,5.838695,0.981008,-0.071323,-0.303673
6237755193,0.838961,13.045140,5.423767,0.971480,-0.060969,-0.238606
6237775245,1.995054,7.153661,5.383032,0.973427,-0.036325,-0.256509
6237795297,-1.790410,5.893991,5.782804,0.934813,-0.040862,-0.307625
6237815348,-3.528950,6.332598,6.107796,0.903791,-0.078915,-0.346485
6237835400,0.291238,6.929624,5.331348,0.917721,-0.111266,-0.342649
6237855453,4.577904,6.849485,5.034544,0.961099,-0.112265,-0.323790
6237875506,7.326801,7.067281,4.221882,0.959538,-0.134565,-0.326360
6237895557,9.077586,8.053370,2.285237,0.943229,-0.140938,-0.324766
6237915609,11.602690,7.913617,0.390095,0.956125,-0.135830,-0.318917
6237935661,13.738690,9.171968,-0.910990,0.972139,-0.108255,-0.311852
6237955713,15.283401,10.949072,-1.205655,0.944535,-0.081360,-0.281913
6237975765,15.645237,8.433151,-0.863638,0.942703,-0.081123,-0.264933
6237995817,15.561860,6.913331,-1.009951,0.958106,-0.080848,-0.279914
6238015869,12.110649,9.399210,-1.706994,0.949774,-0.078473,-0.290543
6238035921,10.618673,11.133067,-2.098973,0.954245,-0.075327,-0.261646
6238055972,11.776517,9.357625,-1.934102,0.944758,-0.072500,-0.246660
6238076024,12.151950,6.785771,-0.849160,0.955629,-0.077762,-0.247794
6238116128,9.192141,7.790722,2.649892,0.964200,-0.075363,-0.233765
6238136180,7.681332,6.781404,3.070742,0.951954,-0.070085,-0.231277
6238156230,5.899148,6.629841,3.753994,0.956730,-0.068046,-0.222814
6238176282,5.405297,5.769490,5.068291,0.967588,-0.069537,-0.207997
6238196334,4.331109,4.553823,4.822751,0.938576,-0.094306,-0.207462
6238216386,2.396451,3.577277,1.272262,0.960844,-0.100722,-0.208411
6238236437,0.144438,3.893566,3.189438,1.000254,-0.058492,-0.202985
6238256489,-2.795994,3.467579,4.889621,0.986065,-0.061398,-0.207142
6238276541,-6.610121,1.970894,5.055272,0.971656,-0.071420,-0.232394
6238296593,-9.571025,3.627356,4.747442,0.976911,-0.084759,-0.251197
6238316645,-11.605054,7.682467,3.430601,0.976518,-0.105840,-0.251320
6238336697,-12.642270,10.046466,2.573975,0.950140,-0.131535,-0.233214
6238356748,-11.918048,8.305090,2.572143,0.947862,-0.159781,-0.219362
6238376800,-10.126736,5.251193,1.604353,0.937773,-0.171512,-0.218570
6238396852,-6.971030,2.827574,1.649495,0.938692,-0.179378,-0.216019
6238416904,-4.592929,1.001774,0.995584,0.949054,-0.193934,-0.218958
6238477059,7.538156,0.186161,-2.454279,0.948376,-0.155317,-0.231407
6238497111,9.759172,-0.893903,-2.671124,0.942367,-0.121260,-0.218665
6238517163,9.178544,-2.088421,-2.484910,0.939091,-0.094771,-0.201909
6238537215,8.668468,-5.270845,-2.193344,0.951850,-0.090002,-0.187968
6238557267,6.609001,-7.830652,-1.486538,0.977131,-0.056416,-0.193994
6238577320,-0.023071,-7.613386,-1.090859,1.002141,-0.043483,-0.221232
6238597372,-7.343713,-2.720375,-2.499684,1.001842,-0.062666,-0.254003
6238617424,-11.386210,3.786037,-3.073953,0.970231,-0.104962,-0.252465
6238637475,-12.685881,5.066283,-3.365910,0.955607,-0.122416,-0.206198
6238657528,-14.042754,-0.328952,-3.968318,0.958133,-0.128933,-0.198470
6238677579,-12.722976,-1.710981,-5.381283,0.968546,-0.157985,-0.249591
6238697631,-8.550955,1.718558,-6.394983,0.975899,-0.171323,-0.268652
6238717683,-3.230441,2.776901,-5.407650,0.989602,-0.145621,-0.239588
6238737735,-2.353799,0.023677,-3.511309,0.951461,-0.109769,-0.236183
6238757787,-2.476493,-2.899255,-3.402668,0.947726,-0.102824,-0.271190
6238777839,-2.514819,-0.229480,-2.563011,0.977178,-0.102863,-0.272071
6238817942,-1.163864,-2.467995,-2.593665,0.986458,-0.058579,-0.213352
6238837994,-2.107176,-0.282123,-4.101501,0.988857,-0.116626,-0.251380
6238858045,-2.058273,7.834829,-6.327385,0.966294,-0.105895,-0.202496
6238878097,-5.293019,5.709815,-5.280613,0.992024,-0.008531,-0.176902
6238898148,-4.212828,6.187032,-2.971053,1.014884,-0.114152,-0.260313
6238918201,-0.068324,14.869416,-6.450849,1.010752,-0.142779,-0.241016
6238938252,1.819725,14.985875,-6.792964,0.955223,-0.065687,-0.184499
6238958304,1.641528,8.401237,-4.625367,0.944640,-0.024051,-0.219501
6238978356,4.189378,8.565400,-4.111455,1.006106,-0.012640,-0.244373
6238998407,1.169520,11.285210,-4.278928,0.982756,0.021364,-0.181585
