Timestamp (us),Gyroscope X (deg/s),Gyroscope Y (deg/s),Gyroscope Z (deg/s),Accelerometer X (g),Accelerometer Y (g),Accelerometer Z (g)
7623527843,7.309103,-1.473418,-5.685996,0.662838,-0.485935,0.576826
7623547844,8.188581,-0.841552,-6.999963,0.647174,-0.465195,0.573614
7623567846,8.628517,-1.376535,-6.999548,0.641005,-0.447760,0.569544
7623587846,6.511543,-2.342524,-6.134373,0.652751,-0.438469,0.569154
7623607847,5.105230,-3.050606,-5.129226,0.657604,-0.446215,0.568684
7623627848,5.905945,-3.186238,-4.303941,0.668918,-0.463290,0.567418
7623647848,9.124205,-1.766379,-3.656337,0.688664,-0.455103,0.565302
7623667849,11.054301,-0.115267,-3.247075,0.694521,-0.441107,0.573720
7623687849,11.572177,1.354748,-3.278903,0.689035,-0.449275,0.579263
7623727850,13.714080,4.314696,-3.309704,0.669185,-0.412290,0.606043
7623747851,11.699730,2.543785,-3.300074,0.656486,-0.403956,0.610621
7623767851,7.767743,0.122359,-3.324332,0.665661,-0.406298,0.606645
7623787852,4.989320,-1.986868,-2.747327,0.683773,-0.422700,0.598961
7623807852,5.971756,-2.383540,-2.195265,0.694978,-0.437458,0.594375
7623827853,8.525734,-2.636513,-2.578152,0.678718,-0.427591,0.592783
7623847854,6.604406,-5.573463,-4.015135,0.681004,-0.420096,0.598984
7623867854,5.167034,-7.845504,-4.834197,0.700925,-0.421576,0.607691
7623887857,3.724760,-9.661968,-4.439408,0.695751,-0.420338,0.597586
7623907857,3.083246,-9.944870,-3.363688,0.699547,-0.404075,0.596188
7623927858,2.418705,-10.345928,-1.481799,0.700847,-0.387573,0.588742
7623947859,0.692025,-9.545136,0.771862,0.718673,-0.386986,0.579973
7623967860,0.907568,-7.705925,2.867556,0.750814,-0.376562,0.580957
7623987860,1.997881,-4.909106,6.444383,0.763698,-0.376226,0.598140
7624007868,1.939748,-2.819673,8.076633,0.724414,-0.369845,0.611055
7624027860,-1.964294,-2.452779,7.553250,0.705930,-0.364492,0.614709
7624047860,-5.713004,-1.462195,6.790751,0.713275,-0.364211,0.607116
7624087862,-15.842056,2.304399,3.939797,0.684954,-0.400526,0.574825
7624107863,-17.061930,4.266789,2.173428,0.689219,-0.431553,0.566496
7624127863,-12.094401,6.398463,1.191157,0.706060,-0.461571,0.558370
7624147864,-6.360855,7.640959,-0.330135,0.699513,-0.459644,0.562653
7624167865,-4.508864,7.387907,-1.150577,0.692827,-0.454491,0.569804
7624187865,-3.730112,5.957225,-1.710000,0.696181,-0.447809,0.565265
7624207867,-4.228190,3.845638,-1.895735,0.678186,-0.450397,0.567405
7624227868,-5.228228,2.048303,-2.035006,0.675140,-0.462736,0.564553
7624247869,-4.058978,0.995191,-3.145077,0.689780,-0.472886,0.563032
7624267869,-1.152832,1.154742,-4.777733,0.689771,-0.471436,0.556351
7624287870,1.867292,1.134644,-5.627365,0.678086,-0.469300,0.554924
7624307871,4.420288,0.660946,-5.925654,0.676368,-0.456509,0.563193
7624327871,5.151016,0.294311,-5.623357,0.679025,-0.428194,0.563788
7624347871,4.940011,-0.934290,-4.332536,0.671592,-0.403184,0.566248
7624367871,2.110816,-2.632596,-2.336086,0.679877,-0.394488,0.576323
7624387872,-1.321354,-2.809969,0.058988,0.691816,-0.403234,0.586337
7624407872,-2.516991,-2.570143,1.704819,0.696099,-0.415468,0.589031
7624427873,-3.831743,-1.580218,2.261088,0.715133,-0.427668,0.590505
7624447874,-2.085996,-0.166627,2.315100,0.717961,-0.428687,0.586992
7624467875,-1.307966,-0.125006,1.900993,0.722149,-0.429460,0.596350
7624487875,-3.312588,0.230130,1.634964,0.727185,-0.438345,0.592797
7624507876,-5.024233,-1.979743,0.900466,0.720668,-0.445078,0.582710
7624527878,-7.087980,-2.742720,-0.439330,0.709942,-0.447018,0.564662
7624547879,-6.061229,-3.386362,-0.494297,0.696641,-0.448471,0.551415
7624567879,-3.932656,-5.086631,0.803173,0.688334,-0.429566,0.545203
7624587880,-2.096204,-5.758791,3.282815,0.687533,-0.436220,0.549129
7624607881,-1.027414,-5.695298,4.455541,0.687655,-0.435149,0.547928
7624627881,0.326352,-4.906401,4.392586,0.695318,-0.446069,0.552186
7624647882,2.281580,-2.657881,3.757916,0.702373,-0.456744,0.553516
7624667881,5.135556,-0.584569,2.071226,0.709591,-0.444942,0.556782
7624687882,4.888006,0.564308,-0.235450,0.719210,-0.433180,0.567097
7624707883,3.027949,1.010819,-2.068017,0.712636,-0.443407,0.566914
7624727884,2.904616,0.890027,-3.510779,0.703934,-0.446503,0.566327
7624747884,3.079236,0.794508,-4.263478,0.704084,-0.428435,0.558662
7624767885,1.609288,1.271588,-4.220930,0.705638,-0.434255,0.554480
7624787886,1.717265,1.654661,-5.393457,0.716898,-0.451320,0.560237
7624807886,3.234586,2.017710,-9.992032,0.764859,-0.463872,0.573592
7624827887,5.526605,3.579047,-17.130157,0.808391,-0.486984,0.579403
7624847889,11.055758,7.440356,-24.544271,0.784829,-0.503889,0.570212
7624867890,17.663280,10.349678,-32.696133,0.764419,-0.474476,0.556146
7624887890,20.666641,13.821830,-38.432693,0.714519,-0.442401,0.538367
7624907891,25.144928,15.528789,-37.594563,0.603855,-0.391051,0.532359
7624927892,27.114536,11.900602,-31.256866,0.547203,-0.343320,0.556778
7624947892,26.017595,4.620338,-21.818478,0.578884,-0.303180,0.588133
7624967893,19.242287,-3.272712,-13.126502,0.633538,-0.288447,0.618741
7624987892,9.741330,-9.489918,-9.673215,0.718383,-0.291925,0.628405
7625007893,3.477636,-9.980724,-7.522164,0.753641,-0.331698,0.613864
7625027893,4.334960,-9.371529,-7.179272,0.722463,-0.334301,0.614503
7625047894,5.669124,-7.873541,-7.260551,0.712354,-0.302318,0.604697
7625067895,4.701918,-6.129958,-5.128623,0.732976,-0.303162,0.595339
7625087896,5.386164,-5.265306,-2.445504,0.714632,-0.326991,0.599169
7625107896,10.264132,-6.307155,-0.555630,0.691354,-0.305591,0.605356
7625127897,10.641672,-5.777482,2.054416,0.682725,-0.262157,0.610258
7625147898,2.860815,-4.924592,8.537928,0.650921,-0.257938,0.603852
7625167900,-3.832541,-6.430600,15.080359,0.604303,-0.261406,0.610095
7625187900,-6.675509,-6.519926,20.344893,0.615566,-0.269481,0.615167
7625207901,-12.422541,-4.343228,24.168547,0.639104,-0.305745,0.618789
7625227902,-17.100964,-1.768434,25.720909,0.670634,-0.341914,0.590108
7625247902,-15.314640,6.590458,27.202322,0.709131,-0.389203,0.537951
7625267903,-7.365856,12.985680,29.887985,0.689034,-0.418722,0.541760
7625287904,2.866206,11.981757,30.066179,0.723650,-0.428078,0.536323
7625307903,8.851657,11.388309,30.679871,0.780105,-0.448709,0.525077
7625347905,37.094193,8.376504,36.241219,0.834738,-0.417423,0.600582
7625367905,46.134586,6.826897,38.038387,0.849450,-0.383116,0.599474
7625387906,48.520374,9.557731,39.702156,0.822912,-0.361585,0.673491
7625407907,50.927120,12.066673,39.588600,0.781102,-0.336695,0.730975
7625427908,52.589451,15.329054,38.722694,0.710729,-0.288106,0.801399
7625447908,46.351135,21.028988,34.226547,0.666570,-0.238561,0.850362
7625467909,31.717777,31.148872,25.781857,0.639760,-0.152339,0.858071
7625507911,-24.908014,40.487255,7.622989,0.571279,-0.146586,0.752121
7625527912,-41.107086,43.932953,-3.884823,0.542129,-0.214336,0.675425
7625547912,-54.156872,46.035755,-20.203714,0.515910,-0.286953,0.618719
7625567913,-67.674835,39.090469,-34.587215,0.506382,-0.425862,0.572595
7625587914,-61.090755,27.158485,-43.416428,0.531912,-0.567508,0.539636
7625607914,-37.922768,17.854769,-44.430000,0.607507,-0.649069,0.542381
7625627914,-25.197393,8.559245,-30.440414,0.664848,-0.679792,0.589494
7625647914,-21.263672,-4.261804,-7.678251,0.644056,-0.727259,0.589467
7625667915,3.970437,-13.497698,3.761343,0.677973,-0.711644,0.574700
7625687916,39.433556,-18.100555,2.814686,0.669325,-0.539187,0.587835
7625707916,47.069572,-25.634684,-2.505576,0.524889,-0.287002,0.622277
7625727917,34.746628,-26.272190,-4.376628,0.471098,-0.127651,0.707128
7625747918,21.740841,-13.342087,-2.810369,0.584797,-0.128124,0.804423
7625767918,7.966515,-1.779163,-15.209580,0.673428,-0.156380,0.847891
7625787919,-8.151383,3.471536,-33.626141,0.641034,-0.161125,0.824104
7625807920,-19.501774,2.071477,-51.190807,0.563669,-0.133288,0.793434
7625827922,-25.399868,-0.103515,-64.886009,0.565900,-0.164916,0.752804
7625847922,-33.123486,-3.552705,-71.720085,0.652668,-0.167620,0.705101
7625867923,-34.090420,-9.236967,-76.333092,0.745419,-0.168132,0.654231
7625887925,-25.074755,-13.694689,-81.696404,0.766685,-0.111432,0.652206
7625907924,-16.959763,-9.548107,-91.768196,0.736373,0.002238,0.724222
7625927925,-25.064606,-0.626207,-106.240753,0.739707,0.183700,0.787144
7625947924,-53.914879,-0.981521,-121.260429,0.785038,0.384433,0.766181
7625967925,-99.874367,-5.270168,-130.028656,0.886792,0.490507,0.757093
7625987926,-141.656143,-5.352313,-136.821213,0.911394,0.506129,0.665519
7626007926,-170.955841,-6.263717,-145.490875,0.938467,0.437157,0.529570
7626027927,-194.157181,-1.267916,-155.841431,0.989124,0.354684,0.438033
7626047928,-197.490479,9.843610,-167.184387,1.024728,0.217487,0.292546
7626067928,-177.098602,23.203030,-179.253845,1.044447,0.119852,0.219994
7626087929,-154.913376,29.947834,-189.424500,1.011893,0.124273,0.182109
7626107930,-137.767212,25.592360,-197.378784,0.953155,0.160515,0.118477
7626127931,-122.779442,15.001526,-207.855927,0.951831,0.257855,0.095988
7626147933,-120.550209,-5.220041,-214.682236,0.992811,0.374490,0.112305
7626167933,-144.859741,-20.387875,-210.117615,1.131405,0.366496,0.044863
7626187934,-156.960159,-23.136164,-205.064743,1.195256,0.361465,0.035641
7626207934,-173.160385,-19.237963,-207.880920,1.286926,0.317083,-0.001430
7626227935,-192.362900,-9.369411,-214.122604,1.319933,0.258264,-0.009863
7626247936,-202.528244,-3.113246,-221.057938,1.331088,0.231431,-0.038893
7626267935,-195.719604,-9.020667,-218.189697,1.366008,0.260085,0.014106
7626287936,-173.497772,-22.955635,-207.376190,1.445581,0.339449,0.049627
7626307937,-201.821655,-33.186020,-176.696686,1.583789,0.244101,0.039258
7626327937,-253.967758,-3.974430,-131.450867,1.621733,-0.381416,0.083639
7626347938,-212.356873,9.645059,-73.696953,1.259764,-1.026304,0.157495
7626367939,-89.857155,-3.057714,-40.815060,1.114857,-1.073003,0.205189
7626407940,1.497495,33.684700,-40.205818,1.235489,0.010678,0.560549
7626427941,-47.370293,32.079292,-2.085030,1.104498,0.220008,0.650423
7626447941,-115.272728,23.564678,17.908020,0.910492,0.101932,0.649646
7626467944,-160.049301,24.856922,19.482180,0.885355,-0.025674,0.626999
7626487944,-171.997650,32.643024,17.411644,0.921305,-0.126772,0.622438
7626507945,-169.520096,40.917686,28.989801,0.986560,-0.187481,0.593196
7626527946,-150.831818,52.616402,42.249031,0.971557,-0.226312,0.608145
7626547946,-128.853668,60.007137,54.258873,0.986403,-0.221979,0.640701
7626567947,-109.169998,64.182220,68.588760,1.018397,-0.203503,0.657888
7626587946,-92.583580,70.119110,81.154182,0.980569,-0.190327,0.664967
7626607947,-84.350266,74.726433,89.736145,0.868802,-0.171904,0.668758
7626627948,-83.965363,80.113876,92.491318,0.775048,-0.156399,0.654076
7626647948,-84.441055,81.218422,91.979317,0.709931,-0.124456,0.661686
7626667949,-88.355049,83.408821,85.185867,0.645118,-0.066058,0.663511
7626687950,-92.626915,84.792290,71.953461,0.582402,-0.039080,0.677060
7626707950,-98.565498,84.338303,52.877926,0.563351,-0.010467,0.615496
7626727951,-99.995758,77.973946,28.154673,0.576741,0.062600,0.557589
7626747951,-98.667496,70.617569,-8.089677,0.484052,0.153645,0.461669
7626767952,-113.755814,56.820595,-63.402962,0.351404,0.349378,0.380248
7626787955,-151.275848,31.029768,-125.611595,0.305391,0.580717,0.215507
7626807955,-194.823044,4.485407,-183.016907,0.389128,0.699500,0.076879
7626827956,-224.637421,-7.170793,-236.167618,0.542301,0.585027,0.035483
7626847956,-235.411819,8.343063,-280.667633,1.123955,0.146250,0.429184
7626887958,-114.359825,95.833427,-183.380569,1.365023,-1.198644,0.067067
7626907958,-36.711967,62.197830,-229.923538,0.823219,-0.445766,0.025872
7626927957,-68.491371,32.343342,-260.944702,0.834799,-0.039494,0.100929
7626947958,-99.194656,1.906498,-285.425110,1.017809,0.009117,0.211576
7626967959,-119.082817,-16.416630,-287.660187,1.271081,-0.028245,0.262862
7626987959,-125.537354,-10.077212,-272.985138,1.440423,-0.000444,0.264779
7627007960,-136.706207,-0.645941,-257.086670,1.326927,0.098191,0.300067
7627027961,-167.040176,1.481964,-257.269318,1.229510,0.327979,0.211180
7627047962,-212.897568,-5.964715,-261.372925,1.316519,0.485013,0.101369
7627067962,-240.699722,-11.913317,-249.006805,1.512220,0.344197,0.092641
7627087963,-243.521057,25.549278,-198.415375,1.700475,-0.223955,0.112114
7627107964,-224.662613,37.857452,-110.351830,1.395444,-0.769707,0.025938
7627127966,-161.102020,31.669008,-58.581467,1.194898,-0.667838,0.088303
7627147966,-138.116470,47.593140,-63.637428,1.184597,-0.406511,0.191638
7627167967,-144.491638,55.558277,-72.968788,1.202478,-0.234282,0.278929
7627187971,-144.761627,50.939613,-51.546898,1.211591,-0.179378,0.336647
7627207969,-142.494278,49.870762,-22.826920,1.121939,-0.206486,0.374107
7627227969,-137.345093,49.906090,-7.325158,1.026097,-0.295134,0.428048
7627247969,-123.720070,52.176163,5.262807,1.024513,-0.376704,0.455647
7627267969,-91.814865,63.351692,18.942795,1.069781,-0.357622,0.522124
7627287970,-75.177269,75.520004,30.301830,1.088250,-0.263915,0.611722
7627307971,-79.851852,79.717407,39.666534,1.089529,-0.199072,0.672675
7627327971,-95.807312,85.789192,48.481525,1.057774,-0.182776,0.690804
7627347972,-118.042130,91.432266,58.049088,0.976304,-0.196155,0.683348
7627367973,-136.817078,94.827759,66.813095,0.889604,-0.241032,0.658719
7627387973,-148.366806,95.626259,72.447746,0.823019,-0.278668,0.617214
7627407974,-154.952667,93.188293,73.811172,0.800924,-0.324396,0.590694
7627427975,-149.586090,95.245255,78.276138,0.724277,-0.366617,0.544233
7627447977,-123.945663,102.258896,80.353821,0.591578,-0.348055,0.513970
7627467977,-99.590775,111.376358,70.132118,0.482035,-0.263075,0.509281
7627487978,-85.710350,112.163673,43.087509,0.461884,-0.162569,0.470500
7627507979,-84.158150,105.598541,4.976711,0.462712,-0.003409,0.413333
7627527979,-103.428444,85.956299,-45.678181,0.359764,0.076632,0.320945
7627547980,-125.560944,56.468933,-99.953438,0.198919,0.123860,0.193998
7627567980,-141.804321,19.582813,-160.993073,0.173571,0.219822,0.052342
7627587980,-150.377304,-5.934911,-227.286819,0.324284,0.246186,0.116850
7627607981,-146.182556,1.413414,-265.890747,0.859999,-0.065598,0.416829
7627627982,-153.821548,47.714302,-214.732224,1.472258,-0.797504,0.369839
7627647983,-73.534744,92.790901,-199.595474,1.154842,-0.764189,0.480700
7627667983,-56.878288,66.938576,-224.548569,0.849032,-0.442231,0.304836
7627687983,-79.604462,54.970505,-240.759491,0.937830,-0.320216,0.259797
7627707984,-101.255829,42.510620,-253.887741,1.022966,-0.216263,0.414582
7627727985,-129.216034,21.837963,-253.050766,1.324918,-0.073870,0.451282
7627747986,-158.088409,29.233910,-216.749176,1.602190,-0.024284,0.299612
7627767987,-179.925934,50.350979,-181.924988,1.443274,-0.331026,0.272258
7627787988,-166.115692,61.824074,-174.174744,1.187800,-0.618750,0.306398
7627807989,-126.780495,69.046608,-153.481415,1.089646,-0.579686,0.356073
7627827990,-117.790321,78.990074,-130.093201,1.183702,-0.535389,0.427306
7627847990,-125.253113,91.631790,-100.517014,1.303624,-0.765341,0.442719
7627867991,-110.342873,101.196190,-56.848705,1.208603,-1.005129,0.468798
7627887992,-79.987198,103.900414,-27.825775,1.103014,-1.002588,0.502632
7627907991,-67.384361,115.527565,-10.708358,1.028711,-0.783127,0.583982
7627927992,-93.104088,112.465286,5.404411,0.910845,-0.589493,0.619225
7627947993,-131.302979,95.304947,30.407724,0.818230,-0.502747,0.572446
7627967993,-149.803802,79.573586,63.005112,0.728036,-0.602230,0.493800
7627987994,-131.770874,72.192345,86.772522,0.657744,-0.733469,0.429889
7628007995,-84.412689,74.950317,100.047707,0.557161,-0.745510,0.449493
7628027995,-37.091621,80.682320,118.241554,0.503468,-0.595688,0.497550
7628047996,-14.925179,90.262917,135.560150,0.512038,-0.351057,0.542131
7628067997,-22.904339,93.004585,139.824585,0.458697,-0.116577,0.611421
7628087999,-56.466736,86.961395,120.429413,0.415447,-0.035909,0.543340
7628107999,-87.506630,74.171631,97.990753,0.387065,-0.010444,0.514751
7628128000,-109.436829,56.960892,74.831383,0.374823,-0.077041,0.454809
7628148001,-114.589996,37.081345,37.320728,0.206131,-0.166049,0.375667
7628168001,-105.113136,6.640768,-9.404078,0.053109,-0.135095,0.253793
7628188002,-115.020844,-22.886795,-53.536694,0.080194,-0.054645,0.185785
7628208002,-142.174179,-39.386421,-79.403587,0.429252,-0.191619,0.310624
7628228002,-160.939392,-7.203378,-43.906467,1.057216,-0.988660,0.645805
7628248003,-135.463959,35.617367,88.239471,0.836491,-2.333272,0.699178
7628268003,-32.722889,36.626049,65.735115,0.337669,-1.398947,0.492807
7628288004,-43.181416,22.304615,-15.723460,0.336324,-0.265286,0.437429
7628308005,-81.772530,21.197893,6.442715,0.300129,-0.466431,0.290742
7628328006,-46.199615,13.961049,35.745255,0.436798,-0.883200,0.210041
7628348007,20.371061,17.992722,32.960705,0.505779,-1.111285,0.471015
7628368007,54.339855,17.213165,28.545845,0.387786,-0.973921,0.633184
7628408008,24.506506,20.942270,-7.127654,0.434234,-0.502038,0.758209
7628428010,-1.892537,29.087021,-19.430904,0.402184,-0.604733,0.706467
7628448011,-7.573617,34.128864,-32.225090,0.354805,-0.701533,0.605589
7628468012,-1.952797,32.076134,-45.464306,0.301388,-0.717931,0.517644
7628488012,7.747192,23.211971,-60.005962,0.226152,-0.753727,0.458510
7628508013,20.777357,11.184567,-82.071823,0.186340,-0.813551,0.392623
7628528014,51.151314,2.722201,-110.738121,0.228566,-0.799340,0.393742
7628548013,80.411148,1.930196,-135.269638,0.273407,-0.709168,0.453284
7628568013,94.570045,-2.013798,-156.457779,0.384563,-0.557605,0.498778
7628588014,78.434418,-13.509480,-176.926178,0.458402,-0.377617,0.594996
7628608015,52.411316,-37.011745,-196.231049,0.463553,-0.216812,0.513036
7628628016,33.605721,-57.598869,-209.069489,0.656063,-0.262474,0.516862
7628648016,21.245415,-69.372223,-227.950378,0.844819,-0.416203,0.548307
7628668017,31.329227,-75.026627,-252.098724,0.886652,-0.375850,0.596909
7628688018,38.333912,-76.318443,-281.108734,0.957435,-0.160271,0.698205
7628708018,31.297646,-67.943916,-304.353333,1.131292,-0.072550,0.637857
7628728019,47.752808,-48.723877,-311.286621,1.335161,-0.095003,0.425348
7628748021,97.421280,-21.163683,-270.989594,1.347604,0.080908,0.507785
7628768022,114.550690,-18.948166,-206.133957,1.021025,0.163216,0.763473
7628788022,6.945200,-17.066511,-205.962524,1.282391,-0.437357,0.741126
7628808023,-59.890480,-1.099628,-65.461075,1.375829,-1.077454,0.611154
7628828024,-9.342915,-10.343611,60.270920,0.933673,-1.154222,0.531169
7628848025,58.911709,3.643054,98.469963,0.849588,-0.660988,0.589058
7628868025,68.238510,19.280586,116.800064,0.925526,-0.268412,0.475700
7628888025,50.808655,31.909283,121.359238,0.927926,-0.116254,0.420663
7628908025,15.500388,24.192890,134.360382,0.933221,-0.135454,0.427214
7628928026,29.146788,11.832330,142.439774,0.939494,-0.192520,0.374609
7628948027,50.538509,0.398658,147.941406,0.923821,-0.195275,0.324051
7628968027,67.345947,-4.427104,153.320038,1.005274,-0.148531,0.338018
7628988028,87.642067,2.977067,157.426590,1.112355,-0.127607,0.440572
7629008029,98.901291,24.493877,172.126724,1.098112,-0.164041,0.573253
7629028030,91.754677,29.462362,188.346237,1.017317,-0.167511,0.655774
7629048030,82.863960,32.084579,186.102753,0.970410,0.043784,0.588203
7629068033,66.397240,36.928379,160.379089,0.944614,0.168862,0.739904
7629088033,29.475821,44.017639,150.834030,0.884508,-0.031209,0.709079
7629108034,22.395178,50.165836,135.731018,0.772817,-0.041762,0.663785
7629128034,12.680078,50.841305,104.835434,0.590089,0.070974,0.628926
7629148035,-11.172923,42.910034,70.737740,0.511390,0.158041,0.548897
7629168035,-29.807018,27.649466,31.276703,0.383653,0.187088,0.458320
7629188036,-52.260551,5.865092,-19.559120,0.178154,0.221159,0.317717
7629208035,-87.388535,-30.074749,-85.251160,0.061294,0.228339,0.246102
7629228036,-103.410843,-58.472649,-149.066040,0.146686,0.082688,0.123594
7629248036,-79.847778,-75.535698,-202.899628,0.431317,-0.019502,0.106138
7629268037,-69.957787,-84.825455,-230.039932,0.859264,-0.130042,0.206736
7629288038,-58.855003,-61.873802,-236.289368,1.263084,-0.355568,0.176959
7629308039,-17.319479,-41.129730,-212.126038,1.423763,-0.650264,0.340453
7629328039,68.896049,-29.852142,-184.772629,1.246798,-0.610403,0.462479
7629348040,106.683365,-39.649014,-187.879761,0.854023,-0.341344,0.495073
7629368041,95.277588,-76.242790,-203.179626,0.969326,0.028453,0.455434
7629388041,77.753632,-91.630981,-187.876740,1.431701,0.414517,0.548475
7629408043,30.945930,-59.907406,-167.987671,1.341112,0.360824,0.683389
7629428044,-31.455790,-56.919483,-130.813797,1.086908,0.372791,0.685663
7629448044,-99.001991,-53.764301,-101.710480,1.053875,0.228981,0.630712
7629468045,-123.667557,-38.978180,-80.439896,1.130859,-0.011987,0.454306
7629488046,-91.182480,-6.237989,-53.135906,0.891855,-0.091051,0.362446
7629508047,-66.905701,-8.676927,-51.366306,0.897207,0.012718,0.328979
7629528046,-56.053112,-19.089012,-65.229874,1.022503,0.095508,0.379412
7629548047,-31.969296,1.737202,-55.152393,0.978340,-0.060406,0.389572
7629568047,8.038801,5.259843,-42.569027,0.811686,-0.114729,0.278813
7629588048,25.786694,-10.647709,-51.841583,0.885567,0.087229,0.252281
7629608049,7.662837,-4.069788,-51.841805,1.078033,0.208522,0.399305
7629628049,-14.058219,-6.389850,-39.284359,0.993712,0.171358,0.485227
7629648050,-31.785910,-11.798469,-35.812355,1.100123,0.142134,0.417514
7629668051,-35.735363,-0.316899,-32.023895,0.976280,0.070752,0.385073
7629688052,-26.437984,0.730661,-43.713295,0.948102,0.073311,0.376085
7629708052,-15.391646,8.723885,-54.499851,1.037656,0.083332,0.376832
7629728054,-12.113524,11.019926,-49.084114,1.008029,0.079340,0.327156
7629768056,-21.112999,8.835064,-26.083103,0.848762,0.096422,0.281141
7629788057,-22.538399,4.345916,-28.146061,0.749251,0.154129,0.284908
7629808057,-10.120361,9.726605,-32.627193,0.712075,0.199695,0.326614
7629828058,2.275741,11.361610,-31.004175,0.615162,0.360821,0.287406
7629848060,8.741658,6.322506,-35.046112,0.563674,0.528216,0.366137
7629868058,8.746213,9.683791,-41.832382,0.729565,0.493294,0.426723
7629888058,-1.422396,3.873303,-34.973385,0.901406,0.487585,0.383935
7629908059,-12.311736,-8.385380,-21.500843,0.670038,0.505019,0.389183
7629928060,-5.674655,-9.194983,-27.568964,0.824324,0.399517,0.449094
7629948061,10.894094,4.236223,-28.245085,1.109117,0.216615,0.470917
7629968061,24.407337,8.235383,-11.226436,1.082100,0.073303,0.358005
7629988062,33.457741,0.531200,6.579989,0.836988,0.108782,0.282566
7630008063,29.320187,-3.518504,7.171999,0.910534,0.147621,0.367632
7630028063,22.919853,-3.900680,9.642354,0.969381,0.198717,0.328216
7630048065,31.130289,-0.092254,10.446310,0.923691,0.295232,0.252206
7630068066,43.924454,-2.706568,8.583477,0.949115,0.261043,0.333805
7630088067,43.819588,7.404047,10.126386,0.972833,0.237845,0.405823
7630108067,36.952644,5.035683,13.155028,0.978130,0.279079,0.404695
7630128068,24.151930,3.354898,11.283289,0.961483,0.288560,0.381943
7630148069,11.893282,2.188679,5.645070,0.915941,0.265404,0.386127
7630168069,11.738543,0.551995,1.245581,0.875200,0.187332,0.403153
7630188069,21.314062,-1.305184,-6.943827,0.880122,0.189163,0.360485
7630208069,28.036253,-1.775366,-13.751010,0.896564,0.235086,0.354198
7630228070,31.037634,-2.265083,-17.197399,0.894595,0.263032,0.398354
7630248071,32.450394,-5.124397,-17.966022,0.911763,0.314667,0.430116
7630268071,28.751877,-4.922696,-17.820854,0.902630,0.385196,0.440981
7630288072,20.006920,-4.188891,-16.173176,0.926695,0.450841,0.464660
7630308073,2.412588,-0.585151,-12.697042,0.909486,0.466480,0.471179
7630328073,-14.088706,3.430405,-8.551424,0.876794,0.408370,0.453043
7630348074,-21.216877,8.468926,-1.778296,0.828025,0.260271,0.386324
7630368076,-16.880295,9.854187,8.424321,0.851769,0.186069,0.324673
7630388077,-6.905679,10.076232,16.227865,0.881518,0.172063,0.266626
7630408078,3.426956,7.086934,22.357279,0.884726,0.248244,0.226995
7630428078,14.420368,2.006923,26.942888,0.942436,0.274087,0.244419
7630468080,33.805698,-1.956738,38.848858,0.909885,0.186204,0.305827
7630488081,54.230370,4.435781,50.064793,0.978728,0.191373,0.324319
7630508080,49.658382,17.351006,61.646515,1.074398,0.354904,0.344661
7630528081,29.596439,28.101940,67.449715,1.053742,0.416038,0.431538
7630548081,-10.450579,29.712646,66.599434,1.000163,0.356036,0.472603
7630568082,-33.613594,26.806854,68.831024,1.061814,0.243966,0.400057
7630588082,-26.035013,27.556095,85.184784,1.065340,0.084588,0.365872
7630608083,-4.898596,28.822472,102.872536,1.067082,0.002268,0.396709
7630628084,7.438919,36.101994,117.905861,1.091551,0.045347,0.438618
7630648084,10.783106,46.816025,131.498016,1.056752,0.121547,0.464644
7630668085,-1.527830,59.041641,140.975220,1.136063,0.206936,0.514208
7630688086,-22.881962,65.129990,153.340881,1.152662,0.104583,0.513941
7630708088,-22.430861,64.877365,172.915863,1.103579,-0.070545,0.533651
7630728088,-6.344456,74.680878,186.970688,1.090210,-0.112233,0.541911
7630748089,-4.754974,86.339943,191.280197,0.979148,-0.149545,0.533339
7630768090,-0.910540,83.006416,191.657715,0.902689,-0.128593,0.473960
7630788091,1.817243,78.991493,192.400589,0.912271,-0.099884,0.347189
7630808091,14.820223,67.690514,185.393433,0.778836,-0.028315,0.360891
7630828091,13.395891,53.590622,167.992981,0.648817,0.033250,0.423856
7630848091,-0.073844,40.964119,150.253296,0.656828,-0.000073,0.546497
7630868092,-7.731291,34.622841,134.852386,0.712093,-0.103791,0.647890
7630888093,-24.919525,42.812229,114.823929,0.702304,-0.030936,0.725028
7630908093,-49.386471,34.252392,94.289101,0.605456,-0.087744,0.594850
7630928094,-53.419113,21.912560,76.672211,0.543098,-0.246955,0.538290
7630948095,-25.594025,17.861095,50.512947,0.527790,-0.214423,0.508356
7630968095,-13.406252,26.357935,14.466304,0.439977,-0.092448,0.484709
7630988096,-11.180929,26.862873,-24.500345,0.289580,-0.166830,0.419300
7631008096,-20.512300,7.349992,-46.483337,0.264061,-0.218662,0.361370
7631028098,-36.450459,-10.644019,-54.217079,0.399466,-0.288543,0.309715
7631068100,8.472084,-71.304184,-67.066162,0.570323,-0.659869,0.151856
7631088101,83.108002,-76.820930,-97.961807,0.665996,-0.606708,0.190587
7631108101,150.177277,-71.598373,-121.295044,0.765355,-0.336998,0.210065
7631128102,185.799530,-78.415802,-134.239319,0.765327,0.098238,0.481406
7631148125,158.094269,-94.621414,-153.022446,0.795183,0.358049,0.716155
7631168102,76.372269,-104.747742,-174.451355,0.952965,0.547574,0.796379
7631188103,-22.131842,-104.430794,-172.414566,1.037946,0.640799,0.931806
7631208104,-115.200882,-89.706764,-189.139481,1.145029,0.295594,0.757853
7631228104,-140.712402,-79.036270,-189.124512,1.471848,0.129964,0.594208
7631248105,-131.024368,-64.486374,-155.356888,1.414601,-0.086510,0.412335
7631268105,-97.773903,-60.074512,-134.432999,1.255046,-0.584526,0.370857
7631288106,-16.686913,-51.739586,-100.271828,1.168528,-0.669841,0.404773
7631308107,35.985470,-36.971245,-51.062099,1.061600,-0.614104,0.444070
7631328108,59.195602,-24.260468,-4.626616,0.932751,-0.388730,0.533810
7631348110,38.491730,-17.289995,33.645821,0.911498,-0.311294,0.564697
7631368110,10.810740,-8.478856,74.890320,0.959388,-0.332708,0.587674
7631388111,10.037869,7.289738,121.626678,1.202072,-0.443931,0.512103
7631408112,44.372688,39.211037,164.033417,1.263161,-0.409551,0.387861
7631428113,83.143761,64.809250,182.655045,1.155360,-0.080369,0.311299
7631448113,97.427643,63.524612,157.912933,1.118174,0.308356,0.352111
7631468114,82.018387,56.378937,115.915405,1.092788,0.548058,0.351274
7631488113,57.824226,62.273018,94.895851,0.994291,0.262056,0.388883
7631508114,47.762074,62.388870,107.069832,0.896121,-0.200603,0.488774
7631528114,60.449493,54.573875,122.937515,0.880042,-0.274838,0.550047
7631548115,61.666264,74.190247,116.588776,0.837591,-0.076577,0.588350
7631568116,48.231468,87.448608,111.475693,0.791178,0.020570,0.536404
7631588117,35.083126,83.446983,107.161476,0.755949,0.073760,0.465816
7631608117,22.424177,72.280434,95.551735,0.754481,0.118915,0.455530
7631628118,4.538889,49.720482,80.445847,0.758229,0.098024,0.411466
7631648119,-4.666592,28.828608,63.658875,0.739161,0.058291,0.350952
7631668119,-0.751673,10.056364,43.329472,0.729162,0.037159,0.365041
7631708122,10.351854,-5.357409,13.414843,0.812374,-0.018872,0.447922
7631728123,-1.333797,-10.222424,-1.784390,0.764633,0.029287,0.509094
7631748123,-19.320980,-13.022254,-22.640902,0.722843,0.027951,0.531680
7631768124,-38.433296,-13.546313,-41.792740,0.727033,0.007353,0.559586
7631788124,-60.129303,-12.455683,-56.372898,0.746354,-0.035492,0.573574
7631808124,-76.114777,-10.489019,-69.334053,0.785466,-0.140298,0.562261
7631828124,-76.291679,-11.498052,-78.113503,0.869983,-0.259264,0.549889
7631848125,-65.433937,-5.848678,-78.264702,0.924928,-0.335853,0.564571
7631868126,-58.605282,-3.164958,-69.348442,0.904807,-0.392946,0.547185
7631888127,-57.570713,-5.137197,-56.782524,0.949534,-0.418432,0.522304
7631908128,-56.292274,-12.966201,-36.105484,0.920453,-0.477184,0.540883
7631928128,-49.820763,-11.438808,-13.822720,0.855451,-0.589879,0.522896
7631948129,-30.241512,-3.524635,1.053057,0.805310,-0.601844,0.527227
7631968130,-17.778736,8.224487,11.574338,0.826503,-0.474249,0.530588
7631988130,-12.683553,14.637439,27.716179,0.786135,-0.310351,0.540160
7632008132,-20.515921,13.136827,44.484898,0.717389,-0.232230,0.548575
7632028133,-30.844780,13.423895,55.610611,0.760423,-0.213640,0.539237
7632048134,-40.159897,20.325394,64.855064,0.781943,-0.233893,0.527997
7632068134,-35.473518,23.953533,67.378189,0.759437,-0.243222,0.554276
7632088135,-39.573578,27.160154,75.559258,0.773421,-0.186357,0.552904
7632108136,-51.341900,28.121353,84.864655,0.745101,-0.196520,0.575762
7632128137,-63.408028,27.353283,94.331230,0.759127,-0.249379,0.612655
7632148136,-77.352753,26.449215,115.950752,0.807089,-0.518643,0.721991
7632168136,-90.226822,30.802120,155.194794,0.930502,-0.882364,0.726724
7632188137,-84.141678,40.139919,216.800888,0.920531,-1.177220,0.708715
7632208138,-56.850838,52.489624,235.831360,0.719296,-0.794991,0.649644
7632228139,-82.266098,40.526726,196.340759,0.514719,-0.089486,0.649971
7632248139,-124.649414,32.657551,172.510529,0.500261,-0.108274,0.554428
7632268140,-122.788490,41.958801,161.980362,0.477502,-0.523634,0.431235
7632288141,-86.494225,47.756111,140.327789,0.362214,-0.649622,0.432557
7632308141,-68.177177,52.335960,118.192879,0.213078,-0.636601,0.441802
7632328142,-68.645836,46.324181,91.183823,0.183167,-0.565816,0.376288
7632348144,-90.751045,34.650261,63.273373,0.178152,-0.692291,0.297272
7632368145,-89.055954,17.354576,44.292500,0.063866,-1.003344,0.218988
7632388145,-60.160923,1.541767,24.504318,0.111530,-1.090512,0.195084
7632408150,-26.685520,-14.228865,11.580019,0.187149,-1.038301,0.201245
7632428147,-1.109649,-26.387619,1.547980,0.233820,-0.987595,0.262690
7632448147,15.978447,-30.285368,-4.766661,0.273853,-0.989639,0.350692
7632468147,21.643312,-27.593431,-4.553962,0.269451,-0.976429,0.435094
7632488147,22.337521,-24.953789,-13.597110,0.342343,-0.916444,0.472214
7632508148,13.571007,-22.965530,-20.876638,0.368859,-0.906699,0.480997
7632528149,14.478445,-17.847185,-23.160990,0.365248,-0.895706,0.424420
7632548149,15.805701,-12.873618,-23.546764,0.376354,-0.822577,0.437273
7632568150,17.107901,-14.945340,-23.908091,0.326725,-0.790350,0.443210
7632588151,14.969174,-15.411485,-25.408476,0.294891,-0.842471,0.470052
7632608151,13.955942,-13.187692,-28.218082,0.313468,-0.876510,0.520202
7632628152,12.691927,-10.165468,-36.524483,0.318001,-0.919525,0.551192
7632648153,19.072554,-8.154158,-47.695774,0.352220,-0.970619,0.512643
7632668156,32.749901,-1.747290,-60.235008,0.427562,-0.967238,0.498481
7632688156,45.596966,4.562520,-69.578278,0.450078,-0.910530,0.441647
7632708158,54.503464,8.076990,-77.386223,0.518134,-0.696296,0.400364
7632728157,60.562523,10.248897,-77.264160,0.630178,-0.485561,0.414856
7632748158,64.260170,10.706882,-70.063759,0.700213,-0.303370,0.525962
7632768159,48.456654,15.542373,-66.259415,0.780363,-0.179530,0.729009
7632788158,7.089272,30.734222,-72.553154,0.828990,-0.176132,0.860616
7632808158,-35.050240,56.349487,-87.424675,0.814969,-0.172328,0.813439
7632828159,-65.261185,80.367775,-105.618767,0.806575,-0.159909,0.639761
7632848160,-71.843430,99.878372,-132.700363,0.739093,-0.176794,0.522402
7632868160,-77.393387,104.080299,-165.181229,0.822330,-0.315149,0.518980
7632888161,-69.407791,101.040703,-184.202271,0.828990,-0.379097,0.341792
7632908162,-41.028881,97.889000,-224.662491,0.906147,-0.260617,0.356438
7632928163,-17.399506,103.037323,-260.601837,0.981047,-0.179263,0.377925
7632948163,3.457644,105.098770,-289.804291,0.953716,0.218481,0.345725
7632968164,-30.930140,90.349007,-307.826385,0.968156,0.618593,0.261276
7632988166,-104.255455,66.201653,-309.304596,1.201360,0.663536,0.101024
7633008167,-179.177063,46.958988,-314.605042,1.488386,0.360554,-0.121023
7633028168,-175.122772,49.660156,-316.642029,1.688992,-0.070250,-0.071337
7633048168,-151.058121,48.194298,-305.863068,1.680145,-0.101015,0.014516
7633068169,-167.396042,49.097790,-296.969696,1.603824,0.083667,-0.095083
7633088170,-210.652313,61.474373,-286.857849,1.680825,0.241020,0.050316
7633108170,-225.695084,71.339447,-242.552567,1.718535,0.492375,0.144161
7633128169,-285.375916,98.231026,-233.161041,1.839898,0.378444,-0.166925
7633148170,-389.899597,141.556808,-220.865448,2.164438,-0.594291,-0.044178
7633168171,-415.685455,148.007355,-75.348404,1.858159,-2.201419,-0.243039
7633188172,-227.052444,113.400139,22.031435,1.327418,-2.261918,-0.460809
7633208172,-79.088005,122.816307,8.143215,1.132585,-1.274482,0.305609
7633228173,-54.411896,65.727272,34.134628,1.195831,-0.472401,0.527163
7633248174,-57.338902,49.168030,84.895432,1.015364,-0.436390,0.159014
7633268174,-52.016243,39.316246,127.054092,0.622154,-0.723722,0.340444
7633288175,-35.694469,26.406454,151.325546,0.608763,-0.634326,0.570809
7633308177,-37.616119,30.348717,161.590759,0.794391,-0.358596,0.605110
7633328178,-61.447346,39.703865,178.056580,0.731149,-0.269211,0.602005
7633348179,-79.614479,36.988152,192.924973,0.591350,-0.370495,0.578164
7633368180,-70.478806,32.273045,201.043503,0.597955,-0.521891,0.566327
7633388180,-37.748703,38.286526,203.845673,0.598317,-0.523302,0.620717
7633408181,-2.474530,56.695034,191.229385,0.504509,-0.310378,0.654721
7633428182,-4.798260,73.606682,162.073090,0.355182,-0.001972,0.691078
7633448181,-48.770271,68.692963,122.004532,0.262150,0.105691,0.669696
7633468181,-97.920143,50.497673,70.940010,0.122054,-0.059248,0.497873
7633488182,-111.035477,26.659224,12.061147,-0.031603,-0.172652,0.330686
7633508182,-117.482048,-1.243147,-50.910603,-0.083751,-0.131440,0.147642
7633528183,-128.140839,-39.268745,-99.560867,-0.012534,-0.246740,0.181144
7633548184,-104.633072,-31.292971,-100.091972,0.838531,-1.064239,0.675049
7633568185,-24.647076,10.119105,17.988167,0.755610,-2.561285,0.311186
7633588186,147.145416,23.733715,-37.535500,0.106422,-1.147895,0.605385
7633608186,99.648422,-3.330415,-102.458961,0.040597,-0.253955,0.441757
7633628187,46.522377,-21.733337,-125.379211,0.099056,-0.212842,0.402947
7633648189,34.114990,-36.860798,-131.090256,0.280928,-0.455574,0.411153
7633668190,45.154476,-49.478092,-132.170181,0.471995,-0.697940,0.477642
7633688191,77.186127,-54.305603,-144.058395,0.501225,-0.703439,0.530470
7633708191,109.803329,-65.971909,-157.050568,0.532210,-0.494643,0.607024
7633728192,98.245087,-81.147911,-172.606415,0.639820,-0.287157,0.737274
7633768192,27.968353,-92.097748,-209.943665,0.838957,-0.303214,0.691546
7633788192,19.991940,-71.630058,-227.258118,0.984612,-0.342585,0.652661
7633808193,49.891136,-33.908241,-215.604309,1.066156,-0.101711,0.618950
7633828194,43.736885,-13.500016,-203.844147,1.092927,-0.140879,0.678565
7633848194,61.769608,-19.112047,-181.657837,1.333097,-0.454971,0.785965
7633868195,74.305283,-13.864609,-87.628716,1.313845,-0.820663,0.771960
7633888196,82.140549,-4.187782,22.945555,0.909352,-0.886697,0.697480
7633908197,96.353218,7.925172,66.582695,0.656495,-0.596817,0.683457
7633928197,83.360168,15.499765,82.201553,0.767151,-0.388781,0.589884
7633948198,40.924397,17.797688,102.895576,0.910029,-0.285017,0.575590
7633968200,1.857956,7.318211,130.927505,0.954091,-0.384860,0.607213
7633988201,-0.053178,6.362560,161.771072,0.916837,-0.536487,0.571404
7634008202,29.551994,13.471345,189.774353,0.866908,-0.553465,0.524368
7634028202,57.480568,19.813957,212.735214,0.972826,-0.484848,0.514893
7634048203,80.744492,34.608921,225.594742,1.074569,-0.343713,0.573678
7634068204,91.908997,54.911022,229.980927,0.916717,-0.177567,0.636216
7634108204,51.329174,36.435379,189.312393,0.738698,0.263632,0.622263
7634128204,9.491321,7.631542,138.908524,0.643427,0.431387,0.553233
7634148205,-26.079294,-23.777767,76.480865,0.302824,0.408939,0.392070
7634168205,-59.234055,-53.069199,5.346537,0.011251,0.495092,0.314017
7634208207,-92.301170,-86.507118,-156.497849,0.253567,0.326934,0.324969
7634228207,-87.636299,-68.315002,-194.590698,1.090095,-0.130073,0.730729
7634248208,-132.917496,-29.208414,-119.677292,1.443315,-1.044542,0.514456
7634268209,-9.700920,-7.887939,-143.157593,0.834210,-0.709589,0.441606
7634288211,19.964340,-25.585121,-161.071320,0.727496,-0.492891,0.205603
7634308212,31.979454,-27.426498,-187.198761,0.719990,-0.196770,0.343275
7634328212,24.854023,-51.565689,-209.049271,0.801125,0.010610,0.356960
7634348213,15.140072,-62.581108,-220.809921,0.993604,0.024123,0.354038
7634368214,10.004519,-58.499542,-216.914108,1.227219,-0.066765,0.326591
7634388214,17.927189,-50.944393,-201.033539,1.321906,-0.102250,0.356731
7634408215,37.192745,-42.533508,-192.618027,1.251068,-0.076772,0.450401
7634428215,46.625294,-45.169510,-189.738617,1.045485,0.045617,0.592488
7634448215,-2.087262,-69.373497,-180.408752,1.016584,0.341077,0.614111
7634468216,-68.610527,-53.801502,-158.106995,1.178543,0.445820,0.525013
7634488216,-106.918289,-34.756584,-137.644531,1.227588,0.229101,0.515245
7634508217,-99.509941,-14.168935,-112.009964,1.189200,-0.018587,0.378100
7634528218,-72.647522,-6.504465,-82.598404,0.927611,-0.104189,0.329531
7634548218,-49.164780,-12.336616,-81.326546,0.958395,-0.050614,0.301014
7634568219,-16.870733,-0.133153,-77.478928,1.014805,-0.018037,0.304274
7634588220,2.800455,2.132525,-70.336891,0.943398,0.021794,0.275670
7634608221,4.084977,-2.784415,-64.438583,0.918489,0.061581,0.351065
7634628223,-4.896191,3.830742,-55.893497,0.963096,0.045512,0.342365
7634648224,-12.132041,-2.542132,-51.758308,0.912967,0.097468,0.335042
7634668224,-12.001996,4.201750,-52.579803,0.991980,0.090557,0.394778
7634688225,-3.888269,9.430690,-44.843655,1.032443,0.084817,0.383963
7634708226,2.154269,11.769066,-33.619637,0.955543,0.132620,0.345238
7634728226,3.287733,10.181565,-25.129164,0.991746,0.220161,0.316163
7634748226,1.378083,5.480360,-17.416199,0.935566,0.327482,0.363570
7634768226,-1.207573,8.607406,-15.541527,0.867340,0.454988,0.374333
7634788227,1.531856,7.071869,-14.521172,0.789715,0.560743,0.413886
7634808228,-0.412711,11.993311,-13.349101,0.589700,0.684010,0.428678
7634828228,-12.261162,3.813993,-18.341856,0.597817,0.790003,0.465807
7634848229,-35.273136,5.812880,-18.884146,0.772685,0.751125,0.485587
7634868230,-52.283531,4.621773,-8.283565,0.692619,0.629075,0.426818
7634888230,-56.401024,-8.571846,-4.762449,0.627240,0.602727,0.388163
7634908231,-56.191071,-5.318388,-11.655555,0.746218,0.518804,0.410809
7634928232,-43.219845,2.240181,-13.162546,0.722773,0.331939,0.461424
7634948234,-24.970304,2.756894,-10.732870,0.925705,0.264443,0.403298
7634968234,-23.879208,-1.611441,-0.154976,0.683422,0.325263,0.368545
7634988235,-29.224445,-12.369727,-3.243114,0.629545,0.303191,0.417052
7635008236,-24.366693,-6.473683,-14.554247,1.089677,0.099776,0.434114
7635028237,-8.983958,-1.435785,-5.801725,1.101430,-0.004872,0.361590
7635048238,12.733561,-1.045339,7.555725,1.069669,-0.102747,0.354838
7635068255,15.761707,-0.072919,13.487765,0.956956,-0.062321,0.338396
7635088237,5.608028,0.040961,10.547090,0.945925,0.067718,0.337747
7635108238,-1.114578,0.059292,5.546955,0.945596,0.106971,0.329569
7635128239,4.072819,-0.837559,-0.483749,0.935172,0.087507,0.332500
7635148239,18.255756,0.054529,-3.371933,0.945882,0.060629,0.325085
7635168240,32.829430,2.943958,-6.111370,0.982354,0.067915,0.322877
7635188241,42.310547,3.258762,-9.720193,0.981099,0.126011,0.353259
7635208242,42.908783,2.421474,-10.676646,0.929317,0.149634,0.402726
7635228242,39.648537,0.185309,-11.441949,0.919466,0.105422,0.443077
7635248243,43.575294,-0.263563,-10.500334,0.919610,0.082494,0.435586
7635268245,53.551502,0.959397,-8.765604,0.974383,0.145812,0.424766
7635288246,58.876762,3.926003,-3.841012,0.992351,0.290760,0.454372
7635308247,47.048630,3.821435,2.543739,0.977819,0.401371,0.513824
7635328247,19.609327,4.466593,8.228868,0.984632,0.375227,0.494774
7635348248,8.813656,7.655083,19.913509,0.956243,0.238669,0.457910
7635368249,5.803864,13.204981,35.769508,0.941949,0.220082,0.376595
7635388249,12.813801,19.504517,53.263401,0.902441,0.153896,0.336714
7635408249,23.168081,22.367908,63.583813,0.940318,0.198968,0.321717
7635428250,26.933479,24.091742,72.472824,0.937047,0.226178,0.344344
7635448250,31.782085,24.400097,79.349472,0.967054,0.202468,0.332787
7635468251,44.111031,25.675858,87.251480,0.964870,0.155701,0.352092
7635488251,57.770111,27.105295,99.455528,0.991029,0.140113,0.387805
7635508252,58.982849,27.607801,109.782806,1.032521,0.141813,0.415653
7635528253,51.236027,32.458202,116.719208,1.117529,0.191316,0.424322
7635548254,40.523300,38.836586,127.393494,1.117761,0.212540,0.472161
7635568254,28.007427,44.491692,138.846832,1.100540,0.123551,0.479010
7635588255,19.908297,56.570557,152.074722,1.130728,0.067245,0.476804
7635608257,18.917355,63.373684,166.471939,1.091186,0.049380,0.472120
7635628258,11.736076,60.489922,186.238098,1.076923,-0.013744,0.493014
7635648259,28.194733,64.168907,208.290710,1.061042,-0.120910,0.444970
7635668259,53.888268,74.042259,213.729294,1.114155,-0.065825,0.485249
7635688260,51.120499,71.234093,211.604050,0.912126,0.182686,0.393654
7635708260,31.568810,53.763256,188.062637,0.794715,0.385217,0.428674
7635728260,14.343253,41.274483,163.294891,0.763412,0.235191,0.450093
7635748261,20.842615,42.032997,141.945633,0.644813,0.021635,0.590921
7635768261,31.478018,47.251606,113.208710,0.604815,0.061236,0.675380
7635788262,17.066986,46.815319,83.069153,0.607805,0.146600,0.629128
7635808262,-10.603745,41.372204,48.825626,0.549033,0.129055,0.478573
7635828263,-27.491964,31.777639,0.789276,0.456381,0.143535,0.355825
7635848264,-25.974480,5.829386,-48.822483,0.421664,0.111303,0.256363
7635868264,-7.960459,-20.162251,-88.037514,0.416987,0.055867,0.269664
7635888265,13.093941,-36.694126,-114.648827,0.574863,0.005978,0.269831
7635908266,18.077316,-56.582626,-123.594238,0.674909,0.022388,0.237109
7635928268,35.562729,-81.095230,-135.524338,0.741769,-0.049115,0.358010
7635948269,63.605030,-78.797928,-152.396576,0.860866,-0.119213,0.470293
7635968269,82.426193,-62.485744,-160.125427,0.980913,0.134437,0.687710
7635988270,36.296455,-38.448315,-177.274200,0.996620,0.639186,0.929408
7636008270,-81.206909,-68.501251,-194.680023,0.908926,0.773737,0.749315
7636028271,-193.386292,-95.918396,-191.527939,1.215568,0.482849,0.435881
7636048270,-223.052994,-79.766266,-192.529556,1.529528,-0.039444,0.301485
7636068271,-195.247940,-43.809925,-187.887589,1.536511,-0.519949,0.256579
7636088272,-105.086334,-24.776474,-151.392151,1.344108,-0.764597,0.306928
7636108273,32.512825,-38.996220,-81.723175,1.187111,-0.905764,0.354676
7636128273,123.120171,-42.549438,-27.390539,1.157361,-0.819672,0.342564
7636148274,170.135254,-34.997570,17.736101,1.155386,-0.355048,0.415858
7636168275,156.297714,-11.889853,46.085674,1.047099,-0.015197,0.544273
7636188276,102.729584,5.934530,68.667610,0.870748,0.112151,0.707741
7636208277,34.486404,5.516788,94.780983,0.958446,0.114810,0.705847
7636228277,-9.920362,33.341232,131.782883,1.212645,0.080529,0.554503
7636248279,-14.431192,63.848991,163.286011,0.986569,0.164410,0.357559
7636268280,-17.636274,45.708061,161.125900,0.706993,0.494380,0.291295
7636288281,-12.779316,26.209839,124.753265,0.904576,0.525803,0.518289
7636308282,36.798050,55.969578,115.333496,1.256418,-0.105410,0.356485
7636328282,127.687668,73.138573,130.274750,1.322453,-0.423067,0.369693
7636348283,162.904404,83.103607,126.823792,1.037865,0.084144,0.687962
7636368283,86.481911,85.441368,107.989143,0.816027,0.440197,0.694032
7636388283,7.716940,77.042770,95.794914,0.691944,0.347518,0.545158
7636408283,-16.062311,67.755730,99.464127,0.564444,0.206888,0.407295
7636428284,-6.383682,56.710190,92.904167,0.479651,0.190452,0.340106
7636448285,13.916438,43.101845,71.397400,0.533610,0.155798,0.298036
7636468286,33.851898,25.670771,42.606667,0.560703,0.168208,0.309703
7636488286,43.066086,4.558388,9.344797,0.498192,0.202352,0.373312
7636508287,41.833374,-20.457420,-26.807800,0.465852,0.199197,0.416181
7636528287,35.874851,-38.008755,-64.249344,0.570518,0.204644,0.392887
7636548288,21.356369,-41.985538,-93.361641,0.711524,0.367869,0.363704
7636568288,-1.606972,-47.919998,-105.981522,0.770740,0.564208,0.405615
7636588291,-36.863991,-61.251381,-121.239883,0.853050,0.512291,0.463340
7636608291,-57.498974,-75.146751,-132.557632,0.990555,0.407296,0.483030
7636628292,-65.709755,-77.757256,-129.939713,1.085968,0.272871,0.549907
7636648293,-81.228287,-70.439705,-128.374542,1.210958,0.103201,0.560888
7636668293,-97.600883,-66.352859,-126.836411,1.306612,0.034106,0.486199
7636688294,-102.667999,-51.344753,-118.028076,1.328253,-0.009468,0.446312
7636708293,-102.910408,-36.051876,-104.136314,1.353279,-0.153241,0.391033
7636728294,-91.062355,-19.846977,-52.725197,1.286959,-0.257038,0.459187
7636748295,-82.822624,-15.959886,5.536846,1.107058,-0.492270,0.436544
7636768296,-51.188801,-18.629045,47.185593,1.016577,-0.526007,0.435148
7636788296,-25.854752,-10.084035,78.089622,1.055573,-0.426989,0.392698
7636808297,-10.948382,4.932165,94.094444,1.135244,-0.373817,0.452978
7636828299,-12.221805,18.221272,123.973816,1.194852,-0.475199,0.609656
7636848299,-5.416215,32.348351,163.410431,1.110677,-0.576251,0.652686
7636868299,16.387003,58.556084,184.766541,1.027372,-0.407010,0.616318
7636888300,14.762270,75.438416,180.677383,0.873074,-0.052612,0.511444
7636908302,11.294290,66.419449,147.988571,0.779354,0.286195,0.474099
7636928303,-0.351865,56.404305,122.355812,0.685955,0.301537,0.448568
7636948304,11.971344,51.348431,116.622940,0.719897,-0.098174,0.410355
7636968304,48.156231,52.932560,113.524734,0.805758,-0.235765,0.515040
7636988305,59.219688,59.916798,100.592064,0.726205,-0.014056,0.586907
7637008306,32.311104,64.254265,80.959831,0.539107,0.192808,0.630919
7637028318,-14.629982,52.315914,56.568535,0.384622,0.231659,0.645825
7637048305,-73.722984,20.442287,17.618393,0.302966,0.140045,0.519893
7637068306,-112.385216,-13.318297,-27.739170,0.359483,0.011688,0.318017
7637088307,-112.303085,-25.972879,-66.112022,0.558449,-0.082612,0.267652
7637108307,-88.246735,-27.410273,-72.036484,0.712667,-0.272265,0.329402
7637128308,-31.823309,-28.937355,-58.167732,0.783621,-0.493293,0.438503
7637148309,22.544735,-28.694582,-37.215031,0.866845,-0.478426,0.597008
7637168310,32.028591,-23.358973,-5.904883,0.919008,-0.271086,0.800133
7637188311,-12.800013,-8.970029,29.153610,1.092888,-0.260967,0.989816
7637208311,-94.600662,3.828202,94.709549,1.381318,-0.706034,1.093968
7637228313,-148.429871,12.131058,216.788330,1.478951,-1.404483,0.894698
7637248314,-92.203049,41.305920,254.122345,0.820887,-0.714013,0.678064
7637268315,-102.077103,-3.292902,173.307510,0.353470,0.244117,0.542792
7637308316,-81.730583,32.013439,111.271927,0.465060,-0.964790,0.191421
7637328317,24.741159,42.676880,122.235039,0.620706,-1.064894,0.173181
7637348318,50.533352,38.973671,115.469376,0.881007,-0.376000,0.400191
7637368316,8.412498,11.230430,99.205795,0.726145,0.117646,0.572568
7637388317,-33.577991,-15.863747,78.341080,0.470598,-0.351915,0.706647
7637408318,-46.896145,-21.193352,67.156265,0.365784,-0.816795,0.743109
7637428319,-37.423222,-9.952194,37.470222,0.480138,-0.756196,0.751174
7637448319,-35.829475,7.923449,8.101668,0.495755,-0.730404,0.543873
7637468320,-11.856040,14.120475,-5.615945,0.419911,-0.650801,0.359453
7637488321,8.970747,8.633409,-10.397793,0.504609,-0.482358,0.306546
7637508321,6.293354,-3.413656,-5.414183,0.784154,-0.471882,0.379162
7637528322,3.351987,-14.107964,8.212544,0.891428,-0.497144,0.570543
7637548323,-8.894016,-16.915152,-2.639036,0.718725,-0.395449,0.852568
7637568325,-39.872532,-2.231592,-20.042564,0.552478,-0.700458,0.859229
7637588326,-37.924969,19.571955,-34.338257,0.555920,-0.891295,0.697459
7637608326,-25.110415,32.875381,-51.510006,0.516993,-0.768477,0.430378
7637628327,-5.280493,33.924355,-66.340454,0.501609,-0.622540,0.225571
7637648328,28.571281,29.696621,-74.440033,0.607069,-0.566207,0.208253
7637668329,67.039055,28.226635,-75.422203,0.779712,-0.489811,0.377477
7637688328,76.484314,36.781677,-74.675812,0.955326,-0.220692,0.684609
7637708329,32.293259,46.443630,-78.165421,1.011410,0.043865,0.940528
7637728329,-32.574692,56.971558,-84.991829,0.993834,0.075225,0.895173
7637748330,-78.882927,66.221207,-93.120697,0.976648,-0.127813,0.733292
7637768331,-74.987328,80.293808,-106.083153,0.830992,-0.199756,0.534078
7637788331,-65.696312,87.087616,-137.929199,0.674906,-0.156397,0.416908
7637808332,-63.006271,90.755577,-176.904709,0.644668,-0.186157,0.344361
7637828333,-51.675903,90.327858,-212.549820,0.695687,-0.095860,0.301163
7637848333,-39.694744,86.626198,-243.532272,0.816758,0.110137,0.220223
7637868334,-42.417408,80.238312,-259.411469,0.859558,0.426236,0.272078
7637888336,-95.616058,52.398918,-263.791870,0.938930,0.585222,0.293694
7637908337,-176.074829,32.034626,-272.572815,1.168820,0.422346,0.255092
7637928338,-197.391998,30.277847,-281.123108,1.733525,0.038103,0.108420
7637948338,-167.748291,48.730618,-281.167419,2.093498,-0.126333,0.267906
7637988340,-172.588470,69.865135,-256.824432,1.464534,0.175548,0.020776
7638008340,-190.138489,82.070145,-259.763336,1.368605,0.234972,-0.021695
7638028340,-187.396240,73.945328,-237.875732,1.398199,0.361916,-0.000634
7638048340,-255.767365,63.392399,-251.217178,1.642692,0.249866,-0.169398
7638068341,-393.013306,111.573906,-205.167053,2.038536,-0.623287,-0.192406
7638088342,-412.211914,108.691193,-55.762154,1.557777,-2.126870,-0.503436
7638108343,-203.950302,73.635323,19.491995,1.205817,-2.485517,-0.403685
7638128343,-12.481505,90.306328,19.423334,1.293194,-1.548057,0.439315
7638148344,21.345699,63.555386,48.921101,1.442777,-0.502768,0.556022
7638168344,5.703679,46.456749,90.851204,1.233349,-0.249758,0.259592
7638188345,-21.897247,17.523750,123.899582,0.868708,-0.550080,0.477722
7638208346,-36.387203,10.325057,150.839264,0.854351,-0.574311,0.656278
7638228348,-41.270878,29.896482,163.775314,0.835288,-0.449633,0.656542
7638248349,-43.427021,45.479965,176.701782,0.796573,-0.451183,0.611571
7638268350,-33.312019,52.718601,186.562698,0.743125,-0.506111,0.556418
7638288350,-17.495903,52.188236,198.393417,0.699464,-0.485017,0.561857
7638308351,1.967001,53.768517,207.218964,0.639293,-0.391186,0.550049
7638328352,22.076538,57.818947,204.973328,0.496192,-0.242555,0.566575
7638348351,24.827871,60.709343,188.844666,0.383633,-0.067671,0.608089
7638388352,-45.719128,60.041031,125.973877,0.258152,0.171172,0.697474
7638408353,-85.341400,55.687565,84.408638,0.235048,0.085758,0.570668
7638428354,-104.903320,48.900436,48.089958,0.119126,-0.012211,0.458080
7638448355,-116.081116,32.321644,13.289618,-0.005924,-0.149611,0.352574
7638468355,-111.148964,6.745132,-29.796396,0.010928,-0.261611,0.237616
7638488356,-97.570122,-22.594910,-75.146645,0.091012,-0.310528,0.215822
7638508356,-79.561447,-38.465847,-112.234138,0.327597,-0.350087,0.450958
7638528357,-94.645882,-8.019609,-67.664742,1.072633,-1.443804,0.981698
7638548359,17.464607,37.858162,46.365150,0.827046,-2.446023,0.651559
7638568360,133.807571,66.067307,-42.332470,0.123084,-0.706899,0.713163
7638588360,30.404432,9.420490,-94.768303,0.013545,-0.088467,0.544115
7638608361,-41.114319,-4.842051,-114.074440,0.120178,-0.338206,0.370424
7638628362,-17.968456,-0.861792,-114.828957,0.193789,-0.704375,0.314581
7638648363,7.570471,-18.557022,-116.909615,0.297154,-0.877532,0.335704
7638668363,44.976460,-24.878174,-136.779709,0.353214,-0.874409,0.389218
7638688363,79.745033,-42.279827,-156.906693,0.403544,-0.800328,0.380650
7638708363,105.412422,-60.390602,-172.733246,0.508563,-0.546736,0.495481
7638728364,94.972267,-80.970100,-190.313904,0.599865,-0.378096,0.586850
7638748365,59.855900,-90.159645,-206.800003,0.657763,-0.347584,0.638593
7638768365,26.488129,-90.657547,-224.040192,0.833226,-0.378453,0.672577
7638788366,20.778915,-73.208916,-225.263504,1.153417,-0.269156,0.666003
7638808367,22.241463,-30.505230,-213.806396,1.290788,-0.274123,0.611364
7638828367,50.691841,-17.368393,-201.836960,1.106884,-0.403627,0.627465
7638848368,68.675972,-48.224968,-164.671677,1.165033,-0.531305,0.786722
7638868369,56.468193,-38.030632,-67.952995,1.309138,-0.978835,0.746340
7638888371,90.216606,-14.796880,10.934608,0.830327,-0.762628,0.718859
7638908372,86.746689,-6.470922,26.635742,0.702853,-0.389863,0.628659
7638928372,34.689220,-5.425357,37.910625,0.760476,-0.206914,0.526546
7638948374,-9.021640,-9.956367,58.489456,0.804382,-0.188239,0.499062
7638968374,-8.609613,-13.620588,77.350533,0.762220,-0.337821,0.490902
7639008374,47.820847,-7.337528,78.675354,0.709134,-0.298557,0.399004
7639028375,70.269485,-0.249999,73.456718,0.751359,-0.071357,0.412449
7639048375,82.757523,4.496995,62.336319,0.769760,0.063476,0.453708
7639068376,85.201797,4.890738,50.202431,0.750297,0.100846,0.501647
7639088377,74.547813,0.558854,33.863766,0.737620,0.163641,0.538501
7639108377,49.035610,-7.832126,11.311527,0.739010,0.227002,0.546845
7639128378,18.981445,-26.165926,-17.185970,0.759266,0.241197,0.495203
7639148379,-0.651389,-49.629242,-40.616261,0.768474,0.197481,0.496879
7639168380,-14.289866,-65.666939,-59.061638,0.831963,0.118336,0.459967
7639188380,-16.507923,-63.044094,-79.938766,0.856682,0.023081,0.440426
7639208382,-12.939845,-57.970470,-99.926331,0.851072,-0.032352,0.433559
7639228383,-14.375981,-51.612114,-117.237083,0.883982,-0.046416,0.401542
7639248383,-17.436815,-47.093185,-132.655014,1.045110,-0.049379,0.420541
7639268384,-20.350435,-37.311737,-131.447372,1.151568,-0.103119,0.469233
7639288385,-15.804807,-24.137520,-117.704674,1.093523,-0.133496,0.471213
7639308385,-18.718437,-16.807030,-109.076538,0.990868,-0.034428,0.482887
7639328385,-33.529789,-18.585985,-103.818085,0.950682,-0.005183,0.472273
7639348385,-36.363014,-10.261400,-96.159935,0.986148,-0.078385,0.415285
7639388387,-21.357122,-11.018744,-100.701057,0.844397,0.025552,0.296325
7639408388,-6.004076,-10.095378,-97.842033,1.014467,0.021896,0.426252
7639428389,4.329423,-6.582257,-74.180038,1.048086,-0.038519,0.370691
7639448389,5.553720,-15.129152,-63.538212,1.074334,0.040047,0.334904
7639468390,-7.448843,-11.291285,-62.667885,1.005600,0.120782,0.417985
7639488390,-21.751938,-7.849181,-65.673080,0.854364,0.198465,0.419738
7639508391,-26.798811,-6.568095,-71.932892,0.707818,0.312314,0.357406
7639528394,-5.619724,-3.268317,-79.142372,0.587640,0.445239,0.415816
7639548394,12.239811,6.637110,-89.451965,0.688022,0.484591,0.468489
7639568395,15.833390,13.098113,-86.731506,0.861962,0.352573,0.426113
7639588395,0.540075,9.590217,-68.338951,1.129156,0.206374,0.407515
7639608396,-26.893652,5.032552,-33.927570,1.421712,-0.106034,0.360804
7639628397,-39.668827,4.427519,5.011726,1.069106,-0.171989,0.133692
7639648416,-12.373470,-17.337534,14.150507,0.243141,0.174374,0.219299
7639668397,31.395903,-13.966645,-31.029976,0.767078,0.102934,0.710488
7639688398,47.897179,15.788012,-43.475166,1.789830,0.294917,0.223805
7639708398,61.607037,-2.595649,24.954765,0.370423,0.651298,0.168374
7639728399,62.042061,-10.054261,18.413162,0.408247,0.463913,0.514791
7639748399,0.993251,-6.652409,-3.315871,0.990270,0.390604,0.650210
7639768400,-40.477818,-5.689203,6.497556,1.252953,0.501233,0.403775
7639788401,-34.840916,1.676026,29.289623,1.136560,0.133485,0.286388
7639808402,-11.746453,-1.953377,26.890387,1.012743,0.001746,0.235263
7639828402,-8.066235,2.780294,20.658657,0.908686,0.218760,0.298473
7639848405,-11.511812,5.318820,16.840424,0.812079,0.303704,0.361233
7639868405,-12.376918,0.447453,10.027055,0.841617,0.222046,0.365248
7639888406,-5.401332,-0.176587,7.961398,0.917182,0.143064,0.332195
7639908407,0.148710,4.538960,3.864223,0.989861,0.135650,0.328297
7639928408,-6.154903,13.216858,-6.276235,1.024370,0.163525,0.338980
7639948408,-18.157238,18.266733,-14.641566,1.004927,0.165087,0.362203
7639968408,-26.668077,16.153048,-21.706087,1.056088,0.150645,0.368960
7639988408,-29.637863,15.341719,-19.264654,1.044706,0.077434,0.356288
7640008408,-16.863768,15.030361,-6.455920,0.945797,-0.093679,0.334934
7640028409,11.107424,13.899869,3.384165,0.928194,-0.223534,0.274269
7640048410,46.179691,10.124552,6.318803,0.989730,-0.111296,0.280644
7640068411,68.179977,10.450926,6.178832,1.069722,0.085374,0.389164
7640088412,68.932480,9.204594,12.397301,1.032797,0.184879,0.490612
7640108412,59.902889,10.066184,23.240896,1.005392,0.158655,0.529598
7640128413,44.895023,18.411608,29.670263,0.989175,0.033570,0.524789
7640148414,37.044434,23.866693,37.037544,0.991951,0.047521,0.462028
7640168414,24.972082,28.439068,45.507233,0.992224,0.135184,0.420001
7640188416,12.939724,29.449156,60.201538,0.935371,0.197607,0.403510
7640208417,7.258611,26.706873,73.637543,0.905137,0.215417,0.370915
7640228418,11.702304,28.043549,84.926598,0.919394,0.184263,0.387591
7640248418,23.302338,30.947025,99.663956,0.986351,0.126974,0.428368
7640268419,42.746704,35.121605,123.501717,1.011224,0.088690,0.477005
7640288420,53.997543,44.094982,146.253250,1.087437,0.138919,0.529815
7640308419,42.060360,59.072235,160.625427,1.138388,0.258300,0.581308
7640328420,11.047778,73.962677,164.560059,1.136870,0.293801,0.703069
7640348420,-28.417355,70.674774,182.856857,1.124488,0.079950,0.701121
7640368421,-23.718748,77.067581,199.342575,1.117233,-0.007076,0.637531
7640388422,-2.567875,91.111946,203.711487,1.038910,0.062635,0.615786
7640408423,0.121691,97.788887,196.654755,0.861486,0.083871,0.598166
7640428423,1.604952,97.058243,179.940338,0.725911,0.091689,0.524347
7640448424,0.523228,96.258072,159.871475,0.680959,0.163904,0.523788
7640468425,-7.611130,94.399185,140.698349,0.552255,0.253784,0.445584
7640488425,-27.390314,78.110374,108.922516,0.336402,0.210456,0.382323
7640508427,-55.123177,42.850986,59.440975,0.273584,0.092374,0.257899
7640528428,-61.674305,1.289671,5.605228,0.365325,-0.035132,0.161264
7640548429,-28.443785,-40.658928,-40.301991,0.441483,-0.079530,0.106433
7640568429,22.080622,-55.222057,-78.197464,0.537421,0.030397,0.129335
7640588430,72.254776,-54.947285,-100.101212,0.517428,0.039421,0.311063
7640608431,116.621628,-52.401230,-117.558304,0.573198,-0.011959,0.424154
7640628432,129.423111,-54.279911,-126.773064,0.714022,0.137172,0.578714
7640648431,86.902107,-71.979889,-136.522110,0.797848,0.412771,0.783389
7640668431,5.448318,-90.249809,-156.190262,0.893021,0.510322,0.848706
7640688432,-72.059464,-104.735207,-190.841476,1.019728,0.355320,0.794623
7640708432,-125.569954,-96.380974,-208.873322,1.234422,0.239471,0.691020
7640728433,-163.416992,-82.430656,-211.142273,1.256584,0.107531,0.613456
7640768435,-143.159302,-63.428242,-163.004379,1.418073,-0.387346,0.428394
7640788435,-68.060768,-43.252163,-117.888466,1.276928,-0.669385,0.495614
7640808436,5.222209,-37.375046,-77.570618,1.144391,-0.648687,0.519594
7640828437,57.924152,-33.638893,-34.603268,1.116337,-0.334536,0.597127
7640848439,52.638237,-15.298102,-6.286346,1.095747,-0.149175,0.611220
7640868440,22.010998,-4.176527,25.074408,1.011262,-0.120881,0.665486
7640888441,-1.933408,14.454468,79.708153,1.145070,-0.379341,0.716777
7640908441,28.410612,49.811092,148.244049,1.196880,-0.540066,0.729894
7640928442,80.290649,85.945755,184.213684,1.177919,-0.214521,0.594352
7640948443,74.219612,103.095367,179.170929,1.025336,0.250264,0.449397
7640968442,36.133236,80.414757,160.373383,0.874494,0.493960,0.478341
7640988443,21.663080,66.184822,139.940155,0.794944,0.408416,0.296877
7641008443,41.866470,52.062580,112.850677,0.718853,0.123965,0.393522
7641028444,62.427597,45.413918,91.090775,0.701027,-0.007680,0.518690
7641048445,72.266365,42.638382,83.968246,0.660906,0.077158,0.479858
7641068446,65.832397,38.700829,82.708389,0.578899,0.234465,0.456365
7641088446,47.494125,32.579376,76.892426,0.575666,0.264322,0.492452
7641108447,26.574669,27.001377,60.211140,0.559702,0.268291,0.472983
7641128447,8.598169,9.243963,31.785053,0.484505,0.292840,0.412741
7641148448,2.370435,-17.584158,-0.339263,0.447817,0.260834,0.402373
7641168450,8.954062,-36.338757,-38.075817,0.543235,0.208473,0.365918
7641188451,15.586548,-40.149155,-71.062355,0.655329,0.251115,0.360919
7641208451,15.211642,-45.247375,-86.935341,0.751357,0.393181,0.361983
7641228452,2.876300,-60.242466,-87.137794,0.803808,0.504297,0.409879
7641248453,-22.357456,-78.325272,-88.483223,0.888518,0.473371,0.470589
7641268453,-47.422882,-86.237740,-91.646172,1.042490,0.359967,0.492398
7641288472,-67.265839,-85.278748,-90.906334,1.137820,0.199073,0.513708
7641308454,-76.154922,-83.857651,-94.003098,1.209135,0.051298,0.463244
7641328454,-75.059944,-68.453293,-91.311768,1.274444,-0.021076,0.432084
7641348455,-68.698463,-50.829403,-72.308388,1.245929,-0.093595,0.436013
7641368456,-67.105804,-40.516102,-49.283241,1.269300,-0.243200,0.402698
7641388456,-43.626232,-21.381756,-11.731324,1.295653,-0.399665,0.447054
7641408457,-8.508376,-9.129128,40.077770,1.192004,-0.442056,0.501209
7641428458,9.014301,-3.156499,78.719666,1.138463,-0.321344,0.548072
7641448458,-2.685739,10.956442,102.419060,1.192188,-0.201232,0.642089
7641468459,-33.472115,31.162613,127.872681,1.165690,-0.309432,0.772830
7641488462,-55.035690,58.283298,166.703659,1.105921,-0.536342,0.734667
7641508462,-39.150063,88.877548,196.357773,1.039568,-0.394427,0.567173
7641528463,-30.263638,102.970757,187.529266,0.942276,0.032430,0.445523
7641548463,-36.331120,86.413605,166.916229,0.737483,0.273509,0.408561
7641568464,-29.884180,67.542915,146.621323,0.599600,0.168133,0.362089
7641588465,-6.312309,57.279762,123.359398,0.607450,-0.093997,0.383162
7641608466,12.874603,48.326771,105.317108,0.594044,-0.184916,0.432312
7641628465,16.630199,35.387646,78.388565,0.578389,-0.022992,0.499448
7641648466,-3.130915,26.788042,57.072483,0.563828,-0.015420,0.530563
7641668466,-17.642797,19.254831,43.547318,0.577939,-0.147893,0.549889
7641688467,-22.636221,13.515283,26.353254,0.524781,-0.173059,0.580207
7641708467,-18.072025,7.410290,-2.882167,0.608788,-0.108251,0.627855
7641728468,-26.355505,10.345340,-29.113337,0.751252,0.010304,0.681012
7641748469,-69.737793,15.967838,-25.232185,0.827945,-0.081561,0.645067
7641768470,-125.584190,9.765436,26.779711,0.895000,-0.482891,0.580850
7641788470,-124.911003,0.466709,101.170692,0.886024,-1.122699,0.630634
7641808471,-87.954575,-3.335277,149.966431,0.890936,-1.516410,0.689091
7641828473,-36.563705,-8.813048,173.626038,0.520116,-1.042768,0.477678
7641848474,-15.171428,-26.385155,115.625038,0.307662,-0.238772,0.481794
7641868474,-33.626442,-26.068420,76.160957,0.545834,-0.227642,0.494328
7641888475,-19.510818,6.783926,69.206940,0.609804,-0.615042,0.522360
7641908476,9.140707,17.455673,79.195602,0.713734,-0.690070,0.502668
7641928477,4.777171,15.999901,76.706749,0.816391,-0.294507,0.516961
7641948476,-27.386803,-0.105324,49.014317,0.613181,-0.164568,0.631136
7641968476,-38.422859,-17.807154,33.353554,0.485285,-0.662468,0.625640
7641988477,-13.795342,-17.298174,37.957939,0.536044,-0.859727,0.644233
7642008478,-2.100495,-11.149675,29.296997,0.605730,-0.563238,0.686899
7642028479,-11.026506,-3.829184,4.538353,0.521518,-0.484303,0.627646
7642048479,-9.190684,-2.336134,-14.186365,0.381782,-0.573838,0.510128
7642068480,6.020265,-0.709626,-27.326479,0.410793,-0.567044,0.437068
7642088481,18.252682,2.556061,-32.534309,0.613712,-0.516231,0.451557
7642108481,16.391188,3.350176,-25.279640,0.791950,-0.496723,0.516082
7642128482,3.142464,-1.142119,-12.333083,0.858243,-0.494830,0.549650
7642148484,-9.940247,-9.948314,-8.654115,0.784519,-0.379655,0.579976
7642168485,-13.508295,-13.233223,-20.242310,0.682657,-0.414241,0.692955
7642188486,-18.472431,-2.359399,-26.340794,0.668867,-0.678018,0.719400
7642208486,-13.462320,13.973394,-28.193167,0.634906,-0.658683,0.667132
7642228487,-19.539597,21.751278,-35.002068,0.593509,-0.419284,0.526121
7642248488,-30.609262,18.378155,-37.375599,0.628618,-0.452093,0.432569
7642268488,-20.232565,13.602391,-33.320507,0.703456,-0.680549,0.422238
7642288488,5.256873,16.091845,-31.882763,0.761734,-0.642792,0.478982
7642308488,20.069740,21.163464,-34.169624,0.858275,-0.437338,0.565186
7642328489,15.160231,24.773607,-31.480997,0.864744,-0.403449,0.662332
7642348490,-1.664546,31.822086,-31.170116,0.853554,-0.452003,0.676830
7642368490,-17.987293,39.134373,-36.091072,0.838189,-0.356612,0.618017
7642388491,-22.117016,45.954350,-44.378799,0.766510,-0.322388,0.540239
7642408492,-8.160200,49.782631,-53.784290,0.738256,-0.352004,0.493433
7642428493,7.084710,57.103996,-67.117561,0.717739,-0.232466,0.596107
7642448493,-4.573785,64.462860,-80.449692,0.695963,-0.025989,0.699256
7642468495,-41.194977,56.737129,-99.504112,0.679043,0.161944,0.669836
7642488496,-73.330917,60.527763,-118.555222,0.778967,0.141183,0.650273
7642508496,-91.633591,71.268806,-133.323792,0.835039,0.073679,0.602709
7642528497,-99.234818,85.601570,-136.720551,0.904566,0.038520,0.465847
7642548498,-91.065300,84.157455,-153.606659,0.795676,0.145041,0.398350
7642568498,-101.930901,76.306427,-179.062790,0.718338,0.013540,0.223088
7642588499,-109.562798,67.431046,-211.269684,0.813136,-0.010706,0.244665
7642608499,-123.811821,57.239143,-238.759171,1.100091,0.098537,0.159676
7642628499,-145.032745,48.873531,-267.965363,1.394015,0.104428,0.104713
7642668501,-105.440956,55.968845,-297.025452,1.611215,-0.117006,0.268745
7642688501,-108.778053,62.195869,-301.202881,1.510837,0.100767,0.155385
7642708502,-134.490540,74.931183,-295.132080,1.479815,0.335434,0.048483
7642728503,-146.104126,55.822514,-263.166382,1.634517,0.513020,0.223634
7642748504,-211.225082,50.019630,-258.359009,1.696785,0.320802,0.122406
7642768504,-339.053711,81.655441,-232.582352,2.034344,-0.769180,0.164353
7642788505,-353.687439,86.352341,-70.594933,1.599949,-2.206461,-0.202872
7642808507,-166.482620,58.135353,9.770349,1.128897,-2.176633,-0.131359
7642828508,-25.929605,65.689758,18.813622,1.107546,-1.220753,0.491070
7642848508,-24.423920,41.608448,64.907089,1.259755,-0.363672,0.533251
7642868509,-26.557859,38.775330,109.887352,1.071316,-0.321180,0.142392
7642888510,-31.639505,17.410198,152.388916,0.815065,-0.598356,0.429670
7642908511,-24.476318,7.863194,180.965363,0.847747,-0.435597,0.531485
7642928510,-21.113792,19.035944,196.455200,0.886652,-0.278790,0.544154
7642948511,-31.524681,22.041660,216.551392,0.825655,-0.317929,0.551986
7642968511,-20.671780,26.429455,233.550034,0.780838,-0.377875,0.578179
7642988512,-7.589721,34.420815,251.236481,0.777505,-0.295038,0.670004
7643008513,6.109811,48.824081,254.505508,0.749159,-0.133475,0.718500
7643028513,6.132976,69.544022,230.739563,0.588560,0.054224,0.745743
7643048514,-18.162416,70.710938,188.585342,0.433266,0.211417,0.726349
7643088515,-125.009270,32.930134,61.287052,0.068732,0.346404,0.388941
7643108516,-161.855347,12.061327,-25.705610,-0.122393,0.282567,0.148828
7643128518,-176.363403,-12.468193,-117.350914,-0.025939,0.160732,0.080704
7643148519,-131.883148,-4.098819,-190.500046,0.763674,-0.527155,0.736189
7643188520,161.868286,81.706909,-100.157303,0.473798,-1.041582,0.561842
7643208521,88.086624,-1.662623,-143.989639,0.077367,0.096530,0.225850
7643228521,-3.459530,-10.758269,-188.921066,0.372854,-0.079118,0.433750
7643248521,-20.429558,-28.066574,-207.147888,0.528403,-0.644038,0.408330
7643268522,14.784615,-36.636719,-226.625412,0.764801,-0.698655,0.524749
7643308523,8.393985,-60.601456,-290.519592,1.067072,-0.273514,0.595693
7643328524,2.419996,-41.422134,-303.323334,1.320931,-0.332279,0.448097
7643348525,35.765137,-10.320931,-294.938202,1.279836,-0.365217,0.486774
7643368525,80.135948,11.698500,-271.903107,1.058073,-0.154505,0.551450
7643388526,63.526814,-4.517858,-265.180298,0.949258,-0.028916,0.615834
7643408527,15.876493,-15.179211,-240.429276,1.459882,-0.242717,0.769659
7643428527,-67.931084,-15.263176,-118.297112,1.474008,-1.028406,0.505942
7643448530,-9.490901,-13.907290,-3.850640,1.042869,-0.988082,0.423539
7643468531,48.403038,6.272530,18.735825,0.871579,-0.578508,0.502816
7643488531,51.164101,1.629397,15.613332,0.913061,-0.268605,0.405614
7643508532,43.938076,-1.320502,22.871483,0.932040,-0.118168,0.343838
7643528533,43.775959,-5.301165,40.573921,0.820284,-0.140363,0.323442
7643548546,61.814278,-10.253867,37.504639,0.658178,-0.080106,0.355455
7643568534,65.752014,-18.273520,23.988588,0.675617,0.024095,0.382854
7643588533,67.224373,-23.978979,16.317198,0.817694,0.157995,0.408680
7643608534,62.839603,-22.601366,21.285749,0.870584,0.247729,0.392418
7643628535,49.709251,-21.769592,23.310186,0.489757,0.468819,0.495560
7643648535,6.242738,-69.491882,-11.999411,0.508082,0.720054,0.774656
7643668535,-28.860830,-43.390736,-55.630764,1.237973,0.466980,0.624256
7643688536,-41.434441,-0.766291,-45.097084,1.133389,0.105211,0.478437
7643708537,-15.108252,-0.324444,-29.397524,1.005635,-0.005898,0.402053
7643728538,-5.922377,-12.941642,-60.843536,0.945641,0.321579,0.397968
7643748538,-35.946545,-17.274714,-67.906113,1.025600,0.316551,0.400128
7643768539,-46.755985,-4.930005,-46.763752,1.014819,-0.109729,0.357403
7643808542,-12.392853,-4.096719,-40.335869,0.776106,0.105208,0.285657
7643828542,-26.785841,-12.564701,-51.501556,0.836390,0.179375,0.342317
7643848543,-19.925243,-5.258934,-52.044765,0.879289,-0.062761,0.389523
7643868544,2.937449,0.618704,-41.848347,0.923323,-0.188233,0.370732
7643888545,12.291157,1.095262,-27.294910,0.816088,-0.011375,0.342033
7643908544,0.665290,-3.800605,-29.522211,0.787403,0.169654,0.390865
7643928544,-10.272307,-4.146371,-39.896965,0.913084,0.168636,0.397893
7643948545,-5.016032,-5.962319,-37.002197,0.995948,0.071050,0.384263
7643968546,6.477264,-10.386055,-30.377630,0.966473,0.084600,0.359951
7643988547,13.291981,-11.468947,-29.575525,0.902525,0.189452,0.382142
7644008547,11.850974,-12.155797,-37.073975,0.886274,0.253043,0.482069
7644028548,5.536926,-1.707565,-38.802345,1.135291,0.131880,0.489996
7644048548,-1.477498,-0.200658,-15.963928,1.088047,0.016981,0.395052
7644068549,-11.187206,-4.836982,-2.341343,0.879777,0.026894,0.359965
7644088550,-18.666868,-0.265706,-7.617036,0.780729,0.031531,0.365737
7644108552,-12.059653,-1.113348,-12.058588,0.955312,-0.048514,0.386056
7644128553,6.382615,2.510033,-3.929176,1.062234,-0.123987,0.250829
7644148553,20.271034,-10.213215,3.375620,0.814307,-0.008529,0.309589
7644168554,24.668854,-3.303194,-6.615724,0.807301,0.070478,0.337950
7644208556,31.611431,-5.854390,-26.173765,0.995769,0.224457,0.463543
7644228559,29.262150,1.261573,-15.799398,1.023863,0.189804,0.389561
7644248556,22.371645,-7.934100,-11.789782,0.908427,0.243643,0.429714
7644268557,12.486627,-2.419515,-15.721281,0.919825,0.197649,0.459633
7644288557,9.773916,-1.751145,-16.281868,0.925091,0.229151,0.356492
7644308558,12.039944,-9.621235,-18.414757,0.903383,0.309888,0.337885
7644328558,16.317013,-10.039566,-18.880756,0.896282,0.333185,0.386256
7644348559,15.231502,-12.281926,-18.037306,0.888552,0.342138,0.396987
7644368560,11.631159,-10.676329,-17.640574,0.861156,0.318342,0.383303
7644388561,11.952217,-7.413890,-16.045771,0.819967,0.304827,0.356096
7644408561,13.688262,-7.928779,-17.487640,0.740652,0.369837,0.379200
7644428564,14.234776,-6.329363,-22.429356,0.833347,0.380842,0.434330
7644448564,10.964732,-2.721049,-20.774120,0.951669,0.365844,0.381021
7644468565,9.817547,-5.604934,-15.307083,0.895798,0.394493,0.350008
7644488566,7.727255,-5.850027,-13.540977,0.865591,0.385503,0.407582
7644508566,3.402058,-2.239292,-16.881294,0.916097,0.332269,0.421497
7644528567,-1.266226,-3.106232,-24.067812,1.041263,0.285701,0.389266
7644548567,-5.409713,-2.896854,-29.057795,0.989256,0.206871,0.355747
7644568567,-5.805182,-0.383214,-34.728889,0.966789,0.090378,0.357676
7644588568,-10.673479,0.910723,-34.887299,0.941805,0.068852,0.309228
7644608568,-23.003603,-1.625411,-33.512398,0.915312,0.163828,0.287526
7644628569,-29.245266,-0.915552,-28.965498,0.963963,0.159987,0.281780
7644648570,-17.304516,-2.917790,-19.511795,0.915952,0.129155,0.279490
7644668570,3.308275,-3.158139,-12.879451,0.976781,0.142454,0.307993
7644688571,18.581625,-0.031156,-6.815532,0.965417,0.203952,0.313319
7644708572,27.738064,1.778313,-2.450346,0.931621,0.274620,0.348197
7644728573,21.612072,4.723305,-0.870250,0.972974,0.294297,0.393281
7644748573,10.775978,6.851317,0.902251,0.977388,0.316072,0.396822
7644768575,-2.159106,8.702800,2.609599,0.974793,0.338571,0.402470
7644788576,-14.841148,10.886955,3.865922,0.988544,0.285900,0.382256
7644808577,-13.982849,14.067665,12.746406,1.000794,0.190923,0.363680
7644828577,-7.285325,13.057678,22.523535,1.015918,0.133582,0.330416
7644868579,16.149736,14.699639,42.007725,0.933703,0.028720,0.287962
7644888578,29.219322,14.786255,47.175976,0.940383,0.098565,0.299818
7644908579,40.010254,16.617599,55.561245,0.949767,0.141543,0.350425
7644928580,40.744263,19.734741,60.566925,0.976361,0.192285,0.384575
7644948581,34.459152,22.609280,64.914230,1.007778,0.228655,0.393545
7644968582,23.052347,25.182430,65.334633,1.007503,0.255693,0.370414
7644988582,7.526093,29.468512,64.337410,1.014209,0.225963,0.367381
7645008583,0.579205,29.301517,70.092201,1.032458,0.111029,0.379729
7645028583,8.866337,29.960920,85.599602,0.996328,0.002872,0.346821
7645048584,28.041523,30.347801,109.683746,0.971927,-0.051847,0.393754
7645068585,43.678116,34.256538,133.084152,1.025184,-0.002113,0.390607
7645088587,44.125572,45.448235,145.988235,1.103501,0.163413,0.435738
7645108587,27.775843,61.598778,157.510300,1.134141,0.124443,0.559332
7645128588,27.050682,64.689819,188.603683,1.092332,-0.098480,0.584958
7645148589,52.688183,77.843117,204.020813,1.139063,-0.000655,0.527827
7645168590,45.610146,90.682350,193.013885,1.030298,0.302448,0.565038
7645188590,15.136449,77.972351,173.292831,0.855954,0.286588,0.500678
7645208601,4.612164,59.213329,153.629684,0.790835,0.146342,0.450275
7645228590,15.015013,52.457047,136.977829,0.704496,0.054115,0.420721
7645248591,27.628521,52.232956,117.884903,0.509558,0.095595,0.356094
7645268591,29.246824,40.002647,81.478928,0.382896,0.237147,0.347080
7645288592,11.588358,18.547415,37.041153,0.315196,0.275508,0.329207
7645328593,-4.967883,-40.349358,-78.924057,0.452742,0.179885,0.228804
7645348594,10.756139,-61.043350,-124.756470,0.580344,0.203346,0.227813
7645368595,33.905582,-72.354462,-144.105637,0.638241,0.244978,0.319702
7645388595,45.465832,-76.861618,-155.233063,0.680331,0.174605,0.457485
7645408597,46.799145,-73.638947,-172.899414,0.894769,0.110573,0.518733
7645428598,39.174759,-79.986771,-183.170898,1.180834,0.278412,0.569477
7645448599,-6.453043,-88.355774,-177.316223,1.297074,0.535144,0.723413
7645488600,-152.867279,-62.782066,-164.361237,1.327131,-0.076475,0.602855
7645508601,-145.872467,-53.026848,-148.167236,1.491445,-0.237023,0.369357
7645528602,-108.421570,-28.019602,-110.014236,1.453936,-0.399495,0.407597
7645548601,-37.952339,-8.759252,-54.819099,1.269330,-0.693451,0.486056
7645568602,35.301060,-2.946755,-12.038636,1.198545,-0.694315,0.447867
7645588603,83.192513,5.121587,26.675419,1.195574,-0.309311,0.444384
7645608603,79.965126,24.407724,59.447067,1.158599,-0.115294,0.492842
7645628604,65.218887,40.300419,91.747147,0.997867,-0.058308,0.527017
7645648605,46.027714,51.875492,122.605255,0.883454,0.079221,0.477323
7645668606,41.234196,57.733265,138.004440,0.725699,0.210837,0.439324
7645688606,37.972870,46.468796,127.408531,0.699490,0.317743,0.400475
7645708607,40.767902,49.905659,117.273087,0.968541,0.395954,0.337492
7645728608,47.031242,54.339848,123.524216,1.179344,0.195569,0.362122
7645748610,41.456413,48.518333,134.040359,1.036148,0.004847,0.518405
7645768610,38.886784,51.491413,138.864197,0.937687,-0.032408,0.608747
7645808612,45.258057,66.467087,141.107803,0.910242,0.018235,0.536909
7645828613,39.740955,59.361622,126.627678,0.778838,0.121971,0.501884
7645888613,54.467293,47.405956,63.958092,0.588381,0.181444,0.468860
7645908614,43.940613,34.647961,29.692211,0.529226,0.238812,0.419767
7645928614,22.225922,10.812829,-4.358356,0.457715,0.296570,0.392255
7645948615,6.071490,-20.213675,-33.667336,0.453137,0.233413,0.361709
7645968616,8.238651,-38.251648,-62.693321,0.531297,0.169714,0.326897
7645988616,14.764166,-46.511932,-85.324112,0.651736,0.274897,0.276872
7646008617,22.612631,-55.498940,-94.651199,0.762382,0.471094,0.327877
7646028618,12.341472,-70.935486,-96.700119,0.748312,0.484774,0.462617
7646048618,-1.459525,-82.065315,-104.413956,0.794723,0.343063,0.551279
7646068620,-18.159771,-77.426239,-107.261627,0.934893,0.237456,0.589248
7646088621,-45.280460,-71.827850,-105.278488,1.101760,0.168368,0.588797
7646108622,-69.851570,-71.484154,-111.756439,1.259804,0.155597,0.546709
7646128623,-93.084106,-59.583111,-111.377487,1.293357,0.117223,0.474937
7646148623,-109.816376,-47.692905,-93.146950,1.144667,0.029707,0.459825
7646168624,-95.931961,-48.765865,-64.844788,1.125517,-0.170043,0.486691
7646188624,-69.634628,-41.293167,-19.752342,1.318017,-0.388779,0.465902
7646208624,-36.071499,-31.740524,29.340334,1.339166,-0.461768,0.459757
7646228625,3.448353,-10.099359,56.609303,1.194436,-0.358091,0.464369
7646248625,24.328810,18.225101,58.878109,1.042122,-0.227777,0.483273
7646268626,21.557211,33.003483,68.854897,1.009332,-0.183396,0.531244
7646288627,13.434746,40.483646,93.274757,1.114399,-0.187939,0.674396
7646308628,-8.109971,59.019745,127.478546,1.296489,-0.208928,0.805076
7646328628,-25.245251,80.586464,165.075790,1.106853,-0.155686,0.744426
7646348629,-52.492287,83.915230,164.288437,0.848860,0.084784,0.586076
7646368630,-90.346954,65.993179,137.618134,0.645936,0.265214,0.411142
7646408633,-57.203201,57.304474,112.755104,0.649077,-0.206933,0.436397
7646428634,3.650145,59.994942,129.479843,0.682432,-0.569475,0.371063
7646448634,53.843090,58.457016,116.156265,0.642572,-0.335634,0.460110
7646468634,45.699558,46.160080,84.081230,0.535542,-0.082731,0.530309
7646508636,1.796182,-1.413782,28.125566,0.535730,-0.098359,0.454933
7646528635,10.332840,-4.292232,11.282288,0.636859,-0.018584,0.481178
7646548635,0.825477,-11.321735,-5.649732,0.632807,0.061093,0.528987
7646568636,-20.520830,-15.314744,-21.173557,0.657535,-0.002014,0.532578
7646588637,-25.996517,-15.547926,-31.908146,0.625260,-0.144755,0.534355
7646608638,-20.406517,-18.370789,-38.661495,0.656630,-0.203444,0.526268
7646628638,-17.133871,-18.420961,-37.642704,0.747737,-0.174752,0.550826
7646648639,-19.407879,-18.150118,-26.774096,0.803947,-0.093397,0.646375
7646668640,-37.542999,-10.642480,-12.256156,0.857710,-0.045921,0.746616
7646688641,-88.752693,-8.203595,18.607231,0.912860,-0.467694,0.894217
7646708641,-114.478844,-10.697728,92.472404,0.984412,-1.203159,0.769504
7646728643,-61.506359,7.618468,129.330948,0.956887,-1.235165,0.855279
7646748644,-53.245895,22.936638,153.716461,0.860261,-0.940869,0.657135
7646768645,-27.422447,29.666979,128.003799,0.583271,-0.232129,0.547497
7646788645,-25.924423,-3.106223,102.649750,0.551128,-0.111584,0.430206
7646808646,-57.172081,-16.474354,81.954918,0.741068,-0.251254,0.543816
7646828647,-26.964928,0.501463,63.220402,0.864711,-0.554453,0.604540
7646848669,38.995667,29.779861,55.285835,0.674630,-0.677124,0.625217
7646868647,52.449856,30.444960,31.192259,0.457795,-0.316305,0.666839
7646888648,12.302679,11.590840,-10.251635,0.450122,-0.108333,0.704705
7646908648,-26.395414,6.997066,-47.222393,0.545887,-0.247784,0.656000
7646928649,-27.961657,11.088807,-74.796577,0.633236,-0.456427,0.574889
7646948649,-4.476323,19.738773,-95.803246,0.720527,-0.464985,0.538136
7646968650,29.819656,28.605633,-99.845367,0.755697,-0.374792,0.635709
7646988651,54.920624,36.409393,-85.693451,0.791618,-0.249013,0.705470
7647008652,58.820789,34.348763,-77.251457,0.701605,0.108152,0.787556
7647028652,13.128922,21.531147,-81.886208,0.587992,0.370746,0.851794
7647048654,-53.379486,18.782160,-88.462547,0.659487,0.332359,0.803572
7647068655,-100.802841,20.718325,-92.624313,0.711518,0.162836,0.685018
7647088656,-122.174225,21.229727,-108.578796,0.755053,0.105202,0.590747
7647108657,-131.150970,26.817602,-127.234703,0.807061,0.025711,0.531650
7647128657,-117.699402,33.837200,-139.327301,0.787548,-0.020498,0.488106
7647148658,-105.590942,31.721544,-144.206207,0.810978,-0.041306,0.440864
7647168659,-109.952942,25.974890,-149.525360,0.815567,-0.015286,0.398277
7647188658,-113.157417,13.949354,-161.409973,0.857272,0.022742,0.341376
7647208659,-123.381966,4.013946,-182.193588,0.918252,0.019694,0.320419
7647228659,-123.174301,-1.333047,-205.241898,0.988504,-0.011825,0.343684
7647248660,-121.866875,-5.477404,-221.575241,1.045344,-0.021205,0.312384
7647268661,-109.092667,-2.050529,-227.857773,1.118704,-0.019420,0.291659
7647288661,-102.267288,6.136608,-230.715042,1.172645,0.057440,0.247602
7647308662,-114.082993,5.283206,-223.035065,1.203002,0.128788,0.272535
7647328663,-126.213921,0.773417,-201.764664,1.283752,0.066011,0.350478
7647348663,-132.383789,-16.528912,-176.458633,1.229125,-0.037762,0.355080
7647368664,-132.409973,-15.352673,-148.399521,1.245042,-0.103908,0.279452
7647388666,-150.917938,-13.453927,-110.676483,1.046393,-0.172268,0.163113
7647408667,-176.427689,-18.772957,-96.013512,0.877632,-0.092305,0.177517
7647428667,-199.311279,-22.384548,-92.906067,1.040017,-0.226710,0.256106
7647448668,-193.611359,-18.317158,-66.018494,1.247056,-0.556988,0.091777
7647468669,-144.890656,-20.249207,-45.562096,1.266855,-0.531218,0.035209
7647488670,-104.734451,-4.626930,-62.420891,1.262438,-0.328261,0.178449
7647508669,-87.020126,2.413907,-77.185242,1.232877,-0.205917,0.362262
7647528669,-79.171661,-13.589430,-67.284615,1.063817,-0.135784,0.470584
7647548670,-86.510536,-34.640594,-56.752171,0.881694,0.028746,0.479540
7647568671,-100.536804,-30.653065,-60.353859,0.883839,0.111812,0.500178
7647588672,-109.599625,-5.999440,-62.088470,1.062570,-0.061372,0.472256
7647608672,-109.390381,4.475556,-46.064320,1.020066,-0.198510,0.412090
7647628673,-112.141594,4.168768,-38.337036,0.920967,-0.124495,0.393537
7647648674,-116.510017,9.617130,-38.448170,0.975755,-0.089264,0.332067
7647668674,-106.199539,12.123139,-36.074833,1.066279,-0.121606,0.251654
7647688675,-92.066422,6.240614,-30.010464,1.009350,-0.130265,0.248295
7647708677,-75.462616,0.585858,-27.552893,0.843847,-0.190013,0.312858
7647728678,-56.338383,-5.114975,-33.412701,0.718255,-0.152376,0.330170
7647748678,-38.403675,-6.769578,-45.425682,0.688603,0.018566,0.314293
7647768679,-28.722704,-6.436593,-61.300827,0.630553,0.156634,0.354003
7647788680,-23.195955,-5.166851,-79.904610,0.762514,0.066214,0.456420
7647808681,-9.215246,-1.826662,-82.810562,1.049579,-0.182730,0.402385
7647828682,2.769582,-4.808887,-67.675919,1.190777,-0.195957,0.360591
7647848681,-18.934853,10.002277,-58.805885,1.053044,-0.018859,0.519487
7647868681,-36.955246,4.686025,-61.830399,0.822840,0.027978,0.440284
7647888682,-38.491928,-15.225131,-51.869183,0.937400,-0.041012,0.299287
7647908683,-15.775709,-8.871166,-49.129204,0.996879,-0.001003,0.324629
7647928683,13.348179,-7.239001,-47.840961,0.948752,0.084259,0.309882
7647948684,31.120110,-7.742195,-45.305687,0.904906,0.102120,0.330511
7647968685,44.284477,-10.021534,-42.178967,0.888305,0.122470,0.387589
7647988686,51.031555,-14.250004,-40.663151,0.913204,0.184420,0.376671
7648008686,42.287117,-13.526176,-37.890728,0.938907,0.249358,0.340632
7648028687,30.855318,-10.275168,-32.769291,0.880724,0.272905,0.324451
7648048689,26.356754,-10.458110,-27.321987,0.857524,0.265148,0.338840
7648068690,25.987194,-9.732530,-25.659334,0.839728,0.222964,0.318603
7648088691,28.790178,-6.202738,-20.847363,0.822117,0.197932,0.283874
7648108691,37.781975,-6.186810,-8.805563,0.808118,0.227978,0.266396
7648128692,48.496727,-11.226843,2.514148,0.782203,0.282824,0.299955
7648148693,63.968811,-4.876162,9.968424,0.848794,0.357287,0.342171
7648168692,65.590317,8.954816,12.413700,0.888483,0.523984,0.430861
7648188693,46.909199,5.707791,11.229465,0.817327,0.706415,0.387662
7648208694,9.414352,-15.955409,6.498576,0.704077,0.669622,0.323236
7648228694,-5.975149,-23.239120,5.006031,0.727706,0.506848,0.373772
7648248695,2.307981,-18.093777,1.517570,0.838682,0.454381,0.372047
7648268696,7.919857,-8.401363,-1.394153,0.979579,0.482403,0.404505
7648288696,5.853672,4.817000,-0.091953,0.992213,0.429694,0.398965
7648308697,7.942161,11.855015,7.701518,0.927456,0.364693,0.379062
7648328698,7.053963,9.654282,6.157687,0.882361,0.411372,0.366124
7648348698,-7.759301,9.921705,3.898744,0.868381,0.460240,0.336317
7648368700,-23.940294,10.905174,5.548860,0.834241,0.446037,0.290583
7648388701,-32.502483,5.267649,4.724404,0.815348,0.401073,0.252316
7648408702,-33.986732,-1.742755,-0.070214,0.822941,0.307643,0.239690
7648428702,-21.150967,-5.117956,-3.191277,0.823375,0.231335,0.244059
7648448703,0.854473,-5.383802,-2.789034,0.848674,0.226323,0.242567
7648468704,14.107475,-3.282262,-0.351319,0.871948,0.294668,0.269572
7648488705,14.738686,-3.885698,1.426778,0.886672,0.365837,0.303289
7648508703,3.332180,-5.936173,-0.396458,0.882913,0.393859,0.343777
7648528705,-9.026763,-9.307283,-3.113678,0.898519,0.371076,0.337534
7648568706,-4.198666,-4.558339,-2.146549,0.943818,0.300067,0.308615
7648588707,0.984462,-0.528486,-1.466555,0.936663,0.323346,0.317580
7648608707,0.796548,0.140072,-2.099473,0.907627,0.339149,0.324342
7648628708,-0.494591,-0.123031,-3.695842,0.890998,0.336983,0.338894
7648648709,-2.453399,1.893863,-4.038007,0.877096,0.326744,0.333347
7648668709,-4.511310,2.228165,-3.900934,0.874403,0.326355,0.327580
7648688710,-10.037535,1.472429,-4.145841,0.911567,0.304434,0.324642
7648708712,-11.440748,3.213613,-4.413301,0.919903,0.268834,0.307668
7648728713,-6.411885,3.569493,-3.556362,0.922314,0.250983,0.302585
7648748714,-0.654039,3.053437,-1.209331,0.908927,0.243355,0.296000
7648768714,4.885260,1.389968,1.850637,0.894122,0.230163,0.305084
7648788715,9.652797,1.151460,4.254128,0.908903,0.255418,0.306760
7648808716,14.629796,1.842729,5.056588,0.913577,0.297410,0.294121
7648828715,11.083023,0.689602,0.928780,0.912013,0.314528,0.293751
7648848715,6.889760,-0.006451,-3.676906,0.910992,0.329831,0.300712
7648868716,6.609030,-1.171360,-5.106618,0.901431,0.336941,0.319662
7648888717,4.957402,-0.542517,-3.703646,0.864614,0.348329,0.355785
7648908718,0.796682,0.119335,-1.643419,0.846054,0.348131,0.377950
7648928718,-7.712585,0.363200,2.984344,0.890814,0.321176,0.402896
7648948719,-11.506145,2.036825,12.896019,0.931471,0.288366,0.425519
7648968720,-14.556664,4.372344,22.938091,0.926114,0.267163,0.416122
7648988721,-18.289131,6.565390,28.203939,0.943720,0.288403,0.395449
7649008721,-22.361814,9.817040,29.742868,0.995982,0.282949,0.377633
7649028723,-20.497835,11.973358,30.530109,0.979241,0.262221,0.359083
7649048724,-21.018627,9.432100,34.640045,0.952509,0.215550,0.329704
7649068725,-19.903566,7.465729,40.373764,0.967785,0.164696,0.305280
7649088725,-12.839230,10.536545,44.172840,0.962921,0.126644,0.294323
7649108726,-6.446872,13.398050,48.462292,0.921846,0.102713,0.295463
7649128727,-1.401023,13.813168,52.206635,0.883771,0.096325,0.307218
7649148728,0.279335,14.033125,54.591751,0.878512,0.085882,0.312890
7649168727,1.579974,14.356771,59.349125,0.885483,0.070631,0.324688
7649188727,2.537158,14.599154,64.458008,0.916240,0.064653,0.320985
