Timestamp (us),Gyroscope X (deg/s),Gyroscope Y (deg/s),Gyroscope Z (deg/s),Accelerometer X (g),Accelerometer Y (g),Accelerometer Z (g)
3516666867,-0.770619,-0.096914,-0.799377,1.002265,0.062822,0.015384
3516686917,-1.123039,0.198825,-0.489535,1.002146,0.049770,0.011171
3516706968,-0.504909,-0.040979,-0.632925,1.000687,0.047962,0.012091
3516727018,0.456930,-0.363918,-1.071729,1.002242,0.050389,0.009983
3516747068,0.228180,-0.394433,-0.859333,0.997763,0.054559,0.009994
3516767118,-0.418154,-0.460255,-0.995301,0.992562,0.052121,0.011894
3516787168,-0.462608,-0.778479,-0.850189,0.994103,0.050884,0.014101
3516807218,-0.661402,-0.605124,-0.843138,0.995345,0.057735,0.016484
3516827268,-0.592527,-0.628073,-0.941609,0.999733,0.050680,0.018051
3516847319,-0.419267,-0.315061,-0.844222,1.001600,0.048142,0.011822
3516867369,-0.353638,0.074845,-0.481798,1.002225,0.053858,0.011125
3516887419,-1.108866,0.171484,-0.027129,1.006016,0.065775,0.011650
3516907469,-1.856223,0.380028,0.108835,1.004574,0.060139,0.011614
3516927519,-2.023186,0.287742,0.094053,1.002622,0.052248,0.006511
3516947569,-0.888989,0.392500,-0.118916,0.998628,0.046785,0.006273
3516967620,0.133343,0.228417,-0.709867,1.007956,0.045742,0.001807
3516987670,1.579963,0.476861,-1.332704,1.000804,0.046368,0.008566
3517007722,2.182193,0.396088,-1.522110,0.995125,0.049487,0.011579
3517027772,2.486106,0.481918,-1.469460,0.994268,0.055435,0.014685
3517047822,2.523896,0.422827,-1.249480,0.993559,0.066430,0.021278
3517067872,1.587793,0.101420,-0.687202,0.994132,0.071150,0.014502
3517087922,0.437778,-0.114479,-0.026686,0.998526,0.068952,0.012560
3517107972,-0.400085,-0.261022,0.474324,1.000415,0.060137,0.005768
3517128022,-0.652052,-0.133276,0.527025,0.992687,0.051048,0.006727
3517148073,-0.108521,-0.564750,0.164531,0.994312,0.059660,0.005094
3517168123,-0.333757,-1.233752,0.250284,0.999345,0.056830,0.003345
3517188173,-0.005054,-1.415003,0.061319,0.997494,0.057795,0.007592
3517208223,-0.132456,-1.863162,0.153856,0.998060,0.061269,0.002648
3517228273,-0.652110,-1.734040,0.699278,1.000675,0.062697,0.006831
3517248322,-1.025292,-1.608480,0.532239,0.997058,0.052965,0.006645
3517268372,-1.184874,-1.670160,0.547665,0.995759,0.053647,0.010081
3517288422,-1.139239,-1.647279,0.517254,0.991383,0.054540,0.009677
3517308473,-0.607170,-1.446997,0.425430,0.998251,0.048617,0.007431
3517328523,-0.226182,-1.393001,0.167426,1.000534,0.049426,0.006438
3517348573,-0.098506,-0.953009,-0.016029,1.001352,0.054125,0.004481
3517368623,-1.411711,-0.471886,0.589089,1.004985,0.063727,0.001941
3517388673,-2.269379,0.195038,1.291934,1.013511,0.056774,-0.002735
3517408723,-2.379614,0.735722,1.669058,1.003195,0.060487,-0.002033
3517428774,-2.936953,0.863684,2.070497,1.002948,0.065744,-0.009275
3517448824,-3.615059,1.063359,1.933625,1.008900,0.061003,-0.011359
3517468874,-4.262850,1.293550,1.789058,1.000764,0.054414,-0.019793
3517488924,-4.508583,1.807162,1.628216,1.009962,0.060952,-0.021439
3517508974,-7.940953,2.514531,2.983614,1.009088,0.072717,-0.018219
3517529024,-11.143534,3.324878,3.580681,0.975755,0.089925,-0.016928
3517549075,-10.880979,2.653913,0.460370,0.970626,0.048072,-0.007482
3517569125,-5.789411,1.579196,-3.069503,0.976829,-0.021480,0.026540
3517589176,1.990171,-0.485512,-5.065957,0.994036,-0.026490,0.048532
3517609227,5.717243,-1.028215,-5.899078,1.033459,0.045740,0.067970
3517629277,5.810954,1.857376,-9.471163,1.095168,0.036477,0.058790
3517649327,10.677864,9.845187,-14.282714,1.113414,-0.023575,0.024261
3517669377,16.502924,22.167862,-15.297322,1.132145,-0.043843,0.027264
3517689427,23.125488,34.649940,-15.941390,1.121981,-0.089858,0.057807
3517709478,34.299435,46.063934,-11.331153,1.160169,-0.023442,0.026408
3517729528,36.244179,59.215416,-5.745987,1.231168,0.153928,-0.027945
3517749578,29.346212,67.142075,-11.659735,1.151386,0.267135,-0.066720
3517789678,12.653762,73.527435,-24.264542,0.965988,0.162569,-0.082184
3517809741,8.570202,73.903671,-26.568413,0.962476,0.092967,0.007391
3517829777,6.124836,71.271812,-23.655746,0.907307,0.170893,0.033091
3517849827,-4.617655,66.104515,-15.752064,0.850670,0.347482,0.026555
3517869878,-16.212805,57.389156,-9.791226,0.826986,0.399647,0.043961
3517889928,-31.075005,48.686775,-9.187613,0.853168,0.473807,0.035018
3517909978,-48.283730,39.955696,-10.690030,0.827180,0.462707,0.057138
3517930028,-62.505104,27.268658,-11.785756,0.870041,0.375774,0.051631
3517950078,-68.476883,12.891793,-8.922332,0.903890,0.213869,0.065651
3517970128,-75.952698,0.668088,-2.571901,0.935368,0.298695,0.096702
3517990178,-90.148430,-7.275398,-5.093667,0.909285,0.457287,0.065780
3518010229,-108.226936,-12.362558,-12.898870,0.924785,0.500799,0.043665
3518030279,-135.950989,-16.789385,-15.572018,1.002293,0.592859,0.103587
3518050329,-167.753311,-20.283203,-17.754322,0.989686,0.596469,0.199612
3518070379,-207.872498,-28.813503,-14.254875,0.824535,0.749028,0.085433
3518090429,-246.617310,-41.236980,-10.757651,0.672920,0.656662,-0.131514
3518110479,-281.483215,-50.365974,-6.522823,0.768115,0.573628,-0.279747
3518130530,-312.628265,-51.983917,-4.482761,0.969970,0.403403,-0.352871
3518150580,-334.714905,-47.207928,-3.134851,1.109286,0.248158,-0.449059
3518170631,-345.563477,-35.842667,-3.852322,1.226700,0.158754,-0.512084
3518190681,-350.961182,-25.789778,-11.229083,1.341737,0.062014,-0.585764
3518210732,-348.555267,-19.735081,-20.247011,1.319794,-0.155540,-0.668561
3518230782,-332.403473,-18.751139,-33.776917,1.208893,-0.359450,-0.730152
3518250832,-317.976288,-21.614733,-38.114841,1.069492,-0.441004,-0.718927
3518270882,-304.912842,-27.067507,-39.911999,1.039203,-0.452615,-0.693832
3518290932,-297.028809,-29.250294,-37.891235,1.002650,-0.379176,-0.622324
3518310985,-293.450653,-27.815161,-37.942905,1.027532,-0.244362,-0.595443
3518331033,-295.428070,-28.484465,-37.295692,1.014833,-0.125637,-0.556827
3518351083,-299.206055,-28.491705,-33.345711,0.997291,-0.051916,-0.602611
3518371133,-308.615540,-30.461945,-29.061096,0.964646,-0.023577,-0.662064
3518391183,-313.855713,-30.626875,-24.526478,1.046689,-0.056226,-0.753624
3518411232,-318.040131,-28.728592,-20.158495,1.067213,-0.032521,-0.782927
3518431282,-319.483215,-23.047310,-14.660085,1.087719,-0.070032,-0.778803
3518451332,-318.548889,-14.724587,-15.280250,1.037546,-0.081988,-0.845093
3518471382,-317.449463,-8.614357,-16.590113,1.051223,-0.130176,-0.836895
3518491433,-320.644531,-1.051541,-14.265576,1.099049,-0.092869,-0.833898
3518511483,-319.777405,6.153736,-10.258703,1.125743,-0.084818,-0.866066
3518531533,-317.823212,10.033163,-11.068545,1.145892,-0.070111,-0.889178
3518551583,-313.424255,15.919950,-16.297115,1.117404,-0.134971,-0.864818
3518571633,-311.132446,18.284353,-24.112391,1.062607,-0.114155,-0.842908
3518591684,-310.655426,21.293238,-28.988617,1.015693,-0.133765,-0.777122
3518611734,-310.123505,20.609423,-33.215504,0.992347,-0.136283,-0.758900
3518631784,-307.233398,20.266788,-37.550499,0.977931,-0.107674,-0.693533
3518651834,-300.466034,16.080772,-41.403709,0.982622,-0.081715,-0.651357
3518671884,-295.002258,11.643551,-44.020233,0.994461,-0.088335,-0.645925
3518691935,-288.681976,8.697998,-48.135250,0.987122,-0.074901,-0.613687
3518711985,-284.705200,4.452716,-50.077385,0.994978,-0.003535,-0.605459
3518732035,-278.690125,-1.383657,-51.226540,1.071570,0.029218,-0.639650
3518752085,-275.638245,-4.707026,-50.496155,0.998096,0.067133,-0.581625
3518772136,-281.515839,-8.738380,-54.034737,1.071379,0.093758,-0.592684
3518792187,-283.235077,-12.501390,-53.066219,1.119434,0.069943,-0.613607
3518812237,-283.381683,-14.619391,-54.097187,1.142512,0.023100,-0.608084
3518832287,-280.095093,-12.565530,-54.446472,1.113698,0.027963,-0.593894
3518852337,-276.569977,-15.926554,-54.155701,1.107004,0.125192,-0.604701
3518872387,-279.646576,-16.085470,-53.297653,1.110045,0.076675,-0.586032
3518892437,-286.130066,-16.551868,-53.119465,1.073449,0.095078,-0.557694
3518912488,-291.622589,-18.158792,-54.241264,1.086463,0.119688,-0.534983
3518932538,-293.381042,-18.555878,-56.384125,1.114852,0.067929,-0.530911
3518952588,-288.217041,-16.329420,-58.985611,1.119147,0.008822,-0.503204
3518972638,-284.047150,-17.607338,-58.891716,1.133521,0.041313,-0.514293
3518992687,-284.402893,-17.003536,-57.885670,1.139476,0.017337,-0.476166
3519012737,-283.767700,-18.091230,-60.064880,1.139520,0.045689,-0.482219
3519052837,-282.748596,-17.249762,-67.290894,1.124762,0.047591,-0.422907
3519072888,-284.618408,-18.078411,-66.741699,1.127851,0.104887,-0.387467
3519092938,-288.042053,-21.126463,-67.396942,1.178248,0.092161,-0.440403
3519112988,-290.415222,-21.176043,-67.979523,1.174842,-0.005510,-0.401580
3519133038,-287.185242,-20.452950,-67.422302,1.153045,0.020974,-0.382228
3519153088,-288.068054,-21.280054,-68.843987,1.151912,0.050944,-0.312693
3519173138,-286.831573,-21.808678,-72.071236,1.107056,-0.029067,-0.303451
3519193189,-284.236816,-23.409210,-74.537361,1.110974,-0.065953,-0.284728
3519213239,-282.765778,-25.710316,-73.787216,1.098426,-0.062940,-0.307300
3519233289,-285.115906,-25.910545,-68.222748,1.114900,-0.083590,-0.292494
3519253339,-283.439789,-25.060175,-61.556778,1.144717,-0.077827,-0.249634
3519273389,-279.654510,-27.054678,-55.548695,1.185811,-0.110367,-0.167533
3519293439,-272.500244,-27.703691,-53.934650,1.160097,-0.196594,-0.170262
3519313490,-262.485565,-28.386248,-54.572433,1.083146,-0.223588,-0.139867
3519333540,-253.925461,-30.752298,-54.612751,1.024279,-0.191985,-0.144649
3519353591,-248.579666,-32.984062,-54.106724,1.018798,-0.237426,-0.151069
3519373641,-241.096283,-38.745750,-46.192215,1.067426,-0.393341,-0.095116
3519393692,-226.204300,-35.129974,-33.681870,1.032079,-0.478705,-0.010129
3519413742,-204.043579,-26.546543,-24.654778,1.023178,-0.534634,0.089792
3519433792,-176.995132,-15.249589,-9.378523,1.099321,-0.726819,0.089103
3519453842,-135.891846,-4.083438,1.906729,1.204915,-0.961130,0.232980
3519473893,-85.443054,6.364264,12.372657,1.165828,-1.071154,0.283962
3519493943,-22.794067,13.955914,17.197828,1.062053,-1.037155,0.365175
3519513993,44.896210,16.352356,16.438290,0.985433,-0.999407,0.431085
3519534043,98.582275,13.079096,17.158350,0.914776,-0.794645,0.376229
3519554093,142.777420,7.435921,19.079800,0.840553,-0.735220,0.209150
3519574145,184.246597,1.589898,21.753214,0.844849,-0.885711,0.033607
3519594192,228.113510,-2.437534,29.793009,0.902610,-0.926599,-0.141554
3519614242,267.758148,-2.438068,43.898727,1.043303,-0.799396,-0.271630
3519634293,300.562225,6.494103,57.437958,1.148716,-0.683173,-0.318579
3519654343,329.797302,11.122662,75.995361,1.194330,-0.476271,-0.458158
3519674393,372.382019,5.408243,82.707520,1.290823,-0.389109,-0.835017
3519694443,403.631531,8.089130,85.362709,1.381681,-0.393540,-1.013728
3519714493,432.377502,23.903807,91.808479,1.436864,-0.170795,-1.114070
3519734544,450.028961,41.602852,93.188889,1.511489,0.114994,-1.250085
3519754594,456.627106,66.709351,74.516464,1.598052,0.159623,-1.249352
3519774644,439.682617,96.841377,81.277527,1.632396,0.469823,-1.259878
3519794694,406.183319,124.301682,113.571938,1.606001,1.053260,-1.309806
3519814744,365.503143,140.771820,135.735794,1.494757,1.414746,-1.020040
3519834795,314.187744,142.445724,166.480652,1.180550,1.533443,-0.464066
3519854845,265.948517,120.229095,186.976654,1.118556,1.200261,-0.250979
3519874895,236.440674,102.775711,195.853882,0.968124,0.620300,-0.255148
3519894945,235.902420,85.715431,198.542740,0.968036,0.265131,-0.358191
3519914995,249.865067,76.599274,197.553711,1.023454,0.247684,-0.347781
3519935047,265.967712,70.047874,188.180313,1.087020,0.292350,-0.187618
3519955097,279.353455,64.921463,172.868637,1.193489,0.362364,-0.142685
3519975147,286.731445,59.401394,153.157043,1.188681,0.443850,-0.187469
3519995197,281.729370,56.691853,138.078415,1.197962,0.539765,-0.107899
3520015248,275.798615,51.032810,131.718521,1.394664,0.776473,-0.034082
3520035298,269.647186,42.594906,109.982971,1.336884,0.765800,-0.047365
3520055348,253.531677,44.488361,106.738297,1.118944,0.578815,0.133024
3520075398,239.426926,45.229313,105.240051,1.136541,0.814894,0.139141
3520095448,214.441055,46.685493,100.847984,1.081600,0.826131,0.081637
3520115498,192.937057,53.708824,93.244774,0.932120,0.864407,0.119305
3520135549,170.275497,59.601223,88.071144,0.833513,0.882687,0.244452
3520155599,143.358307,58.737801,81.429214,0.749340,0.895345,0.336138
3520175647,116.987656,56.389660,72.344208,0.739291,0.887241,0.374786
3520195698,92.210617,52.744202,61.754906,0.730702,0.855361,0.440713
3520215748,71.340805,46.782482,51.801273,0.777171,0.753991,0.480024
3520235798,55.702763,38.707886,42.065300,0.827008,0.640757,0.464056
3520255848,39.828487,33.417503,41.838978,0.916815,0.544592,0.479347
3520275898,28.624292,31.319065,45.715401,0.956987,0.454991,0.529474
3520295949,21.325298,27.303181,47.277905,0.922123,0.368412,0.548133
3520315999,23.881830,20.491543,43.154793,0.783494,0.175599,0.530024
3520336049,38.432426,7.580775,36.971859,0.650382,0.112490,0.470099
3520356098,45.932476,-9.633649,31.010857,0.665256,0.208763,0.497265
3520376149,43.604210,-28.400583,28.598022,0.733083,0.241235,0.527725
3520396199,40.818642,-48.012875,31.023636,0.726683,0.190886,0.540441
3520416249,39.889740,-65.815742,33.139202,0.723624,0.200705,0.528582
3520436299,35.859291,-81.530319,32.558136,0.682620,0.212707,0.503613
3520456349,29.549549,-96.186592,31.216316,0.675528,0.271208,0.440085
3520476400,16.670780,-107.800011,32.829689,0.744915,0.295344,0.395218
3520496450,5.579545,-112.309135,35.941322,0.814463,0.315678,0.293776
3520516500,-5.337282,-96.044136,22.610767,0.976445,-0.043099,0.071684
3520536552,24.973894,-52.875618,3.632850,1.656001,-0.480933,-0.333409
3520556601,10.040800,-19.734886,60.161430,1.675100,0.856997,0.250170
3520576652,-39.714359,-13.646410,46.803757,1.205915,0.896881,0.673903
3520596702,-33.615200,-26.987816,24.527555,0.905413,-0.225330,0.429466
3520616752,0.616096,-35.540768,17.231346,0.650393,-0.227109,0.171293
3520636802,12.174648,-36.536392,20.701893,0.594344,0.124641,0.272615
3520656852,2.476020,-39.160831,20.289909,0.764029,0.338622,0.394399
3520676903,-5.481460,-36.639767,10.635998,0.813327,0.068390,0.346617
3520696953,3.835147,-21.319210,4.691093,0.946607,-0.109993,0.342901
3520717003,16.470093,3.572593,6.988269,1.108336,0.022051,0.556462
3520737053,2.559207,22.234035,16.690533,1.325439,0.336677,0.797021
3520757103,-5.794260,35.921150,17.995348,1.556908,0.381055,0.463875
3520777152,0.329847,60.418758,-1.629763,1.333129,0.039412,0.209221
3520797202,1.636973,85.848343,-5.802905,0.700522,-0.309236,0.183233
3520817252,5.593832,103.887505,7.063251,0.615297,-0.107835,0.111407
3520837303,23.234043,118.550903,9.818340,0.842829,-0.084218,0.133378
3520857353,37.743504,122.960960,6.713427,0.883549,0.122637,0.253149
3520877403,22.519476,120.524422,-6.255600,1.092019,0.339726,0.351087
3520897453,15.681498,124.093758,-18.164469,1.030985,0.036006,0.463595
3520917503,32.770866,122.808060,-21.841816,0.891297,-0.029944,0.562613
3520937553,28.883659,105.429062,-15.679509,0.615086,0.182239,0.531025
3520957603,20.468578,75.825203,-3.993906,0.499655,0.233284,0.586055
3520977654,13.348002,37.612976,6.462800,0.488471,0.301305,0.655897
3520997703,2.969703,-0.144352,13.000760,0.551721,0.363069,0.721522
3521017754,-1.943109,-35.028442,16.859110,0.534183,0.282681,0.783129
3521037804,-3.726270,-63.675076,17.026657,0.555207,0.224735,0.755775
3521057854,-7.689440,-88.444221,16.749605,0.575460,0.145149,0.746479
3521077904,-10.450655,-111.407944,16.208225,0.624124,0.148659,0.685527
3521097954,-16.240173,-115.787201,17.574398,0.967233,0.125323,0.346049
3521118004,-18.293446,-70.922714,-2.277189,1.634320,0.028478,-0.248392
3521138057,15.858391,-21.355738,-8.674691,1.899428,-0.429881,0.586659
3521158107,29.101063,-36.319313,12.343208,0.386351,0.064979,1.009631
3521178157,12.872810,-75.191681,16.681580,0.607153,0.030642,0.311601
3521198207,21.209253,-88.690620,12.746224,0.473690,0.029579,0.078548
3521218257,18.981070,-93.520035,6.495847,0.531906,0.283081,0.300512
3521238307,16.225891,-98.048561,0.350725,0.958487,0.102053,0.372159
3521258357,23.913174,-95.766258,-0.834570,0.830790,0.082867,0.237512
3521278408,23.780354,-78.186287,-1.092154,0.712866,0.159623,0.113911
3521298458,6.335141,-45.515762,3.045593,0.810939,0.279649,0.290806
3521318508,-16.663260,-17.028875,8.025807,1.157816,0.314648,0.647491
3521338558,-26.662699,-12.653812,16.290455,1.738435,0.210747,0.483856
3521358608,-24.603134,-3.274239,11.171933,1.666911,0.306620,0.304651
3521378657,-7.926010,18.750031,-10.706881,1.494216,-0.307027,0.164841
3521398707,16.967714,51.649918,-22.432348,0.977140,-0.453495,0.282474
3521418757,19.289103,88.845337,-8.714575,0.879484,0.028160,0.325012
3521438808,6.381506,123.001007,1.070368,0.689896,0.224991,0.376012
3521458858,1.560416,142.506027,2.740427,0.862344,-0.013050,0.438973
3521478908,8.970365,145.926987,0.626673,0.861043,-0.107698,0.319456
3521498958,14.713667,138.433487,1.817642,0.838231,0.032225,0.253056
3521519008,14.837644,127.530075,1.423170,0.800945,0.032792,0.439189
3521539059,27.163361,105.788673,-7.479714,0.721399,0.100408,0.631699
3521559108,19.278475,72.555000,-8.461384,0.615007,0.336199,0.592044
3521579158,1.832159,29.895895,-2.624062,0.482548,0.450879,0.658577
3521599209,-16.194115,-10.810375,8.875795,0.522968,0.489799,0.788832
3521619259,-37.529682,-40.044464,29.939821,0.538268,0.501597,0.785532
3521639309,-56.300526,-63.040062,36.088799,0.390842,0.075459,0.953647
3521659359,-46.550739,-88.812317,9.549313,0.546276,-0.050311,0.768165
3521679409,-40.548695,-82.810715,11.193901,0.909494,0.315940,-0.085814
3521699459,-27.194372,-34.545498,-24.598188,2.204447,-0.954515,0.090212
3521719510,54.939278,-45.764847,-12.120902,0.600594,-0.744462,1.257363
3521739561,41.171547,-89.609932,15.993774,0.813910,0.601852,0.509492
3521759611,22.738279,-102.470947,1.386842,0.898034,-0.010679,0.057120
3521779662,25.946148,-106.754868,2.522166,0.354555,0.113915,0.219871
3521799712,15.123061,-112.983475,2.373103,0.663047,0.237581,0.268795
3521819762,7.316764,-115.371155,8.613967,0.779725,-0.015270,0.148673
3521839812,20.725691,-113.604294,6.443181,0.618003,-0.044867,0.053804
3521859862,25.076130,-100.722382,0.561471,0.604532,0.206087,0.126874
3521879912,17.430967,-69.788803,-5.158451,0.825919,0.171121,0.355514
3521899963,-3.470525,-34.679726,-5.582850,1.187755,0.261279,0.621147
3521920013,-20.838707,-18.886322,4.350297,1.782699,0.208939,0.662961
3521940063,-10.215508,-21.306894,-1.624879,1.974145,0.200825,0.216169
3521960133,6.416994,-5.396635,-23.876715,1.354997,-0.304964,0.056677
3521980162,7.533616,26.720150,-17.257664,0.941295,-0.299366,0.239538
3522000212,0.099469,60.324715,-0.659252,1.044442,0.117890,0.226715
3522020262,6.516946,89.795540,1.055899,0.888765,-0.021024,0.321376
3522040313,12.270948,98.986076,-1.766841,1.043018,0.030183,0.435573
3522060362,3.059774,91.640259,-4.966940,0.981750,0.311446,0.404800
3522080413,-21.737638,66.688408,4.184577,0.773203,0.216236,0.399152
3522100463,-12.540942,25.686541,9.241387,0.581321,0.080535,0.572043
3522120513,-14.442896,-15.595457,9.103883,0.631857,0.245345,0.500149
3522140563,-26.225758,-44.177746,14.163136,0.435314,0.208468,0.345951
3522160613,-34.201698,-61.265083,14.270283,0.166786,0.158786,0.254374
3522180663,-49.692871,-61.250347,14.609130,0.055231,0.306207,-0.088849
3522200713,-48.160542,-51.073368,-9.072823,1.333720,-0.396987,-0.015662
3522220764,11.755195,-51.890800,-32.146172,1.812283,-0.950701,0.783108
3522240814,54.389008,-87.179863,-16.669374,1.055599,-0.005561,0.686554
3522260864,43.417320,-117.304451,-16.220678,1.039246,0.420926,0.153008
3522280914,21.670435,-129.941605,-18.450783,0.648115,0.061420,0.073691
3522300964,9.670024,-148.166992,-8.099134,0.572499,0.030444,0.002714
3522321016,9.488936,-161.676743,-6.157779,0.765222,0.123528,-0.074794
3522341066,12.086938,-161.624268,-10.137822,0.834594,0.257947,-0.063316
3522361116,6.367424,-153.457672,-18.940392,0.730011,0.262877,-0.000768
3522381166,-6.820415,-145.531769,-26.867939,0.776244,0.234017,0.058242
3522401216,-12.330715,-129.053680,-32.523640,0.812484,0.011185,0.068076
3522421267,10.954157,-125.195236,-37.084881,0.849613,-0.282515,0.039474
3522441317,30.439827,-129.187698,-37.896477,1.124206,-0.154333,0.021488
3522461377,31.139845,-121.402596,-44.039764,1.171024,0.136463,-0.147864
3522481417,18.211838,-108.547981,-41.199524,1.057918,0.183120,-0.222914
3522501467,6.047293,-100.676323,-44.375240,0.972817,0.091571,-0.309616
3522521517,5.744363,-108.843414,-55.776058,1.072313,0.133346,-0.351837
3522541568,-1.682697,-97.986023,-65.883316,1.273120,0.127336,-0.281544
3522581666,-42.228436,-93.947502,-60.039654,1.234146,0.367051,-0.470999
3522601717,-97.093170,-77.274933,-42.805443,1.209188,0.392663,-0.269800
3522621767,-146.838470,-61.111088,-44.026047,1.355992,0.459678,-0.199190
3522641817,-172.121994,-47.151558,-45.755398,1.596524,0.506980,-0.353717
3522661867,-197.941910,-30.335932,-7.181938,0.920769,0.040967,-0.409917
3522681917,-194.248245,-24.430803,-1.610308,0.949834,0.003512,-0.543787
3522701967,-194.312286,-18.443398,-3.131552,1.018187,0.104155,-0.326162
3522722017,-198.901611,-12.783463,-2.543131,1.079514,0.204801,-0.356339
3522742068,-201.262604,-2.151297,-7.899369,1.306352,0.158917,-0.429816
3522762118,-190.656387,7.474647,-12.908049,1.256924,0.054327,-0.359338
3522782168,-183.250183,6.919424,-14.720098,1.076635,0.078603,-0.470868
3522802218,-181.378357,-1.562354,-15.737424,1.086173,0.098363,-0.443672
3522822268,-172.203186,-16.915525,-13.648993,1.099946,0.044454,-0.371334
3522842319,-169.627304,-26.594597,-7.864113,1.068446,0.117268,-0.306236
3522862369,-171.544342,-38.037621,-3.852638,1.045449,0.108189,-0.251127
3522882419,-184.801392,-44.024300,0.742745,1.034058,0.119038,-0.412835
3522902469,-191.283279,-52.098381,9.177900,0.991217,0.022196,-0.303320
3522922520,-180.536484,-57.713642,11.679385,1.087095,-0.084797,-0.245326
3522942571,-161.319427,-59.314484,15.967862,1.156873,-0.122788,-0.154780
3522962621,-139.001282,-57.891930,16.159777,1.191947,-0.103589,-0.113492
3522982671,-130.218964,-57.384422,12.911160,1.164529,-0.007828,-0.102979
3523002721,-137.034134,-58.123310,12.362828,1.144281,0.060211,-0.119906
3523022771,-134.298569,-56.508163,14.031256,1.112829,0.153876,-0.166655
3523042822,-126.650200,-51.010853,9.879102,1.134680,0.044714,-0.153967
3523062872,-123.970787,-47.551811,9.070454,1.237079,0.087074,-0.085205
3523082922,-126.533905,-46.040066,8.277930,1.176111,0.206553,-0.133098
3523102972,-134.463959,-44.733795,2.167566,1.085491,0.205896,-0.101378
3523123022,-135.907501,-44.033382,-3.215402,1.102007,-0.018728,-0.022864
3523143072,-132.756058,-46.521652,-1.388981,1.185987,0.088292,-0.125843
3523163121,-136.679703,-49.117767,-0.893608,1.090383,0.137560,-0.077468
3523183171,-143.906143,-51.197548,4.216727,1.080146,0.118335,-0.047781
3523203221,-150.472534,-50.425896,10.559955,1.105895,0.170143,-0.018388
3523223271,-163.523010,-47.610764,15.412936,1.134358,0.263945,-0.083981
3523243321,-189.503693,-42.957813,15.739475,1.216643,0.236878,-0.064181
3523263372,-202.139404,-37.981873,14.930962,1.290368,0.129426,0.009657
3523283422,-187.577316,-34.784401,8.510625,1.269692,-0.041004,0.122635
3523303472,-165.733871,-30.452118,1.144038,1.152606,-0.126737,0.123979
3523323522,-149.476913,-29.310411,-9.165391,1.093124,-0.109044,0.137894
3523343572,-132.718628,-20.713291,-18.742792,1.076294,-0.224022,0.220356
3523363623,-111.120186,-20.889721,-19.750170,1.105548,-0.065168,0.173737
3523383673,-99.142998,-18.241882,-20.392540,1.107053,-0.019791,0.221027
3523403723,-95.322304,-16.491547,-17.679062,1.022513,0.121573,0.342122
3523423773,-111.426537,-15.971903,-19.691217,1.039045,0.189301,0.380718
3523463874,-140.844727,0.861594,-5.710271,0.925919,-0.008577,0.213433
3523483924,-146.869110,14.672352,4.309104,1.031109,-0.045403,0.265410
3523503974,-146.304703,22.591412,6.259727,1.185586,-0.312751,0.282777
3523524026,-130.698868,26.857594,9.263565,1.271884,-0.342043,0.349983
3523544076,-113.980652,30.221020,13.619181,1.295653,-0.181705,0.383014
3523564126,-111.590904,34.308811,17.681736,1.229221,-0.031987,0.334822
3523584176,-111.016632,32.429794,14.088007,1.007297,-0.084047,0.350029
3523604226,-99.639862,22.410622,11.041490,0.815007,-0.040372,0.409780
3523624276,-98.898529,5.244523,7.697430,0.717828,0.136246,0.398776
3523644327,-120.899826,-21.618847,16.612028,0.617277,0.199310,0.351073
3523664377,-126.763672,-51.010712,30.365063,0.552511,0.066731,0.314977
3523684427,-128.228088,-75.124146,33.942566,0.554241,-0.015757,0.340937
3523704477,-131.394531,-95.150330,31.352467,0.599925,-0.194104,0.366046
3523724527,-130.620468,-104.508972,35.651398,0.788439,-0.252006,0.117848
3523744589,-125.938965,-88.200134,33.501770,1.362215,-0.059847,-0.130604
3523764626,-74.540627,-50.028168,-12.189718,1.668255,-1.302664,0.256849
3523784676,26.744987,-30.289522,-36.386703,1.426011,-1.379490,0.469418
3523804726,60.597080,-31.336473,-17.311134,1.106985,0.087010,0.288136
3523824776,28.675508,-37.329933,-30.451532,0.697362,0.566867,0.067099
3523844827,-19.710056,-43.023224,-29.566130,0.727531,0.281712,0.148502
3523864877,-42.052441,-43.543232,-19.097555,0.959388,-0.083601,0.280158
3523884928,-38.583157,-36.059799,-12.220126,1.016337,-0.187801,0.259410
3523904977,-35.742393,-23.047180,-5.513108,0.967397,-0.165483,0.245535
3523925027,-36.352913,-1.594821,0.802246,1.056562,0.058609,0.381537
3523945077,-53.748764,14.945431,5.230505,1.123435,0.310992,0.651289
3523965127,-62.120613,23.602373,-12.099154,1.344206,-0.002485,0.564416
3523985178,-32.059372,35.776100,-42.429558,1.356794,-0.238091,0.261042
3524005228,-4.153239,52.556366,-57.632332,1.046815,-0.399841,0.204914
3524025278,-13.230094,70.996490,-44.717522,0.675853,-0.169204,0.278048
3524045328,-42.561909,88.273712,-26.698553,0.777321,0.074651,0.249406
3524065378,-41.452480,102.745537,-15.562266,1.053746,-0.179936,0.218959
3524085428,-23.209438,108.302597,-16.429068,1.119138,-0.148188,0.307394
3524105480,-21.975767,109.448776,-12.939548,1.080012,-0.038683,0.410912
3524125530,-34.708492,110.516220,-9.861712,0.962779,0.248713,0.468647
3524145580,-36.530968,102.560951,-19.815149,0.800351,0.112822,0.438349
3524165631,-19.628510,86.081612,-24.902817,0.673373,-0.100234,0.464454
3524185680,-15.628951,57.185555,-23.341906,0.540029,0.201346,0.448657
3524205730,-33.532494,19.511030,-15.141805,0.510090,0.312014,0.523962
3524225781,-46.199806,-18.079556,2.090289,0.509234,0.231331,0.632497
3524245831,-48.520653,-52.402199,15.192126,0.507261,0.245311,0.651134
3524265881,-57.715546,-79.824127,20.989214,0.625736,0.160924,0.653314
3524285931,-61.028496,-94.945808,6.619724,0.677572,-0.117850,0.643366
3524305981,-42.027714,-97.255386,-7.248464,0.951115,-0.153628,0.404421
3524326031,-32.409061,-65.734299,-11.149927,1.403161,-0.073464,-0.219132
3524346080,-13.272596,-22.750057,-17.739279,1.935675,-0.432606,0.376641
3524366131,20.169744,-29.946890,-13.891236,0.775805,-0.382544,0.907147
3524386181,28.908207,-59.288120,-7.207078,0.750722,0.165293,0.449296
3524406231,18.915688,-75.306076,-12.370284,0.552555,0.175912,0.159664
3524426281,7.010938,-82.226143,-7.908581,0.559275,0.131066,0.295376
3524446331,-3.337632,-84.289108,-5.305846,0.706689,0.087557,0.394808
3524466381,-6.796608,-85.957115,-3.790674,0.766786,0.087447,0.313893
3524486431,-7.106630,-86.181969,1.773164,0.782233,0.021186,0.169082
3524506482,-4.707395,-83.744606,5.348772,0.844425,0.007557,0.204126
3524526532,-2.544551,-78.244499,6.094537,0.963559,0.030780,0.304584
3524546582,-6.423438,-56.978420,7.955250,1.188131,0.045683,0.493680
3524566632,-6.561329,-34.616959,6.301821,1.370411,0.015372,0.455243
3524586682,8.689311,-18.421301,-3.043550,1.484080,-0.055919,0.229026
3524626783,30.618036,20.682013,-22.330418,1.481953,0.033681,0.204890
3524646833,25.901220,49.435207,-22.935637,1.183150,0.082678,0.220926
3524666883,5.750127,80.353439,-10.999735,0.887730,0.247289,0.239557
3524686934,-26.037630,113.111572,-3.401262,0.726424,0.220264,0.165746
3524706985,-31.716290,138.059586,1.501714,0.861241,0.060838,0.217079
3524727035,-27.152176,147.252274,-3.344199,1.113232,0.045496,0.191869
3524747085,-27.139050,147.565277,-9.067394,0.929473,-0.027404,0.300926
3524767135,-20.028023,142.872314,-9.417503,0.867235,-0.136215,0.319375
3524807235,9.355924,100.409859,-1.702516,0.675413,0.142995,0.585983
3524827286,1.372934,67.537010,-0.752761,0.684992,0.251131,0.624062
3524847336,-6.401045,39.770763,0.762904,0.697271,0.173344,0.621141
3524867386,-2.966697,25.767458,3.750590,0.465242,0.069721,0.877262
3524887436,-3.354026,2.011667,5.151323,0.385829,0.090945,0.759212
3524907486,-1.799003,-20.141378,5.886483,0.335216,0.019404,0.611086
3524927535,3.752393,-35.921688,9.000814,0.415941,-0.014729,0.651769
3524947585,4.203004,-40.800175,9.009888,0.713931,0.155091,0.478691
3524967635,-2.318927,-20.937250,-0.560285,1.218548,0.206599,0.170211
3524987685,2.115013,-1.661693,-9.897323,1.382787,0.131610,0.743089
3525007735,20.246887,-26.185310,-3.816633,0.751316,-0.007131,0.993695
3525027785,18.664782,-59.540306,4.287077,0.749279,0.364674,0.580306
3525047836,13.125137,-76.729149,1.437927,0.660653,0.025537,0.378749
3525067886,18.792973,-84.633598,6.139397,0.507646,0.078679,0.497653
3525087936,16.695925,-95.476822,7.950972,0.569041,0.224429,0.495674
3525107986,10.955809,-103.370239,5.805020,0.667278,0.217966,0.396654
3525128036,11.446244,-108.372765,5.367348,0.744137,0.088150,0.258194
3525148087,15.303553,-112.350952,4.962863,0.769113,0.098960,0.222256
3525168136,14.280632,-115.282265,5.875218,0.864595,0.113553,0.256209
3525188187,12.141161,-111.459465,7.537745,0.974251,0.090669,0.208174
3525228287,9.636237,-72.358871,5.827465,1.099702,0.182637,0.254168
3525248337,6.126170,-46.416084,6.140984,1.230447,0.114533,0.441106
3525268389,9.773825,-32.809479,8.715140,1.372492,0.150425,0.266109
3525288439,14.559344,-28.700733,1.643296,1.258529,0.217759,0.016043
3525328539,17.653002,-0.423304,-4.222813,1.223534,0.169277,0.209213
3525348589,9.174734,11.980826,-5.179640,1.291893,0.132542,0.401072
3525368639,15.987741,36.322559,-8.198960,1.193722,0.159629,0.385066
3525388690,8.687519,68.407028,-11.164228,1.094020,0.261073,0.391092
3525408740,-4.317451,97.028740,-11.985880,0.895850,0.257619,0.357736
3525428790,-16.300629,116.125450,-3.869794,0.823339,0.126744,0.397908
3525448840,-11.743393,119.264488,2.779698,1.006126,0.014287,0.205194
3525468890,-2.837535,112.491104,4.126236,1.031231,0.120427,0.068544
3525488940,-4.143315,100.458275,-0.500481,0.878209,0.144041,0.251318
3525529039,2.432253,58.647072,10.122990,0.699533,0.232540,0.438976
3525549090,-4.346062,30.665939,12.639469,0.686950,0.341591,0.493700
3525569139,-21.112959,9.729219,16.961699,0.553602,0.216857,0.598170
3525589189,-19.099831,-14.628689,15.513979,0.495775,0.113987,0.452263
3525609240,-11.935698,-24.876778,8.248248,0.293014,-0.012070,0.314685
3525629290,-6.868284,-20.193306,2.925065,0.719595,-0.039287,0.091904
3525649340,25.395962,-9.576813,-22.641165,1.612225,-0.573774,0.415425
3525669390,69.785522,-25.168770,-5.929275,0.922090,-0.033502,0.972126
3525689440,59.902657,-72.429214,9.948216,0.823259,0.578748,0.621159
3525709491,33.935368,-107.876549,8.950191,0.760334,0.236242,0.344935
3525729541,26.851442,-130.739532,16.777147,0.619730,0.288559,0.307978
3525749591,16.745506,-150.734650,19.055061,0.604169,0.252468,0.181138
3525769641,22.737055,-161.056961,12.070419,0.674635,0.023261,0.063232
3525789691,39.267380,-165.277359,9.487170,0.705644,0.071857,-0.025450
3525809741,38.844051,-166.460709,7.680025,0.660587,0.225993,0.010164
3525829791,30.930065,-167.443665,5.692917,0.732695,0.361613,0.067362
3525849843,12.736175,-160.764084,5.115428,0.832876,0.316799,0.075862
3525869893,7.603662,-152.449814,-1.353538,0.763674,0.092941,0.049061
3525909993,16.903067,-151.536621,-2.216363,1.070612,0.051501,-0.005450
3525930044,20.139696,-145.108429,-3.475017,1.183311,-0.001438,-0.091014
3525950094,27.191166,-146.693222,-4.464869,1.219501,0.076342,-0.300511
3525970144,22.657097,-141.694061,-0.387870,1.166784,0.177327,-0.346768
3525990194,22.969597,-132.263977,1.860792,0.902350,0.154979,-0.606042
3526010244,21.259750,-136.563309,-2.739380,0.975187,0.159256,-0.623207
3526030294,31.897717,-131.870529,-7.549176,0.980808,0.149012,-0.488267
3526050344,32.102184,-131.431366,-13.924664,0.895744,0.235825,-0.452794
3526070395,17.156631,-108.192032,-16.311092,0.950023,0.337705,-0.261004
3526090443,10.694590,-93.489281,-18.413389,0.939570,0.262519,-0.384174
3526110493,16.207592,-84.884361,-15.170860,0.978838,0.136835,-0.379533
3526130543,19.897974,-74.164307,-17.694992,0.984803,0.233451,-0.512118
3526150594,14.045941,-77.500877,-26.624617,0.926052,0.225242,-0.703297
3526170644,9.170171,-68.868851,-29.941921,1.037564,0.187299,-0.609456
3526190694,2.939413,-63.852524,-26.197863,1.145881,0.083147,-0.730632
3526210744,-6.609641,-63.298347,-13.963989,1.055066,0.043923,-0.599766
3526230794,-16.949112,-60.255356,-1.116943,0.985626,0.177101,-0.468836
3526250844,-33.702793,-57.368118,-3.819134,0.944513,0.320498,-0.556491
3526270895,-27.856928,-53.064133,5.630106,0.921938,0.106837,-0.595440
3526290945,-6.854489,-44.982922,1.305216,1.081938,0.043752,-0.564856
3526310995,-8.471765,-34.010155,-9.766990,1.405120,0.153265,-0.184480
3526331045,-4.312531,-23.985125,2.126287,0.842171,0.189815,-0.466274
3526351095,7.623534,10.197692,-14.207069,1.247514,0.271783,-0.604401
3526371146,15.840553,23.933384,-12.749066,1.329796,0.269373,-0.301054
3526391196,13.283350,24.972286,2.868481,1.114635,0.083309,-0.548268
3526411246,19.573566,28.737125,-8.507551,0.773503,0.088550,-0.676531
3526431296,25.065157,31.306837,-20.765926,0.710780,0.294257,-0.468141
3526451347,22.005939,27.768759,-26.042776,0.935475,0.323308,0.019439
3526471398,12.337695,23.048809,-25.318281,1.082077,0.381945,-0.275484
3526491448,-6.981955,26.815975,-2.746784,0.810013,0.290633,-0.271903
3526511498,-13.851800,22.101982,2.016293,0.867788,0.160675,-0.187375
3526531548,-16.690336,18.283764,6.206449,0.774374,0.176234,-0.324726
3526551598,-18.378345,15.272626,8.384998,1.113792,0.182134,-0.205056
3526571649,-24.755768,10.934673,19.262825,1.360456,0.128043,-0.219768
3526591699,-26.696102,22.046875,38.885033,1.377769,-0.083076,-0.392790
3526611749,-13.820314,38.353531,47.092976,1.358780,-0.072166,-0.549100
3526631799,13.891617,59.408108,42.887768,1.166709,0.212392,-0.398252
3526651849,24.053053,65.981224,15.448470,1.193233,0.325124,-0.173793
3526671900,22.517715,73.870575,-12.650637,1.296390,0.246896,-0.189788
3526691948,22.435862,93.983749,-16.933815,1.355412,0.097454,-0.261620
3526711998,15.288445,124.942612,-11.997984,1.226005,-0.113866,-0.164208
3526732048,2.722317,138.133484,6.377829,1.122889,0.076758,-0.320195
3526752099,-19.666237,131.233612,11.661661,0.903441,0.447910,-0.503181
3526772148,-31.425831,133.642166,-2.234750,0.719496,0.378182,-0.643822
3526792199,-33.627815,138.339081,-13.504915,0.893053,0.090981,-0.434595
3526832299,-47.423950,131.298279,13.368843,1.276227,0.188819,-0.577790
3526852349,-43.912479,130.118530,23.633587,0.818426,0.233476,-0.465493
3526872399,-23.766624,123.810913,22.193110,0.798847,0.135862,-0.311543
3526892450,-8.587102,130.973053,16.615316,0.985575,0.050785,-0.164001
3526912500,-8.295623,146.146500,9.946501,1.016110,0.252516,-0.077144
3526932550,-30.999889,160.009811,-0.036912,0.906172,0.434434,-0.013774
3526952600,-45.291672,182.936920,-4.446075,1.001745,0.251515,-0.036700
3526972650,-42.429165,200.507935,-3.219201,1.125852,-0.042299,-0.252905
3526992700,-22.378227,206.839294,-1.171404,1.077620,-0.236824,-0.341426
3527012750,-14.843834,201.784775,3.277065,0.918154,-0.152762,-0.302631
3527032802,-10.687551,192.217133,1.065206,0.859742,0.054682,-0.177208
3527052852,-11.752338,184.068909,-4.181298,0.844011,0.081709,-0.088747
3527072902,-8.461939,176.620544,-5.316365,0.792819,0.048553,-0.048465
3527092953,-7.434536,166.973648,-7.223696,0.833743,0.052248,0.013402
3527113003,-3.678282,155.550674,-13.082079,0.843910,0.067844,0.137442
3527133053,-5.147585,147.871017,-15.851736,0.866801,0.058949,0.358102
3527153103,-2.092548,140.074692,-16.545942,0.846326,0.094131,0.458523
3527173153,-0.715675,123.911682,-14.406515,0.719117,0.069138,0.445731
3527193203,-0.050118,100.865242,-12.371964,0.616951,0.054667,0.478893
3527213254,2.934082,76.240166,-9.067097,0.621595,0.064437,0.583784
3527233304,7.668230,49.828846,-7.909113,0.671015,0.090908,0.693435
3527253354,11.154530,22.249783,-7.640985,0.720490,0.181082,0.746455
3527273403,9.721261,-6.611452,-6.957453,0.747473,0.291805,0.784809
3527293453,11.222141,-36.111275,-3.453375,0.743811,0.219734,0.745537
3527313503,16.070896,-63.865250,0.149620,0.735682,0.119121,0.674027
3527333553,21.655207,-88.885780,5.455783,0.586130,0.132372,0.581111
3527353603,21.433521,-111.192970,13.642213,0.524013,0.253930,0.526278
3527373653,10.592730,-134.073547,20.174543,0.488663,0.387575,0.486763
3527393704,-6.066789,-160.834183,26.616175,0.467028,0.347681,0.387280
3527413754,-15.454548,-180.613998,33.372261,0.554384,0.176071,0.189758
3527433804,-13.868962,-166.897324,8.745884,0.953655,-0.220166,-0.275334
3527453854,19.794262,-96.146454,-8.653302,2.057422,-0.428862,-0.720515
3527473904,-1.447775,-68.886314,32.110783,1.811706,0.656834,0.560827
3527493954,-30.139578,-85.313522,17.610678,1.041367,0.578882,0.660785
3527514004,-12.099816,-82.972214,10.267444,0.882071,-0.156419,0.084687
3527534055,15.593067,-74.996735,6.311942,0.815388,0.003850,0.011833
3527554104,7.041271,-67.308556,7.592025,0.715542,0.369926,0.143397
3527574154,-3.785497,-61.849072,0.960574,0.824306,0.177271,0.238827
3527594205,-5.954734,-48.231289,-1.874648,0.980786,-0.028049,0.241222
3527614257,5.855001,-19.808996,-2.264722,1.048389,-0.056400,0.262479
3527634307,11.414130,11.050325,-0.986055,1.250995,-0.003149,0.493782
3527654357,13.839951,17.685408,-1.108294,1.496448,0.260106,0.216277
3527674407,5.841850,24.849873,-3.972290,1.585298,0.424630,0.124755
3527694457,11.731310,47.133404,-4.975770,1.362255,0.140568,0.213437
3527714507,-3.206133,73.932999,-2.622463,1.032060,0.048616,0.289594
3527734557,-14.629048,115.757294,0.996580,0.930631,-0.008434,0.171658
3527754608,-16.576241,152.955246,5.151195,0.858316,0.131615,0.089728
3527774658,-8.649717,173.081406,-5.341998,1.051706,0.051068,0.062857
3527794708,-7.033765,173.514175,-12.983644,0.939786,0.052570,0.134663
3527814758,-24.318491,168.479065,-15.794772,0.840505,0.277865,0.224690
3527834808,-23.393280,158.306992,-15.418991,0.894945,-0.019147,0.292678
3527854857,-6.364462,137.790253,-14.429625,0.702868,-0.053068,0.339333
3527874907,-7.447647,110.813408,-11.456284,0.504637,0.156580,0.443199
3527894957,-11.850313,78.523056,-9.736736,0.520794,0.244829,0.659870
3527915007,-20.539738,43.489784,-5.156548,0.603632,0.191128,0.832032
3527935057,-22.094421,10.382316,3.643565,0.685202,0.100449,0.927725
3527975158,-6.093485,-54.171207,13.326522,0.437140,0.124370,0.776185
3527995208,-18.964462,-87.788849,13.204342,0.331913,0.093506,0.717630
3528015258,-26.330454,-120.220238,16.092571,0.313718,0.000775,0.741931
3528035308,-28.158293,-141.138916,18.628454,0.739795,-0.017604,0.476238
3528055358,-19.122095,-107.665100,-2.362502,1.428800,-0.133333,-0.503817
3528075408,5.133368,-44.505184,-11.137698,2.147480,-0.041611,0.378798
3528095459,20.149517,-56.610294,-10.472189,0.479128,-0.087433,1.075127
3528135559,30.461006,-108.992561,0.557767,0.525543,0.029391,0.050926
3528155609,24.686510,-114.938232,-0.882462,0.422168,0.223826,0.092658
3528175659,10.509871,-115.557838,-1.367995,0.747056,0.234106,0.107293
3528195709,2.389230,-108.707306,-3.328970,0.976745,0.158478,0.184322
3528215761,4.007919,-102.905266,-4.691006,0.938185,0.057136,0.187676
3528235811,9.146077,-92.190971,-4.828251,0.934296,0.152799,0.181270
3528255861,-1.668056,-67.548431,-3.295061,0.973328,0.258785,0.312738
3528275911,-15.470474,-42.824425,-0.199839,1.145649,0.140804,0.461559
3528295961,-8.614568,-34.469723,-0.685766,1.314751,0.071051,0.156012
3528316012,4.363734,-26.313545,-7.660740,1.468185,0.065061,0.049743
3528336063,3.974361,-16.426714,-5.686249,1.384181,0.134869,0.084058
3528356112,0.909860,-1.067425,-7.125050,1.402887,0.117022,0.167829
3528376162,-0.220991,18.045559,-10.025043,1.336139,0.030915,0.384294
3528396212,-3.109892,42.503784,-8.615256,1.101067,0.066799,0.452284
3528416262,-10.749058,73.332108,-4.603438,0.955104,0.137564,0.371724
3528436311,-15.931236,103.531830,-1.689261,0.855738,0.153433,0.378561
3528456361,-17.004915,120.442009,1.148006,0.798733,0.093341,0.397574
3528476412,-17.273724,123.216888,-0.354516,0.930640,0.043166,0.330927
3528496462,-7.330445,117.858597,-5.584172,0.910102,0.046516,0.116073
3528516512,-6.317747,109.624115,-13.407951,0.804811,0.042356,0.101742
3528536562,-8.018671,104.567818,-14.079618,0.879769,0.006477,0.224929
3528556612,-0.861456,99.502495,-10.942140,0.956180,0.062806,0.443032
3528576662,-2.751796,91.218178,-5.675872,0.967394,0.229002,0.608779
3528596712,-15.929832,74.899544,0.099507,0.938083,0.326680,0.645794
3528616762,-19.778992,58.428230,4.500355,0.634836,0.148962,0.724316
3528636813,-13.285685,29.424082,10.388350,0.392914,0.120172,0.609147
3528656863,-13.818192,-0.097496,11.361843,0.222209,0.095981,0.550868
3528676913,-12.294675,-21.745716,11.526852,0.334773,0.045586,0.580333
3528696963,-12.673118,-35.404495,16.507952,0.511824,0.012264,0.580065
3528717013,-21.986814,-31.228792,18.967564,0.913437,0.237752,0.338005
3528737063,-35.887741,-0.945705,8.105961,1.584097,0.067873,0.165683
3528757114,9.011915,14.938783,-24.607065,1.187402,-0.637569,0.959186
3528777164,48.570999,-23.468803,2.681992,0.740621,-0.082626,0.880796
3528817265,13.428912,-72.541611,5.425081,0.535106,-0.067472,0.489542
3528837316,23.419710,-87.172760,11.588218,0.579019,-0.004722,0.525299
3528857366,23.377052,-95.964836,12.694741,0.737034,0.218342,0.425046
3528877416,17.056953,-98.916756,7.439750,0.759760,0.156372,0.280600
3528897466,15.763064,-101.099876,5.704566,0.688379,0.064140,0.233174
3528917518,17.280708,-108.040665,6.228163,0.657697,0.125438,0.242245
3528937566,20.146839,-116.542610,3.399188,0.711398,0.105259,0.220501
3528957616,20.731277,-114.344994,-0.223752,0.836495,0.146121,0.212372
3528977667,17.745378,-103.486511,-2.768758,0.957490,0.201141,0.197325
3528997717,9.918221,-87.878860,-5.624012,1.058259,0.259348,0.256168
3529017765,0.560161,-65.564194,-6.349419,1.303803,0.159107,0.440020
3529037816,5.096247,-56.531487,-8.860451,1.426769,0.186316,0.149292
3529057866,6.521872,-43.393997,-14.522227,1.354003,0.173623,-0.105917
3529077916,12.630322,-27.751957,-16.745848,1.164413,0.093840,-0.102975
3529097966,13.558194,-9.429484,-13.542778,1.291921,0.107037,0.051462
3529118016,8.983243,9.781995,-9.332845,1.365850,0.152714,0.293937
3529138066,8.637411,33.448959,-9.618907,1.368464,0.219609,0.467770
3529158117,1.468010,70.385696,-7.750409,1.208227,0.263440,0.424956
3529178167,-15.952010,108.618271,-6.458788,1.019405,0.214597,0.297036
3529198217,-16.691526,136.063889,-3.066781,0.952991,0.196541,0.142906
3529218267,-15.945576,151.882507,1.744140,0.900180,0.125023,0.105279
3529238317,-10.456030,156.034943,2.031067,1.069614,0.043677,0.013174
3529278417,-2.120203,163.120422,-0.201743,1.056474,0.193671,0.033703
3529298467,-2.093795,164.533127,-7.308104,0.819056,0.293062,0.267987
3529318518,-13.317319,150.005447,-13.233911,0.731348,0.342859,0.384302
3529338568,-25.555954,116.768768,-5.414877,0.490638,0.367481,0.408758
3529358620,-24.301601,74.268044,9.707154,0.252912,0.143024,0.608526
3529378670,-20.767162,32.015873,19.772366,0.371389,0.260605,0.680622
3529398720,-29.485264,6.830353,34.156120,0.352647,0.101398,0.815750
3529418770,-23.898085,-13.288778,25.841162,0.553582,-0.058960,0.816940
3529438820,-13.519134,-19.821754,13.301706,0.826539,-0.029290,0.567509
3529458870,-17.515598,9.164268,10.361115,1.371892,0.084168,-0.080398
3529478921,-3.994881,40.995964,-10.830387,1.377927,-0.476182,0.989115
3529498971,32.722912,-5.200284,8.687757,0.356988,-0.227488,1.359078
3529519021,26.906672,-48.768341,19.617199,0.599043,0.384136,0.694257
3529539071,15.754734,-79.672119,14.702744,0.392933,0.040685,0.661144
3529559121,19.651081,-106.297615,16.468077,0.374190,0.054757,0.663302
3529579171,19.078543,-122.785995,13.607196,0.560081,0.125814,0.564824
3529599220,12.776259,-131.649231,9.948991,0.783476,0.117924,0.390820
3529619270,14.566765,-134.498688,8.897128,0.739411,0.017338,0.275612
3529639320,19.940298,-141.196411,10.252222,0.647185,0.109719,0.192638
3529679421,24.500395,-155.051239,4.371623,0.674080,-0.004713,0.140713
3529699471,25.658398,-157.284531,5.364177,0.878904,0.104621,0.136992
3529719521,21.648729,-151.646118,5.550784,1.035763,0.144668,0.200805
3529739571,23.307083,-144.827866,1.585651,1.148751,0.061819,0.158577
3529759621,29.137680,-132.316177,-1.953404,1.119116,0.064218,0.127439
3529779671,28.905031,-114.524750,-2.279892,1.131784,0.107185,0.137665
3529799721,23.120443,-102.363747,3.531184,1.173663,0.166571,0.179990
3529819771,26.696142,-107.116234,4.622520,1.118293,0.158955,-0.168130
3529839822,23.772896,-105.998169,-0.412737,0.970827,0.106921,-0.226557
3529859872,9.071966,-104.329010,0.215713,0.859333,0.052929,-0.262077
3529879922,6.263879,-91.140572,0.967041,0.951813,0.044663,-0.186800
3529899972,10.161144,-77.397079,0.925898,1.133169,0.064996,-0.139490
3529920022,15.426967,-64.248306,2.659801,1.236308,0.096350,-0.020608
3529940072,19.810675,-55.182655,3.104501,1.194306,0.145109,0.028426
3529960124,20.730637,-46.198231,-2.095629,1.077192,0.118648,-0.057257
3529980174,21.480324,-38.156517,-7.330346,1.000225,0.122944,-0.133014
3530000224,20.067560,-36.043663,-6.700499,0.972371,0.124428,-0.203210
3530020274,18.640638,-38.117695,-4.267586,0.962179,0.140816,-0.307898
3530040325,15.792514,-37.506973,-1.995006,0.946965,0.111563,-0.388373
3530060375,19.487936,-33.334221,-2.639732,0.937713,0.102139,-0.391601
3530080425,18.588028,-29.388062,-0.758275,0.953825,0.106731,-0.358640
3530100475,22.575089,-22.639858,-1.411978,1.029776,0.114812,-0.255768
3530120525,21.686548,-15.392074,-4.453066,1.118311,0.125582,-0.170197
3530140575,23.835840,-12.404112,-8.367278,1.121294,0.181945,-0.193913
3530160625,19.129877,-22.324097,-9.119659,1.040224,0.194944,-0.289522
3530180697,16.521402,-13.037764,-7.369690,0.995220,0.118847,-0.241427
3530200724,23.040216,-9.640159,-6.261995,0.985909,0.156076,-0.273461
3530220775,15.648872,-10.021335,-2.483773,1.010108,0.121013,-0.340593
3530240825,18.830564,-4.695745,2.013821,0.928437,0.037625,-0.301126
3530260875,26.943378,-4.842211,2.875486,0.934724,0.061243,-0.327984
3530280925,33.627438,-2.277696,0.537569,0.937523,0.074412,-0.252137
3530300975,35.924511,-1.463744,-0.375515,0.960761,0.153863,-0.259072
3530321026,29.557909,1.119460,1.717184,0.986910,0.252215,-0.227943
3530341075,18.645628,1.108673,0.493251,1.001452,0.233810,-0.195545
3530361126,15.508637,0.262078,-0.480419,0.990905,0.152380,-0.253025
3530381176,10.278618,2.313967,7.638985,0.951909,0.098704,-0.245591
3530401226,15.783949,4.410355,11.707312,0.939531,0.043568,-0.268307
3530421276,19.115427,5.345470,10.876818,0.969609,0.059014,-0.228193
3530441327,16.761053,4.679847,10.099302,0.985767,0.066292,-0.204441
3530461376,17.777309,3.259613,11.354369,0.964544,0.033027,-0.253103
3530481427,19.432178,3.168863,13.294316,0.934836,0.039751,-0.274022
3530501477,17.049149,3.173284,16.447979,0.953348,0.051596,-0.280935
3530521527,14.698774,3.641057,20.805092,0.965258,0.023694,-0.276983
3530541579,19.224287,4.473583,26.507595,0.948730,-0.005596,-0.257676
3530561629,23.342867,3.700037,30.768192,0.941285,0.039048,-0.254155
3530581679,22.151688,1.620577,33.299564,0.983842,0.052314,-0.273456
3530601729,19.318020,3.744184,35.892826,1.005366,0.000544,-0.217992
3530641830,21.586340,13.787548,43.049850,1.086742,-0.020200,-0.124019
3530661880,31.002300,17.312576,42.109779,1.050565,-0.107147,-0.207700
3530681930,42.225037,17.205793,41.234638,1.004333,-0.125703,-0.227626
3530701980,47.942638,15.200686,38.791538,1.030196,-0.070355,-0.281524
3530722030,56.723686,15.696319,36.065910,1.020935,-0.093600,-0.291863
3530742080,66.298645,17.642464,32.599846,1.051012,-0.106210,-0.237700
3530762131,77.749878,22.924450,30.076580,1.099420,-0.049200,-0.203844
3530782179,82.869888,24.527786,31.016632,1.057847,-0.069006,-0.178189
3530802229,88.237259,27.188026,34.355488,1.006876,-0.078295,-0.171809
3530822280,97.224930,25.470057,35.510258,0.984754,-0.064695,-0.215111
3530842330,106.532471,22.471672,33.152699,0.994275,-0.065168,-0.237123
3530862380,112.649498,24.693165,29.982477,1.028211,-0.033818,-0.210071
3530882430,119.248894,23.176605,27.052336,1.078133,-0.041740,-0.199810
3530902480,124.761208,23.291529,26.322430,1.078134,-0.061087,-0.205857
3530922530,135.682053,19.963234,27.739759,1.057486,-0.056527,-0.169520
3530942580,141.679611,18.132969,22.650906,1.136336,-0.031435,-0.180612
3530962631,146.372528,18.596018,20.199665,1.105183,-0.048012,-0.223357
3530982681,151.129974,12.526670,23.114075,0.996995,0.027630,-0.203187
3531002731,159.962311,5.330406,21.301668,1.014766,0.027168,-0.155342
3531022781,170.791351,0.679549,16.577057,1.044208,0.026098,-0.107406
3531042835,176.937958,-3.818849,11.989979,1.053421,0.031635,-0.064416
3531062881,177.953522,-7.820376,9.638777,1.034935,0.028982,-0.082058
3531082931,175.113892,-12.430540,9.860290,0.992004,0.112486,-0.094053
3531102981,170.620819,-16.814777,10.301392,0.973481,0.146717,-0.092763
3531123031,162.630051,-21.257330,12.335501,0.993601,0.082181,-0.040341
3531143083,162.870331,-22.458639,12.998926,1.103262,0.019025,-0.006933
3531163133,166.482574,-26.145924,9.637730,1.149438,0.045510,-0.074712
3531183183,167.329651,-31.896915,8.126301,1.202416,0.108749,-0.108241
3531203233,166.766174,-31.697643,7.807495,1.178408,0.132950,-0.114962
3531223283,166.629913,-34.692162,7.416177,1.166391,0.150064,-0.110792
3531243334,167.126770,-35.256454,7.705947,1.138278,0.188015,-0.108340
3531263384,167.289307,-34.321007,7.801193,1.169926,0.251177,-0.080037
3531283434,166.525726,-33.956230,5.056622,1.218171,0.265609,-0.043781
3531303484,164.545303,-34.351833,3.376149,1.202734,0.284233,-0.047923
3531323534,159.987030,-34.781815,3.720280,1.088847,0.324311,-0.048740
3531343584,154.816360,-35.424805,5.823678,1.017075,0.335610,-0.003392
3531363656,150.429855,-37.296497,7.301981,1.047911,0.273917,0.023625
3531383683,149.584229,-37.330223,7.643447,1.063946,0.204883,0.028718
3531403733,153.172028,-36.507397,7.995566,1.068161,0.180030,0.037397
3531423783,158.299240,-36.533943,9.297443,1.096725,0.176194,0.018831
3531443834,160.349701,-36.156620,10.417109,1.137284,0.251172,0.014070
3531463884,158.934418,-36.624535,11.116482,1.165381,0.262788,-0.010404
3531503984,155.941025,-33.905853,9.546896,1.129369,0.244648,0.061258
3531524034,157.769867,-33.602818,11.151951,1.131907,0.205508,0.036645
3531544084,159.859543,-31.826128,15.017945,1.114324,0.255549,0.025126
3531564135,157.832748,-30.492243,19.144588,1.130098,0.289949,0.007481
3531584185,154.874908,-26.946226,19.906458,1.136057,0.322348,0.016782
3531604235,149.907761,-24.088799,21.899197,1.092183,0.311484,0.026230
3531624285,149.733643,-23.061275,22.494457,1.057129,0.247647,0.066074
3531644335,152.764114,-22.594049,21.218519,1.070260,0.225101,0.107780
3531664385,153.576675,-24.477497,22.664724,1.067150,0.213996,0.068534
3531684435,152.555725,-25.516665,25.056036,1.049001,0.243204,0.055161
3531704486,151.569550,-25.827631,27.315983,1.051230,0.248421,0.076656
3531724536,150.018738,-25.850119,26.566288,1.063459,0.247965,0.074658
3531744587,147.901016,-25.885878,24.308622,1.040677,0.206896,0.078062
