Timestamp (us),Gyroscope X (deg/s),Gyroscope Y (deg/s),Gyroscope Z (deg/s),Accelerometer X (g),Accelerometer Y (g),Accelerometer Z (g)
4924887409,-15.256413,5.105562,-2.017413,0.966672,-0.165884,0.414508
4924907370,-8.502239,7.660238,0.847118,0.926670,-0.209562,0.407933
4924927331,0.531026,9.927342,4.250870,0.901195,-0.237602,0.418124
4924947292,3.920048,13.269905,11.588444,0.887519,-0.248682,0.440183
4924967253,5.031796,18.899555,18.103008,0.854181,-0.239965,0.434602
4924987213,9.907049,19.729723,22.656345,0.825946,-0.229667,0.391481
4925007173,15.084398,17.729172,26.850624,0.830861,-0.221605,0.374320
4925027134,17.532713,16.022318,29.062195,0.858819,-0.178514,0.381958
4925047095,14.878318,15.107584,31.331612,0.912999,-0.145613,0.395161
4925067056,6.792179,15.764796,31.417747,0.911303,-0.110410,0.401838
4925087016,-1.965532,15.103624,29.090204,0.891264,-0.113587,0.400339
4925106978,-2.700337,14.045529,27.427279,0.882014,-0.145270,0.396682
4925126938,2.622120,11.466110,27.646044,0.877181,-0.179993,0.399529
4925146899,13.806242,9.095295,27.458866,0.908160,-0.198386,0.388288
4925166860,25.770557,7.981493,25.830397,0.900476,-0.184769,0.381549
4925186821,32.325359,5.711493,23.054956,0.868352,-0.145756,0.391066
4925206782,32.177376,1.656974,18.514471,0.867531,-0.091617,0.394080
4925226743,24.800470,-4.328885,13.990929,0.910395,-0.067558,0.403761
4925246704,19.340078,-7.649678,10.388056,0.932987,-0.073791,0.416206
4925266664,17.173822,-11.925467,6.061324,0.899076,-0.093833,0.401616
4925286625,17.578676,-16.944780,2.905378,0.903161,-0.133593,0.402069
4925306586,17.972816,-18.431000,1.914689,0.923404,-0.121717,0.445318
4925326548,20.740635,-16.129715,1.040025,0.927334,-0.102170,0.460823
4925346509,25.000299,-14.648610,-0.670909,0.916994,-0.117817,0.427744
4925366470,29.939871,-15.602089,-1.806751,0.896030,-0.106138,0.397208
4925386431,33.892166,-18.995462,-3.868116,0.894649,-0.032873,0.389882
4925406392,27.967718,-21.038260,-8.020871,0.919325,0.022949,0.426664
4925426353,7.086619,-12.502850,-13.354504,0.962294,0.022079,0.459794
4925446313,-13.697304,-2.934222,-19.053652,0.961389,-0.032206,0.445550
4925466274,-14.963715,-2.307351,-19.438244,0.920886,-0.128399,0.390562
4925486235,2.242347,-5.881453,-14.716145,0.890875,-0.193673,0.362578
4925506196,16.693838,-7.297380,-11.387647,0.933979,-0.189051,0.379775
4925526157,20.526817,-6.767841,-10.480221,0.979773,-0.162551,0.384370
4925546130,21.437412,-6.095823,-7.662543,0.956770,-0.106003,0.381018
4925566077,19.243191,-6.873127,-4.397597,0.916992,-0.048337,0.373881
4925586038,11.315084,-7.309346,-3.231608,0.886040,-0.030048,0.378022
4925605999,2.598906,-5.816117,-4.401054,0.895811,-0.053773,0.384964
4925625960,-0.568209,-4.192574,-7.578731,0.920580,-0.065487,0.378507
4925645920,1.875850,-3.945433,-9.369714,0.925554,-0.057775,0.368546
4925665882,5.443339,-3.392555,-8.622579,0.931799,-0.050830,0.369276
4925685842,4.583736,-2.731315,-6.410299,0.924181,-0.045819,0.364683
4925705803,0.922742,-0.844945,-4.497506,0.920331,-0.055745,0.360677
4925725764,-2.897343,0.584504,-3.146173,0.923371,-0.074985,0.358772
4925745725,-3.621573,2.545427,-1.094766,0.924583,-0.085951,0.361887
4925765686,-4.273381,4.302045,1.579516,0.927098,-0.095765,0.363915
4925785646,-6.915854,3.903424,3.362481,0.911071,-0.100019,0.372433
4925805607,-6.102478,1.801802,3.330362,0.911637,-0.097671,0.378051
4925825568,-3.332504,2.246552,1.995525,0.918039,-0.108966,0.380994
4925845529,-2.422485,1.734553,2.211802,0.919761,-0.129447,0.386461
4925865490,-2.193059,-0.019843,3.733064,0.917788,-0.128286,0.396149
4925885451,-1.103071,-0.264588,4.769192,0.922300,-0.112338,0.402072
4925905413,1.001471,1.029493,4.948769,0.915871,-0.096987,0.402977
4925925374,1.866464,1.504403,4.237513,0.905641,-0.089407,0.398112
4925965296,2.495822,2.319416,2.105750,0.905803,-0.090479,0.393307
4925985257,3.649062,2.405250,1.244240,0.914459,-0.087824,0.394515
4926005218,4.535438,2.720742,0.707850,0.912913,-0.086527,0.395102
4926025178,2.928718,1.713139,0.074125,0.918196,-0.077579,0.389134
4926045139,0.840567,0.418484,-0.363437,0.918421,-0.076427,0.387207
4926065100,0.405660,0.039472,-0.440202,0.919066,-0.081126,0.389572
4926085061,-0.089695,0.087110,-0.229407,0.914641,-0.085707,0.390203
4926105022,-1.005056,-0.602248,-0.345243,0.910139,-0.081948,0.389240
4926124981,-0.972004,-0.443525,-0.777967,0.910837,-0.082294,0.390897
4926144942,-0.505307,-0.232827,-1.148621,0.910063,-0.085912,0.391580
4926164903,-1.074655,0.134100,-1.113104,0.913016,-0.093515,0.395947
4926184864,-0.636437,-0.262092,-0.784719,0.912820,-0.096433,0.395172
4926204825,0.536626,0.274515,-0.584320,0.913489,-0.093547,0.400327
4926224785,1.094157,1.056533,-0.340785,0.917355,-0.094643,0.402693
4926244746,1.208191,1.566663,0.136963,0.915216,-0.098419,0.397798
4926264707,2.198897,0.773854,0.763753,0.913338,-0.097594,0.390738
4926284668,2.914759,0.824622,0.674970,0.912331,-0.092355,0.394003
4926304629,2.369169,0.817744,0.172276,0.913360,-0.089274,0.394063
4926324590,2.134966,1.084401,0.042084,0.917093,-0.092520,0.392272
4926344551,2.922080,0.626641,0.561449,0.916097,-0.090395,0.387666
4926364512,3.936326,-0.067518,1.119865,0.916820,-0.081955,0.387268
4926384472,2.629552,-0.018505,0.728413,0.914652,-0.074616,0.390295
4926404433,0.479900,0.230523,0.136553,0.913622,-0.077788,0.390237
4926424394,0.115058,0.002956,-0.152710,0.912991,-0.088521,0.389309
4926444354,0.436840,-0.932766,0.198864,0.911722,-0.086405,0.390161
4926464315,0.049398,-1.053700,-0.045097,0.912761,-0.081328,0.396198
4926484278,-0.629375,-0.124736,-0.542040,0.910310,-0.081035,0.395875
4926504239,-0.564602,0.612334,-0.740252,0.915642,-0.090047,0.398762
4926524200,-0.287125,0.118036,-0.290821,0.916090,-0.099393,0.394005
4926544161,0.707354,-0.105063,0.016375,0.916032,-0.096031,0.393858
4926564121,0.412550,-0.196409,-0.492953,0.912487,-0.086915,0.393098
4926584082,-0.314643,0.002547,-1.034502,0.912079,-0.088156,0.395023
4926604043,-0.465615,-0.066075,-1.361243,0.914966,-0.092560,0.394237
4926624004,0.621861,0.083093,-1.092242,0.919981,-0.095929,0.397389
4926643965,0.749433,0.121570,-0.666871,0.910974,-0.095373,0.391751
4926663926,0.664092,-0.052657,-0.461979,0.910340,-0.088393,0.389986
4926683887,0.361435,0.084690,-0.713635,0.912338,-0.086485,0.391358
4926703853,0.401992,0.616750,-0.790190,0.914156,-0.092011,0.393940
4926723807,0.569044,0.761125,-0.584940,0.915471,-0.091602,0.391772
4926743768,1.274721,0.561654,-0.331859,0.914252,-0.086597,0.391212
4926763729,1.410801,0.447331,-0.240166,0.916651,-0.085012,0.395692
4926783689,0.986309,0.714625,-0.355809,0.910064,-0.085650,0.397130
4926803650,0.498736,0.388847,-0.516311,0.911906,-0.086145,0.395624
4926823611,0.857289,0.448236,-0.667003,0.912354,-0.087701,0.395202
4926843572,0.962873,0.242614,-0.643579,0.913297,-0.087017,0.399124
4926863533,0.833515,0.334453,-0.560660,0.910019,-0.087809,0.398622
4926883493,1.274794,0.180688,-0.687992,0.909612,-0.083540,0.398089
4926903454,1.649794,0.193767,-1.149726,0.909231,-0.081219,0.394948
4926923415,1.405360,0.088308,-1.036535,0.908760,-0.084591,0.393993
4926943376,1.358499,0.088994,-0.771062,0.910832,-0.081568,0.397077
4926963337,0.537557,0.647412,-0.455854,0.909222,-0.084338,0.399188
4926983298,0.721914,1.049838,-0.478614,0.912857,-0.084277,0.399709
4927003259,1.911746,1.440948,-0.748486,0.908187,-0.084928,0.395445
4927023219,3.016676,1.749058,-0.828778,0.911703,-0.090341,0.394505
4927043180,2.855949,1.772845,-0.601663,0.916194,-0.093437,0.391087
4927063143,3.293537,0.950290,-0.515504,0.908630,-0.083341,0.386139
4927083104,2.921828,0.608135,-1.070248,0.908092,-0.074545,0.390538
4927103064,1.594396,0.595301,-1.992934,0.913643,-0.077818,0.394427
4927123025,1.364735,0.109059,-2.121986,0.917883,-0.087266,0.391563
4927142986,2.401410,-0.173587,-1.108746,0.918150,-0.076449,0.397947
4927162947,2.094924,-0.263087,-0.722565,0.916408,-0.060463,0.402116
4927182908,0.491282,0.053580,-0.849769,0.907606,-0.059573,0.400756
4927202869,0.096603,-0.273200,-1.359075,0.901324,-0.061148,0.394292
4927222830,0.485467,-0.838582,-2.039992,0.901879,-0.055376,0.391567
4927242790,0.854272,-1.123240,-3.078098,0.918047,-0.045863,0.388429
4927262751,0.867447,-1.445740,-4.587864,0.927816,-0.023819,0.404730
4927282712,-2.805480,-2.485503,-9.349420,0.898649,-0.017661,0.426040
4927302671,-4.305633,-3.004160,-16.237198,0.867993,0.009001,0.406191
4927322632,-3.358367,-5.083659,-23.926622,0.923965,0.091410,0.399675
4927342593,-12.190923,-9.746614,-38.452202,0.922263,0.157594,0.380348
4927362554,-33.093170,-8.452143,-55.629749,0.871746,0.194128,0.393757
4927382515,-49.911316,-7.505946,-69.347679,0.883347,0.185017,0.375633
4927402476,-56.129143,-7.776681,-77.670639,0.968097,0.151178,0.309628
4927422437,-55.463200,-4.330984,-83.813423,1.042367,0.136691,0.260324
4927442397,-49.003868,-3.104388,-87.565849,1.024657,0.164876,0.229487
4927462358,-41.657986,-8.970283,-88.481491,0.987205,0.189893,0.179399
4927482319,-32.800446,-12.848891,-82.056129,0.994755,0.202973,0.165391
4927502280,-34.747967,-17.203274,-76.007294,0.974203,0.294568,0.154771
4927522241,-52.860443,-25.217264,-77.504753,0.981669,0.365666,0.123602
4927542202,-77.308311,-31.961967,-81.855888,0.990650,0.393898,0.108644
4927562163,-99.795456,-36.642982,-85.505402,0.987620,0.420597,0.092306
4927582123,-118.433426,-39.922184,-89.356804,0.993701,0.408752,0.076038
4927602084,-124.268196,-42.841545,-90.593628,1.015073,0.327103,0.064928
4927622045,-120.704620,-42.739796,-91.060127,1.081468,0.255526,0.040910
4927642008,-120.753456,-40.731956,-98.591980,1.094161,0.247080,0.050478
4927661968,-131.961884,-42.388107,-111.695518,0.984246,0.259294,0.155351
4927681929,-127.892708,-46.190254,-116.397003,0.986163,0.276500,0.164666
4927701890,-114.440521,-41.595783,-117.171494,1.039413,0.267499,0.133827
4927721851,-107.496986,-34.217003,-116.491684,1.046426,0.298023,0.156221
4927741812,-104.668159,-29.980835,-115.669022,1.032260,0.251626,0.193420
4927761773,-103.416565,-28.871639,-110.482964,1.053506,0.193288,0.197406
4927781734,-103.682961,-27.002508,-100.445862,1.068111,0.072817,0.149927
4927801694,-102.952515,-25.145920,-83.749519,1.007181,-0.016515,0.133244
4927821655,-98.968391,-27.388817,-58.361595,0.886073,-0.092530,0.139280
4927841616,-91.720985,-35.329514,-21.137661,0.800817,-0.144551,0.133105
4927881537,-83.553421,-42.004097,60.766281,0.868929,-0.152025,0.211150
4927901498,-92.781784,-38.939659,94.929077,0.885094,-0.144969,0.288734
4927921459,-103.571526,-24.287430,118.057182,0.915628,-0.073149,0.354502
4927941420,-107.445930,-14.782412,130.188416,0.970197,-0.034627,0.342032
4927961380,-111.577316,-9.427797,131.555618,0.977800,-0.132257,0.372182
4927981341,-114.736763,-11.576401,128.338058,1.009810,-0.178657,0.485444
4928001302,-101.811859,-11.942376,121.960686,1.052540,-0.145681,0.508089
4928021263,-66.867035,-9.209119,103.462837,1.021114,-0.175555,0.475583
4928041224,-24.422583,-7.581287,87.951317,1.027824,-0.158132,0.416049
4928061185,5.290809,-4.065968,79.384727,1.025943,-0.071052,0.408214
4928081146,12.178996,3.919211,67.700272,1.006501,0.146496,0.439535
4928121067,-39.511803,5.818726,11.486411,0.962842,0.529781,0.399218
4928141028,-81.192749,-0.690247,-16.350540,0.973509,0.345666,0.366733
4928160989,-106.029251,-7.102433,-33.643406,1.002719,0.207132,0.356243
4928180950,-107.990921,-13.516778,-49.714676,1.083210,0.289335,0.359196
4928200910,-105.170364,-14.915489,-78.831429,1.110747,0.413449,0.349928
4928220873,-136.153839,-7.623643,-105.856766,1.174511,0.262123,0.340827
4928240834,-145.160355,2.914430,-113.726952,1.183497,0.018652,0.244994
4928260795,-120.367821,8.963737,-110.489281,1.119421,-0.113049,0.213012
4928280755,-94.911339,2.625437,-102.039749,1.089324,-0.200585,0.166906
4928300716,-67.562881,-0.202952,-99.888412,1.084829,-0.157356,0.154732
4928320677,-63.463318,-5.314726,-109.088364,1.017276,0.013360,0.150697
4928340638,-100.657509,-7.600115,-120.895554,0.960569,0.088069,0.103449
4928360599,-146.423843,-15.893549,-123.751411,0.915707,0.057356,-0.008513
4928380560,-149.280350,-28.618942,-114.384087,0.960461,-0.002728,0.004675
4928400520,-137.502975,-32.356987,-109.049767,1.013190,0.053397,0.194131
4928420481,-139.334442,-36.746414,-120.160141,1.061086,0.229415,0.249040
4928440442,-133.532730,-25.814293,-127.898514,1.095758,0.203251,0.181353
4928460402,-96.722237,-9.407950,-121.145477,1.023800,0.067289,0.144561
4928480363,-57.520248,-4.784524,-112.044563,0.945701,0.116578,0.202604
4928500324,-50.642960,-9.866462,-109.615982,0.930762,0.152252,0.244636
4928520284,-70.008369,-12.051826,-111.482994,0.957173,0.221029,0.217404
4928540245,-84.436035,-9.266767,-107.125389,0.964409,0.185024,0.134804
4928560206,-87.217094,-10.343182,-87.218353,0.917227,0.066750,0.113020
4928580167,-90.762650,-20.243095,-54.353123,0.826950,-0.012918,0.152190
4928600128,-95.258644,-32.347157,-18.596178,0.836806,-0.079654,0.151916
4928620089,-95.155151,-37.746178,15.670833,0.903437,-0.098468,0.230484
4928640050,-101.232338,-37.327480,43.905499,0.919178,-0.084769,0.277172
4928660011,-105.126358,-33.927277,68.257141,0.908314,-0.124589,0.300209
4928679972,-109.773094,-24.491749,86.176651,0.898190,-0.163568,0.350290
4928699933,-109.480949,-19.566448,96.598099,0.892143,-0.203452,0.384799
4928719893,-97.533707,-17.835085,102.926620,0.915340,-0.275454,0.400700
4928739854,-81.776199,-14.654827,105.948982,0.916514,-0.329677,0.441950
4928759815,-59.504982,-10.050557,105.150513,0.924710,-0.325556,0.493392
4928779776,-25.641560,-8.079576,102.876396,1.012836,-0.239492,0.504799
4928799739,9.007317,0.360609,104.329201,1.079521,-0.084514,0.464327
4928819700,22.009747,12.719479,98.972809,1.097186,-0.010246,0.402241
4928879582,-0.399312,12.401265,45.325581,0.982754,0.500665,0.461254
4928899542,-29.488247,-1.088996,-0.226139,1.058124,0.678183,0.420481
4928919503,-75.096825,-18.092606,-45.485672,1.133425,0.724444,0.392419
4928939464,-117.226059,-39.229942,-94.878944,1.171702,0.848988,0.345550
4928959425,-137.758972,-49.762562,-153.582016,1.144051,0.789711,0.294109
4928979386,-138.420273,-34.312511,-190.051636,1.104333,0.423835,0.216234
4928999347,-128.257187,-17.334784,-175.995422,1.159756,0.045484,0.110987
4929019306,-119.953209,-1.855142,-146.020538,1.204921,-0.201468,0.082531
4929059228,-116.477486,2.327204,-121.888580,0.860926,-0.073462,-0.029412
4929079189,-103.479904,-24.477715,-122.723885,0.912732,0.048124,-0.157302
4929099150,-106.211945,-29.383686,-123.674255,0.894293,0.261551,-0.002871
4929119110,-127.123764,-41.140839,-130.358917,0.937735,0.392382,0.135381
4929139071,-136.061401,-40.301750,-131.937958,1.075669,0.399277,0.157558
4929159032,-115.802643,-28.424585,-127.107437,1.118922,0.290982,0.130075
4929178993,-107.803680,-23.171268,-122.823601,1.119161,0.226309,0.183317
4929198954,-113.434998,-22.209112,-118.487335,1.045851,0.110514,0.244334
4929218915,-116.142540,-20.355631,-108.761841,1.024328,0.046360,0.199459
4929238876,-106.178452,-18.188322,-89.295662,0.950233,0.027101,0.153978
4929258837,-104.670967,-21.702446,-60.893440,0.857684,-0.068186,0.124155
4929278798,-104.144020,-29.681839,-23.334961,0.820742,-0.205677,0.094677
4929298759,-101.571640,-34.027969,12.760096,0.812093,-0.244937,0.176298
4929338680,-109.478737,-36.590023,60.869835,0.854707,-0.211923,0.282353
4929358642,-117.448250,-32.031860,72.243576,0.882052,-0.199387,0.369704
4929378603,-120.321625,-28.942612,76.046936,0.908946,-0.202786,0.398755
4929398564,-106.255768,-30.640268,78.592865,0.945363,-0.228199,0.396106
4929418525,-80.839584,-28.818666,83.129120,0.939085,-0.251772,0.420781
4929438486,-56.770390,-29.103893,89.166779,0.965597,-0.202832,0.485575
4929458447,-25.808794,-18.878998,94.869980,1.043783,-0.026035,0.472093
4929478408,-11.785125,-2.211101,89.662308,1.090293,0.147571,0.423115
4929498369,-20.292641,3.901215,75.205170,1.116291,0.218183,0.378088
4929518329,-29.991812,0.070249,64.584030,1.101682,0.206786,0.346681
4929538290,-31.824972,-2.359567,52.256409,1.071445,0.328480,0.398406
4929558251,-44.849236,-5.522110,17.162600,1.062411,0.508630,0.390918
4929578212,-74.510643,-17.085604,-27.946112,1.028373,0.657847,0.363810
4929598171,-112.129539,-32.785831,-70.411057,1.081829,0.717202,0.320563
4929618132,-140.641983,-45.319714,-119.726646,1.171460,0.730487,0.310334
4929638093,-158.984985,-38.460178,-167.588043,1.293299,0.577681,0.160084
4929658054,-169.414276,-16.738411,-190.552216,1.204527,0.265730,0.061303
4929678015,-154.128906,-7.161889,-176.726059,1.205730,-0.114531,0.017106
4929697976,-125.140015,1.683519,-141.754944,1.144519,-0.341597,0.054943
4929717937,-122.003868,-7.870754,-130.505569,0.942046,-0.070477,-0.097453
4929757858,-125.868210,-34.755310,-144.715897,0.949844,0.358088,-0.200036
4929777819,-154.100357,-54.401291,-141.645416,1.002664,0.375124,-0.097812
4929797780,-155.339127,-62.239311,-142.290466,1.064065,0.354326,0.009286
4929817741,-156.981354,-57.029385,-144.610855,1.149969,0.342064,0.033464
4929837702,-161.444519,-45.001957,-134.610382,1.219106,0.183215,0.085688
4929857663,-160.557220,-36.178543,-121.073555,1.120525,-0.030177,0.149479
4929877624,-137.339981,-33.313828,-100.585594,0.963302,-0.032945,0.128611
4929897584,-107.883041,-33.693619,-76.376129,0.836143,-0.048330,0.061786
4929917545,-103.115128,-42.086494,-44.798641,0.823989,-0.127922,0.030813
4929937508,-104.139488,-49.683800,-8.778918,0.866705,-0.242988,0.037215
4929977429,-91.316582,-69.769615,44.753284,0.905243,-0.335908,0.175308
4929997390,-85.026245,-74.061134,64.824120,0.922351,-0.336315,0.203129
4930017351,-82.526390,-63.894135,79.684837,0.937546,-0.304854,0.270551
4930037312,-82.285568,-53.523853,86.189445,0.930307,-0.220708,0.369299
4930057280,-58.422176,-48.581860,96.969574,1.034355,-0.023090,0.405670
4930077234,-40.576565,-38.166893,100.731796,1.127081,0.083769,0.387681
4930097195,-32.986816,-25.864861,92.564697,1.170557,0.255177,0.366548
4930117155,-41.883141,-18.201813,69.634178,1.108167,0.558958,0.383830
4930137116,-68.406906,-27.606083,29.200098,1.059296,0.754886,0.333010
4930157076,-98.291328,-39.781548,-14.269125,1.093128,0.753872,0.275094
4930177037,-136.713242,-46.386631,-54.405186,1.134623,0.811684,0.211074
4930196997,-177.939224,-45.632351,-88.778389,1.242869,0.876911,0.173016
4930216958,-210.954803,-33.847202,-123.376205,1.326972,0.872644,0.102235
4930236919,-231.455261,-20.077288,-160.827209,1.335154,0.702232,0.035241
4930256880,-241.420471,4.645632,-184.439423,1.208948,0.152499,-0.070349
4930276841,-218.477936,12.038755,-166.425705,1.137186,-0.427817,-0.252205
4930296802,-162.527298,6.582713,-139.836670,1.043778,-0.444654,-0.126793
4930316763,-128.627533,-32.488350,-144.971268,0.960540,-0.045794,-0.062277
4930336723,-119.129425,-41.994728,-148.887329,0.851435,0.252714,0.077442
4930376645,-128.384109,-34.666363,-138.546555,1.150104,0.475751,0.143647
4930396606,-120.556381,-22.014744,-135.169907,1.097047,0.414401,0.156427
4930416567,-113.940002,-14.327657,-129.209427,1.036903,0.392839,0.124990
4930436528,-105.487206,-10.346910,-125.468643,1.005859,0.368777,0.154592
4930456489,-104.507339,-8.616467,-121.878212,1.017667,0.203994,0.239099
4930476450,-96.888794,-11.386118,-118.084534,0.977685,0.058995,0.278440
4930496412,-75.197845,-20.312458,-105.469391,0.868228,0.015388,0.308381
4930516373,-54.998981,-29.984581,-91.696899,0.778846,0.054141,0.278151
4930536334,-43.954178,-37.860561,-72.895180,0.724633,0.102364,0.230381
4930556294,-39.671833,-43.732407,-47.728539,0.711681,0.143196,0.172561
4930576255,-42.066334,-52.596519,-31.102398,0.737491,0.167797,0.151232
4930596216,-41.255695,-61.370903,-21.455643,0.760707,0.236136,0.178858
4930616177,-36.827290,-67.487640,-11.869209,0.754171,0.340182,0.202896
4930636140,-36.970161,-74.546242,-5.180450,0.702417,0.462444,0.278257
4930656099,-37.600037,-86.281128,-2.660489,0.747930,0.538373,0.256357
4930676060,-38.428326,-96.018188,-1.570978,0.814030,0.555912,0.277953
4930696021,-38.300831,-101.396553,-5.964376,0.865161,0.534594,0.279878
4930715981,-43.313789,-97.702141,-14.668751,0.882644,0.465301,0.334058
4930735950,-42.142143,-89.063690,-16.947021,0.833780,0.380696,0.388183
4930755902,-22.862959,-86.280991,-5.639963,0.852629,0.299944,0.386938
4930775863,17.088507,-84.152138,12.096313,0.982325,0.280668,0.304216
4930795824,61.002689,-87.044907,12.336830,0.922196,0.602459,0.305219
4930815785,47.652378,-98.484093,-62.134724,0.935693,1.757603,0.512105
4930835746,-46.056385,-59.685390,-116.971588,1.047036,1.289651,0.323844
4930855706,-34.113224,-26.815649,-48.539936,1.286235,0.235212,0.108468
4930875668,-18.419140,-0.441168,-15.900608,0.789538,0.137602,0.267965
4930895628,-47.076908,9.362780,-26.733801,0.722506,0.188587,0.269543
4930915589,-75.251923,3.559722,-18.834177,0.791090,0.258178,0.296797
4930935550,-62.996708,-10.689555,-20.882236,0.761141,0.460228,0.261522
4930955511,-55.330082,-25.722248,-30.237717,0.910148,0.493307,0.273184
4930975472,-56.215576,-15.115498,-25.156408,0.927216,0.308018,0.407570
4930995433,-24.016956,-11.304647,-22.794056,0.910204,0.359801,0.424531
4931015393,-1.125397,-9.562852,-20.345528,0.905092,0.487414,0.420070
4931035354,-4.524243,-4.879419,-15.020810,0.937199,0.395617,0.431269
4931055315,-7.913436,-0.364536,-10.295378,0.878773,0.354551,0.466020
4931075276,2.831244,4.196532,-13.059590,0.821124,0.507541,0.431587
4931115199,10.859144,12.729011,-15.542727,0.937316,0.425697,0.380967
4931135160,30.701849,15.057671,-9.750630,0.813812,0.426693,0.398993
4931155121,38.978069,11.718143,-12.200027,0.729855,0.622494,0.333234
4931175082,30.141159,16.720987,-15.469795,0.811550,0.644373,0.295855
4931195043,14.460492,25.311840,-11.489298,0.824022,0.539576,0.330401
4931215012,13.138857,21.812113,-6.775410,0.722130,0.522230,0.309056
4931234964,16.509373,14.798196,-6.290835,0.662122,0.552441,0.243808
4931254925,18.941372,14.494574,-5.925642,0.667196,0.619953,0.239335
4931274886,18.788820,13.927208,-4.680635,0.690705,0.726086,0.215899
4931294847,1.635224,15.297139,-1.172346,0.685399,0.643624,0.242286
4931314806,-8.357129,15.202013,7.461883,0.668008,0.483777,0.245678
4931334767,-0.870446,8.977554,13.734420,0.613472,0.605984,0.253057
4931354728,-9.245389,13.453346,13.813896,0.671496,0.698067,0.281753
4931374689,-32.110237,23.248634,19.142538,0.784777,0.467133,0.327862
4931394650,-35.497986,8.313198,32.913265,0.722962,0.350704,0.272633
4931414611,-8.700416,-2.473625,43.658298,0.659916,0.493784,0.321402
4931434572,-21.034454,5.557722,50.777527,0.802264,0.481223,0.346529
4931454533,-49.689262,10.231195,71.463242,0.938522,0.264845,0.278994
4931474493,-45.234543,0.330513,105.303589,1.007913,0.088986,0.268304
4931494454,-18.646082,-1.579165,143.151627,0.904860,0.047358,0.270283
4931514415,-33.363556,-2.601479,186.015060,0.866938,0.120097,0.269489
4931534376,-29.504227,15.069963,254.905655,0.803380,0.033396,0.406245
4931554337,-18.192831,46.889626,310.753510,1.031879,-0.189555,0.570259
4931574298,-13.343792,52.124973,319.982880,1.517065,-0.253460,0.721168
4931594259,-19.519592,63.117031,289.102661,2.261190,0.979677,0.344177
4931614219,-80.084305,64.043526,204.013580,0.954955,1.884652,0.716632
4931634180,-93.787392,46.695633,61.396790,0.470743,2.370827,0.344647
4931654142,-177.146439,-7.738388,-137.116226,0.477677,2.324413,0.208850
4931674103,-176.101456,-9.004689,-269.098328,1.652128,0.857604,0.161898
4931694064,-68.809616,-20.917465,-330.777008,2.235701,0.026387,0.406404
4931733986,2.895558,-44.544369,-374.705444,1.470307,0.521341,0.299298
4931753947,-45.004566,-80.050232,-374.408447,1.491615,0.478666,0.373784
4931773908,-91.220467,-71.665573,-343.859344,1.847362,-0.262036,0.361844
4931793868,-131.435135,-26.124987,-319.721069,1.549212,-1.287312,0.498927
4931813830,-75.846947,-8.199450,-272.881714,0.634408,-1.866031,0.582053
4931833791,99.112862,4.680900,-155.559677,0.140593,-1.561851,0.345640
4931853752,197.754486,12.831892,-34.240311,0.147847,-1.003282,0.249933
4931873712,192.119965,27.486023,58.188553,0.348639,-0.624840,0.238037
4931893672,152.012314,60.955364,141.603348,0.625368,-0.188415,0.559325
4931913633,107.369896,128.096863,186.535233,1.313854,0.628968,0.468503
4931933594,177.283279,125.716667,78.856010,1.455112,2.049177,0.174372
4931953554,75.386688,86.859024,85.096649,0.949495,1.195140,0.113341
4931973515,112.738525,57.388599,60.674438,1.397534,1.702530,-0.628725
4931993476,52.043922,55.188477,61.441002,0.465750,0.929781,-0.056644
4932013437,14.853133,15.749342,104.249626,0.262373,0.665209,-0.104576
4932033398,-13.671097,35.399216,171.444077,0.596180,0.430751,0.105540
4932053359,-61.521088,55.443935,230.369904,0.681372,0.131884,0.285289
4932073320,-70.333923,72.828033,291.333679,0.615203,-0.149566,0.355252
4932093280,-38.038269,83.453751,346.963806,0.771117,-0.257189,0.403857
4932113241,-1.189971,94.543076,360.714752,1.283463,-0.017132,0.461136
4932133202,-4.159375,118.738617,309.227783,1.326548,-0.296063,0.326715
4932153163,27.972914,97.779709,247.245972,1.463827,0.361630,0.058296
4932173124,97.634262,71.550789,176.949020,1.751745,2.082747,0.131364
4932193084,53.330372,-1.718858,22.217155,0.584978,3.828448,0.009977
4932213045,-213.895554,-49.558571,-131.589371,0.643952,2.259341,-0.126786
4932233008,-219.758453,-35.855591,-190.318115,1.351878,1.150806,0.282080
4932252968,-188.821625,-68.104515,-278.903107,2.499642,0.213030,0.470565
4932272929,-147.432220,-37.394676,-340.848053,2.454921,0.003304,0.157559
4932292890,-84.913849,-39.724812,-345.130920,1.699843,-0.003871,0.363470
4932312851,-41.461319,-69.705032,-341.223724,1.263218,0.186063,0.330678
4932332812,-41.102161,-92.977760,-318.905243,1.376266,0.125027,0.152720
4932352773,-61.207958,-69.832718,-307.675232,1.483905,-0.432753,0.321732
4932372734,-67.676186,-43.810951,-292.678162,1.049171,-0.953466,0.471994
4932392695,-14.370861,-32.455509,-241.647141,0.669892,-1.371886,0.439565
4932412656,67.139648,-23.262026,-147.100647,0.420338,-1.422213,0.451566
4932432617,128.167175,-1.443448,-43.078094,0.390116,-1.137612,0.342266
4932452576,181.152557,25.322239,65.221283,0.508679,-0.843577,0.075636
4932472537,186.405090,66.198685,171.368607,0.856464,-0.546356,0.476088
4932492498,141.097305,132.762146,256.614105,1.397789,0.131473,0.901993
4932512459,191.191193,52.836353,141.061905,1.853677,2.503866,-0.644777
4932532420,54.629948,101.467430,104.655212,1.758650,1.810137,-0.156171
4932552380,-12.735817,130.344681,194.536469,0.731893,0.404500,-0.363423
4932572341,11.410578,44.661659,241.024536,0.227468,0.581202,-0.111672
4932592302,-30.971600,49.204079,276.768005,0.664496,0.484465,0.221835
4932612263,-44.548042,92.713692,312.685028,0.981779,-0.151531,0.368564
4932632224,-27.191561,82.191597,341.658630,1.234697,-0.467531,0.452594
4932652185,18.242168,63.333054,316.450348,1.700208,-0.592383,0.406081
4932672146,49.062340,104.712524,249.050858,2.137298,0.571157,0.118666
4932692107,111.083328,133.426422,187.905655,1.388884,2.061791,0.188249
4932712067,51.155991,6.159827,63.932365,-0.022750,3.425573,-0.147007
4932732028,-181.025574,-64.264977,-97.701065,0.540580,1.973207,-0.198484
4932751989,-199.020309,-38.276867,-181.556091,1.507872,1.107619,0.280003
4932771950,-178.967010,-48.411728,-261.520203,2.353405,0.086511,0.442637
4932791912,-79.996536,-16.874460,-293.404175,1.861152,-0.026890,0.283393
4932811873,-27.519960,-10.804740,-288.989777,1.434208,0.260118,0.144831
4932831834,-13.551619,-61.726166,-288.935822,0.995248,0.604590,0.272648
4932851795,-66.428223,-86.455055,-292.344635,0.990780,0.632752,0.168659
4932871756,-99.061905,-41.310535,-279.109497,1.109184,0.202001,0.211033
4932891717,-106.922028,-19.335165,-262.835876,1.119659,-0.477772,0.317155
4932911678,-70.724068,-35.308846,-237.381683,0.922347,-1.171289,0.343108
4932931639,24.920677,-27.620090,-180.186890,0.648080,-1.515155,0.547963
4932951600,96.603073,-22.325127,-69.683784,0.595219,-1.109855,0.558385
4932971561,152.919083,44.487251,69.819954,0.720389,-1.268770,0.303393
4932991521,183.781677,74.425026,230.120026,0.480535,-1.455827,0.383558
4933011494,126.163300,-40.814373,329.948120,1.504817,-0.653071,0.107996
4933031442,257.194611,32.022640,317.362671,2.846244,2.380875,0.021435
4933051403,44.368835,160.395035,229.993774,1.280277,1.811447,0.117326
4933071364,-16.756563,169.541519,320.426025,0.645604,0.365106,0.021287
4933091324,-34.244972,99.745453,368.984039,0.934000,0.444326,0.017174
4933111285,-48.326859,71.183907,332.922913,1.280920,0.129310,0.204172
4933131246,-48.068642,46.894341,239.519272,1.810680,0.449654,0.206820
4933151207,56.479332,43.865646,166.737717,1.474238,1.409684,0.193939
4933171167,55.398888,-4.694615,43.197983,0.918867,2.907981,-0.014899
4933191128,-119.587532,-7.302377,-67.460793,0.699789,1.873102,0.049758
4933211089,-123.321152,15.062664,-111.502365,1.062134,0.944745,0.258013
4933231050,-110.560776,-5.890467,-163.613663,1.417734,0.219551,0.361739
4933251011,-121.587318,-15.477880,-198.676086,1.431968,0.104962,0.137861
4933270972,-134.432861,-22.062681,-195.877853,1.348268,0.095533,0.067729
4933290932,-99.436234,-33.064659,-184.558960,1.139267,-0.093023,0.060883
4933330854,-70.265732,-47.443752,-114.975204,0.629549,-0.399780,0.038074
4933350815,-57.114491,-66.227486,-63.872475,0.499084,-0.547523,-0.019086
4933370777,-36.190826,-62.549057,-1.856465,0.585029,-0.675909,-0.209459
4933390738,-47.616982,-67.848633,74.683266,0.310051,-1.321125,-0.304739
4933410699,-139.548859,-122.754112,212.611572,0.389087,-1.617011,0.971233
4933430660,-107.753929,-21.909554,268.279785,0.592596,-0.301434,1.194001
4933450621,-5.685974,-19.176750,193.842117,1.824352,0.626491,0.561228
4933470582,-22.401743,-54.046516,-6.286177,1.611585,0.708951,0.778530
4933490546,-51.302567,10.079168,1.210554,1.356826,0.097714,0.565594
4933510504,88.277824,53.222260,41.398621,1.348966,0.468369,0.457663
4933530465,51.358837,63.413116,32.093380,1.340895,0.897258,0.334841
4933550425,-43.349762,22.642569,-1.233321,1.171041,0.950443,0.239884
4933570386,-98.917084,8.457664,-10.897695,1.096083,0.768409,0.133491
4933590345,-100.969505,2.063619,-2.015310,0.940257,0.567101,-0.005485
4933610306,-106.886284,-5.876118,3.585578,0.784928,0.444345,0.093299
4933630267,-137.402664,-11.624351,-14.007859,0.780871,0.360303,0.224000
4933650228,-153.385605,-17.171139,-33.132164,0.838673,0.098116,0.231996
4933670189,-149.274200,-15.704003,-30.699747,0.803665,-0.129740,0.265409
4933690150,-131.718246,-6.129366,-14.217379,0.830302,-0.164483,0.314183
4933710111,-116.516808,5.506279,-5.183491,0.848373,-0.123042,0.264025
4933730072,-110.069023,4.801195,-1.442319,0.874652,-0.190779,0.294028
4933750033,-119.174171,14.194958,-3.710144,1.136373,-0.043317,0.431184
4933769993,-126.795944,11.986009,-21.263569,1.097288,0.189326,0.392873
4933789954,-138.128174,0.580941,-34.269455,1.079095,0.140353,0.418930
4933809915,-158.911835,11.298160,-32.320190,1.162680,0.116310,0.537325
4933829876,-166.501556,17.832050,-32.400574,1.236383,0.043755,0.538681
4933849837,-146.274704,20.341578,-45.634132,1.188054,0.008868,0.424812
4933869798,-122.283844,23.004389,-59.857277,1.022835,0.055485,0.381315
4933889759,-113.807350,23.896595,-64.073082,0.890218,0.070692,0.320263
4933909719,-118.880745,27.200748,-66.538582,0.934085,0.088391,0.206313
4933929682,-123.152657,36.500557,-92.605858,1.188320,0.373481,0.170337
4933949643,-150.537994,26.977102,-144.457077,1.115640,0.694117,0.164298
4933969604,-188.938095,12.320291,-179.868027,1.118586,0.793553,0.190588
4933989564,-209.663605,4.763883,-188.622681,1.201368,0.555974,0.183340
4934009525,-206.849548,-5.147138,-188.833862,1.182523,0.166003,0.150954
4934029486,-208.432999,-15.757048,-203.144440,1.107609,0.045013,0.097745
4934049456,-203.829453,-23.361681,-218.304276,1.057825,0.045393,0.150734
4934069408,-198.162338,-27.750498,-228.547455,1.048424,0.042808,0.216077
4934089369,-185.219162,-23.729532,-231.675491,1.080060,-0.069706,0.227516
4934109329,-162.300385,-14.294929,-223.326202,1.074169,-0.270593,0.261022
4934129290,-126.694870,-18.668152,-201.109222,0.994159,-0.439509,0.246385
4934149250,-84.627625,-34.401970,-164.342957,0.908008,-0.488980,0.246162
4934169211,-61.009529,-60.847439,-121.049232,0.812092,-0.344223,0.224639
4934189172,-64.678566,-73.862259,-75.550987,0.762491,-0.165549,0.180644
4934209132,-77.184227,-71.334328,-37.337868,0.886116,-0.142779,0.146842
4934229093,-88.139565,-77.669342,1.736041,0.988218,-0.058691,0.356507
4934249054,-90.689087,-83.602745,23.275229,1.006167,0.279490,0.539248
4934288976,-63.873608,-64.207230,6.918964,0.900333,0.321617,0.454479
4934308937,-40.186821,-51.116192,11.963919,0.978434,0.488707,0.517009
4934328898,-68.568222,-36.393410,8.326638,1.093203,0.836352,0.551301
4934348859,-121.364380,-6.715262,5.755095,1.086276,0.825830,0.442072
4934368820,-159.483185,14.970701,7.858361,0.892751,0.444256,0.344241
4934388780,-178.414444,11.850038,6.730358,0.739281,0.067492,0.342680
4934408741,-177.052048,-4.957921,8.346165,0.616472,-0.151533,0.370879
4934428702,-154.116058,-21.964443,6.018765,0.608839,-0.217087,0.376912
4934448663,-125.333145,-39.569248,-0.880012,0.724977,-0.239672,0.580932
4934468624,-106.817902,-54.071220,2.344863,0.860661,-0.127061,0.682290
4934488586,-83.690254,-41.404285,26.195164,0.670138,-0.180555,0.674937
4934508547,-67.448700,-49.046238,48.595894,0.469153,-0.229631,0.620332
4934528508,-64.842606,-40.781628,81.864136,0.559784,-0.389668,0.693549
4934548469,-77.017174,-39.806458,116.164528,0.622726,-0.576486,0.637481
4934568430,-65.632378,-54.805954,144.168777,0.582697,-0.558212,0.503406
4934588390,-51.197174,-39.384953,166.104080,0.658975,-0.210841,0.715751
4934608352,-86.432594,-6.650860,198.208878,0.914222,-0.324374,0.735041
4934628312,-123.190231,18.376492,230.206345,1.047011,-0.595833,0.659147
4934648273,-135.435989,25.232246,235.270905,0.891591,-0.762008,0.679143
4934668234,-120.693230,-1.895131,201.814957,1.074029,-0.778167,0.722821
4934688195,-41.419392,-24.039246,154.714142,1.769354,-0.461516,0.652165
4934708168,-8.218743,11.745253,80.902641,1.722769,0.727964,0.964203
4934728115,-48.592178,30.435419,-14.369204,1.110914,1.362662,1.011518
4934748076,-119.483459,-7.865321,-97.490913,1.299255,1.173404,0.615761
4934768037,-185.511337,0.162311,-199.662064,1.422772,1.144649,0.526981
4934787998,-238.231186,23.040274,-296.878326,1.829478,0.572442,0.393105
4934807959,-205.041718,69.731178,-340.128418,1.868381,-0.359597,0.144733
4934827920,-92.267990,80.867714,-333.526337,1.773804,-0.702331,0.218366
4934847880,6.275536,52.896236,-324.810547,1.750969,-0.946257,0.299163
4934867841,57.977203,29.630915,-326.805817,1.594581,-1.009472,0.434652
4934887802,62.640198,18.277420,-311.587036,1.216706,-0.962669,0.539507
4934907763,38.234924,35.101727,-247.456039,0.841616,-1.291621,0.305990
4934927724,62.101601,92.792839,-111.795074,0.399791,-2.258233,0.075776
4934947685,126.881889,43.611870,77.180428,-0.534570,-2.503922,0.043267
4934967646,233.928299,-91.890793,179.541061,0.313798,-0.478707,-0.031898
4934987607,266.325745,-21.397917,119.275246,1.215681,2.005525,0.227427
4935007568,-10.492359,56.063065,41.629593,1.355725,1.724142,0.180514
4935027529,-94.547394,91.138954,124.259247,0.817504,0.441105,0.043956
4935047491,-137.161697,70.583557,200.248184,0.501805,-0.211137,0.142006
4935067452,-144.847992,47.024471,256.305786,0.481803,-0.856681,0.429133
4935087413,-92.851219,34.739101,272.828369,0.496961,-0.926477,0.584175
4935107374,-11.452068,0.953349,244.877319,1.046020,-0.293377,0.598081
4935127335,32.424446,-39.589085,159.641312,1.887740,1.086322,0.833872
4935147295,20.559689,-1.189678,14.010169,1.455220,1.934505,1.304326
4935167256,-53.578968,-10.718340,-155.714890,0.930414,2.531855,0.611150
4935187217,-166.139954,-72.575264,-257.639404,1.531546,2.033894,0.065930
4935207178,-179.687836,-30.268375,-327.615540,1.791437,0.868834,0.338743
4935227138,-125.023300,-37.616241,-381.194885,2.057953,0.620724,0.387945
4935247099,-110.223740,-25.054579,-415.074249,1.961595,0.423794,0.404155
4935267075,-89.321007,-8.404707,-407.038391,1.683400,-0.041558,0.503748
4935287020,-56.052231,8.193912,-370.949097,1.847963,-0.385143,0.584515
4935306981,-41.062752,17.923330,-342.142639,1.201766,-1.027746,0.672612
4935326942,28.937042,14.477972,-269.290680,0.461230,-1.710564,0.361424
4935346903,144.763412,41.182289,-137.188065,-0.030555,-2.121344,0.062727
4935366863,238.560196,70.073044,37.255707,-0.280871,-2.320471,-0.006352
4935386824,264.299255,15.868077,244.954208,-0.123308,-1.089658,0.330243
4935406785,200.375778,-60.270847,253.804657,1.440368,1.712448,-0.466922
4935426746,59.451469,109.338509,97.221756,1.855957,3.305524,0.489877
4935446707,-144.462769,124.610107,129.083649,0.799232,0.387320,-0.004398
4935466668,-113.984421,72.173553,218.347244,0.403612,-0.178515,-0.083977
4935486629,-22.028498,23.727169,256.822327,0.708531,-0.168676,0.258201
4935506590,52.677277,31.219280,270.164917,1.136881,-0.163886,0.360774
4935526550,98.918106,54.319836,273.941315,1.510736,0.121371,0.458391
4935546511,123.595581,74.944458,275.358124,1.750938,0.304191,0.480473
4935566472,78.677628,106.213089,236.836472,1.595860,-0.077074,0.518204
4935586433,29.987974,143.803574,178.378250,1.703539,0.705405,0.090390
4935606394,83.595375,106.171219,126.047379,1.291782,2.238601,0.026490
4935626356,48.399372,-26.226593,12.105627,0.883557,2.954848,-0.546750
4935646317,-114.625160,-72.312790,-129.117447,1.051918,2.600777,-0.415657
4935666278,-222.248322,-33.009270,-215.800674,1.200719,1.782982,0.246734
4935686238,-248.687683,-80.398193,-315.359924,2.266192,0.775008,0.394063
4935706199,-173.945084,-51.561195,-419.669800,2.687833,-0.199681,-0.057217
4935726160,-55.786648,-30.177549,-421.747528,1.897163,-0.395082,0.162871
4935746131,54.038223,-66.006577,-396.027954,1.621070,-0.323623,0.092347
4935766082,102.495239,-89.536163,-360.807526,1.445649,-0.396091,0.228093
4935786043,72.452515,-102.634689,-326.917023,1.095393,-0.537865,0.324342
4935806004,43.684303,-99.547646,-271.059967,0.787693,-1.135203,0.328483
4935825965,57.318325,-92.193207,-158.953064,0.367386,-1.430571,0.433065
4935845924,93.673515,-12.756979,-6.002243,0.329046,-1.328999,0.184194
4935865886,130.391571,124.184074,157.041245,0.118782,-1.433697,0.534462
4935885846,103.072319,12.189783,269.813477,0.977562,-0.324695,0.459106
4935905807,168.009094,117.725563,196.731216,1.774231,2.435633,0.552438
4935925768,5.359912,87.857109,99.503723,1.345680,2.203969,-0.439466
4935945729,-44.354008,108.004959,180.174500,1.373291,0.649448,-0.620480
4935965690,-1.963094,63.805664,247.425491,0.082823,0.543142,-0.349278
4935985651,-14.729698,15.517883,319.274048,0.366004,0.158717,0.131363
4936005611,-9.611446,39.637711,359.759644,0.939027,-0.072663,0.535134
4936025572,0.198534,78.044220,368.568695,1.680602,0.221901,0.578331
4936045533,-32.659264,119.855942,297.740234,2.200281,-0.052664,0.651186
4936065494,-20.912914,170.530304,189.743942,1.508333,1.602923,0.665194
4936085455,27.745750,55.368088,55.463474,0.293573,2.885790,-0.041848
4936105415,-76.068840,-28.124763,-141.730392,0.444101,2.359792,-0.324146
4936125376,-80.203598,5.879560,-240.996063,1.355903,1.115697,-0.027792
4936145337,-33.652966,-39.660732,-281.316803,2.208595,0.616646,0.215480
4936165298,10.462923,-80.572189,-304.174072,1.630895,0.485960,0.162770
4936185260,16.039522,-99.888603,-317.893982,1.451436,0.769216,0.160575
4936205221,-41.020008,-105.406792,-316.298370,1.375361,0.813889,0.433091
4936225182,-121.205368,-77.503197,-299.475769,1.432719,0.418247,0.371417
4936245143,-165.715515,-40.289539,-281.904083,1.418574,-0.276285,0.345745
4936265104,-129.011597,-23.484177,-254.736465,0.901459,-1.222612,0.480159
4936285065,-10.127083,-22.376120,-177.069870,0.518936,-1.787342,0.429487
4936305026,132.899445,3.615684,-38.440479,0.316875,-1.632133,0.307772
4936324987,188.473846,138.784195,142.821838,0.578265,-1.895060,0.683215
4936344947,149.092285,44.422329,355.283081,0.236935,-1.795772,-0.160984
4936364909,355.052917,-47.596958,353.558777,2.535677,1.869539,-0.218565
4936384869,107.663879,143.598679,165.900208,1.798907,2.757518,0.159331
4936404830,-63.402954,208.212372,235.318939,0.834114,0.445927,-0.479333
4936424790,-80.250893,109.855385,316.556244,0.576239,0.441152,-0.385364
4936444750,-42.400536,65.204117,386.297455,1.002800,0.140724,0.085148
4936464711,8.180725,81.906525,407.029663,1.539406,-0.507312,0.490432
4936484672,25.907745,58.668934,334.955292,1.861916,-0.798857,0.325191
4936504633,65.809578,65.155304,262.241882,1.994612,0.421832,0.274484
4936524594,198.230362,130.190460,158.159592,1.688070,2.322982,0.141104
4936544554,87.698151,-8.113291,47.081760,0.485241,3.226120,-0.248615
4936564516,-107.263092,-39.030350,-51.867477,0.819967,1.598290,-0.227286
4936584476,-131.449387,-9.116820,-95.949982,1.236784,0.721948,0.058247
4936604437,-139.704071,-31.685305,-126.369484,1.488025,0.158952,0.519645
4936624398,-129.226639,-41.460396,-160.100708,1.549830,-0.060143,0.437313
4936644359,-76.154213,-14.289031,-155.738617,1.452618,-0.155578,0.157533
4936664320,-27.533068,-7.105062,-129.132019,1.089334,-0.282725,0.038579
4936684281,3.338986,-33.844868,-103.360588,0.785242,-0.312238,0.105151
4936704242,-7.505590,-44.222496,-88.869965,0.570512,-0.167158,0.114863
4936724202,-47.590370,-39.825920,-91.559044,0.481555,-0.020124,0.092338
4936744164,-77.497490,-36.715832,-101.361794,0.669269,0.011782,0.163190
4936764126,-72.082901,-40.106915,-88.687279,0.971921,0.020918,0.231515
4936784086,-58.071480,-44.510258,-66.587151,1.098774,0.024444,0.282775
4936804047,-57.459518,-45.359364,-53.021584,1.021575,0.072174,0.296969
4936824008,-62.414757,-44.791660,-47.119064,0.919849,0.067923,0.251190
4936843969,-57.201656,-45.040726,-34.176704,0.887693,0.013804,0.188836
4936863930,-36.087463,-40.758526,-11.777691,0.892051,-0.018294,0.209930
4936883891,-13.023067,-35.432198,11.051211,0.963021,0.018172,0.217646
4936903852,-1.876806,-28.689383,27.311720,0.986895,0.092854,0.225694
4936923813,-0.918255,-26.124056,41.336285,0.974870,0.209684,0.231118
4936943773,-8.609946,-23.504513,53.465195,0.966067,0.265368,0.265832
4936963734,-19.397179,-22.702431,56.995365,1.006454,0.192345,0.255111
4936983694,-25.345554,-20.999660,54.757057,1.057736,0.120041,0.257782
4937003655,-21.622873,-19.027306,54.440063,1.058769,0.129122,0.282785
4937023616,-15.599314,-16.228956,52.543259,1.009737,0.125657,0.272199
4937043576,-8.167029,-13.370395,48.799198,0.978644,0.148252,0.259876
4937063538,-7.428617,-7.534445,43.912922,0.986497,0.205477,0.268735
4937083499,-10.704628,3.544446,38.003750,0.972625,0.202095,0.214081
4937103460,-10.011861,11.224254,34.761471,0.972601,0.109459,0.120166
4937123420,-6.625237,14.703356,34.395584,0.976514,0.070860,0.087905
4937143381,-4.872520,13.681582,39.586468,0.941137,0.067419,0.132206
4937163342,-5.310070,10.915691,51.322384,0.966749,-0.013162,0.134998
4937183303,-7.918458,8.891671,69.227798,0.946090,-0.190433,0.100733
4937203264,-18.343746,-7.537766,96.517014,0.908957,-0.451451,0.133832
4937223225,-16.980839,-16.390434,128.508942,0.890614,-0.630826,0.287050
4937243185,17.385309,-11.752275,148.545349,1.011103,-0.609384,0.309489
4937263147,57.524200,1.298233,148.248672,1.122431,-0.412412,0.269421
4937283107,78.992546,22.181217,129.436310,1.006712,0.022606,0.346863
4937303068,73.615440,32.817852,93.284637,0.968047,0.431687,0.414579
4937323031,28.682222,34.948494,45.463882,1.109530,0.496892,0.442150
4937342991,-30.705091,40.379677,19.956413,1.231974,0.357973,0.421629
4937362952,-41.584553,40.766857,9.954986,1.173303,0.304923,0.382539
4937382913,-16.094856,39.216057,-9.668162,1.085852,0.402878,0.324238
4937402874,-6.528049,31.702919,-16.865618,1.105365,0.412823,0.241020
4937422835,-12.555642,29.790136,-13.292888,0.977209,0.406817,0.255523
4937442795,-39.383392,21.283882,-16.260395,0.850890,0.411776,0.275254
4937462756,-64.663040,16.768406,-21.437271,0.843584,0.389450,0.247620
4937482717,-83.531464,17.255390,-24.786568,0.873105,0.329685,0.240672
4937502678,-98.079605,18.079746,-27.469402,0.960666,0.241357,0.248642
4937522639,-99.271446,15.893240,-35.044300,0.992173,0.201107,0.253613
4937542610,-96.108940,10.820543,-48.968021,0.976975,0.251925,0.243122
4937562559,-101.987663,8.680236,-59.905407,0.988383,0.223740,0.225945
4937582520,-111.259415,10.781404,-62.178070,1.017527,0.132566,0.240357
4937602481,-120.872124,10.555088,-65.176956,1.042421,0.061161,0.285875
4937642402,-131.493591,-4.005242,-76.673073,1.129165,-0.074747,0.365365
4937662363,-134.886520,-9.477603,-76.698875,1.147135,-0.173206,0.352282
4937682324,-134.437363,-8.916224,-72.911110,1.076068,-0.301449,0.359180
4937702285,-133.115540,-6.222491,-70.034386,0.994866,-0.374758,0.354703
4937722246,-122.453712,-1.426202,-69.429520,0.920468,-0.347992,0.342155
4937742207,-110.911652,0.153259,-71.169662,0.885945,-0.268212,0.321729
4937762168,-105.417145,-2.440628,-70.312790,0.875415,-0.177048,0.288718
4937782128,-105.769318,-3.540725,-65.811798,0.878595,-0.100332,0.271948
4937802089,-107.692337,-1.570735,-61.168785,0.883289,-0.071166,0.274379
4937822050,-105.877853,-0.333744,-55.829277,0.886511,-0.057586,0.285325
4937842011,-102.558022,-1.200380,-50.420944,0.890144,-0.056517,0.286467
4937861972,-101.073013,-4.460559,-46.920036,0.885772,-0.058945,0.285152
4937881933,-100.726059,-8.675144,-43.330383,0.921039,-0.072920,0.286847
4937901895,-100.991272,-11.728197,-37.945808,0.983994,-0.066557,0.294181
4937921856,-101.399719,-12.895349,-32.845329,1.005238,-0.046730,0.303716
4937941817,-105.370285,-14.956375,-31.641068,0.969965,-0.063771,0.306900
4937961778,-104.728119,-16.015379,-31.576645,0.935676,-0.049795,0.312143
4937981739,-102.697662,-18.216385,-29.942514,0.951991,-0.070313,0.294384
4938001700,-101.548531,-17.432034,-27.609940,0.978870,-0.071775,0.281788
4938021660,-104.009674,-13.601454,-25.111700,0.987972,-0.046640,0.285186
4938041622,-108.770477,-9.712794,-23.850634,0.993308,-0.043364,0.289236
4938061582,-108.678978,-8.756602,-24.709364,0.980920,-0.071962,0.295306
4938081543,-103.828331,-10.202690,-25.138950,0.983352,-0.080774,0.297407
4938101504,-99.347862,-11.950138,-24.749649,1.007074,-0.074382,0.303747
4938121465,-97.692078,-14.289658,-24.513000,1.008013,-0.051516,0.320328
4938141424,-95.701370,-15.368986,-24.846333,1.006120,-0.054091,0.323158
4938161385,-92.512451,-15.653784,-25.260376,0.980194,-0.052596,0.338685
4938181346,-89.842453,-16.522890,-25.864996,0.955294,-0.040582,0.353148
4938201307,-86.711525,-15.810744,-26.022680,0.947767,-0.007034,0.348180
4938221268,-85.965462,-12.125008,-26.154743,0.944960,0.038586,0.345378
4938241229,-86.948936,-7.952750,-25.352161,0.947619,0.054523,0.336788
4938261189,-87.876442,-5.519782,-23.355257,0.964501,0.061315,0.322143
4938281150,-89.244072,-4.354876,-21.084694,0.970167,0.063186,0.311107
4938301111,-90.690781,-3.107967,-19.755604,0.961334,0.047617,0.296903
4938321072,-90.708946,-2.508104,-20.242281,0.952487,0.033069,0.284140
4938341033,-90.730690,-3.498941,-21.364105,0.955524,0.046642,0.300728
4938360994,-91.113380,-6.144640,-21.566330,0.983460,0.055901,0.307190
4938380955,-91.236549,-6.940185,-20.290529,1.000972,0.049554,0.302061
4938400916,-90.884567,-5.811242,-18.044586,1.006158,0.032916,0.293049
4938420877,-89.580650,-4.853317,-16.129179,1.002867,0.023040,0.299160
