Timestamp (us),Gyroscope X (deg/s),Gyroscope Y (deg/s),Gyroscope Z (deg/s),Accelerometer X (g),Accelerometer Y (g),Accelerometer Z (g)
7917138418,0.899890,0.095826,-0.123898,0.960632,0.104021,0.255899
7917158379,1.027758,-0.056296,0.066487,0.960553,0.105018,0.255699
7917178340,0.868726,0.180055,0.111145,0.959612,0.104780,0.257416
7917198301,0.534966,0.493027,0.162700,0.958209,0.101345,0.257720
7917218266,0.695000,0.477169,0.094948,0.956521,0.100031,0.259896
7917238222,1.058993,0.080385,0.013260,0.958232,0.101416,0.256353
7917258183,1.112321,0.011618,-0.062355,0.958100,0.104215,0.254939
7917278144,0.840323,0.186861,-0.329145,0.957031,0.104662,0.253728
7917298105,0.771130,0.088355,-0.260922,0.956365,0.105886,0.256155
7917318066,0.587270,0.028547,-0.041347,0.962414,0.103303,0.257856
7917338027,0.976833,0.186625,-0.230031,0.954716,0.099313,0.253045
7917357988,1.608975,0.138628,-0.402427,0.957321,0.106845,0.253971
7917377950,1.385932,0.003263,-0.000723,0.965587,0.114486,0.253998
7917397911,0.472778,0.059546,0.064480,0.965398,0.109167,0.256904
7917457795,0.322086,0.653623,0.268008,0.950989,0.104009,0.260731
7917477756,0.959377,0.477185,0.520828,0.955046,0.108608,0.254811
7917497717,0.367347,0.455567,0.177381,0.957007,0.107353,0.251225
7917517678,0.344700,0.440322,0.124203,0.957051,0.103992,0.257655
7917537639,0.814830,0.134796,0.209697,0.957388,0.104562,0.259565
7917557600,0.828919,0.112397,0.437459,0.961500,0.105698,0.259348
7917577563,0.268066,0.501758,0.298414,0.961095,0.107124,0.257132
7917597524,-0.294031,0.449794,0.038594,0.957667,0.103913,0.258852
7917617485,0.026596,0.478778,-0.165303,0.959757,0.102062,0.258101
7917637446,0.680754,0.316790,-0.261562,0.956149,0.105093,0.257712
7917657407,0.825202,0.202103,-0.336807,0.955294,0.108811,0.256451
7917677368,0.529580,0.385394,-0.421542,0.956406,0.110799,0.256439
7917697329,0.353250,0.272266,-0.232220,0.956799,0.104618,0.256730
7917717290,0.139262,0.067662,-0.209853,0.960538,0.106865,0.257672
7917737251,0.443594,0.188601,-0.095187,0.960631,0.106312,0.257228
7917757213,0.465734,0.181217,0.049096,0.958537,0.106426,0.257279
7917777173,0.252621,0.174306,0.055992,0.958760,0.104909,0.259402
7917797135,-0.311431,-0.052012,0.069645,0.958028,0.104828,0.259572
7917817094,-0.356204,0.206774,0.107057,0.959277,0.103738,0.260523
7917837056,-0.340554,0.465567,0.243331,0.959082,0.102285,0.260452
7917857017,0.117220,0.608309,0.100432,0.955156,0.098669,0.259074
7917876978,0.939875,0.673855,-0.033557,0.953000,0.100132,0.258100
7917896939,1.127120,0.095562,0.104536,0.954047,0.105855,0.258571
7917916900,1.363268,-0.050067,-0.084202,0.957871,0.103800,0.257491
7917936861,1.669207,-0.196502,-0.561105,0.953163,0.109335,0.253490
7917956822,1.318317,-0.225466,-0.395254,0.965049,0.118792,0.255921
7917976783,0.402913,-0.076751,0.246599,0.964269,0.114996,0.256879
7917996745,0.009913,0.289015,-0.013287,0.961532,0.106311,0.257791
7918016706,0.019340,0.387220,-0.324568,0.958228,0.101603,0.256714
7918036667,0.163459,0.386960,-0.225429,0.953735,0.101116,0.263743
7918056628,0.600754,0.120698,0.421514,0.949787,0.108723,0.258993
7918076589,0.524582,-0.069488,0.269758,0.952899,0.111896,0.254354
7918096550,-0.624418,-0.073415,0.273556,0.955325,0.113274,0.257107
7918116511,-0.543207,-0.590638,0.358081,0.956938,0.108687,0.261583
7918136472,-0.333182,-0.917567,0.731145,0.961341,0.104110,0.262558
7918156434,-0.673193,-0.186152,0.857948,0.961648,0.106186,0.261710
7918176396,-1.112736,0.241108,0.848268,0.958694,0.107545,0.259358
7918196357,-1.172165,0.255894,0.544473,0.957216,0.102722,0.257952
7918216318,-0.519946,-0.187116,0.623184,0.953679,0.101463,0.256360
7918236280,-0.207147,-0.356095,0.290537,0.951243,0.104035,0.256455
7918256241,0.226960,-0.631930,-0.041551,0.956916,0.106060,0.255980
7918276202,-0.305058,-0.660976,-0.202643,0.959261,0.105689,0.257122
7918296163,-0.662711,-0.355073,0.076526,0.964015,0.105531,0.255937
7918316124,-0.806844,-0.027204,0.272884,0.961991,0.105570,0.257174
7918336085,-1.354194,0.340021,0.490620,0.962974,0.106493,0.258816
7918356046,-1.307573,0.484196,0.407075,0.958415,0.103522,0.257506
7918376008,-1.057105,0.338920,0.415709,0.955022,0.102936,0.258546
7918395967,-1.019341,0.125602,0.287133,0.954577,0.103206,0.258078
7918415928,-1.339693,-0.124446,0.233322,0.957285,0.103108,0.259495
7918435889,-1.401555,-0.367605,0.233481,0.957941,0.105834,0.259918
7918455850,-1.333400,-0.337204,0.332323,0.958587,0.105637,0.259296
7918475812,-1.494156,-0.252454,0.620063,0.957063,0.107647,0.258962
7918495773,-1.890955,-0.174496,0.937390,0.955240,0.107301,0.258843
7918515734,-2.668885,-0.171204,1.337053,0.960918,0.106011,0.261700
7918535695,-2.796050,0.323443,1.297947,0.959035,0.093071,0.258144
7918555656,-1.850462,0.273787,0.800245,0.950620,0.096410,0.256751
7918575617,-1.273536,-0.100768,0.764764,0.963714,0.102168,0.255713
7918595578,-1.320399,0.052292,1.166619,0.969717,0.100187,0.255036
7918615540,-2.101374,0.556398,1.011497,0.966707,0.098664,0.254459
7918635501,-1.923701,0.973671,0.798957,0.962711,0.093920,0.256649
7918655462,-1.953647,1.034499,0.745641,0.951640,0.098480,0.262291
7918675423,-1.171966,0.720544,0.915660,0.946332,0.098753,0.258546
7918695384,-0.290093,0.405702,0.805204,0.950876,0.099000,0.253799
7918715345,-0.799577,0.262434,0.606410,0.956930,0.098246,0.256199
7918755269,-0.459648,0.079600,0.987277,0.963900,0.098474,0.264337
7918775230,-0.778960,0.042409,0.895204,0.960165,0.102008,0.260932
7918795191,-1.399175,0.377958,0.376573,0.960832,0.099489,0.263171
7918815153,-1.281991,0.566695,-0.124223,0.957725,0.097148,0.262515
7918835113,-0.910065,0.215454,-0.236310,0.955860,0.096667,0.259393
7918855075,-1.031865,-0.104115,-0.509454,0.954521,0.098582,0.258881
7918875036,-0.895388,-0.180523,-0.470941,0.957007,0.099907,0.257995
7918894997,-1.177646,-0.240247,-0.365533,0.954784,0.098772,0.259612
7918914958,-0.890210,-0.369925,-0.106349,0.958471,0.095751,0.260730
7918934919,-0.973165,-0.110956,-0.038706,0.960903,0.094924,0.261881
7918954880,-0.881847,0.086833,0.135857,0.960347,0.095396,0.262683
7918974859,-0.639749,-0.126646,0.250817,0.959993,0.096307,0.262570
7918994801,-0.799843,0.018756,0.447395,0.958380,0.097401,0.261612
7919014762,-1.104208,0.118774,0.537313,0.958070,0.096703,0.263439
7919034723,-1.112429,-0.124725,0.454166,0.960159,0.094945,0.262778
7919054685,-1.134312,0.073010,0.423441,0.960398,0.092681,0.263548
7919074646,-0.776786,0.041436,0.417080,0.955486,0.094377,0.264159
7919094607,-0.922089,-0.308233,0.265334,0.953412,0.093281,0.262317
7919114568,-0.380091,-0.257417,-0.074474,0.949403,0.088284,0.259685
7919134529,1.234780,-0.347169,-0.539547,0.953812,0.098389,0.257597
7919154490,1.111234,-0.620245,-0.387759,0.970022,0.100786,0.258947
7919174451,-0.306602,-0.530768,0.252522,0.966519,0.100585,0.261345
7919194412,-0.730889,0.185936,0.492910,0.957091,0.099455,0.258186
7919214374,-0.160768,-0.211812,0.260117,0.951882,0.096225,0.257415
7919234335,0.209490,-0.760391,0.338054,0.951249,0.094933,0.261886
7919254296,0.454498,-0.479960,0.254961,0.953637,0.101776,0.259086
7919274257,0.235229,-0.121800,0.268880,0.960323,0.095440,0.253211
7919294218,0.015516,0.076567,0.237500,0.960765,0.086913,0.254725
7919314179,0.676530,-0.024159,0.361265,0.965059,0.089135,0.260595
7919334142,0.852585,0.012906,0.164467,0.959540,0.096218,0.262381
7919354103,0.240205,0.234050,-0.505755,0.961258,0.101171,0.260420
7919374064,0.098164,0.439084,-0.878412,0.964713,0.093522,0.261974
7919394025,0.349723,0.590020,-0.884870,0.958534,0.093391,0.261043
7919413986,0.735007,0.534812,-0.608465,0.959551,0.097137,0.256812
7919433948,0.997412,0.442054,-0.317800,0.953115,0.101302,0.257354
7919453909,0.841615,0.259250,-0.218694,0.952257,0.100794,0.259350
7919473870,0.549631,-0.082360,-0.271669,0.956433,0.098746,0.259005
7919493831,0.595556,0.092014,-0.483494,0.962745,0.095253,0.260817
7919513792,0.579596,0.205750,-0.520229,0.958896,0.095314,0.262293
7919533753,0.935210,0.310537,-0.411882,0.959027,0.098211,0.261520
7919553714,0.734742,0.356365,-0.267407,0.962270,0.095734,0.262257
7919573674,0.648200,0.493276,0.119369,0.960366,0.096478,0.262119
7919593636,0.555221,0.568398,0.186823,0.959717,0.097137,0.263189
7919613597,0.418070,0.726882,0.125048,0.956169,0.096713,0.262767
7919633558,1.024864,0.601272,0.058676,0.951313,0.100742,0.261337
7919653519,0.755585,0.045314,-0.305389,0.953616,0.097475,0.263345
7919673480,1.295250,-0.109432,-0.787936,0.950943,0.096627,0.259394
7919693441,2.150619,-0.545681,-1.161286,0.959836,0.101706,0.258655
7919713402,1.969345,-0.215892,-0.666695,0.970617,0.101642,0.261949
7919733364,1.181725,0.258783,-0.312048,0.965478,0.101456,0.264226
7919753325,1.029056,0.729554,-0.327666,0.963165,0.099965,0.260110
7919773286,1.110060,0.734900,-0.349320,0.952633,0.099210,0.263207
7919793247,1.022298,0.498089,-0.249770,0.948825,0.100702,0.263022
7919813208,1.512548,0.236974,-0.186499,0.950346,0.105670,0.261967
7919833169,1.104967,-0.096837,-0.346092,0.956449,0.105697,0.261896
7919853130,0.668940,-0.034164,-0.240573,0.956413,0.099588,0.260630
7919873091,0.962091,-0.216988,-0.071921,0.961211,0.098739,0.261916
7919893052,0.967599,-0.109996,-0.041604,0.958154,0.101394,0.260996
7919913013,0.837224,0.004115,-0.231730,0.957437,0.102674,0.261053
7919932976,0.273159,-0.207223,-0.498004,0.959646,0.098679,0.262890
7919952937,0.723461,0.095070,-0.798843,0.957230,0.098941,0.260473
7919972898,0.826832,-0.072441,-0.667351,0.957334,0.103614,0.256847
7919992860,0.946328,-0.087791,-0.688098,0.957511,0.105816,0.258362
7920012821,0.913867,0.034188,-0.625958,0.954767,0.104663,0.258422
7920032782,0.734477,-0.253681,-0.404575,0.955078,0.102875,0.260643
7920052743,0.823583,-0.428115,-0.471323,0.955737,0.102757,0.259291
7920072704,0.919993,-0.358680,-0.348593,0.957443,0.104227,0.261574
7920092665,0.918224,-0.297223,-0.431278,0.957740,0.103928,0.259946
7920112626,0.711452,-0.166774,-0.476537,0.959346,0.105132,0.262596
7920132587,0.177781,-0.157065,-0.514948,0.961477,0.102775,0.264586
7920152548,0.033533,0.087103,-0.393226,0.960304,0.100395,0.262600
7920172508,0.452083,0.161433,-0.436448,0.957293,0.100351,0.257446
7920192469,0.844397,0.030948,-0.206416,0.955373,0.106151,0.261141
7920212430,0.652027,-0.059591,-0.221594,0.957654,0.102549,0.258874
7920232391,1.267706,-0.039321,-0.537404,0.951406,0.101300,0.256048
7920252353,1.689300,-0.344661,-0.647881,0.957733,0.109628,0.258122
7920272314,1.584066,-0.296930,-0.176563,0.964759,0.113667,0.259551
7920292275,0.736651,-0.080272,0.010150,0.958707,0.109001,0.259425
7920312236,0.547008,0.147703,-0.286470,0.960925,0.103163,0.259652
7920332197,0.484948,0.147470,-0.270711,0.960020,0.103076,0.259273
7920352158,1.132294,1.362508,0.306652,0.990182,0.098289,0.239142
7920372120,3.627837,10.824175,1.833421,1.019828,0.079708,0.220321
7920392081,4.711313,24.673531,0.176991,0.960237,0.087030,0.324649
7920412042,2.612844,21.483065,-1.358237,0.924280,0.090327,0.369284
7920432003,5.146189,18.209284,0.833189,0.946414,0.041552,0.325414
7920451964,11.337529,17.466778,0.702970,0.906448,-0.029550,0.295886
7920471925,19.623873,14.631460,3.163203,0.894837,-0.029125,0.304317
7920491887,26.753548,27.244625,12.753340,0.920479,-0.066131,0.340543
7920511848,20.940441,42.624889,31.449398,0.893751,-0.192249,0.387468
7920531810,16.454266,44.412949,47.384842,0.914482,-0.232646,0.399619
7920551772,34.719799,45.802025,56.140594,0.910596,-0.230009,0.372004
7920571733,67.070618,40.774689,65.643112,0.924458,-0.213446,0.358237
7920591694,89.027954,35.681358,74.982368,0.996501,-0.115607,0.330454
7920611655,90.265205,35.654175,82.302696,1.065385,-0.025652,0.302015
7920631616,78.447281,38.953266,85.484207,1.040905,0.084645,0.324346
7920651579,58.013393,30.350210,78.591476,1.012741,0.182221,0.325692
7920671538,25.695900,12.258561,57.838165,1.080433,0.429493,0.238195
7920711460,-8.660242,-14.319883,7.666649,1.019907,0.582469,0.206988
7920731421,-21.070656,-14.398583,-20.789000,0.920714,0.520255,0.320835
7920751381,-43.696709,-18.285873,-53.370998,0.830917,0.428554,0.351833
7920771342,-50.484329,-21.147194,-72.552414,0.828863,0.240161,0.397043
7920791303,-67.827560,-6.313848,-75.531059,1.038169,0.046867,0.549018
7920811265,-84.231873,16.492754,-75.391663,1.114106,-0.101204,0.472611
7920831226,-54.181496,9.958638,-70.023132,0.937044,-0.078681,0.252267
7920851187,-11.498195,-15.689686,-68.773636,0.876639,0.093211,0.109748
7920871148,6.972903,-28.260393,-80.859634,0.906258,0.275052,0.089828
7920891109,-16.220879,-32.287769,-85.817856,1.007128,0.389197,0.215474
7920911070,-54.631927,-31.322306,-86.500252,1.099635,0.475724,0.286599
7920931031,-88.592148,-30.201561,-93.626762,1.028304,0.492701,0.259425
7920950992,-111.080055,-37.619862,-104.565620,0.983979,0.431404,0.163728
7920970953,-109.607063,-37.978683,-114.213943,1.000179,0.285363,0.071895
7920990915,-86.702911,-45.038700,-120.715317,1.029578,0.220745,0.074949
7921010876,-69.593430,-53.125458,-128.888794,1.031346,0.317244,0.104727
7921030837,-67.931328,-56.883163,-137.984970,0.980927,0.428659,0.154064
7921050798,-73.189148,-54.036411,-148.813934,1.117889,0.454050,0.184754
7921070759,-74.710327,-47.659195,-156.622803,1.168134,0.412247,0.146475
7921090720,-79.175751,-46.648197,-152.616699,1.087544,0.431896,0.189933
7921110683,-90.642563,-37.741684,-151.354919,1.141646,0.460824,0.211031
7921130644,-96.921906,-17.769957,-153.158676,1.151210,0.444913,0.180233
7921150605,-92.472137,-13.522157,-144.020264,0.953394,0.392623,0.119455
7921170567,-81.710457,-16.301313,-128.672699,0.837318,0.353365,0.106404
7921190528,-85.796501,-14.560515,-120.439110,0.772972,0.353627,0.197010
7921210489,-113.018074,-13.993357,-112.371307,0.738167,0.284617,0.164993
7921230450,-126.293404,-24.347288,-93.760109,0.752937,0.097670,0.059689
7921250411,-121.090805,-40.928677,-68.035568,0.692268,-0.079226,-0.027038
7921270372,-106.924255,-58.200111,-34.683372,0.611535,-0.127083,0.074619
7921290334,-111.343880,-65.630920,6.857563,0.636379,-0.076298,0.289513
7921310295,-131.621429,-59.086258,40.971069,0.687216,-0.014775,0.442604
7921330259,-132.838593,-46.347504,65.643951,0.720564,-0.009171,0.439208
7921350215,-110.971184,-41.194099,98.859062,0.777096,-0.113647,0.458529
7921370177,-95.395905,-45.942860,133.138290,0.863872,-0.159024,0.537538
7921390138,-85.114975,-48.729195,155.466522,1.016216,-0.045070,0.618145
7921410099,-65.109085,-47.120430,166.550049,1.139950,0.119944,0.695387
7921430060,-50.522366,-39.962448,167.892944,1.146419,0.338040,0.751396
7921450021,-52.382553,-33.042213,164.833099,1.145401,0.460205,0.656858
7921469982,-48.060944,-21.102989,148.838638,1.150550,0.492890,0.508441
7921489943,-44.438946,-14.951860,112.548859,1.036404,0.544577,0.425094
7921509905,-42.464073,-41.692978,54.361805,0.880042,0.805821,0.407201
7921529866,-59.460617,-78.828659,-14.323039,0.909042,1.132578,0.319697
7921549827,-96.492470,-93.713440,-96.403992,1.060434,1.468806,0.270342
7921569788,-126.785263,-82.991951,-175.108475,1.228284,1.386637,0.371019
7921589749,-164.522385,-27.348684,-198.084564,1.214235,0.678790,0.435809
7921609711,-184.932846,-7.756219,-191.631653,1.275757,0.001414,0.300240
7921629671,-141.789703,11.128736,-171.397751,1.414775,-0.374507,0.152958
7921649633,-74.291534,-6.120209,-163.035843,1.044403,-0.397611,-0.110706
7921669594,-20.065617,-67.837456,-165.519379,0.782571,-0.076487,-0.192525
7921689556,-0.989907,-89.852921,-165.089493,0.789200,0.267725,0.027974
7921709517,-10.554523,-82.461815,-161.823151,0.867225,0.653165,0.184180
7921729478,-56.882816,-80.381554,-153.987717,1.099874,0.879569,0.241196
7921769401,-152.609039,-39.642651,-140.043716,1.232191,0.329295,0.207106
7921789362,-126.090256,-20.440948,-139.878525,1.171896,0.182048,0.152773
7921809323,-85.671883,-14.330213,-134.229004,0.975453,0.318784,0.207942
7921829285,-76.909286,-9.995646,-128.021149,0.754134,0.404403,0.268227
7921849246,-105.732391,-4.705760,-129.976120,0.619972,0.404434,0.187635
7921869207,-126.419937,-22.255451,-127.589645,0.648301,0.384229,0.050436
7921889168,-136.951584,-54.101418,-112.428406,0.760309,0.310683,-0.088544
7921909129,-150.562256,-81.413223,-93.800560,0.800181,0.106811,-0.152314
7921929089,-164.988098,-98.983627,-57.901291,0.717206,-0.173697,0.013850
7921949050,-172.786545,-105.230179,-15.219700,0.632165,-0.235032,0.278832
7921969011,-158.722504,-99.459106,17.778965,0.623664,-0.135155,0.401977
7921988972,-126.508018,-95.069656,50.581631,0.692208,-0.106358,0.387008
7922008934,-100.711197,-93.676918,88.103363,0.807386,-0.126237,0.377244
7922028894,-91.517685,-90.509903,115.595093,0.945837,-0.057779,0.500958
7922048855,-94.510620,-83.428238,134.176254,1.046939,0.096242,0.618579
7922068817,-104.749352,-76.805016,147.770706,1.116873,0.214636,0.652253
7922088778,-117.497101,-77.285378,149.581116,1.158284,0.233986,0.637215
7922108739,-119.201157,-81.587166,140.649170,1.286391,0.330146,0.621325
7922128700,-124.616341,-71.459167,112.398712,1.276353,0.502129,0.576708
7922148661,-126.213348,-78.565941,59.088436,0.902686,0.766483,0.561700
7922168622,-117.474030,-94.833565,8.580976,0.908713,0.844970,0.549962
7922188583,-119.170128,-90.557678,-19.496660,1.052224,0.818871,0.426901
7922208544,-129.905426,-102.383430,-70.378693,1.172417,0.989368,0.173707
7922228506,-122.011246,-91.904739,-163.710434,1.277778,1.246109,0.213504
7922248467,-145.755234,-21.160357,-188.264221,1.198570,0.646581,0.428856
7922268429,-171.070374,-11.132818,-181.016327,1.244349,0.112798,0.279991
7922288391,-158.076294,-1.001659,-174.833496,1.327248,-0.134017,0.200594
7922308351,-104.571732,3.623680,-183.573563,1.180565,-0.258276,0.009619
7922328313,-30.120251,-18.989265,-188.052307,1.056791,-0.256813,-0.065069
7922348274,1.028149,-34.978493,-178.271744,0.937617,0.017757,0.189869
7922368235,4.523778,-46.375076,-167.405472,0.917044,0.425735,0.226063
7922388196,-25.406090,-53.672989,-153.111542,1.065441,0.650989,0.119645
7922408159,-97.032242,-48.521187,-133.001144,1.132493,0.722252,0.048680
7922428118,-163.846695,-32.481148,-113.801834,0.939065,0.641531,0.172939
7922448080,-196.257843,-24.014509,-103.653130,0.766283,0.414061,0.222306
7922468041,-193.369339,-33.403587,-101.367920,0.689793,0.237125,0.134105
7922488002,-166.278122,-51.078907,-104.439522,0.731741,0.188202,0.125204
7922507962,-156.338364,-70.446297,-98.860229,0.779123,0.180100,0.151794
7922527923,-167.427994,-89.167458,-81.451195,0.824708,0.059497,0.092319
7922547884,-174.749084,-92.963905,-56.181801,0.771280,-0.136733,0.155747
7922567845,-172.018372,-87.107605,-29.034204,0.675231,-0.220602,0.363800
7922587806,-160.826736,-77.725372,-8.686800,0.645338,-0.167238,0.498606
7922607767,-131.306992,-65.945930,7.581361,0.694352,-0.044627,0.538565
7922627728,-99.716820,-56.016373,33.717777,0.834303,-0.006457,0.550068
7922647690,-83.712936,-51.808884,63.750137,0.907590,-0.027594,0.561411
7922667651,-77.432327,-54.679836,90.565804,0.880780,-0.009364,0.595589
7922687612,-67.362358,-60.400463,113.155769,0.949625,0.041951,0.591549
7922707573,-56.647793,-63.536037,125.164368,1.058023,0.059754,0.605265
7922727534,-32.758633,-59.942230,127.416107,1.008762,0.133100,0.656705
7922747495,-20.871902,-57.437927,120.993057,0.962840,0.288954,0.652399
7922767457,-27.269745,-58.112179,108.397263,1.062711,0.455303,0.517827
7922787418,-36.911472,-45.287323,83.331535,0.949461,0.573506,0.439689
7922827340,-58.328632,-92.405464,-6.011371,0.804939,0.996571,0.200997
7922847301,-58.384922,-132.848816,-66.507027,1.074198,1.373056,-0.045734
7922867263,-86.527588,-97.100342,-142.206039,1.271683,1.463227,0.448874
7922887225,-174.871902,-17.932299,-161.020615,1.258532,0.821967,0.660747
7922907186,-227.924210,-14.839440,-159.485352,1.220165,0.154472,0.240801
7922927147,-180.425140,-5.177582,-146.592621,1.412462,-0.340965,0.157466
7922947108,-104.010262,-6.746521,-147.377502,1.017347,-0.380479,-0.046009
7922967069,-3.972459,-52.232613,-151.593292,0.738704,-0.231475,-0.198804
7922987030,44.686802,-72.258423,-150.962372,0.780102,0.361670,0.030730
7923006991,-21.425613,-72.746407,-146.960403,1.098566,0.946626,0.138722
7923026953,-126.639145,-51.200455,-132.032455,1.283864,0.983292,0.029605
7923046914,-211.929352,-47.299191,-120.116386,0.972978,0.521382,0.005517
7923066875,-223.844986,-59.002335,-127.249535,0.948893,0.120751,-0.013587
7923086846,-171.845337,-63.891193,-134.826767,0.964075,0.033634,0.075811
7923106796,-115.300392,-77.045135,-142.019928,0.948082,0.170958,0.243099
7923146718,-132.737640,-80.374039,-157.274170,1.112900,0.518631,0.339684
7923166679,-173.289520,-69.552986,-150.244766,1.151484,0.401462,0.379647
7923186640,-181.166870,-54.781387,-134.947083,1.061661,0.161005,0.345513
7923206601,-153.712189,-58.321945,-120.006180,0.826164,0.018201,0.265766
7923226562,-114.269318,-70.525269,-105.308693,0.666481,-0.008197,0.237226
7923246524,-83.667519,-75.202103,-90.712395,0.542970,0.148883,0.386374
7923266485,-71.560356,-66.005875,-74.406837,0.594949,0.410998,0.544760
7923286446,-69.942863,-54.007690,-57.973171,0.615085,0.457024,0.455225
7923306407,-62.578133,-55.167828,-37.114170,0.541874,0.412058,0.293349
7923326368,-53.817162,-66.013229,-12.365475,0.481168,0.349915,0.196545
7923346330,-40.740715,-79.297394,16.636015,0.584451,0.401556,0.208157
7923366291,-40.837200,-82.218712,38.550694,0.787555,0.458895,0.325954
7923386252,-58.013634,-77.344131,45.188095,0.832377,0.518501,0.418227
7923406213,-79.056496,-74.962387,46.488678,0.724317,0.479112,0.426816
7923426174,-91.445877,-74.138908,54.309135,0.701871,0.396433,0.432403
7923446137,-94.726357,-65.011002,72.696564,0.848727,0.300465,0.413630
7923466098,-100.863266,-56.665760,79.357674,0.996786,0.223909,0.399114
7923486059,-100.635742,-69.725357,56.169521,1.012335,0.325040,0.500642
7923506020,-79.047752,-66.329224,32.230480,0.962681,0.543255,0.705600
7923525981,-75.305260,-50.702057,26.390831,0.806324,0.540265,0.632754
7923545942,-73.973106,-57.029251,32.309250,0.780947,0.395672,0.386514
7923565904,-64.618240,-61.383839,26.017101,1.112778,0.298282,0.245855
7923585865,-66.666580,-44.853325,2.686136,1.032567,0.357769,0.316077
7923605826,-60.105415,-38.897118,-12.517852,0.863611,0.512749,0.513326
7923625787,-94.885872,-42.700329,-22.705845,0.796321,0.581524,0.469350
7923645748,-117.513168,-50.322029,-6.565836,0.789281,0.399126,0.249198
7923665709,-100.469498,-52.426620,10.061317,0.881633,0.177902,0.223372
7923685669,-95.568855,-50.118752,-3.002492,0.940890,0.162601,0.325606
7923705630,-91.817970,-59.067245,-25.942280,0.895569,0.345873,0.387884
7923725591,-97.538063,-60.872326,-36.325619,0.902205,0.410117,0.440771
7923745552,-121.337257,-50.487259,-34.158142,0.952198,0.272597,0.446034
7923765513,-133.187073,-40.452515,-24.642054,0.968262,0.048744,0.378968
7923785474,-113.033096,-34.662285,-13.936162,0.975624,-0.120157,0.340163
7923805436,-72.115349,-43.186527,-9.037233,0.864882,0.001681,0.462985
7923825397,-34.795250,-75.993988,-77.913330,1.126688,1.232233,0.370046
7923845358,-49.569645,11.169369,-95.836464,0.792176,0.805120,0.340492
7923865319,-86.194443,-33.978481,-32.040310,0.783305,-0.132959,0.042989
7923885280,-136.126144,-68.672882,-5.969998,1.015597,-0.441279,0.221310
7923905241,-129.231613,-67.138496,-14.783581,0.881225,-0.100318,0.610928
7923925203,-89.253166,-54.348709,-35.215118,1.020517,0.261040,0.798611
7923945164,-95.862434,-25.496405,-38.513165,1.068393,0.243184,0.817448
7923965125,-88.193123,-7.733618,-27.532490,1.020587,-0.015684,0.716363
7923985086,-41.656387,3.860474,-27.160759,0.975847,-0.217255,0.550927
7924005048,0.714500,11.431618,-14.532294,0.792347,-0.359938,0.460384
7924025010,13.423846,18.272093,11.128922,0.768615,-0.397478,0.568199
7924044972,15.729505,40.543266,54.370487,0.787985,-0.537655,0.649892
7924064933,24.676035,34.840195,106.449173,0.754314,-0.604720,0.627426
7924084894,67.015228,20.910337,136.906830,0.870358,-0.486418,0.370002
7924104855,81.463852,40.273540,137.699753,0.994561,-0.131957,0.273864
7924144777,97.926277,59.591606,160.736389,0.950775,-0.114116,0.157302
7924164744,86.823265,45.623772,166.951477,1.034597,-0.183706,0.132388
7924184699,64.643135,52.108734,160.994278,1.103862,-0.160792,0.300199
7924204661,36.429832,59.661545,135.768799,1.258081,0.017217,0.560640
7924224622,11.377018,47.221752,112.139496,1.475711,0.506611,0.502069
7924244583,-5.418874,38.131863,69.543747,1.487695,0.790148,0.318708
7924264542,7.106952,29.338274,27.993126,1.367431,0.850862,0.301393
7924284503,87.703316,-26.705797,-15.644999,1.191095,1.412723,-0.234468
7924304464,196.965942,-18.960121,-123.262466,0.862528,1.454036,-0.184257
7924324425,107.731277,-22.103960,-145.379791,0.800071,0.928436,0.580113
7924344386,-116.766075,-58.239601,-167.621597,1.492590,1.311243,0.338036
7924364348,-153.019989,-37.146465,-196.263565,1.318910,0.909914,-0.196023
7924384309,-149.661255,-86.834167,-174.495270,1.059268,0.344489,-0.369002
7924404270,-209.434814,-113.071793,-175.222809,1.114032,0.876867,-0.052083
7924424231,-168.510773,-55.732697,-213.127899,1.112474,0.912549,-0.255309
7924444192,-113.997299,-89.640244,-227.187958,0.975908,0.274511,-0.831615
7924464153,-216.299515,-169.406143,-233.569397,1.414269,0.453404,-0.975301
7924484115,-269.185516,-172.608871,-242.429276,1.309161,0.788925,-0.470592
7924504076,-266.524536,-175.215179,-255.963684,1.192202,0.455270,-0.556786
7924524037,-278.822662,-181.103943,-284.190155,1.479018,-0.003076,-0.946329
7924563959,-226.732651,-252.140701,-265.424072,1.326746,0.193103,-1.196472
7924583920,-289.436340,-284.287628,-229.518356,1.744787,0.569249,-1.311161
7924603881,-394.806030,-298.298370,-205.369781,2.064701,0.114388,-1.046422
7924623844,-433.000488,-290.553558,-249.214981,1.995594,-0.405314,-0.480512
7924643805,-291.727997,-274.998352,-272.715973,2.132694,-0.920126,0.168050
7924663766,-174.417175,-256.103790,-224.573608,2.216755,-0.391839,0.729802
7924683727,-127.729233,-178.647171,-176.881165,1.877981,0.441597,0.742355
7924703689,-116.382622,-115.532021,-199.379883,1.589225,0.882948,0.944007
7924723650,-138.192596,-54.372761,-241.133331,1.243844,-0.495618,-0.138407
7924743611,-51.716549,-148.114227,-252.812592,-0.090573,-0.093967,-1.124699
7924763572,-50.344284,-298.919952,-179.215820,0.180991,0.969235,-0.880795
7924783533,-202.505173,-275.983215,-69.607811,1.000287,0.873025,-0.588821
7924803494,-299.543030,-200.327652,11.218266,0.997381,-0.423801,0.160316
7924823455,-266.805115,-163.658829,58.159031,0.744292,-1.133796,0.381573
7924843416,-131.703140,-160.374023,102.118271,1.056421,-0.650812,0.517527
7924863376,-41.207531,-126.911758,125.052063,1.303234,-0.412936,0.610767
7924883338,19.444382,-136.282211,130.009872,1.096129,-0.275977,0.262697
7924903299,56.473549,-152.351608,143.285934,1.047418,0.094606,-0.109425
7924923260,49.390896,-157.588120,144.993164,1.137635,0.716684,-0.011509
7924943221,-3.381299,-149.438370,127.965698,1.060532,1.394051,0.299160
7924963182,-103.025536,-143.866791,97.012383,0.816649,1.686463,0.560898
7924983143,-215.790390,-156.105133,45.717907,1.045254,1.561669,0.020399
7925003104,-254.205139,-158.823608,-9.223294,1.829297,1.109869,-0.103702
7925023065,-243.730087,-101.934196,-43.054169,1.634159,0.261131,0.212772
7925043026,-228.159668,-82.664886,-53.087482,1.368404,-0.383891,0.230665
7925062988,-193.514343,-83.375732,-33.968044,1.107541,-0.886783,-0.074399
7925082949,-91.249397,-132.765442,20.647293,0.624808,-0.849598,-0.048894
7925102910,-61.800800,-239.098389,-91.328690,0.669907,2.223837,0.093457
7925122871,-87.724190,-83.423271,-221.433533,1.330444,2.343930,0.251398
7925142832,-239.033798,-67.702087,-94.675041,1.596067,0.325327,-0.186372
7925162793,-272.699890,-109.651299,-72.858498,1.254707,-1.173784,-0.332899
7925182754,-175.296478,-121.061661,-89.717171,0.954973,-0.967297,0.111709
7925202717,-173.264618,-119.238129,-79.793816,0.934717,-0.329661,0.524422
7925222678,-157.083679,-98.171936,-65.222931,1.012118,0.231065,0.881359
7925242639,-179.189880,-75.206299,-29.273016,1.279824,0.401368,1.180068
7925262600,-180.550385,-24.539274,-11.100698,1.656216,-0.141753,1.149062
7925282562,-75.740982,-8.085828,-20.318821,1.089729,-0.724488,1.110700
7925302523,49.648911,-0.928683,-17.349930,0.909361,-0.315578,1.047605
7925322485,95.818153,15.358979,-5.609900,0.836876,0.092494,0.860381
7925342445,114.893784,27.345686,10.160484,0.780902,0.171953,0.684489
7925362407,101.338852,44.494385,26.172022,0.867853,0.075867,0.839276
7925382368,89.417145,75.462753,41.758476,1.038972,-0.096856,0.835409
7925402329,138.716843,96.462578,57.015709,1.154029,-0.360550,0.631303
7925422290,230.159241,113.359924,69.458466,1.141200,-0.247246,0.475591
7925442250,264.287445,140.687317,98.499191,1.280680,0.055389,0.482844
7925462211,240.032257,182.427811,130.216995,1.294845,-0.232981,0.204352
7925482172,236.692932,170.186279,152.468826,1.486295,-0.525602,-0.146127
7925502133,244.067078,181.796799,159.275955,1.363276,-0.546829,-0.224163
7925522094,262.740326,196.437408,170.532928,1.342927,-0.426594,-0.296441
7925542056,297.356995,221.507401,212.268143,1.683055,-0.628184,-0.632299
7925562017,324.506592,227.656494,261.080231,1.656049,-0.764029,-0.890642
7925581978,343.602600,215.792633,291.177216,1.511557,-0.727883,-0.926848
7925601939,308.919556,216.122437,301.710022,1.497228,-0.624323,-0.692593
7925621900,220.537262,202.390854,310.204254,1.759284,-0.283691,-0.467715
7925641861,155.183289,233.251572,316.006104,2.291459,-0.076417,-0.574631
7925661822,131.968674,149.329727,271.019257,1.659003,0.253846,-0.947055
7925681783,160.874039,-122.007027,79.219818,1.302797,2.601665,-1.614999
7925701745,295.816864,33.027294,-27.128872,2.073509,2.621622,0.310562
7925721706,386.602142,23.939522,86.320068,0.941835,0.460348,0.920753
7925741667,296.056641,-21.956812,18.141449,1.049640,-0.066803,0.000166
7925761628,236.742935,-31.464849,-65.258240,0.727498,0.353638,0.215299
7925781589,148.013153,-50.121338,-123.521851,0.915002,0.495714,0.092840
7925801551,100.852852,-23.097118,-94.514046,1.018555,0.176040,0.186666
7925821513,71.934654,3.298412,-61.764137,1.056137,-0.171357,0.682048
7925841474,33.478767,54.902546,-82.566002,0.917571,-0.357382,0.761504
7925861435,58.147896,63.074390,-90.435211,0.794556,-0.538658,0.473825
7925881396,134.742645,68.229912,-56.219597,1.016146,-0.495973,0.397966
7925901358,222.943512,94.213928,-0.579442,1.107488,-0.264240,0.265262
7925921319,270.384766,97.988632,53.152935,0.995637,-0.104364,-0.020789
7925941280,265.783630,77.731476,84.671646,0.941657,0.117070,-0.040431
7925961241,214.949890,71.230148,95.070251,1.192457,0.363594,0.031523
7925981202,144.610672,105.799919,99.461212,1.322723,0.211685,0.222622
7926001163,88.903702,123.375519,102.036179,0.934305,-0.132133,0.293797
7926021123,130.641434,111.774902,106.251770,0.803764,-0.308638,0.028667
7926041084,230.566010,71.355949,133.083908,0.921870,-0.260515,-0.096805
7926061045,273.439880,51.938923,139.819427,1.472651,0.090589,-0.070599
7926081006,239.284103,86.017738,116.515526,1.302728,0.494449,0.137944
7926100967,192.418961,89.672760,120.005707,1.162586,0.238360,-0.043739
7926120929,178.545242,95.826645,147.743073,1.153429,-0.189861,-0.236045
7926140890,192.086670,97.574005,168.269028,1.009727,-0.458097,-0.069282
7926160851,193.909088,111.584763,194.961258,0.912489,-0.620224,0.231821
7926180812,166.748917,80.848801,225.077744,1.177064,-0.261107,0.261479
7926200784,210.502182,50.466423,180.983551,1.778292,0.191122,-0.588698
7926220735,304.332520,63.379906,130.015427,1.310250,0.605486,-0.905575
7926240696,265.687988,23.790861,107.634018,1.110060,0.831621,-0.750588
7926280618,24.577806,20.624634,90.266693,0.847051,0.720574,0.279231
7926300579,-41.715771,-10.698599,31.344803,1.315913,0.666082,-0.032452
7926320540,75.593231,22.353336,-1.019701,1.273510,0.265482,-0.056172
7926340501,137.268448,17.161457,3.517837,1.053466,0.346134,-0.216880
7926360462,132.668274,-0.319492,8.902062,0.861145,0.735597,-0.387693
7926380425,62.120892,-17.694500,-7.425013,0.935295,0.901824,-0.181617
7926400386,-47.393196,-23.838982,-18.569876,1.243643,0.767146,-0.016492
7926420347,-75.269646,-17.498758,-18.603168,1.029084,0.492823,-0.049172
7926440308,-52.681141,-24.242094,-15.664826,0.993438,0.350342,0.010060
7926460269,-51.486923,-23.003040,-17.810535,1.052795,0.294432,0.089102
7926480230,-60.858841,-19.704010,-22.081326,1.009537,0.308623,0.189884
7926500191,-69.567192,-11.481915,-23.974209,0.946488,0.218738,0.196119
7926520152,-66.136032,-3.119750,-16.393543,0.834790,0.052064,0.231586
7926540114,-62.957470,-3.931549,-6.652204,0.811664,-0.039011,0.284195
7926560075,-55.479446,-9.509598,-7.924534,0.870951,0.016388,0.347663
7926580036,-45.162251,-15.629627,-13.239417,1.053268,0.102855,0.384922
7926600000,-35.583401,-4.348672,-7.972749,1.144395,0.126318,0.307076
7926619957,-37.441444,6.826873,2.318418,0.976220,0.055159,0.369538
7926639918,-38.369732,2.477871,5.114753,0.895910,-0.024729,0.400699
7926659879,-31.757000,2.303270,8.195399,0.891879,-0.089359,0.316996
7926679840,-30.236305,1.421898,10.994646,0.872842,-0.085812,0.297375
7926699802,-25.201067,-0.939896,9.314787,0.871097,-0.056269,0.358417
7926719763,-21.522045,-1.966664,7.552557,0.895008,-0.023261,0.401023
7926739724,-22.662754,-0.165297,9.018440,0.943419,0.037486,0.393448
7926759685,-26.594007,1.795640,13.533398,0.999396,0.104367,0.394290
7926779646,-29.276901,4.990830,17.375177,1.015869,0.086105,0.406547
7926799608,-33.671928,6.653431,16.530924,0.978321,0.036047,0.413053
7926819568,-33.802391,7.333256,14.040148,0.972900,0.001332,0.391121
7926839530,-27.702356,10.516361,10.731388,0.937504,-0.003926,0.391924
7926859491,-21.326439,11.770190,5.271029,0.886453,0.022739,0.382719
7926879452,-14.505733,8.883268,-1.304904,0.848874,0.043344,0.354101
7926899413,-5.709774,8.238910,-5.198599,0.836077,0.022648,0.378155
7926919374,0.862811,7.886763,-3.483914,0.841527,0.014448,0.418092
7926939335,3.562765,5.827551,1.635759,0.869356,0.045946,0.416083
7926959296,4.413206,4.060614,5.458684,0.904906,0.080978,0.406326
7926979259,4.503657,1.667590,6.851422,0.937724,0.090926,0.382543
7926999220,6.155962,0.034783,6.813786,0.958811,0.067612,0.344701
7927019181,10.279750,-0.511579,6.395633,0.944024,0.061873,0.327131
7927039142,12.556227,-3.613508,6.665833,0.911754,0.069787,0.317122
7927059103,12.623704,-9.432263,10.044450,0.893715,0.059283,0.300845
7927079065,9.381259,-12.661089,14.060948,0.909211,0.056450,0.298352
7927099026,5.039599,-14.027555,12.158879,0.908339,0.076885,0.296545
7927118987,1.177179,-16.968323,7.209804,0.907627,0.094119,0.299710
7927138948,-0.840711,-19.021624,4.033830,0.935405,0.107471,0.312476
7927158909,-3.376003,-18.018190,3.583766,0.955046,0.088631,0.330993
7927178870,-5.537900,-17.591833,4.167959,0.952086,0.056339,0.321178
7927198830,-1.839461,-14.948333,4.760614,0.947022,0.023631,0.306231
7927218791,3.286400,-12.120947,4.522878,0.940892,0.026447,0.320460
7927238752,6.573908,-10.923658,3.833727,0.947849,0.043022,0.327510
7927258713,9.160593,-11.061279,3.796945,0.958752,0.057353,0.320646
7927278674,7.224519,-10.173200,3.660199,0.987112,0.067597,0.307703
7927298636,3.031636,-6.440887,3.716659,1.004632,0.054816,0.303954
7927318597,2.077904,-4.383022,4.454194,0.979716,0.012165,0.316125
7927338558,3.267826,-3.740537,4.388862,0.975665,-0.015534,0.308764
7927358519,6.166702,-2.107488,4.213855,0.954311,-0.011411,0.308305
7927378480,9.969864,-3.056148,3.666224,0.959172,0.007513,0.300435
7927398442,13.466641,-1.895941,3.774708,0.972784,0.033050,0.284785
7927418403,12.592969,0.490888,5.604891,0.992406,0.053096,0.277077
7927438364,8.404758,4.162687,9.592772,0.979224,0.069275,0.273838
7927458325,0.766983,5.690627,12.251902,0.955821,0.074100,0.276426
7927478286,-2.430304,5.602477,12.499507,0.951551,0.045416,0.276180
7927498247,-1.506204,3.894808,11.897960,0.943717,-0.001939,0.277176
7927518208,1.130719,1.163788,11.880398,0.948763,-0.026906,0.282868
7927538170,4.852048,-0.940096,11.561905,0.949625,-0.029358,0.289845
7927558132,8.707378,-1.987480,11.166383,0.948033,-0.004546,0.300883
7927578093,10.779454,-1.190987,9.676927,0.960069,0.023290,0.304564
7927598055,9.321033,0.390480,7.195595,0.986627,0.026731,0.297618
7927618016,8.190481,1.935884,6.202925,0.975449,0.029473,0.303196
7927637977,9.726956,2.510232,6.837066,0.955980,0.041310,0.303192
7927657938,8.755710,1.974592,7.434220,0.955544,0.049935,0.295940
7927677899,4.356202,0.899858,6.798956,0.965425,0.030913,0.282591
7927697860,2.698202,0.490031,4.593160,0.947460,0.000959,0.272826
7927717821,4.438756,-0.549970,0.745045,0.927808,-0.010709,0.281581
7927737782,9.743382,-1.926946,-2.400151,0.920618,0.004931,0.295490
7927757743,13.922353,-3.004263,-2.043208,0.935346,0.041961,0.295791
7927777703,10.550226,-3.408531,-0.444792,0.950325,0.060485,0.292575
7927797664,3.823381,-2.727364,-1.409127,0.953346,0.064220,0.282826
7927817625,-2.231646,-1.896962,-2.728167,0.955482,0.060323,0.272730
7927837586,-6.310726,-2.287417,-2.938388,0.964393,0.035486,0.265104
7927857548,-6.324185,-2.135782,-3.189109,0.965765,0.007640,0.276513
7927877509,-4.795271,-2.483291,-3.388452,0.961485,-0.008410,0.294819
7927897470,-2.529809,-2.779145,-3.205967,0.976714,-0.018050,0.299081
7927917431,-0.809084,-1.794706,-2.564241,0.986257,-0.021879,0.292671
7927977314,0.424697,0.444975,-2.480027,0.943957,0.021137,0.270246
7927997275,-1.546547,-0.916473,-1.915301,0.937960,0.031086,0.274982
7928017237,-5.448997,-2.394301,-1.781790,0.944913,0.026861,0.270716
7928037198,-9.597589,-3.462138,-2.370699,0.965894,-0.000459,0.269727
7928057159,-8.672296,-2.872887,-2.854244,0.976776,-0.031291,0.282543
7928077120,-5.278972,-2.936938,-2.842935,0.965408,-0.034439,0.301691
7928097081,-0.825071,-3.147053,-1.932352,0.958774,-0.006773,0.305397
7928117043,2.738966,-2.516443,-0.358098,0.956487,0.026940,0.302981
7928137005,2.156674,-1.099110,0.115993,0.954058,0.039792,0.297444
7928156966,-1.021919,0.948597,-0.163201,0.961747,0.031418,0.295901
7928176927,-3.259949,1.950853,-0.726122,0.960539,0.014119,0.293158
7928196889,-0.832444,1.996319,-0.733346,0.944145,-0.000555,0.285084
7928216850,2.100344,1.493633,-0.237181,0.948570,-0.002402,0.286288
7928236811,1.782537,1.078218,0.673119,0.958498,0.001434,0.288319
7928256772,2.469481,1.169879,1.957863,0.962065,0.011854,0.282295
7928276733,2.747288,1.231596,2.831470,0.965594,0.019089,0.282241
7928296694,1.635354,1.403215,3.207010,0.961260,0.011654,0.286746
7928316655,1.356433,1.959108,3.129364,0.954520,0.012459,0.287246
7928336617,1.859564,1.698048,2.691231,0.945956,0.017787,0.284999
7928356578,1.798002,1.180483,2.380635,0.948336,0.021520,0.280883
7928376538,1.288959,1.204629,2.234718,0.957967,0.019790,0.281271
7928396499,0.407120,1.298515,2.140590,0.960167,0.016443,0.284007
7928416460,-0.718340,1.096110,1.810829,0.955049,0.011919,0.287993
7928436421,-0.056411,0.583567,1.366007,0.949525,0.006622,0.288616
7928456382,1.719182,0.111953,0.355598,0.949500,0.002887,0.288040
7928476344,4.166045,0.452645,-0.297103,0.946585,0.015496,0.284228
7928496305,3.802068,0.293259,-0.715486,0.956144,0.029994,0.281616
7928516266,-0.882900,0.299652,-1.193931,0.965899,0.030238,0.286526
7928536227,-4.316301,-0.534268,-1.560734,0.959004,0.020653,0.285100
7928556188,-3.033444,-1.283637,-1.555374,0.948406,0.008696,0.280457
7928576149,-0.148030,-2.090152,-0.952660,0.945197,0.007741,0.281234
7928596110,0.445998,-2.214184,-1.178194,0.952586,0.008374,0.286276
7928616072,-0.045354,-1.795024,-1.514378,0.963668,0.004067,0.285548
7928636032,1.928297,-1.269325,-1.683198,0.967278,0.006166,0.288676
7928655994,3.360313,-0.908886,-1.694183,0.954817,0.021405,0.296303
7928675955,0.901794,-1.266360,-1.838383,0.961403,0.028470,0.293029
7928695916,-0.686656,-1.117340,-2.109484,0.963213,0.017555,0.287596
7928715877,-0.851433,-1.034173,-2.611054,0.967419,0.009134,0.292819
