Timestamp (us),Gyroscope X (deg/s),Gyroscope Y (deg/s),Gyroscope Z (deg/s),Accelerometer X (g),Accelerometer Y (g),Accelerometer Z (g)
6020022107,0.044048,-0.066856,0.024265,-0.325978,0.124482,0.937889
6020042137,0.082137,-0.006081,0.023752,-0.324815,0.127194,0.940215
6020062166,-0.016436,0.024689,-0.037237,-0.325835,0.126408,0.935444
6020082196,-0.024038,-0.036482,-0.097282,-0.324311,0.125211,0.936097
6020102225,-0.046610,0.070588,-0.014605,-0.327057,0.124674,0.937325
6020122254,0.143064,0.023863,0.023853,-0.325401,0.125217,0.936170
6020142283,0.142782,0.046666,0.023592,-0.328052,0.124773,0.937127
6020162312,0.119795,0.099872,0.030644,-0.326242,0.124487,0.937337
6020182341,0.180243,0.030617,-0.037008,-0.326692,0.125127,0.937427
6020202371,0.149162,0.008022,0.008740,-0.329853,0.125425,0.936465
6020222400,0.141263,-0.014858,-0.044121,-0.327208,0.124142,0.935127
6020242430,0.126019,0.091866,-0.007062,-0.327042,0.126497,0.937160
6020262459,0.078534,-0.288340,0.003703,-0.327468,0.125965,0.935139
6020282489,0.056720,0.054997,0.084088,-0.327121,0.126865,0.936614
6020302518,0.133209,0.145216,-0.015341,-0.325839,0.126771,0.935812
6020322547,-0.019793,-0.006125,0.038981,-0.326474,0.127411,0.936082
6020342577,-0.042182,0.016424,-0.067429,-0.326136,0.127490,0.937731
6020362607,-0.027177,-0.044364,-0.028755,-0.327214,0.125411,0.936051
6020382638,-0.019437,0.062614,0.091546,-0.327518,0.125129,0.937961
6020402667,-0.049631,0.069833,0.038161,-0.329140,0.125779,0.937484
6020422696,-0.072814,-0.112714,-0.013376,-0.326046,0.125127,0.936707
6020442726,0.110230,0.031004,-0.022028,-0.329305,0.125151,0.936106
6020462755,0.102071,0.046557,0.083911,-0.326512,0.124308,0.937148
6020482785,0.055942,-0.113394,-0.005863,-0.325945,0.124313,0.935697
6020502814,0.154803,-0.098533,-0.081670,-0.326132,0.126856,0.937178
6020522843,0.215920,0.152581,-0.000177,-0.326039,0.126674,0.936995
6020542897,0.130826,-0.128921,-0.043311,-0.327134,0.125225,0.936690
6020562901,0.009157,-0.089859,-0.043646,-0.327851,0.127232,0.936971
6020582930,0.016973,0.024461,0.016149,-0.323497,0.127203,0.937224
6020602960,-0.036459,-0.058928,-0.005968,-0.327586,0.126319,0.937058
6020622989,-0.081471,0.055411,-0.006941,-0.327219,0.126227,0.936789
6020643019,-0.059734,-0.180252,0.070857,-0.326871,0.126856,0.937987
6020663048,-0.027972,0.040317,-0.022106,-0.327005,0.126692,0.934880
6020683078,-0.006294,-0.157398,0.078108,-0.325337,0.125116,0.937814
6020703107,-0.050933,-0.027700,-0.021570,-0.326593,0.126038,0.937254
6020723136,-0.027885,0.025478,0.008280,-0.325966,0.125032,0.937346
6020743166,-0.073593,-0.042934,-0.029035,-0.326576,0.127770,0.936996
6020763195,-0.118596,0.071653,0.000319,-0.325193,0.126134,0.934904
6020783225,-0.065046,0.094058,0.015299,-0.326818,0.125206,0.939708
6020803256,0.056561,0.085485,0.015402,-0.326135,0.124765,0.936428
6020823285,0.117324,0.145963,0.052765,-0.327808,0.122308,0.937839
6020843314,0.154968,0.153081,0.060115,-0.324405,0.123393,0.935530
6020863344,0.100541,-0.044785,0.076701,-0.326658,0.126230,0.935703
6020883373,0.077724,-0.067484,0.000992,-0.326960,0.126039,0.937522
6020903403,0.092387,-0.028876,0.144574,-0.325687,0.124942,0.936893
6020923432,0.107946,0.001027,0.015263,-0.327290,0.127234,0.935976
6020943461,0.137715,0.016422,0.105950,-0.326826,0.126327,0.934879
6020963490,0.129894,0.031494,0.075320,-0.327049,0.126494,0.937616
6020983519,0.023555,0.046951,0.014326,-0.327656,0.127417,0.936245
6021003549,0.000158,-0.074591,0.037959,-0.327304,0.125685,0.936144
6021023578,-0.067360,0.077725,-0.039146,-0.326594,0.125856,0.937252
6021043608,-0.059853,0.016706,-0.023367,-0.327009,0.126055,0.934874
6021063637,-0.143451,-0.043774,-0.038020,-0.326327,0.125852,0.937622
6021083666,-0.021866,0.017010,0.120685,-0.327128,0.125046,0.936232
6021103696,0.030889,-0.196475,0.001029,-0.326324,0.124036,0.936601
6021123725,0.099914,-0.036812,-0.022983,-0.328060,0.124588,0.937582
6021143755,0.031590,0.032019,-0.031196,-0.324930,0.125675,0.935269
6021163784,0.145476,0.069564,0.006537,-0.326857,0.125134,0.936328
6021183813,0.213511,0.015420,-0.091351,-0.328394,0.126327,0.936497
6021203843,0.136341,-0.113364,-0.044704,-0.327054,0.124767,0.937143
6021223874,0.045798,0.054428,-0.106663,-0.326151,0.127757,0.938829
6021243903,0.045151,-0.067158,-0.082634,-0.326772,0.126585,0.937347
6021263933,0.006874,-0.104731,-0.074546,-0.325579,0.127037,0.936732
6021283962,0.091218,0.153712,-0.008364,-0.325207,0.127492,0.936377
6021303999,-0.023840,0.009724,0.076141,-0.327592,0.126862,0.937702
6021324021,0.014931,0.169185,0.082186,-0.325758,0.126312,0.936266
6021344051,-0.008807,-0.112700,-0.021621,-0.326018,0.125864,0.935253
6021364080,-0.046448,-0.089527,-0.059725,-0.326228,0.125037,0.936703
6021384108,-0.061182,0.063039,0.007346,-0.325687,0.125123,0.936986
6021404137,-0.098952,0.047748,-0.015329,-0.327181,0.125208,0.939702
6021424166,-0.137097,0.032946,0.083334,-0.328938,0.126240,0.936396
6021444196,-0.007506,0.047357,0.060258,-0.326985,0.125030,0.938699
6021464226,-0.152324,-0.088773,0.053665,-0.325762,0.126946,0.936819
6021484255,-0.067359,0.138839,0.021284,-0.327364,0.127877,0.935159
6021504284,-0.052876,-0.043781,0.068324,-0.329771,0.126058,0.937294
6021524314,-0.029377,0.070139,0.051990,-0.326979,0.122489,0.937124
6021544343,-0.022820,-0.119980,0.106530,-0.326872,0.125129,0.937332
6021564373,0.030511,-0.020746,0.219053,-0.324415,0.126751,0.937661
6021584402,-0.052514,-0.020890,0.029055,-0.328680,0.126324,0.937314
6021604432,0.008136,-0.051360,0.082359,-0.328573,0.127147,0.936684
6021624463,-0.007373,-0.012647,0.210626,-0.327836,0.124966,0.935033
6021644492,0.075854,0.147566,0.504090,-0.319317,0.123545,0.935341
6021664522,-0.042036,0.281201,-0.513432,-0.326634,0.133961,0.937692
6021684551,-0.247773,-0.206106,-0.848783,-0.335272,0.125254,0.940392
6021704581,-0.239880,-0.159579,-0.687963,-0.322045,0.129193,0.938179
6021724610,-0.299333,-0.151767,-0.875594,-0.326421,0.124126,0.937056
6021744639,-0.313739,-0.166785,-0.934009,-0.327299,0.123869,0.935031
6021764669,-0.456542,-0.120593,-1.106418,-0.322114,0.132324,0.932364
6021784697,-0.871913,-0.180321,-1.527355,-0.324832,0.130764,0.937144
6021804726,-0.960526,-0.118689,-1.531561,-0.327240,0.124493,0.937320
6021824755,-0.905483,-0.102712,-1.330940,-0.327089,0.121574,0.937935
6021844785,-0.684248,-0.216738,-1.084112,-0.329029,0.119757,0.939256
6021864814,-0.621996,0.005131,-0.734843,-0.325263,0.121385,0.937233
6021884844,-0.493192,-0.085394,-0.285358,-0.325571,0.116195,0.937180
6021904873,-0.135507,0.096910,0.115511,-0.331518,0.113489,0.938884
6021924903,0.091073,0.058699,0.524619,-0.327925,0.119392,0.938175
6021944932,0.241600,0.074118,0.879132,-0.325154,0.122572,0.936606
6021964962,0.263271,0.059258,1.043758,-0.326741,0.117296,0.936988
6021984991,0.663376,0.211328,1.751987,-0.327662,0.110268,0.940469
6022005021,1.281225,0.234317,2.869169,-0.328873,0.102451,0.938916
6022025050,2.273172,0.591594,4.328384,-0.324141,0.100212,0.942989
6022065110,4.126462,1.271556,5.733844,-0.308076,0.134620,0.929783
6022085140,2.797683,1.047402,2.618836,-0.313914,0.215134,0.921486
6022105169,-1.369525,0.183407,-2.842626,-0.326065,0.281554,0.915695
6022125200,-6.409700,-0.883622,-6.672652,-0.343748,0.262798,0.917516
6022145250,-10.016747,-1.426934,-8.686675,-0.315343,0.194916,0.922463
6022165257,-11.736144,-1.462653,-10.704048,-0.320322,0.139242,0.931179
6022185289,-12.596930,-1.441237,-12.486440,-0.315580,0.155697,0.931499
6022205315,-14.901516,-1.581107,-14.707939,-0.323829,0.191194,0.929320
6022225344,-17.859341,-1.878658,-17.315117,-0.328467,0.198249,0.927210
6022245374,-21.295614,-2.250656,-20.179693,-0.319838,0.189112,0.922792
6022265403,-25.056179,-2.264387,-23.403793,-0.312916,0.199434,0.926013
6022285433,-29.165295,-2.201046,-26.894083,-0.309980,0.199666,0.929988
6022305462,-33.857536,-2.060536,-30.991871,-0.306571,0.185391,0.937763
6022325492,-38.091782,-1.473342,-35.085602,-0.308661,0.150325,0.939505
6022345521,-42.021893,-1.078861,-39.420200,-0.295374,0.135595,0.936572
6022365550,-46.474026,-0.363226,-44.144432,-0.297066,0.136856,0.940847
6022385580,-51.395031,0.925584,-48.926785,-0.298264,0.116984,0.944660
6022405609,-55.990730,2.000310,-53.479713,-0.290929,0.084670,0.948680
6022425639,-60.320385,3.486434,-57.505219,-0.282212,0.058204,0.948212
6022445669,-64.716660,5.536679,-61.383862,-0.274999,0.031784,0.956940
6022465699,-68.733665,7.746337,-64.793556,-0.282920,-0.018878,0.952874
6022485728,-72.209450,10.326199,-68.175774,-0.262818,-0.052488,0.946864
6022505758,-76.629990,13.937206,-71.991707,-0.252739,-0.038287,0.953185
6022525787,-82.053345,17.560373,-76.035690,-0.254801,-0.055139,0.955552
6022545817,-86.824646,21.395935,-79.269852,-0.261655,-0.166298,0.937158
6022565846,-90.363731,25.736551,-82.029984,-0.241360,-0.210692,0.937168
6022585875,-93.740417,29.951307,-83.477280,-0.235143,-0.264813,0.933117
6022605904,-96.611870,33.961288,-83.906601,-0.245059,-0.324026,0.913419
6022625933,-98.370293,37.664310,-83.316818,-0.246862,-0.412654,0.884086
6022645962,-98.424179,41.012989,-81.290207,-0.253608,-0.494137,0.837302
6022665992,-96.744507,43.557590,-77.967056,-0.263277,-0.550774,0.797091
6022686021,-94.407570,45.781971,-73.761360,-0.257529,-0.584345,0.768390
6022706051,-92.470306,48.096836,-70.443726,-0.253078,-0.586098,0.767442
6022726080,-92.676796,51.186989,-68.574249,-0.237791,-0.584975,0.777378
6022746110,-94.576202,55.796799,-67.916321,-0.234234,-0.577633,0.779695
6022766139,-98.758095,60.901741,-68.484375,-0.218337,-0.574434,0.792216
6022786168,-103.932007,67.391365,-68.548950,-0.199222,-0.610500,0.755219
6022806198,-108.197975,73.422058,-67.843430,-0.202085,-0.682738,0.696533
6022826227,-110.604950,79.362640,-66.105103,-0.206020,-0.771148,0.600249
6022846258,-109.998436,83.710175,-62.524643,-0.224847,-0.828272,0.512503
6022866288,-108.139557,86.646980,-57.726173,-0.228964,-0.859844,0.447874
6022886317,-105.782654,88.805374,-52.738972,-0.247780,-0.885459,0.408622
6022906347,-103.629585,89.511215,-47.686584,-0.234862,-0.903838,0.375340
6022926376,-101.508255,89.889908,-42.631470,-0.257513,-0.925009,0.327851
6022946406,-98.690521,89.488434,-37.599796,-0.264450,-0.950206,0.266430
6022966435,-95.077576,88.206902,-32.711994,-0.278972,-0.966710,0.206335
6022986465,-91.048523,86.290878,-27.977886,-0.288071,-0.970844,0.159224
6023006492,-87.114548,83.324463,-23.379066,-0.278162,-0.980998,0.124690
6023026522,-83.018776,80.576683,-19.153522,-0.299441,-0.992239,0.075216
6023046551,-78.151886,76.407616,-15.347857,-0.283657,-0.992197,0.035395
6023066581,-72.868744,71.573318,-11.779029,-0.293995,-0.993973,-0.024405
6023086610,-66.001762,65.161369,-8.575295,-0.291071,-0.983826,-0.096659
6023106640,-57.855862,60.972759,-5.419940,-0.265267,-0.987159,-0.099466
6023126669,-55.491501,64.384537,-3.453349,-0.266167,-0.962902,0.085614
6023146698,-61.110909,69.245544,-1.859145,-0.291969,-0.948442,0.227199
6023166728,-70.547302,74.020073,-0.303972,-0.255782,-0.950042,0.228868
6023186758,-79.862411,81.431206,2.305782,-0.263242,-0.952079,0.100916
6023206787,-84.792671,85.320740,5.834332,-0.241772,-0.956816,-0.032068
6023226816,-86.894371,87.857559,9.944265,-0.241931,-0.965556,-0.095692
6023246846,-88.854103,89.501884,13.705404,-0.254154,-0.968886,-0.105142
6023266877,-92.658348,91.741447,17.278679,-0.251737,-0.969005,-0.103004
6023286906,-97.698273,93.433670,21.379120,-0.253829,-0.962399,-0.140499
6023306936,-102.488480,95.393288,26.167408,-0.243714,-0.950119,-0.195545
6023326965,-106.889099,96.622978,31.811211,-0.244638,-0.938666,-0.253334
6023346996,-110.297043,97.208725,37.665615,-0.239906,-0.925512,-0.312111
6023367024,-114.245789,98.172867,44.282375,-0.234623,-0.906420,-0.374385
6023387053,-116.754738,97.934235,50.872025,-0.228774,-0.882681,-0.453405
6023407083,-118.498627,97.044777,57.528156,-0.234296,-0.851985,-0.510361
6023427111,-119.667648,95.253357,63.972260,-0.233806,-0.824987,-0.564423
6023447140,-120.671753,92.920769,70.458900,-0.222187,-0.785500,-0.616271
6023467170,-121.435829,89.764763,76.922234,-0.231318,-0.760201,-0.665484
6023487199,-121.805099,86.217407,83.070610,-0.215066,-0.720900,-0.705939
6023507229,-122.349251,82.976715,89.603012,-0.205024,-0.679930,-0.760721
6023527258,-122.783157,79.051445,96.444489,-0.193435,-0.635286,-0.790795
6023547287,-123.672157,74.921059,102.696075,-0.197380,-0.617360,-0.814977
6023567317,-126.115372,70.144882,109.119133,-0.188364,-0.593650,-0.829309
6023587347,-130.021057,65.119308,116.036423,-0.200229,-0.561409,-0.863074
6023607376,-133.382843,58.779800,122.411499,-0.214382,-0.487873,-0.900237
6023627406,-135.354248,51.256817,127.629547,-0.191216,-0.405470,-0.951136
6023647435,-136.029984,43.234543,131.275345,-0.183567,-0.307377,-0.989635
6023667466,-134.855270,34.549782,133.229187,-0.183183,-0.206069,-1.009050
6023687495,-132.245728,25.958849,133.651352,-0.182748,-0.128589,-1.019282
6023707525,-129.123459,17.002573,132.621078,-0.194452,-0.051000,-1.019576
6023727554,-125.956757,9.109575,130.952591,-0.188276,-0.014779,-1.020784
6023747583,-123.809090,1.612048,129.841354,-0.183096,0.029831,-1.006684
6023767613,-121.947105,-5.711468,127.962715,-0.192690,0.076971,-1.004669
6023787642,-120.373909,-13.064156,126.008385,-0.186806,0.136535,-0.994072
6023807671,-117.899017,-19.929434,123.284576,-0.200455,0.223230,-0.976055
6023827699,-114.190903,-25.763437,119.066628,-0.205449,0.297608,-0.948151
6023847729,-109.908890,-31.168549,114.269104,-0.202163,0.362699,-0.913991
6023867758,-104.751923,-35.440166,108.385857,-0.222692,0.427086,-0.889901
6023887788,-99.164581,-38.946789,102.049011,-0.217385,0.463307,-0.858714
6023907817,-94.022461,-41.628975,95.712631,-0.226117,0.501693,-0.840242
6023927847,-88.709877,-43.413410,89.512848,-0.224601,0.535799,-0.817261
6023947876,-83.612503,-44.575329,82.481300,-0.220089,0.563029,-0.774028
6023967905,-76.922096,-44.098927,73.958237,-0.231769,0.665647,-0.723787
6023987935,-72.297760,-45.906101,71.238510,-0.232950,0.517400,-0.808346
6024007964,-75.571602,-49.675117,70.260147,-0.256602,0.426639,-0.933730
6024027994,-84.877159,-57.162029,74.647896,-0.282223,0.423655,-0.957180
6024048023,-93.512810,-62.872669,76.367317,-0.265917,0.493790,-0.911441
6024068054,-100.524826,-69.154167,76.120972,-0.191042,0.566363,-0.830401
6024088084,-103.865692,-74.987877,74.477524,-0.211292,0.674112,-0.728945
6024108113,-104.377151,-79.630142,71.680542,-0.218822,0.730807,-0.680340
6024128143,-105.246315,-82.795090,68.507050,-0.201226,0.742195,-0.668263
6024148172,-107.277687,-85.909081,65.074768,-0.189915,0.756580,-0.647679
6024168201,-109.981171,-90.078842,61.256767,-0.200235,0.787409,-0.612322
6024188231,-112.009506,-93.639267,56.357311,-0.206302,0.809475,-0.562644
6024208260,-113.862511,-97.101730,51.434368,-0.204668,0.833816,-0.505060
6024228292,-115.224953,-99.775925,46.285160,-0.212613,0.861446,-0.454631
6024248318,-116.366180,-102.681351,40.630001,-0.199273,0.894979,-0.392480
6024268348,-116.709335,-105.575455,35.066120,-0.205904,0.929023,-0.318690
6024288377,-116.115608,-107.933609,29.649836,-0.195310,0.949176,-0.255339
6024308406,-115.302856,-110.742386,24.123705,-0.188292,0.963749,-0.215560
6024328435,-115.575462,-113.272156,18.367247,-0.171043,0.980712,-0.190382
6024348465,-116.502617,-116.202843,12.325718,-0.162392,0.986099,-0.154679
6024368494,-118.438705,-118.885910,5.894933,-0.163290,0.982511,-0.116200
6024388524,-121.149239,-121.420731,-0.681530,-0.155311,1.000073,-0.090163
6024408553,-124.204880,-123.377548,-7.945403,-0.165374,0.993492,-0.012605
6024428583,-125.859467,-124.671310,-15.024612,-0.142924,0.985184,0.092579
6024448612,-125.338074,-124.052147,-22.497940,-0.147676,0.955697,0.203425
6024468642,-123.328018,-121.849586,-29.854942,-0.138569,0.931684,0.266435
6024488673,-121.870499,-118.584198,-36.652477,-0.143075,0.933387,0.323254
6024508702,-120.077881,-114.648567,-42.803421,-0.157897,0.899692,0.385146
6024528731,-118.171509,-110.231697,-48.268379,-0.152613,0.871042,0.434996
6024548761,-115.917870,-106.020500,-53.231018,-0.162481,0.839583,0.482931
6024568790,-113.694962,-101.908188,-58.223171,-0.164868,0.804060,0.532592
6024588820,-111.396507,-97.688782,-62.935654,-0.175179,0.770303,0.584606
6024608849,-108.658005,-92.920425,-66.689598,-0.185864,0.733455,0.635947
6024628878,-105.644867,-87.298409,-69.669624,-0.185613,0.696316,0.678698
6024648906,-102.777611,-81.704750,-72.255211,-0.189725,0.660508,0.716552
6024668936,-99.211731,-75.655312,-74.017830,-0.203347,0.612435,0.758977
6024688965,-95.283447,-69.459976,-74.826172,-0.202561,0.566237,0.792432
6024708995,-90.940041,-63.424259,-74.912659,-0.215342,0.508992,0.829217
6024729024,-85.923401,-57.144012,-73.651253,-0.223064,0.466014,0.850787
6024749054,-80.970383,-50.944641,-71.638580,-0.236298,0.438657,0.854518
6024769083,-76.853149,-46.285374,-71.698456,-0.230733,0.394403,0.861868
6024789113,-72.606857,-44.301800,-74.996109,-0.278606,0.437284,0.853909
6024809142,-73.645515,-43.275311,-79.236053,-0.252045,0.581317,0.805370
6024829171,-79.960091,-41.839264,-83.171120,-0.229034,0.620184,0.785380
6024849201,-86.963547,-40.127457,-87.677483,-0.226681,0.570271,0.798194
6024869231,-92.329704,-37.525108,-91.879669,-0.211389,0.438027,0.857930
6024889262,-94.416771,-34.055752,-95.662949,-0.190176,0.314237,0.914463
6024909291,-94.514297,-30.128201,-98.129852,-0.221257,0.265918,0.923644
6024929320,-95.031502,-26.212172,-100.157074,-0.228362,0.249386,0.923467
6024949349,-95.703278,-21.895300,-100.929100,-0.235158,0.185570,0.940295
6024969379,-95.659615,-16.803366,-100.971832,-0.247751,0.120590,0.944054
6024989408,-95.017975,-12.078759,-100.654831,-0.251764,0.073960,0.947392
6025009438,-94.478241,-7.885535,-100.068054,-0.238155,0.034128,0.953179
6025029467,-93.730438,-3.069490,-99.554634,-0.241639,-0.017815,0.960949
6025049495,-92.534370,1.186525,-99.635277,-0.239160,-0.059836,0.963431
6025069525,-92.323242,5.620025,-100.551926,-0.229675,-0.058607,0.961223
6025089554,-93.545029,10.102865,-102.637329,-0.233470,-0.082116,0.966878
6025109584,-95.130486,15.320102,-104.205902,-0.216311,-0.116664,0.968663
6025129613,-97.285027,21.020721,-105.528610,-0.208582,-0.152717,0.957409
6025149643,-99.676521,26.639809,-106.570198,-0.206997,-0.198237,0.951536
6025169672,-101.706657,32.252983,-106.534904,-0.201546,-0.277408,0.932907
6025189702,-102.570366,37.375332,-105.751884,-0.199622,-0.365819,0.909206
6025209731,-101.690697,42.310425,-103.578918,-0.218424,-0.453920,0.869834
6025229760,-99.494484,46.687065,-100.157166,-0.218233,-0.508336,0.844593
6025249790,-96.916222,50.287876,-95.962914,-0.222226,-0.541947,0.817559
6025269819,-94.734077,53.929775,-91.488670,-0.246322,-0.572996,0.794240
6025289850,-92.584145,56.901062,-87.296921,-0.251494,-0.608384,0.760597
6025309880,-90.503601,59.529758,-83.231224,-0.251986,-0.638217,0.737855
6025329909,-88.750343,61.992378,-79.270454,-0.262965,-0.661519,0.715277
6025349939,-87.224304,64.447670,-75.582672,-0.246601,-0.680259,0.693733
6025369968,-86.185822,66.753662,-71.787735,-0.252616,-0.705635,0.677880
6025389997,-85.291519,68.999001,-68.151573,-0.254975,-0.734772,0.647080
6025410027,-84.270424,70.764648,-64.359695,-0.257777,-0.767923,0.602177
6025430056,-82.634369,72.451477,-60.400032,-0.260130,-0.803929,0.562093
6025450092,-80.536270,73.786057,-56.338627,-0.260160,-0.823997,0.520003
6025470114,-78.366127,74.268234,-52.125980,-0.275025,-0.847779,0.490236
6025490143,-75.998718,74.283562,-48.356647,-0.295269,-0.862566,0.454348
6025510173,-73.190750,72.569664,-44.292057,-0.320075,-0.914504,0.373948
6025530202,-64.301544,65.566505,-37.147266,-0.357291,-1.037681,0.119776
6025550232,-49.670036,55.657127,-29.565865,-0.316147,-1.019565,0.156034
6025570261,-39.322990,45.782040,-23.063480,-0.341902,-0.999064,0.198348
6025590290,-31.730413,40.432941,-19.549871,-0.339706,-0.930420,0.280727
6025610320,-28.047047,35.831879,-17.052853,-0.346117,-0.905064,0.313267
6025630349,-25.344919,33.957306,-15.671028,-0.341358,-0.892054,0.310908
6025650379,-23.874454,33.740108,-14.561504,-0.304386,-0.879715,0.326778
6025670408,-23.549341,35.391094,-14.279508,-0.290873,-0.893021,0.344950
6025690438,-23.523151,36.381153,-14.083091,-0.339993,-0.916759,0.328595
6025710468,-23.034519,34.221268,-12.753015,-0.295310,-0.918588,0.297717
6025730498,-21.258503,31.050854,-11.110545,-0.336032,-0.926080,0.250882
6025750527,-18.095751,26.723642,-9.488022,-0.366269,-0.927772,0.198064
6025770557,-13.638122,21.401255,-7.500158,-0.363851,-0.932423,0.180623
6025790586,-8.996069,16.328133,-5.794835,-0.360783,-0.930087,0.182886
6025810616,-5.116359,12.376965,-4.395003,-0.334384,-0.928394,0.208254
6025830645,-2.840008,10.183634,-3.404976,-0.325415,-0.920845,0.247817
6025850675,-1.873208,9.000292,-2.924482,-0.327978,-0.910342,0.277178
6025870702,-2.089756,8.271412,-2.713750,-0.330215,-0.903694,0.295553
6025890732,-2.763504,7.301405,-2.493632,-0.336750,-0.900984,0.290816
6025910761,-3.027048,6.291373,-2.212323,-0.336663,-0.907427,0.270673
6025950820,-1.140512,3.467808,-1.376417,-0.333977,-0.920008,0.238282
6025970849,0.455425,1.962058,-0.710941,-0.327957,-0.918672,0.237114
6025990879,1.119267,1.008439,-0.300761,-0.330739,-0.902243,0.265796
6026030938,-2.488244,1.971357,-0.318172,-0.329127,-0.873923,0.344049
6026050967,-5.540762,4.207695,-1.058726,-0.330031,-0.878970,0.335680
6026070997,-8.523371,6.793746,-1.817347,-0.320001,-0.877232,0.339511
6026091026,-11.624069,8.520844,-2.409588,-0.326894,-0.880458,0.337634
6026111057,-14.703080,9.943237,-3.037171,-0.330039,-0.887900,0.320534
6026131086,-16.927620,10.540373,-3.263141,-0.332801,-0.897870,0.283514
6026151116,-17.643269,10.300566,-3.269056,-0.334383,-0.905088,0.241974
6026171146,-17.065680,8.708029,-2.853553,-0.345017,-0.923392,0.205388
6026191175,-15.134824,5.518670,-2.075212,-0.351657,-0.934964,0.166008
6026211205,-12.028307,0.101818,-0.883328,-0.364031,-0.947051,0.127352
6026231234,-7.756751,-6.270697,0.900965,-0.322388,-0.937852,0.098443
6026251263,-2.738905,-7.665222,1.551997,-0.316369,-0.945874,0.093080
6026271303,0.826852,-2.769701,0.708913,-0.264614,-0.927269,0.159369
6026291321,3.382856,2.702953,0.133450,-0.336249,-0.962338,0.126201
6026311350,1.422327,7.129951,0.656408,-0.175077,-0.854243,0.586929
6026331380,-28.192343,30.705578,-6.993914,-0.410258,-0.637634,1.153049
6026351409,-60.673752,38.544876,-10.896826,-0.280256,-0.758951,0.697023
6026371438,-85.116943,57.368446,-15.600798,-0.075683,-0.863354,0.386152
6026391468,-102.000862,71.297112,-13.049427,-0.108179,-0.930634,0.273806
6026411497,-117.041100,80.007355,-11.150904,-0.269104,-0.921794,0.304138
6026431527,-133.990311,87.681320,-8.046629,-0.263134,-0.930860,0.400375
6026451556,-154.222855,96.265793,-4.185794,-0.249946,-0.947101,0.280936
6026471586,-171.063843,107.873734,3.230052,-0.188663,-0.956841,0.229895
6026491615,-177.672379,123.915329,16.520082,-0.166183,-1.001907,0.217611
6026511645,-178.271576,139.211395,32.624657,-0.150591,-1.020620,0.129136
6026531676,-185.233414,152.476624,50.479511,-0.093204,-1.044456,-0.016039
6026551705,-198.033813,162.141998,70.613655,-0.049313,-1.065380,-0.161955
6026571734,-209.936188,167.445297,92.020744,-0.044024,-1.055439,-0.374218
6026591764,-219.875641,169.144760,115.506210,-0.031367,-1.057070,-0.499556
6026611793,-230.798233,166.067383,140.714554,0.046599,-1.020616,-0.586416
6026631823,-237.836304,155.411041,163.698578,0.054638,-0.819468,-0.836030
6026651852,-237.671616,141.022095,183.601196,0.069658,-0.629476,-0.991055
6026671882,-233.904984,121.196777,197.394547,0.021603,-0.512392,-1.087524
6026691910,-229.787018,98.448059,204.798126,0.018975,-0.386475,-1.106487
6026711939,-224.509354,73.617683,208.413544,0.041416,-0.278641,-1.128496
6026731969,-220.892685,51.398388,214.007904,0.022459,-0.245438,-1.132057
6026751998,-223.548904,29.342930,224.503479,0.026627,-0.335111,-1.160481
6026772027,-233.185349,6.354698,238.627747,0.094671,-0.351519,-1.199788
6026792057,-246.176056,-20.810402,252.595917,0.118141,-0.227795,-1.245643
6026812086,-256.457153,-51.394333,259.163635,0.173546,0.044194,-1.211279
6026832116,-259.799042,-84.382423,256.618469,0.231906,0.325610,-1.140809
6026852145,-256.816040,-114.530060,244.013794,0.215004,0.574567,-1.015443
6026872175,-249.006134,-140.476074,223.111664,0.268108,0.713294,-0.899728
6026892204,-240.312210,-162.661087,199.297180,0.198712,0.878016,-0.753079
6026912233,-229.430115,-179.315140,173.549347,0.173590,0.876517,-0.703107
6026932264,-223.613312,-193.280823,149.308121,0.221779,0.854105,-0.659623
6026952294,-220.353516,-205.021637,126.214592,0.176775,0.959064,-0.584706
6026972323,-215.033722,-212.577087,101.502266,0.194342,1.024156,-0.267120
6026992353,-201.373474,-213.053482,76.363007,0.101717,1.055078,0.044981
6027012382,-158.543686,-186.915878,48.277252,-0.109000,1.264413,0.960174
6027032412,-140.890076,-187.743271,35.994556,0.251160,0.991083,-0.263672
6027052441,-144.818359,-185.104187,20.055645,-0.152597,1.002164,-0.234070
6027072470,-147.526917,-184.194336,7.915319,-0.095643,0.959935,-0.191084
6027092502,-151.910950,-192.108124,-7.343798,0.018212,1.034122,-0.053067
6027112528,-152.521042,-192.699997,-23.640661,0.005847,1.038648,0.153737
6027132557,-143.794983,-178.888016,-35.853458,0.001523,0.880298,0.574527
6027152586,-123.317848,-154.679276,-41.149586,-0.004132,0.756150,0.863236
6027172616,-101.922821,-130.167389,-43.134430,-0.116744,0.725876,0.816849
6027192645,-81.966095,-108.527763,-41.350292,-0.267945,0.651169,0.808680
6027212675,-63.748055,-90.847961,-38.275116,-0.278623,0.666723,0.761086
6027232704,-49.468468,-76.181381,-34.297020,-0.284887,0.696566,0.710592
6027252734,-36.328495,-61.960442,-28.822056,-0.301923,0.667491,0.747750
6027272763,-23.601028,-46.672909,-21.445555,-0.321880,0.703273,0.693072
6027292793,-14.201504,-35.092056,-14.706766,-0.332833,0.714965,0.620606
6027312822,-6.491944,-24.952358,-9.116756,-0.305359,0.668274,0.694843
6027332851,6.534285,-11.755240,-2.693070,-0.259881,0.577749,0.863729
6027352882,23.542446,3.402380,4.481875,-0.231952,0.579797,0.826133
6027372912,38.068497,15.335955,8.740831,-0.231206,0.642454,0.748486
6027392941,50.211216,26.162252,12.712229,-0.281483,0.721918,0.701752
6027412971,60.368145,36.862915,16.941515,-0.271936,0.765350,0.615763
6027433001,69.873405,49.490837,20.578060,-0.222697,0.718354,0.656480
6027453030,84.714554,67.954086,24.956730,-0.228419,0.671317,0.763314
6027473059,102.049286,85.548241,28.335484,-0.264523,0.724169,0.703875
6027493089,115.723114,100.108376,29.122114,-0.183731,0.831688,0.532085
6027513117,126.004730,110.866096,25.594482,-0.072179,0.911357,0.465160
6027533146,136.931473,126.505341,21.518173,-0.145887,0.940556,0.425250
6027553175,148.041336,142.570862,15.467022,-0.069180,0.949690,0.354367
6027573205,161.072113,159.026154,6.100147,0.003295,0.924634,0.387905
6027593234,177.784897,174.335983,-7.615044,0.047462,0.967540,0.387103
6027613264,196.004578,186.938202,-25.112989,0.093268,1.007795,0.291631
6027633293,213.514023,195.611038,-46.490650,0.169320,1.037722,0.138309
6027653323,229.302383,200.871597,-71.244865,0.226923,1.069251,-0.082946
6027673352,240.708954,198.667679,-97.568695,0.236476,1.020156,-0.345076
6027693382,246.771530,187.556686,-121.348541,0.199892,0.967784,-0.636743
6027713411,246.252655,172.885864,-141.166534,0.171829,0.777091,-0.897142
6027733441,239.947586,153.790344,-157.166748,0.143611,0.626184,-1.059765
6027753470,234.932098,135.424789,-171.367889,0.068451,0.709075,-0.900820
6027773501,244.318817,118.929550,-188.436249,0.109774,0.860501,-0.763268
6027793530,263.009125,101.217773,-210.827698,0.224737,0.862708,-0.874401
6027813560,284.529236,80.516304,-235.035126,0.270013,0.766608,-1.032584
6027833589,302.778381,52.542744,-256.172974,0.326146,0.489714,-1.188793
6027853618,315.297211,18.444956,-269.490479,0.355080,0.174503,-1.242545
6027873648,321.790192,-19.643902,-272.640137,0.342813,-0.118266,-1.258142
6027893677,322.819916,-59.777824,-265.516693,0.275250,-0.386151,-1.232961
6027913707,318.819244,-96.945007,-251.005264,0.241732,-0.644112,-1.133459
6027933735,309.231934,-129.566727,-229.081482,0.229090,-0.782104,-0.979194
6027953764,302.090179,-157.284332,-204.938232,0.200650,-0.862908,-0.915402
6027973794,296.088013,-179.794495,-178.707565,0.207382,-0.925871,-0.840101
6027993823,291.976715,-199.920044,-151.131241,0.187595,-1.016642,-0.747686
6028013852,288.587769,-217.053421,-122.199760,0.187571,-1.064984,-0.657479
6028033882,285.717987,-228.176590,-91.112076,0.241684,-1.124012,-0.463237
6028053911,277.302551,-227.374786,-58.254433,0.191596,-1.198111,-0.102848
6028073941,265.484314,-222.798187,-30.980234,0.058219,-1.165557,-0.075957
6028093971,261.267883,-221.325638,-4.836355,0.165999,-1.116678,-0.107075
6028114000,259.428253,-214.596649,21.795284,0.182359,-1.163855,0.015910
6028134030,255.335938,-203.451370,45.302837,0.190438,-1.099653,0.324386
6028154059,245.517929,-185.641251,63.368355,0.066689,-0.981074,0.459865
6028174090,234.356949,-164.464233,75.521240,0.095551,-0.889760,0.641484
6028194119,219.435516,-143.209305,84.532661,0.141628,-0.660888,0.864367
6028214149,195.363403,-115.420845,84.409012,0.077430,-0.376743,1.098478
6028234178,164.433594,-89.774818,76.945389,-0.091314,-0.236166,1.148525
6028254207,136.117462,-71.073082,68.381271,-0.201636,-0.253321,1.083398
6028274237,111.310127,-58.332333,60.543716,-0.176539,-0.222998,1.042274
6028294266,88.302742,-47.372288,53.419529,-0.220825,-0.162656,1.050968
6028314296,70.292747,-37.671600,44.094360,-0.275730,-0.341881,0.962510
6028334325,57.333252,-31.072264,34.941730,-0.385970,-0.296341,0.955480
6028354353,48.869541,-21.648457,23.955437,-0.262021,-0.207868,0.959225
6028374383,32.857922,-10.604472,12.057200,-0.221786,0.006736,1.072878
6028394412,11.654580,1.421091,-3.604932,-0.273412,-0.015181,1.043443
6028414442,-4.355172,9.482462,-15.136929,-0.364680,-0.308179,0.900666
6028434471,-10.410634,11.932973,-20.308683,-0.383180,-0.470474,0.790864
6028454501,-11.970215,12.721742,-21.354811,-0.278156,-0.547272,0.774697
6028474530,-10.973504,13.816377,-20.218622,-0.254332,-0.633234,0.744984
6028494559,-8.249404,13.050838,-17.215942,-0.306811,-0.645720,0.739542
6028514589,-5.851286,10.856856,-13.958801,-0.324518,-0.616109,0.741537
6028534618,-4.699180,9.486311,-12.263508,-0.334349,-0.582071,0.741144
6028554648,-4.879039,9.721545,-12.765989,-0.338157,-0.533589,0.756959
6028574677,-6.806878,10.935921,-14.589242,-0.346357,-0.514892,0.761472
6028594708,-9.320168,13.062873,-17.588085,-0.339615,-0.496095,0.780106
6028614737,-12.333957,14.556866,-19.459702,-0.321241,-0.529514,0.774435
6028634767,-13.629280,15.407266,-19.869320,-0.322712,-0.592527,0.741236
6028654797,-12.928457,13.988374,-17.415628,-0.316002,-0.644504,0.712381
6028674826,-10.260118,11.406700,-13.578861,-0.316973,-0.688162,0.702467
6028694855,-6.706684,8.136976,-9.235468,-0.315939,-0.709074,0.679102
6028714885,-2.458351,5.242652,-5.342237,-0.332052,-0.701258,0.667957
6028734915,1.192407,2.463020,-2.238795,-0.361482,-0.655499,0.677944
6028754964,2.612125,1.074234,-1.020892,-0.344731,-0.599236,0.712150
6028774972,2.468167,1.013340,-1.247913,-0.346712,-0.595617,0.718542
6028795001,2.202344,0.899810,-1.474552,-0.343394,-0.581151,0.733611
6028815030,0.896344,0.981418,-1.900467,-0.320758,-0.564177,0.751025
6028835060,-0.717705,1.741174,-2.605181,-0.317410,-0.578011,0.745474
6028855089,-1.599067,1.966909,-2.508935,-0.314188,-0.600851,0.738103
6028875119,-1.737821,1.900793,-2.015610,-0.321432,-0.615153,0.730367
6028895148,-1.270215,1.458852,-1.412686,-0.336281,-0.624007,0.717993
6028915178,-0.477566,0.482073,-0.896100,-0.341516,-0.630289,0.707351
6028935207,0.437187,-0.090716,-0.018906,-0.339716,-0.624094,0.705337
6028955237,1.253799,-0.816567,0.457675,-0.333098,-0.610363,0.717988
6028975266,1.262044,-0.610893,0.516608,-0.320514,-0.597951,0.731727
6028995296,0.708369,-0.311236,0.475914,-0.322653,-0.590598,0.738334
6029015326,0.055706,-0.194343,0.254736,-0.324763,-0.587777,0.740973
6029035356,-0.809678,-0.000055,0.078298,-0.326876,-0.596006,0.733011
6029055386,-1.175904,-0.164961,0.261476,-0.331081,-0.605315,0.724823
6029075415,-1.032052,-0.233897,0.360692,-0.333784,-0.610923,0.720984
6029095444,-0.836420,-0.538583,0.605972,-0.333506,-0.610196,0.720904
6029115474,-0.625059,-0.752166,0.805002,-0.329227,-0.609763,0.720339
6029135503,-0.383758,-0.934851,1.185758,-0.330726,-0.611282,0.716831
6029155533,-0.036803,-1.407743,1.447689,-0.328764,-0.617213,0.716443
6029175561,0.517496,-1.402303,1.675374,-0.329681,-0.624842,0.713527
6029195590,1.436468,-1.635467,1.692941,-0.326838,-0.632786,0.713957
6029215620,2.456118,-1.328358,1.819751,-0.321990,-0.634653,0.716574
6029235649,3.178192,-1.400763,1.797962,-0.323459,-0.621353,0.717860
6029255679,3.732553,-1.410674,1.987866,-0.335636,-0.605894,0.719723
6029275708,3.745914,-1.806320,2.059433,-0.340181,-0.594422,0.725324
6029295737,3.524026,-2.117094,2.099846,-0.328580,-0.586267,0.736086
6029315767,2.946308,-2.075925,2.114385,-0.322081,-0.589444,0.742918
6029335796,2.498724,-1.776474,2.179893,-0.321370,-0.594814,0.741420
6029355826,2.345743,-1.897017,2.309727,-0.329023,-0.599013,0.735414
6029375856,2.292916,-1.813060,2.293832,-0.332216,-0.595331,0.732292
6029395885,2.263981,-1.592755,2.117580,-0.330656,-0.588794,0.734204
6029415914,1.930592,-1.477502,1.911734,-0.329020,-0.581808,0.737216
6029435945,1.295397,-0.973197,1.482595,-0.326115,-0.580406,0.743667
6029455974,0.810653,-0.850218,1.071894,-0.323970,-0.585065,0.743750
6029476004,0.326395,-0.498435,0.795750,-0.324721,-0.589760,0.737395
6029496033,0.159940,-0.483093,0.568077,-0.326582,-0.591458,0.733697
6029516063,0.168073,-0.445460,0.454034,-0.328068,-0.592369,0.735399
