Timestamp (us),Gyroscope X (deg/s),Gyroscope Y (deg/s),Gyroscope Z (deg/s),Accelerometer X (g),Accelerometer Y (g),Accelerometer Z (g)
7341785002,-0.238108,0.024338,0.063884,0.990929,0.001234,-0.112020
7341805048,-0.306901,0.062239,0.026806,0.987224,0.001778,-0.109870
7341825094,-0.291276,-0.036958,0.003906,0.986386,0.002503,-0.110674
7341845140,-0.167849,-0.120461,0.039877,0.990126,-0.001404,-0.111185
7341865186,-0.153132,-0.036533,-0.021815,0.995158,0.001416,-0.115451
7341885233,0.009852,-0.058933,0.104925,0.993796,0.000232,-0.115063
7341905279,0.030122,0.009342,-0.048572,0.991540,0.000868,-0.113573
7341925325,0.104991,-0.013735,-0.126216,0.992820,0.001234,-0.113505
7341945371,0.106229,-0.028673,-0.041925,0.993927,0.002601,-0.112800
7341965417,0.261247,0.055459,0.099971,0.992290,0.002873,-0.112409
7341985463,0.145160,0.062862,0.048526,0.989464,0.003415,-0.112090
7342005508,-0.032011,-0.036517,-0.008978,0.988048,0.004145,-0.109616
7342025554,-0.001493,-0.158205,-0.016744,0.989952,0.004419,-0.110375
7342045599,-0.024473,-0.256789,-0.015892,0.995464,0.001064,-0.108920
7342065645,0.135441,-0.004901,-0.050345,0.996258,0.003883,-0.110209
7342085691,-0.152515,-0.012322,0.092790,0.995366,0.004793,-0.109015
7342105737,-0.351515,0.094146,0.042636,0.992737,0.004337,-0.107971
7342125782,-0.104572,0.078892,0.129423,0.990158,0.002238,-0.109285
7342145829,-0.296786,0.124296,0.056305,0.993588,0.002603,-0.111432
7342165874,-0.014582,0.078122,-0.017789,0.991508,0.001601,-0.110397
7342185920,-0.114486,-0.036297,-0.045969,0.990605,0.001055,-0.109836
7342205967,-0.242013,0.032448,0.063244,0.987927,0.001776,-0.111334
7342226012,-0.387186,-0.036221,0.027938,0.992773,0.001238,-0.111144
7342246058,-0.141090,0.085873,0.068546,0.992856,0.002420,-0.111510
7342266105,-0.127093,0.047344,-0.023376,0.992702,0.004871,-0.114689
7342286151,-0.370798,0.047144,-0.003343,0.991448,0.004325,-0.113396
7342306197,-0.239557,-0.028953,0.032585,0.989863,0.002327,-0.110370
7342326243,-0.322655,-0.082210,0.041956,0.990417,-0.000128,-0.110194
7342346289,-0.162877,-0.196266,-0.029547,0.992650,-0.001313,-0.112953
7342366335,-0.091684,-0.066034,0.083269,0.993769,0.002694,-0.111526
7342386380,0.021704,-0.050857,0.004378,0.991331,0.003785,-0.109943
7342406426,-0.183626,-0.065864,0.054249,0.991040,0.003328,-0.110845
7342426471,-0.266734,-0.042827,0.078485,0.995680,0.005426,-0.111745
7342446517,-0.167445,0.109499,0.037790,0.996983,0.001336,-0.110671
7342466563,-0.227502,0.208270,0.069027,0.994151,0.001059,-0.110713
7342486608,-0.243710,0.146527,-0.014603,0.990544,0.001695,-0.108202
7342506654,-0.029822,0.001533,-0.041054,0.988547,0.000419,-0.107621
7342526700,0.032560,0.055018,0.018719,0.989837,-0.000852,-0.107096
7342546746,0.031916,0.016668,-0.011789,0.990517,0.002693,-0.109565
7342566792,0.099278,-0.090036,-0.073720,0.990454,0.003514,-0.108022
7342586838,-0.059693,-0.104896,0.013529,0.991699,0.002785,-0.109857
7342606884,0.022902,-0.165588,-0.064266,0.993159,0.000877,-0.110060
7342626930,0.115803,-0.073652,0.002531,0.995890,0.002062,-0.110472
7342646977,-0.005591,0.025596,0.065660,0.996194,0.003885,-0.108756
7342667023,-0.105729,0.048185,0.013842,0.993699,0.003333,-0.110346
7342687069,0.077620,0.070884,-0.005014,0.990697,0.001055,-0.109837
7342707115,-0.021284,0.078391,0.027371,0.990713,-0.002400,-0.109196
7342727161,0.032464,0.116329,0.041382,0.989508,-0.002222,-0.110084
7342747207,0.375651,0.024661,0.019713,0.990673,0.001235,-0.111108
7342767253,0.268630,-0.089494,0.067934,0.991051,0.001874,-0.110389
7342787298,0.205117,-0.005678,-0.022957,0.990907,0.003961,-0.113023
7342807343,0.051565,-0.051439,-0.042620,0.992032,0.004056,-0.111499
7342827389,0.121093,-0.081616,0.017185,0.992415,0.003240,-0.110596
7342847435,0.036608,-0.005382,-0.004263,0.991508,0.002511,-0.110307
7342867481,0.099176,-0.005116,0.086037,0.990942,0.002145,-0.111296
7342887526,-0.070616,0.025031,0.005079,0.988603,0.001417,-0.109439
7342907572,-0.040153,-0.127176,-0.002663,0.991694,0.001238,-0.110218
7342927618,-0.093298,-0.081239,-0.001720,0.993431,0.004152,-0.109980
7342947664,0.052580,0.048400,0.025555,0.991350,0.003423,-0.108944
7342967710,-0.086398,-0.058502,-0.047858,0.991467,0.001598,-0.112575
7342987757,0.001006,-0.118687,0.134032,0.992391,0.002601,-0.111956
7343007802,-0.054846,0.018313,0.004559,0.992034,0.002146,-0.111496
7343027850,-0.100946,0.071422,-0.032947,0.991309,0.002145,-0.111211
7343047895,0.076689,0.025894,0.070789,0.988450,0.001593,-0.112705
7343067941,-0.030647,0.071330,0.049600,0.991307,0.002327,-0.111302
7343087987,-0.046752,-0.119273,0.012195,0.989649,0.001869,-0.112090
7343108032,0.052697,-0.073212,0.010111,0.990607,0.002238,-0.109656
7343128078,0.113522,-0.194771,0.009375,0.991315,0.003056,-0.110850
7343148124,0.089321,-0.179242,-0.051304,0.991438,0.004606,-0.109039
7343168169,-0.163011,-0.079931,-0.061883,0.993769,0.003695,-0.111437
7343188215,-0.086173,-0.034026,-0.055755,0.992326,0.002603,-0.110503
7343208261,-0.183866,-0.033778,0.022672,0.992782,0.002422,-0.110601
7343228307,-0.106012,-0.003033,0.082021,0.995442,0.004701,-0.109833
7343248353,-0.136526,0.004524,0.067186,0.991459,0.003689,-0.112850
7343268399,-0.428642,0.156360,-0.065295,0.990873,0.002147,-0.110114
7343288445,-0.151402,0.102890,0.006020,0.988699,-0.000129,-0.109256
7343308490,-0.050349,0.064879,0.080544,0.990739,0.002416,-0.112382
7343328536,-0.043531,0.003641,0.034545,0.992307,0.003238,-0.111502
7343348582,-0.135365,-0.087817,0.013730,0.990744,0.005145,-0.111933
7343368628,-0.097688,0.056963,-0.033373,0.990116,0.002507,-0.111464
7343388674,-0.089827,-0.011618,-0.033212,0.994501,0.002423,-0.111448
7343408721,-0.103203,0.057058,0.058489,0.992871,0.001057,-0.110782
7343428767,-0.133968,0.041575,0.028528,0.991783,0.004422,-0.110134
7343448813,-0.011271,0.011146,0.041408,0.992312,0.000691,-0.111407
7343468859,-0.072912,0.026193,0.011957,0.990514,0.001146,-0.109834
7343488905,0.019510,0.102385,0.040389,0.992529,-0.000943,-0.109684
7343508951,0.142362,-0.057647,0.084293,0.992677,0.000964,-0.111414
7343528996,0.132717,0.064119,-0.015417,0.993714,0.003335,-0.109529
7343549041,0.086825,0.018282,0.000888,0.992504,0.004422,-0.110691
7343569087,0.230748,0.040976,-0.047750,0.991137,0.001509,-0.110662
7343589133,0.175982,0.063648,-0.092438,0.991730,0.004244,-0.108135
7343609179,-0.053209,0.086271,-0.072563,0.992163,0.002150,-0.109501
7343629225,0.185776,0.086417,0.045065,0.989962,0.003419,-0.109919
7343649270,-0.044935,-0.051068,-0.011227,0.991257,0.000602,-0.109211
7343669316,0.148247,-0.073392,0.107283,0.993243,0.002514,-0.110337
7343689362,0.084606,-0.111583,-0.013731,0.993867,0.002695,-0.111165
7343709408,0.015286,-0.088553,-0.035349,0.993393,0.002875,-0.112065
7343729454,0.161693,-0.118545,0.038361,0.993867,0.003605,-0.111076
7343749500,-0.037495,-0.042212,0.026581,0.992813,0.002880,-0.108878
7343769546,0.092646,-0.057259,0.039336,0.991678,0.003056,-0.110947
7343789593,-0.130731,0.026392,-0.055942,0.991428,0.003149,-0.109672
7343809639,0.160975,-0.087747,0.007673,0.991956,0.002511,-0.110769
7343829685,0.229683,-0.003616,0.028925,0.991694,0.001329,-0.110218
7343849731,0.106461,-0.049502,0.008367,0.991398,0.001599,-0.111393
7343869777,0.290126,0.004127,0.042782,0.990997,0.000148,-0.108479
7343889823,0.303331,-0.079798,-0.033604,0.989993,-0.002764,-0.108639
7343909869,0.524031,-0.102382,-0.037755,0.994634,-0.001304,-0.109447
7343929913,0.760494,-0.010595,0.018497,0.999151,-0.000028,-0.112067
7343949959,0.520923,0.126292,-0.038501,0.995353,0.001153,-0.109917
7343970005,0.854610,0.240104,-0.098672,0.989708,0.003421,-0.108826
7343990051,0.676644,0.170813,-0.102406,0.987050,0.004690,-0.109236
7344010097,0.507516,-0.042600,-0.060010,0.990244,0.004967,-0.109382
7344030142,0.367837,0.025838,-0.118499,0.991600,0.001784,-0.110308
7344050188,0.483204,-0.133837,-0.013002,0.991546,0.001415,-0.113211
7344070234,0.419954,-0.049906,-0.065514,0.995565,0.012438,-0.107670
7344090280,-0.001771,0.026150,-0.095734,0.993916,0.008076,-0.103368
7344110326,-0.222666,-0.011956,-0.068108,0.991459,-0.002116,-0.103490
7344130372,-0.062761,-0.133857,-0.124070,0.989285,-0.004674,-0.107534
7344150418,0.060990,-0.300708,-0.041537,0.989198,0.004334,-0.106731
7344170465,-0.136480,-0.330325,0.038830,0.985896,0.010779,-0.111950
7344190511,-0.725218,-0.489628,-0.010435,0.987144,0.017229,-0.118064
7344210557,-0.805320,-0.754598,0.106573,0.988154,0.001573,-0.123593
7344230603,-1.018124,-0.707053,0.056935,0.994419,0.006128,-0.125341
7344250648,-1.382288,-0.492307,0.047905,0.993245,0.035234,-0.127639
7344270694,-3.453445,-0.483605,0.332448,0.993556,0.077081,-0.127986
7344290740,-6.109587,-0.293178,0.566724,1.004691,0.071828,-0.123901
7344310785,-8.328293,0.126157,0.898755,1.003348,0.049464,-0.114127
7344330831,-10.198088,0.202308,1.087613,0.984885,0.067177,-0.113660
7344350877,-12.686536,-0.133120,1.328052,0.979505,0.076177,-0.112585
7344370922,-15.617827,-0.620992,1.608157,0.989460,0.071006,-0.113019
7344390968,-18.219465,-0.582859,1.918323,0.988174,0.072641,-0.113272
7344411015,-20.870947,-0.650947,2.436127,0.986236,0.089559,-0.113267
7344431060,-24.474833,-0.636025,2.712327,0.998915,0.107855,-0.117961
7344471152,-32.061195,0.080027,3.445542,0.994831,0.094724,-0.131941
7344491198,-35.598412,0.110921,4.026053,0.983155,0.105808,-0.130398
7344511244,-39.352821,-0.125359,4.443557,0.984005,0.119460,-0.128075
7344531291,-43.650120,-0.255103,4.855957,0.988666,0.111452,-0.133316
7344551337,-47.723087,-0.277764,5.408834,0.985836,0.099785,-0.143687
7344571383,-51.163139,-0.239513,5.865172,0.986320,0.094412,-0.147409
7344591428,-54.904835,-0.384679,6.136938,0.991454,0.101154,-0.145964
7344611474,-58.886799,-0.224526,6.641593,0.991855,0.108709,-0.143623
7344631520,-62.928703,-0.132813,7.216413,0.982417,0.100760,-0.155432
7344651566,-65.955612,-0.338268,7.696110,0.987227,0.078829,-0.163284
7344671612,-68.773506,-0.132827,7.880011,0.998954,0.058924,-0.162634
7344691657,-70.474297,0.476895,8.094378,1.012644,0.043030,-0.159392
7344711703,-71.597183,1.162562,8.129166,1.006690,0.011548,-0.157332
7344731749,-71.718712,2.008492,8.143991,1.008438,-0.025907,-0.144409
7344751795,-70.466759,2.450550,8.018888,0.994381,-0.046389,-0.140322
7344771841,-69.110382,2.236948,7.771677,0.954891,-0.044439,-0.136929
7344791886,-68.075165,1.291704,7.548417,0.973060,-0.016186,-0.174504
7344811932,-68.156067,0.948190,7.314245,0.986147,0.017126,-0.175963
7344831978,-69.050705,1.016525,7.308454,1.009410,0.034171,-0.176479
7344852024,-69.816582,1.542949,7.642503,1.019084,0.044391,-0.166584
7344872070,-71.157166,2.404349,7.894892,0.998585,0.056757,-0.153274
7344892116,-72.872383,3.044659,8.155286,0.984451,0.049304,-0.137861
7344912163,-73.975792,2.541111,8.040828,0.954514,0.027625,-0.128237
7344932209,-74.500565,1.229644,7.818491,0.945307,-0.001981,-0.143644
7344952255,-73.807846,0.026412,8.114714,0.946567,-0.023080,-0.141089
7344972301,-72.880753,-1.200956,7.841001,0.951417,-0.034983,-0.136522
7344992347,-71.102325,-1.863847,7.694077,0.986409,-0.057685,-0.142346
7345012392,-69.059425,-1.589772,7.340223,1.005419,-0.070112,-0.137657
7345032438,-66.499870,-0.796807,7.211503,1.023270,-0.079644,-0.141032
7345052484,-63.890980,-0.095818,6.852889,1.009290,-0.085016,-0.131889
7345072529,-60.448570,0.140571,6.517854,0.999325,-0.100473,-0.118712
7345092575,-56.512119,0.338608,6.020531,0.985497,-0.133480,-0.098360
7345112620,-52.172596,-0.332245,5.434224,0.950749,-0.105529,-0.108344
7345132666,-49.830471,-1.673468,5.194564,0.922922,-0.006745,-0.144253
7345152712,-49.977840,-3.387363,5.562277,0.936876,0.053054,-0.190342
7345172758,-52.088959,-4.354829,5.973253,0.992628,0.077852,-0.206494
7345192804,-53.158440,-3.600580,5.999136,1.050066,0.033378,-0.195508
7345212850,-53.085411,-1.976882,6.175707,1.050535,0.054968,-0.178939
7345232896,-55.047131,0.141471,6.283135,1.057029,0.106210,-0.170420
7345252942,-58.873699,2.786217,6.837635,1.037341,0.109404,-0.148576
7345272988,-63.325020,2.937250,6.755394,0.941326,0.103416,-0.110799
7345293035,-67.291595,0.864661,7.343598,0.931171,0.092539,-0.131759
7345313081,-71.300728,-0.576012,7.670714,0.935399,0.078395,-0.160403
7345333127,-74.509254,-1.939563,8.295340,0.958466,0.078407,-0.172416
7345353173,-77.949860,-2.145235,8.729575,1.002759,0.088917,-0.181903
7345373219,-81.323235,-0.727962,9.019558,1.033846,0.104788,-0.184184
7345393265,-85.026855,1.024325,9.215494,1.036578,0.101044,-0.194573
7345413310,-87.551956,2.693241,9.472897,1.033122,0.048080,-0.201870
7345433359,-88.491425,3.592316,9.495775,0.993431,-0.019349,-0.179476
7345453401,-87.204201,3.218624,9.235156,0.960411,-0.090672,-0.152288
7345473447,-84.266838,1.930755,8.930279,0.934835,-0.092827,-0.167008
7345493493,-82.006905,0.277326,8.807875,0.945856,-0.049674,-0.209751
7345513539,-81.417427,-0.248224,8.866960,0.981468,0.028249,-0.210397
7345533585,-82.436211,-0.186786,9.184541,1.015960,0.059793,-0.200598
7345553631,-84.686333,0.689654,9.454528,1.024647,0.085315,-0.179093
7345573676,-87.668777,2.130020,9.797981,1.018066,0.101162,-0.163756
7345593722,-91.060036,2.624891,9.976759,0.984206,0.098849,-0.157547
7345613768,-94.025734,1.694533,10.060328,0.940610,0.060380,-0.166181
7345633814,-95.121811,0.498487,10.375954,0.932638,0.006322,-0.170857
7345653860,-94.961273,-0.888375,10.423305,0.953528,-0.028794,-0.189038
7345673907,-93.539604,-1.078562,10.403992,0.982769,-0.058493,-0.185402
7345693953,-91.405273,-0.819745,10.033134,0.996160,-0.072008,-0.173625
7345713999,-88.407486,-0.492183,9.630007,1.002314,-0.081549,-0.172353
7345734045,-85.832588,0.284560,9.080764,1.010372,-0.091651,-0.181642
7345754091,-82.243462,0.704062,8.818686,1.010309,-0.087571,-0.189636
7345774137,-79.348083,1.252196,8.241060,1.004419,-0.096449,-0.163377
7345794182,-76.029510,1.419772,7.824602,0.989235,-0.104710,-0.140683
7345814227,-72.283623,1.084411,7.378601,0.978524,-0.097524,-0.131797
7345834273,-68.440323,0.474485,6.832286,0.972703,-0.107339,-0.121333
7345854319,-63.586582,0.375547,6.333436,0.987112,-0.134871,-0.114543
7345874365,-58.611256,0.467051,5.785743,0.973135,-0.134428,-0.109767
7345894411,-54.355103,-0.417099,5.247612,0.945463,-0.059384,-0.143733
7345914456,-52.889534,-1.621036,5.154409,0.957177,0.003924,-0.158109
7345934503,-53.940449,-2.116092,5.405693,0.991202,0.051289,-0.152776
7345954548,-56.460011,-1.712423,5.590786,1.051415,0.089591,-0.149418
7345974594,-59.270000,0.154286,5.730793,1.047605,0.093071,-0.133201
7345994640,-61.829746,1.313095,6.204526,1.001393,0.078637,-0.128848
7346014686,-63.728279,1.229451,6.501454,0.959809,0.062570,-0.126206
7346034732,-65.668671,0.078476,6.634635,0.955997,0.067471,-0.129508
7346054779,-67.838234,-1.095394,6.779980,0.955253,0.075822,-0.139404
7346074825,-70.358963,-2.246426,6.954988,0.961468,0.068619,-0.154204
7346094871,-72.860390,-2.398668,7.317333,0.982383,0.052065,-0.169965
7346114917,-76.012413,-1.902455,8.041650,0.992315,0.073358,-0.174800
7346134963,-79.001045,-1.284897,8.494942,1.000718,0.100822,-0.187698
7346155009,-82.340462,-0.469185,8.992587,1.009323,0.102638,-0.196290
7346175055,-85.427567,0.247530,9.493307,0.995700,0.086704,-0.193126
7346195101,-87.740776,0.376909,9.682949,0.988349,0.039214,-0.188655
7346215145,-88.423637,0.270727,9.979288,0.977995,0.006277,-0.182705
7346235191,-88.062546,0.149123,10.079666,0.974240,-0.024646,-0.175418
7346255237,-87.406662,0.034777,9.990906,0.957201,-0.020036,-0.177768
7346275283,-87.129166,-0.696410,10.140784,0.942180,0.000657,-0.193251
7346295329,-88.342339,-1.831837,10.320934,0.945516,0.044096,-0.222065
7346315375,-90.063370,-2.532467,10.731093,0.998469,0.072242,-0.245982
7346335421,-92.509933,-2.250163,11.152057,0.999483,0.079284,-0.225586
7346355466,-94.689636,-1.426839,11.512552,1.020006,0.059776,-0.213739
7346375513,-96.499626,-0.193551,11.161496,1.029531,0.008711,-0.186402
7346395559,-97.488861,0.407815,10.980011,0.997644,-0.019143,-0.169109
7346415604,-97.281075,0.361330,10.632270,0.972959,-0.038833,-0.171560
7346435652,-96.145447,-0.667579,10.468471,0.936296,-0.028171,-0.182482
7346455698,-94.837845,-1.787399,10.515599,0.959282,-0.081266,-0.182604
7346475743,-92.486427,-1.924391,10.325240,1.000368,-0.082564,-0.178763
7346495790,-89.430481,-1.192336,10.164166,1.025053,-0.078804,-0.182186
7346515835,-86.492653,0.019327,9.797468,1.019690,-0.077791,-0.171021
7346535881,-83.317871,1.002434,9.434574,1.010768,-0.079877,-0.159882
7346555927,-80.524628,1.162541,9.142956,0.994868,-0.091066,-0.146339
7346575971,-77.692856,1.032131,8.454201,0.978292,-0.097984,-0.134425
7346596017,-74.113724,0.468302,8.096253,0.974806,-0.121728,-0.131875
7346616063,-69.854393,0.331360,7.708403,0.985161,-0.133338,-0.121048
7346636109,-65.084808,0.316215,7.203264,0.999567,-0.148596,-0.118545
7346656155,-60.036953,0.353887,6.440383,0.961207,-0.110448,-0.120860
7346676201,-57.333557,-0.804102,6.300084,0.906041,-0.012898,-0.163200
7346696247,-57.992039,-2.952342,6.747934,0.939315,0.052757,-0.206360
7346716293,-59.016804,-3.607002,7.182637,1.026078,0.010900,-0.180446
7346736338,-59.463745,-2.487383,6.950697,1.039624,0.056794,-0.166411
7346756384,-61.421036,-1.161961,6.907849,1.047726,0.098555,-0.170158
7346776430,-64.962753,0.728701,7.596878,1.030113,0.115098,-0.163440
7346796476,-68.988861,2.435996,8.143087,1.006366,0.091227,-0.164811
7346816523,-72.051666,3.510057,8.282998,0.978880,0.052315,-0.127876
7346836569,-74.329346,1.992113,7.957818,0.974454,0.020799,-0.146630
7346856615,-75.634872,1.207119,8.092744,0.947173,0.005378,-0.150860
7346876661,-76.528137,0.056378,8.205606,0.952739,0.003003,-0.161027
7346896707,-77.845337,-0.461439,8.530906,0.984055,0.017323,-0.165761
7346916753,-79.663506,0.186004,8.594596,1.005515,0.029645,-0.160428
7346936799,-80.793053,1.161371,8.674397,1.019053,-0.005336,-0.146984
7346956843,-80.452026,1.824037,8.482180,1.001135,-0.025917,-0.144193
7346976889,-79.500778,1.297905,8.251513,0.953432,-0.008273,-0.158842
7346996935,-78.804199,-0.012503,8.341698,0.946083,-0.005345,-0.194941
7347016981,-79.907555,-1.033234,8.672164,0.960446,0.022411,-0.201768
7347037027,-81.315262,-1.611877,9.068195,0.989617,0.046567,-0.198493
7347057073,-83.102943,-1.001548,9.551697,1.017560,0.056896,-0.193449
7347077119,-85.193787,-0.094750,9.749721,1.009067,0.050169,-0.184034
7347097165,-86.749191,0.545506,9.968806,0.989883,0.028512,-0.170871
7347117211,-87.528961,0.507210,9.976423,0.981579,0.001777,-0.157523
7347137256,-88.212868,-0.087803,9.808280,0.956661,0.004546,-0.166089
7347157303,-88.259308,-0.528877,10.215647,0.973945,-0.018280,-0.176150
7347177350,-87.601807,-0.673492,10.218652,0.994564,-0.052072,-0.164917
7347197395,-86.233315,-0.178812,9.770172,1.013175,-0.084892,-0.168175
7347217442,-83.564583,0.651567,9.333549,1.012609,-0.101618,-0.160422
7347237488,-79.956886,1.169572,8.826258,1.005144,-0.106986,-0.154567
7347257534,-76.588753,1.450954,8.186856,0.992919,-0.124437,-0.135447
7347277580,-72.516510,1.656410,7.587535,0.991834,-0.150177,-0.131574
7347297625,-67.901100,1.534377,7.016971,0.989302,-0.158623,-0.120986
7347317671,-62.718304,1.641312,6.526334,0.994008,-0.179264,-0.119761
7347337716,-56.456760,1.541883,5.656302,0.983620,-0.170088,-0.117875
7347357761,-51.693512,0.932520,5.244964,0.900575,-0.041647,-0.159337
7347377807,-52.489677,-2.366435,5.729883,0.893938,0.077812,-0.198911
7347397853,-55.127003,-3.204320,6.211768,1.053811,0.046189,-0.155832
7347417899,-57.129177,-0.903379,6.189468,1.093805,0.079298,-0.139957
7347437945,-59.413330,1.977745,6.621554,1.070312,0.056153,-0.142332
7347457991,-61.655373,3.744829,6.460498,0.989525,0.067810,-0.119460
7347478037,-63.735947,2.852576,6.442708,0.948476,0.065928,-0.121480
7347498083,-65.890350,1.221473,6.596924,0.932008,0.050161,-0.123896
7347518129,-68.010857,-0.607319,6.942175,0.959460,0.023341,-0.137483
7347538174,-69.840454,-1.414862,7.270741,0.963541,0.002873,-0.140332
7347558222,-71.619362,-1.338799,7.411986,0.998402,0.006791,-0.166078
7347578268,-73.748993,-0.477808,7.580348,1.001785,0.040459,-0.163832
7347598314,-76.398407,0.794561,7.742144,1.022030,0.074612,-0.158606
7347618359,-79.208115,1.708766,7.931167,1.005894,0.074782,-0.152067
7347638405,-81.008530,1.365889,8.165922,0.978843,0.029424,-0.160427
7347658451,-81.617767,1.167914,8.308307,0.978981,-0.004135,-0.155199
7347698543,-81.019356,0.269138,8.452517,0.958186,0.005316,-0.143241
7347718588,-81.750809,-0.058402,8.605347,0.974081,0.013486,-0.166946
7347738633,-83.722549,-0.622717,8.676051,0.979581,0.044742,-0.193145
7347758680,-86.354797,-0.889409,8.995466,0.988409,0.060376,-0.208481
7347778725,-88.674500,-0.583622,9.666059,0.996651,0.049372,-0.212870
7347798771,-90.109787,-0.598969,9.785658,0.982037,0.021164,-0.204858
7347818817,-90.534927,-0.857781,9.962881,0.982381,-0.018589,-0.203617
7347838863,-89.624260,-0.819330,10.006214,0.968586,-0.041494,-0.180831
7347858909,-88.568535,-1.085683,10.047747,0.984179,-0.030240,-0.157241
7347878955,-88.384880,-1.199920,10.059847,0.985231,-0.009425,-0.168006
7347899001,-88.535728,-1.039664,10.169221,0.985296,-0.042156,-0.156878
7347919046,-87.604568,-0.940564,10.074408,0.989836,-0.065980,-0.154918
7347939094,-85.433998,-0.750578,9.596093,1.000236,-0.096627,-0.157496
7347959140,-82.131714,-0.407867,9.118237,0.994360,-0.116157,-0.136030
7347979186,-78.501022,-0.255624,8.626999,1.001703,-0.118682,-0.129434
7347999232,-73.990875,-0.225048,8.149668,0.998167,-0.159047,-0.111060
7348019278,-68.344261,0.216971,7.503727,1.004327,-0.202706,-0.111638
7348039323,-62.181854,0.521427,6.634274,0.966266,-0.137683,-0.144957
7348059370,-59.712830,-0.483874,6.635561,0.910786,-0.002605,-0.211410
7348079415,-61.655689,-2.457174,7.084826,0.963164,0.013562,-0.218049
7348099460,-62.252956,-2.686059,7.043689,1.024841,0.008454,-0.173522
7348119506,-62.660797,-2.427415,6.890270,1.038471,0.058524,-0.164487
7348139552,-65.162018,-0.560242,7.192398,1.055959,0.124606,-0.158178
7348159598,-69.150932,1.879473,8.079312,1.019542,0.092977,-0.163496
7348179643,-72.575554,3.365608,8.492323,0.995135,0.056407,-0.142412
7348199689,-74.382133,4.294527,8.340891,1.000904,-0.019659,-0.102624
7348219735,-74.271889,2.044989,7.750208,0.944066,-0.053805,-0.125382
7348239781,-74.291847,0.978523,7.952824,0.946444,-0.008850,-0.171067
7348259827,-75.157700,-0.170637,8.737595,0.958826,-0.019862,-0.183606
7348279873,-75.315826,-0.581861,8.887220,0.999379,-0.028694,-0.169758
7348299919,-75.347710,0.492429,8.777282,1.032504,-0.035645,-0.167043
7348319966,-74.303101,1.871616,8.569026,1.004197,-0.030375,-0.146780
7348340012,-73.207108,1.962703,8.287646,0.967195,-0.057278,-0.153730
7348360058,-71.321182,0.956985,8.177985,0.954368,-0.058864,-0.165673
7348400149,-71.253693,-0.590098,8.158903,0.979538,0.003748,-0.173649
7348420195,-72.922188,-0.345921,8.480840,1.012679,0.030461,-0.167995
7348440241,-74.734978,-0.034064,8.430922,1.009895,0.040808,-0.179403
7348460288,-76.064735,0.735315,8.438880,0.972218,0.014207,-0.168822
7348480332,-76.722672,0.133081,8.438369,0.947832,-0.006737,-0.160292
7348500378,-77.208328,-0.704808,8.672184,0.955565,-0.005173,-0.156977
7348520424,-78.194275,-1.383235,8.716498,0.972415,0.010257,-0.139134
7348540469,-79.604721,-1.908890,8.959578,0.978758,0.012917,-0.131985
7348560515,-81.173241,-2.266617,9.335071,0.982464,-0.002475,-0.144731
7348580561,-82.134995,-2.182841,9.422227,0.989870,-0.017211,-0.150098
7348600607,-82.235809,-1.817274,9.331268,1.005891,-0.027837,-0.153712
7348620653,-81.617569,-0.910428,9.239838,1.020085,-0.041890,-0.138045
7348640699,-79.818634,-0.278172,8.912451,1.016198,-0.071808,-0.128034
7348660745,-77.093666,0.414417,8.207746,1.019638,-0.144674,-0.129334
7348680791,-72.591896,1.328855,7.658861,1.004720,-0.182604,-0.113766
7348700838,-66.039925,1.915318,6.757987,1.001183,-0.235939,-0.125418
7348720884,-58.054665,1.565319,6.084586,0.896207,-0.128243,-0.202692
7348740930,-58.515358,-1.232711,5.651995,0.945762,0.052572,-0.213278
7348760976,-61.809349,-1.171458,6.151271,1.080166,0.110705,-0.168734
7348781022,-66.600327,0.887123,7.093225,1.068609,0.114689,-0.117527
7348801068,-71.302536,3.354854,7.008140,1.019517,0.099403,-0.130372
7348821114,-75.071678,3.285300,7.028018,0.935249,0.084718,-0.133994
7348841159,-77.304260,1.714914,7.084209,0.928765,0.031219,-0.132343
7348861204,-77.980255,-0.220249,7.401786,0.944769,-0.041706,-0.126140
7348881250,-77.262527,-1.751873,7.400599,0.960564,-0.076655,-0.148138
7348901296,-76.270050,-2.056613,7.328866,0.986787,-0.086558,-0.162911
7348921342,-74.645401,-1.583236,7.517367,1.017453,-0.075416,-0.163544
7348941388,-73.035660,-0.295427,7.275525,1.015515,-0.046372,-0.148217
7348961434,-71.928246,0.619149,7.174576,1.014523,-0.013289,-0.164958
7348981480,-72.244370,0.633963,7.027833,0.982796,0.059348,-0.166989
7349001525,-74.520531,0.261248,7.592859,0.979316,0.090714,-0.175242
7349021571,-77.796173,-0.096215,8.276567,0.976218,0.092919,-0.160124
7349041617,-81.206337,-0.042806,8.694068,0.992011,0.061934,-0.152808
7349061663,-83.016624,0.407533,9.201466,1.003900,0.028107,-0.154134
7349081710,-84.018250,0.978789,9.180793,0.980267,-0.000121,-0.149690
7349101756,-83.128227,0.307846,8.951795,0.946493,-0.091184,-0.173564
7349121802,-79.083115,-0.574973,9.006147,0.948531,-0.153254,-0.190471
7349141848,-74.874702,-1.383175,8.361709,0.977674,-0.128100,-0.188649
7349161894,-69.822945,-1.756493,7.829365,0.975001,-0.177072,-0.202684
7349181940,-64.218475,-1.801702,7.407465,1.001519,-0.174631,-0.181535
7349201986,-59.879688,-1.108611,6.732575,1.036607,-0.144338,-0.159580
7349222032,-55.839718,-0.019424,6.008676,1.013051,-0.161516,-0.130918
7349242076,-49.440811,0.095510,5.540262,0.964671,-0.226173,-0.128352
7349262122,-41.295906,-0.818471,4.835075,0.966273,-0.225157,-0.120846
7349282168,-33.146099,-0.970772,3.951504,1.010856,-0.197845,-0.094419
7349302214,-26.449652,-0.231967,3.001470,1.039102,-0.182508,-0.087482
7349322260,-19.477228,0.971847,2.075099,1.029548,-0.208821,-0.091996
7349342306,-12.447645,1.817993,1.362769,1.015474,-0.220215,-0.093098
7349362351,-6.182677,2.160987,0.666952,1.001918,-0.161637,-0.086610
7349382398,-2.500495,2.168194,0.068218,0.996200,-0.051844,-0.087603
7349402443,-0.524265,1.817662,-0.144715,0.985154,-0.013382,-0.089748
7349422489,0.761865,1.330515,-0.038145,0.974677,-0.039234,-0.089889
7349442535,2.579986,0.835472,-0.109983,0.964420,-0.051352,-0.092054
7349462583,4.303857,0.256256,-0.317259,0.974730,-0.046334,-0.092329
7349482628,6.081073,-0.117219,-0.541537,0.995299,-0.039752,-0.091057
7349502674,7.559879,-0.094546,-0.791909,0.992448,-0.044489,-0.092362
7349522720,8.938745,-0.117692,-1.070756,0.993342,-0.049320,-0.098542
7349542775,10.634583,-0.117439,-1.157153,1.001243,-0.036848,-0.100241
7349562812,11.962363,-0.010737,-1.305536,0.998936,-0.025919,-0.091051
7349582858,13.084814,-0.018251,-1.388423,0.985369,-0.008531,-0.073147
7349602919,13.457883,-0.384132,-1.463217,1.009183,0.022452,-0.062893
7349622948,12.750755,0.286779,-1.268335,1.013859,0.032104,-0.061355
7349642994,11.438464,0.774493,-1.129873,1.011055,0.040465,-0.064226
7349663040,9.917286,0.957020,-1.116246,1.000259,0.043632,-0.064955
7349683086,8.454202,0.972508,-0.843381,0.995483,0.040702,-0.071404
7349703132,7.159244,0.942309,-0.573627,0.995218,0.023044,-0.076908
7349723178,6.440863,0.850716,-0.551741,1.000564,0.014396,-0.084610
7349743224,5.447350,1.041017,-0.533096,0.996362,0.019849,-0.084275
7349763270,4.591794,0.934205,-0.485573,0.984961,0.026020,-0.083001
7349783316,3.629138,0.659709,-0.435414,0.991012,0.032209,-0.086292
7349803362,2.284950,0.522377,-0.347742,0.994199,0.040766,-0.086270
7349823408,1.013085,0.537925,-0.070947,0.998163,0.036408,-0.084606
7349843455,0.043865,0.461697,0.032170,0.991483,0.025206,-0.085925
7349863500,-0.650043,0.416032,0.137484,0.988722,0.010370,-0.087942
7349883547,-0.742095,0.316904,0.124317,0.995057,-0.002728,-0.091931
7349903592,-0.444334,0.469335,0.095108,1.001476,-0.009093,-0.095843
7349923638,-0.016095,0.606624,0.093982,1.001574,-0.012095,-0.095658
7349943684,0.532920,0.743744,0.006458,0.987325,-0.010561,-0.090697
7349963730,0.691500,0.507299,-0.095170,0.987375,0.001172,-0.092170
7349983775,0.700108,0.507426,-0.041848,0.991263,0.005459,-0.089157
7350003821,0.647083,0.377930,-0.009822,1.005543,0.003117,-0.087672
7350023867,0.771240,0.743976,0.078248,0.999749,-0.001063,-0.080304
7350043912,0.646809,0.621745,-0.033553,0.997573,-0.001611,-0.079449
7350063958,0.607763,0.857859,-0.087071,1.003078,0.002204,-0.087628
7350084004,0.347437,1.025390,-0.113143,1.001840,0.006283,-0.094967
7350104050,0.239834,1.185315,-0.149795,0.994965,0.009728,-0.096035
7350124096,0.056823,1.208191,-0.123396,0.999050,0.003172,-0.102630
7350144142,0.072051,1.345353,-0.131789,1.000330,-0.006842,-0.108082
7350164188,0.399205,1.604322,-0.230697,0.998551,-0.012316,-0.115577
7350184234,0.604785,1.672848,-0.280763,0.992138,-0.008887,-0.126094
7350204281,0.954368,1.779350,-0.402523,0.988453,-0.005099,-0.142105
7350224327,1.223116,1.528099,-0.330487,0.970483,-0.001146,-0.155150
7350244373,1.503701,1.032552,-0.441262,0.975619,-0.003362,-0.178473
7350264419,1.651878,0.895803,-0.275570,0.971475,-0.002098,-0.180220
7350284465,1.521535,0.667111,-0.287562,0.979238,0.010560,-0.179465
7350304510,0.919221,0.644311,-0.191743,0.985656,0.021779,-0.167792
7350324556,0.140818,0.827182,-0.116116,0.990165,0.020194,-0.141814
7350344602,-0.210597,0.651859,-0.093430,0.996958,0.009315,-0.126116
7350364647,-0.245817,0.827508,0.067139,0.991598,0.010973,-0.109869
7350384693,-0.783220,0.773737,-0.052159,0.994103,0.009897,-0.103011
7350424785,-1.842723,0.796740,0.128794,0.995902,0.021841,-0.089172
7350444831,-2.421439,0.735930,0.262489,0.993848,0.031850,-0.086068
7350464876,-3.277880,0.766169,0.256082,0.996752,0.021927,-0.092546
7350484922,-3.590809,0.819499,0.284901,0.992514,0.001719,-0.095708
7350504968,-3.484403,0.735621,0.252550,0.988002,-0.009845,-0.098335
7350525014,-3.231874,0.781439,0.262780,0.997248,-0.011476,-0.102212
7350545060,-2.726222,0.705503,0.321994,1.000635,-0.007021,-0.106453
7350565106,-2.568340,0.933808,0.165342,0.988589,-0.004390,-0.100805
7350585152,-2.130750,1.162765,0.255427,1.029201,-0.003211,-0.136631
7350605200,-1.893594,1.536242,0.249582,0.985979,0.000645,-0.132450
7350625245,-1.618772,1.193345,0.237750,0.981825,0.009543,-0.139112
7350645291,-1.602242,1.437361,0.297748,0.999573,0.010456,-0.152125
7350665337,-1.815980,1.673579,0.308750,0.988514,0.012614,-0.157205
7350685402,-2.230187,1.033188,0.257788,0.958617,0.012767,-0.148979
7350705429,-2.351632,0.347440,0.331201,0.963395,-0.012252,-0.153921
7350725474,-1.978558,-0.247050,0.264809,0.971006,-0.026241,-0.148309
7350745519,-1.604124,-0.635615,0.266479,0.971414,-0.022407,-0.140969
7350765565,-0.955977,-1.138611,0.186803,0.977010,-0.016400,-0.144161
7350785611,-0.588618,-1.496622,0.219074,0.965661,-0.009860,-0.140075
7350805657,-0.192821,-2.213061,0.145006,0.966364,-0.001201,-0.131296
7350825703,-0.330873,-2.556068,0.133544,0.981613,0.006315,-0.111688
7350845749,-0.314748,-2.776945,0.187457,0.999596,0.007111,-0.087940
7350865794,-0.522241,-2.815239,0.130479,0.980201,0.009439,-0.040772
7350885840,-0.790887,-3.105019,0.083166,1.007568,0.002396,-0.033420
7350905886,-0.700435,-2.670804,-0.004090,1.024968,-0.001578,-0.031259
7350925932,-0.597360,-1.969228,0.174969,1.013175,-0.002662,-0.017258
7350945978,-0.300368,-1.954063,0.108024,0.993333,-0.001675,-0.008570
7350966025,-0.368165,-1.908227,0.162677,1.017078,0.003983,-0.018153
7350986071,-0.110523,-1.466480,0.018661,1.023916,0.005274,-0.013914
7351006117,-0.146718,-0.589887,0.100501,1.039462,0.003280,-0.022800
7351026163,0.067178,0.408410,0.054819,1.032782,-0.009767,-0.038823
7351046209,0.488019,0.972468,0.052417,0.994681,-0.017938,-0.049688
7351066255,1.003685,0.598658,-0.170305,0.980847,-0.019170,-0.066516
7351086301,1.339530,0.042389,-0.182612,0.981292,-0.008907,-0.076254
7351106347,1.325360,-0.414690,-0.104401,0.972460,0.012654,-0.068514
7351126391,0.960672,-0.925049,0.041921,0.996243,0.029242,-0.070581
7351146437,0.528539,-1.016131,0.249287,0.991388,0.027249,-0.061690
7351166483,0.085085,-1.267720,0.258730,0.975146,0.011760,-0.061750
7351186529,-0.292890,-1.763575,0.091961,0.975744,-0.004355,-0.069813
7351206575,-0.608543,-2.129717,-0.015316,0.976595,-0.014558,-0.078616
7351226621,-0.501341,-2.746915,0.015224,1.011574,-0.014590,-0.074038
7351246667,-0.392794,-1.984657,0.071712,1.055121,-0.011353,-0.079960
7351266713,-0.211254,-0.011196,-0.106493,1.069722,0.003927,-0.094305
7351286759,0.186126,1.307202,-0.164442,1.007940,0.015462,-0.105162
7351306805,1.261770,1.330036,-0.300011,0.961691,-0.035169,-0.095303
7351326850,2.408518,0.583532,-0.281571,0.986340,-0.057905,-0.112025
7351346898,3.300988,-0.132813,-0.372918,0.961895,-0.000872,-0.043438
7351366943,3.230970,-1.070289,-0.406645,0.957170,0.002339,-0.075952
7351386989,2.396937,-2.427014,-0.393586,0.932608,0.026036,-0.030275
7351407035,1.657799,-4.735847,-0.172880,0.938108,0.011497,-0.025261
7351427084,1.048128,-6.899926,0.014267,0.966662,0.022377,-0.070247
7351467173,-1.639598,-11.900108,-0.031555,0.786777,0.039796,-0.051413
7351487225,-2.604525,-19.719030,0.158387,0.744717,-0.004785,-0.071047
7351507264,-3.738645,-28.047697,0.735382,0.786900,0.030741,-0.079451
7351527310,-5.873598,-38.602661,1.010626,1.050424,0.034496,-0.181264
7351547355,-6.372411,-32.627693,1.122677,1.133084,-0.018114,-0.213904
7351567401,-4.750458,-22.818768,1.257226,1.442212,-0.087689,-0.148798
7351587447,-1.622956,-7.761093,0.321132,1.266466,-0.022425,-0.033164
7351607493,0.125027,-0.393133,-0.524385,1.000834,-0.005649,0.001476
7351627539,1.409626,-2.959838,-0.005865,0.867077,-0.025371,-0.084083
7351647585,1.736989,-12.545324,0.676860,0.753525,-0.030007,-0.143414
7351667631,2.064666,-15.900312,-0.113040,1.069494,-0.018756,-0.268283
7351687677,3.790707,-8.630299,-0.476394,1.206337,-0.050670,-0.216097
7351707723,5.647676,-1.070556,-0.797404,1.148220,-0.062474,-0.154901
7351727770,6.475253,4.164081,-1.304660,1.055663,-0.030992,-0.178702
7351747816,6.588841,5.916646,-1.427320,0.952016,0.013153,-0.130803
7351767862,5.893787,2.677911,-1.273146,0.850455,0.014893,-0.091220
7351787907,5.787910,-2.313287,-1.032873,0.897741,-0.026457,-0.158497
7351807953,6.477369,-3.769406,-1.331779,1.004384,-0.021636,-0.248105
7351827999,7.478128,-1.772720,-1.449542,1.047410,-0.012881,-0.271639
7351848045,8.211432,0.322977,-1.562446,1.011756,-0.009593,-0.234180
7351868090,9.062298,1.733249,-1.491954,1.015268,-0.023066,-0.242569
7351908182,11.195804,0.451659,-2.277948,0.939175,-0.042933,-0.146831
7351928227,12.191618,-1.354846,-2.535784,0.951370,-0.048213,-0.159285
7351948273,13.619083,-1.888188,-2.645763,0.994083,-0.041530,-0.170464
7351968320,14.706503,-0.776099,-3.014431,1.032030,-0.039040,-0.182734
7351988365,15.792328,2.355171,-3.542619,1.086852,-0.040547,-0.206270
7352008411,17.198505,7.080070,-3.746106,1.105382,-0.050984,-0.207567
7352028457,18.771276,11.828655,-3.616680,1.084761,-0.056412,-0.172711
7352048503,20.719717,14.984825,-3.374620,1.037318,-0.056516,-0.140584
7352068549,22.326899,16.371365,-3.761929,0.978462,-0.057060,-0.142303
7352088595,24.154572,15.494563,-4.138340,0.942984,-0.049316,-0.158414
7352108642,25.849211,14.022942,-4.663018,0.946275,-0.042456,-0.191887
7352128688,27.614780,12.788838,-4.654961,1.043512,-0.011327,-0.211662
7352148734,28.565420,15.015553,-4.168843,1.066566,0.020256,-0.222365
7352168780,27.934254,18.331671,-3.670942,1.114144,0.025575,-0.237256
7352188826,26.990404,23.216602,-3.607759,1.125098,-0.000149,-0.234313
7352208872,27.163000,28.651508,-3.132508,1.123868,-0.005199,-0.207777
7352228917,27.227144,35.032116,-2.345001,1.172372,0.012077,-0.201733
7352248962,26.017920,32.473194,-1.472458,0.095739,0.023958,0.572871
7352269008,21.821293,-3.889387,-2.255714,0.870468,0.140316,-0.384345
7352289054,19.328243,-0.856232,-1.965269,0.813112,0.132260,-0.365016
7352309100,18.550119,-2.850756,-0.950141,0.950103,0.030466,-0.216947
7352329146,16.173645,-3.665595,-0.419904,1.044584,0.047594,-0.073161
7352349192,13.074142,-1.379711,-0.237466,1.102439,0.080609,-0.074111
7352369238,9.649039,0.608314,-0.292245,1.037238,0.048777,-0.118880
7352389283,7.173114,0.981222,-0.230160,0.963135,0.030186,-0.179677
7352409329,4.968531,-0.382750,0.099893,0.922165,0.050129,-0.185911
7352429375,1.972595,-1.815020,0.644206,0.954712,0.078444,-0.148568
7352449421,-0.469055,-1.479725,0.912070,1.028617,0.086411,-0.128145
7352469467,-2.204098,-0.801906,0.920556,1.020006,0.023743,-0.113915
7352489514,-1.466508,-0.466940,0.683527,1.000100,-0.024605,-0.121393
7352509560,-0.495105,-0.056125,0.265954,1.007041,-0.016904,-0.145308
7352529606,-0.334708,0.469699,0.238167,0.998441,0.016853,-0.134233
7352549652,-1.346656,0.325285,0.518093,0.996454,0.014330,-0.118581
7352569698,-2.412117,0.538021,0.362306,1.002953,-0.010133,-0.119378
7352589744,-2.735272,0.895827,0.237480,0.985062,-0.012706,-0.118887
7352609789,-2.759347,0.583239,0.185498,0.972482,0.006840,-0.116344
7352629834,-3.143294,0.118082,0.110441,0.976716,0.006030,-0.114691
7352649880,-3.064502,-0.094964,0.247167,0.986847,-0.019803,-0.121538
7352669926,-2.500120,-0.056895,0.167316,0.998960,-0.030715,-0.128989
7352689972,-1.613437,0.057617,0.149730,1.001550,-0.010147,-0.125980
7352710017,-1.609210,0.110516,-0.041565,0.997847,0.009703,-0.112788
7352730064,-1.866750,0.087901,0.093413,0.985295,0.017977,-0.104599
7352750109,-2.484860,-0.102617,0.167172,0.987643,0.022428,-0.110638
7352770155,-2.687802,-0.140319,0.362272,0.992208,0.021533,-0.105903
7352790201,-2.801208,-0.240239,0.013299,0.996306,-0.013755,-0.103917
7352810247,-2.070362,-0.019464,-0.169730,1.000552,-0.045406,-0.103483
7352830293,-0.888593,0.391917,-0.369784,1.003221,-0.042116,-0.097361
7352850340,-0.319072,0.391561,-0.587153,0.988044,-0.022917,-0.082337
7352870386,-0.564949,0.299894,-0.650850,0.993261,-0.007186,-0.090532
7352890432,-0.387903,0.079106,-0.577136,0.984193,-0.004190,-0.086842
7352910478,-0.156449,-0.248237,-0.450632,0.977944,0.011272,-0.083039
7352930524,-0.461845,-0.865509,-0.404444,0.976936,0.028674,-0.067528
7352950570,-0.811585,-1.246363,-0.281768,0.991673,0.019517,-0.061591
7352970616,-0.748669,-1.284221,-0.183524,1.003074,-0.001939,-0.063838
7352990685,-0.320053,-0.971615,-0.169957,1.003549,-0.030596,-0.064615
7353010706,1.051925,-0.880360,-0.410844,1.004092,-0.053449,-0.076024
7353030752,2.430502,-0.582497,-0.293398,1.002669,-0.021448,-0.086583
7353050798,2.368762,-0.414940,-0.330965,1.003616,0.052980,-0.080187
7353070844,0.802353,-0.339027,-0.277899,1.004382,0.074200,-0.067254
7353090889,-0.972857,-0.415882,-0.350177,0.993872,0.038619,-0.064928
7353110935,-2.186545,-0.050170,-0.251429,1.010621,0.006041,-0.084586
7353130982,-2.850999,0.253569,-0.644544,1.011629,0.005207,-0.094224
7353151028,-3.545272,0.771761,-0.579307,0.986295,-0.026850,-0.093013
7353171073,-3.737824,0.475326,-0.223077,0.993305,0.000088,-0.092632
7353191119,-4.902394,0.513798,0.066843,0.995688,0.044873,-0.079675
7353211165,-5.742986,0.323123,0.099072,0.984353,0.017734,-0.086699
7353231212,-6.158179,0.124583,-0.022116,0.985171,0.003335,-0.102394
7353251258,-5.160367,-0.127114,-0.224034,0.989041,-0.022794,-0.116759
7353271304,-3.700135,-0.202944,-0.229192,0.998085,-0.033252,-0.122252
7353291350,-2.589817,0.239549,-0.152871,1.007939,-0.015679,-0.121723
7353311396,-1.602723,0.499005,-0.119398,0.998043,-0.008938,-0.108403
7353331442,-1.496669,0.521766,-0.175022,0.970491,0.004043,-0.100965
7353351488,-1.086306,-0.248104,-0.287402,0.977610,0.002035,-0.111068
7353371532,-0.298649,-0.506968,-0.271258,0.993529,-0.031430,-0.116640
7353391578,0.892110,-0.392604,-0.386442,0.994004,-0.033776,-0.106114
7353411624,1.739529,-0.423023,-0.456275,0.995149,-0.010660,-0.102087
7353431670,1.986678,-0.277849,-0.324008,1.001683,0.002438,-0.108393
7353451716,2.236209,0.172448,-0.070539,1.007005,0.016551,-0.106238
7353471762,1.740556,0.507783,-0.008548,1.002731,0.033824,-0.109007
7353491808,1.116140,0.621259,-0.294826,0.981403,0.019513,-0.107440
7353511854,1.030390,0.002784,-0.787797,0.946350,-0.023545,-0.094334
7353531899,1.708414,-1.331905,-1.300846,0.990685,-0.032419,-0.107694
7353551945,3.010607,-0.606322,-0.770704,1.045961,-0.037739,-0.126692
7353571991,3.633170,0.613519,-0.634016,1.022522,-0.025353,-0.099715
7353592037,3.637053,0.652126,-0.420259,0.972895,-0.004105,-0.080476
7353612085,2.225863,-0.316598,-0.626536,0.953200,0.074643,-0.083448
7353632130,0.749642,-0.743805,-0.642318,0.996443,0.085867,-0.100181
7353652176,-0.467923,-0.301402,-0.337431,1.020433,0.030044,-0.100498
7353672222,-0.806205,0.094523,-0.454449,0.974543,-0.002746,-0.085046
7353692268,-0.173178,-0.598963,-0.517913,0.978246,-0.012769,-0.097619
7353712314,0.176159,-0.919232,-0.638247,0.997380,-0.010554,-0.095135
7353732360,0.444914,-0.919011,-0.574690,0.999873,-0.006453,-0.093460
7353752404,0.607788,-0.880566,-0.448074,0.985050,0.006814,-0.089144
7353772450,0.150340,-1.284397,-0.361438,0.984948,0.029186,-0.093174
7353792496,-0.850439,-1.155011,-0.319526,1.008362,0.027031,-0.096565
7353812542,-1.089263,-0.491347,-0.019084,1.023810,0.008321,-0.092258
7353832588,-1.049118,0.569131,0.473300,1.041333,0.022803,-0.097029
7353852634,-1.365789,2.131793,0.665279,1.027208,0.020866,-0.100235
7353872680,-1.103011,2.391320,0.812145,0.970035,0.003241,-0.091242
7353892726,-0.969247,1.034435,0.645955,0.957567,0.004367,-0.113000
7353912771,-1.187533,0.417576,0.858563,0.972841,0.027567,-0.125100
7353932818,-2.012490,0.112646,0.913793,0.989549,0.058078,-0.118808
7353952864,-3.514077,0.349078,1.163745,0.993619,0.053292,-0.101804
7353972910,-5.199773,0.135782,1.395843,0.995028,0.038584,-0.086008
7353992957,-6.425461,0.119909,1.266850,1.015581,0.013221,-0.092399
7354013003,-7.228666,0.645447,1.227196,1.007896,0.013027,-0.093084
7354033049,-7.428467,1.034892,1.581283,0.992116,-0.014305,-0.103300
7354053095,-7.685455,1.012348,1.746815,0.984713,0.012514,-0.106759
7354073140,-8.174730,0.585486,1.765372,0.983832,0.025089,-0.094509
7354093186,-8.840649,0.364224,1.733181,0.984049,0.028914,-0.092432
7354133277,-8.890697,0.272225,1.505215,1.001442,-0.019031,-0.107990
7354153322,-8.037098,0.576912,1.342450,0.996992,-0.039796,-0.117593
7354173368,-6.627287,0.721468,1.077727,0.982143,-0.032080,-0.114992
7354193414,-5.033616,0.401280,0.849192,0.996040,-0.049527,-0.115382
7354213460,-3.216093,0.546268,0.721744,0.996628,-0.064171,-0.114187
7354233506,-1.583468,0.310008,0.530380,0.980531,-0.040069,-0.104058
7354253552,-0.495022,0.088672,0.265471,0.998772,-0.029334,-0.119456
7354273598,0.251693,0.362869,0.112522,0.991527,-0.029422,-0.111253
7354293644,1.322609,0.180331,0.145840,0.986987,-0.024032,-0.094936
7354313690,2.122097,-0.094219,-0.029230,0.987597,-0.006475,-0.095429
7354333736,3.122330,0.027795,-0.110177,1.007959,-0.019845,-0.111186
7354353783,4.053514,0.416472,-0.213595,0.990562,-0.013142,-0.112989
7354373829,4.717457,0.081193,-0.271211,0.971627,-0.020434,-0.105210
7354413921,7.945362,-0.315019,-0.607619,1.010908,-0.069134,-0.103166
7354433966,10.326741,-0.086308,-0.845626,0.988860,-0.060046,-0.089824
7354454012,12.390926,-0.269663,-1.274783,0.994191,-0.067620,-0.107967
7354474058,15.299253,-0.322844,-1.537359,0.983605,-0.088288,-0.108751
7354494107,18.488731,-0.604786,-1.888685,0.981826,-0.079626,-0.095935
7354514149,21.473961,-1.038906,-2.113277,0.972837,-0.065424,-0.082461
7354534194,23.897160,-1.366995,-2.556560,0.991143,-0.062598,-0.094852
7354554240,26.473148,-1.473078,-2.590909,0.993416,-0.064788,-0.100424
7354574286,28.647961,-1.114894,-2.840621,1.012681,-0.048765,-0.109585
7354594332,30.600288,-0.756867,-3.131865,0.994922,-0.032691,-0.110670
7354614378,31.834740,-1.290502,-3.345078,0.948818,-0.030902,-0.089825
7354634424,33.635952,-1.968647,-3.500034,0.996321,-0.043314,-0.100055
7354654470,35.323406,-1.816086,-3.632625,1.007135,-0.053559,-0.089057
7354674516,36.847752,-0.809429,-3.512726,1.042734,-0.026877,-0.103325
7354694562,37.833809,0.044279,-3.557626,1.009082,0.009372,-0.103084
7354714608,37.443764,0.105123,-3.565543,0.980981,0.032071,-0.104821
7354734655,36.466072,-0.443675,-3.491255,0.975992,0.025972,-0.103364
7354754701,35.256092,-0.588044,-3.169278,0.988375,0.026176,-0.100580
7354774747,34.345337,-0.527440,-3.220581,1.005939,0.019836,-0.099598
7354794793,33.561481,0.005258,-3.459312,1.011688,0.002276,-0.105840
7354814839,33.235451,0.256997,-3.316278,0.997574,0.008437,-0.107970
7354834885,32.199028,0.310506,-3.128233,1.000935,0.043088,-0.116527
7354854931,30.059586,0.744474,-3.065239,0.985763,0.062378,-0.101231
7354874976,28.621325,0.219170,-2.668792,0.985765,0.054364,-0.106483
7354895021,26.498863,0.013255,-2.489376,0.975783,0.053437,-0.107945
7354915067,25.032423,-0.291747,-2.391133,0.997184,0.041436,-0.121816
7354935113,23.947552,0.043366,-2.355914,1.009194,0.010697,-0.126236
7354955158,23.247719,0.484632,-2.595972,1.001960,-0.011225,-0.118814
7354975205,22.904652,0.576114,-2.543771,0.985279,0.002409,-0.111290
7354995250,21.127058,0.530422,-2.325731,0.997865,0.062201,-0.108608
7355015296,17.750587,0.392743,-2.152775,0.979089,0.106420,-0.089117
7355035342,13.871484,0.057060,-1.862426,0.985978,0.109709,-0.086880
7355055388,10.041240,-0.331565,-1.404736,0.975460,0.117807,-0.077364
7355075434,6.128620,-0.643785,-0.854006,0.994500,0.114100,-0.080315
7355095480,1.973399,-0.248102,-0.637148,1.014606,0.082733,-0.086506
7355115527,-0.943801,0.064009,-0.451677,0.997188,0.044316,-0.087416
7355135573,-2.570433,-0.172405,-0.335271,0.999310,0.033022,-0.096693
7355155619,-4.119871,-0.042927,-0.191014,0.993278,0.057214,-0.095359
7355175665,-6.294981,-0.203021,0.035120,0.993310,0.075422,-0.087674
7355195716,-9.094461,-0.065753,0.394642,0.998959,0.078167,-0.083418
7355215757,-12.030443,0.025902,0.818097,1.001925,0.079068,-0.090823
7355235802,-14.944723,0.140264,1.172282,0.987960,0.080405,-0.095035
7355255860,-17.426470,-0.157182,1.358975,0.978390,0.073660,-0.094316
7355275892,-19.635252,-0.912072,1.434914,0.971216,0.052645,-0.088530
7355295939,-21.390661,-1.049300,1.614620,0.997892,0.042668,-0.093780
7355315985,-23.269793,-0.934278,2.132112,1.010323,0.060793,-0.092206
7355336030,-25.771492,-0.370245,2.453870,1.005680,0.095625,-0.094091
7355356076,-28.905136,-0.110848,2.934092,1.004371,0.107621,-0.099808
7355376122,-32.026527,0.148157,3.245965,0.994495,0.081295,-0.111760
7355396168,-34.485001,-0.034934,3.447109,0.982024,0.034317,-0.122090
7355416214,-35.537945,-0.454050,3.583557,0.979838,-0.002070,-0.119178
7355436260,-35.568172,-0.812168,3.615901,0.992298,-0.008044,-0.112663
7355456306,-35.217209,-0.461636,3.562076,0.994416,0.005880,-0.110907
7355476352,-34.692894,-0.522880,3.383994,0.983986,0.007029,-0.121443
7355496399,-34.456039,-0.439015,3.371477,0.988751,0.010222,-0.120440
7355516445,-33.910896,-0.461434,3.498520,1.016667,-0.000402,-0.132700
7355536491,-33.563053,0.324044,3.680192,1.006383,-0.018693,-0.126956
7355556537,-33.298111,0.171363,3.538013,0.974765,-0.031378,-0.123582
7355576582,-32.408562,-0.111003,3.269524,0.981208,-0.042555,-0.121676
7355616674,-29.247175,-0.148778,3.047835,0.993689,-0.012581,-0.106961
7355636721,-27.961535,-0.056844,3.106638,0.995815,-0.015578,-0.105812
7355656765,-26.440847,0.103480,3.053672,0.991587,-0.028142,-0.107988
7355676811,-24.919044,-0.049475,2.650221,0.970146,-0.048170,-0.098239
7355696857,-22.723288,-0.743150,2.327190,0.965548,-0.068907,-0.091409
7355716903,-20.312441,-1.238508,2.052815,1.001245,-0.069593,-0.097282
7355736949,-17.647821,-0.727726,1.823657,1.029325,-0.060732,-0.099591
7355756995,-15.277489,0.164502,1.797616,1.032555,-0.063007,-0.102819
7355777040,-12.980170,0.896138,1.544284,1.007150,-0.061697,-0.113100
7355797086,-10.515272,0.873324,1.282570,0.971772,-0.056748,-0.114321
7355817132,-8.456907,0.263466,0.969567,0.975685,-0.053840,-0.119748
7355837178,-6.061251,-0.064236,0.694929,0.982256,-0.044196,-0.124324
7355857224,-3.817509,-0.178478,0.468376,0.985633,-0.052743,-0.125003
7355877271,-1.733917,-0.147924,0.259732,0.991559,-0.068112,-0.126531
7355917363,2.595092,0.042937,-0.092355,1.000024,-0.031337,-0.121017
7355937409,3.433607,0.218101,-0.239113,0.997713,-0.000500,-0.120575
7355977501,4.213974,-0.147403,-0.199549,0.974748,-0.003167,-0.117910
7355997547,4.329487,-0.322533,-0.147717,0.990011,0.004118,-0.126715
7356017598,4.443077,-0.246442,-0.211306,0.995807,-0.004058,-0.124985
7356037637,5.137910,-0.269239,-0.262920,0.986230,-0.032332,-0.106528
7356057683,6.028178,-0.498169,-0.493394,0.998070,-0.040672,-0.099182
7356077729,7.394086,-0.307646,-0.650437,0.999770,-0.031748,-0.095685
7356097775,8.246527,-0.102175,-0.873981,0.995259,-0.017109,-0.096631
7356117821,8.618311,-0.300576,-1.025722,0.982701,0.003712,-0.092821
7356137867,8.550579,-0.620508,-0.954570,0.981978,0.020270,-0.091383
7356157913,8.089271,-0.680933,-0.670325,1.001021,0.026290,-0.098436
7356177959,7.315636,-0.460332,-0.755387,1.005064,0.022204,-0.097408
7356198004,6.622091,-0.353544,-0.635304,0.988820,0.015375,-0.087316
7356218050,5.973617,-0.422115,-0.553720,0.996776,0.021210,-0.086463
7356238096,5.142956,-0.231474,-0.408331,1.008038,0.039053,-0.088772
7356258143,3.485251,0.103566,-0.339073,1.002228,0.046955,-0.091228
7356278189,1.625167,0.179987,-0.035783,0.991781,0.050112,-0.097682
7356298235,-0.054554,-0.056385,0.104578,0.976010,0.040266,-0.096671
7356318281,-1.084932,-0.391720,0.217385,0.989467,0.028825,-0.095792
7356338332,-1.855202,-0.315468,0.323775,0.999452,0.021299,-0.089867
7356358373,-2.762865,-0.155399,0.440193,0.998775,0.014917,-0.097108
7356378419,-3.184539,-0.010874,0.371480,0.997750,0.007354,-0.103523
7356398485,-3.447875,-0.041864,0.185657,0.986775,-0.004682,-0.109852
7356418509,-3.216321,-0.193926,0.311574,0.991967,-0.008869,-0.115743
7356438555,-2.643655,-0.239596,0.270049,0.995907,-0.014859,-0.110626
7356458601,-1.904796,-0.094974,0.110043,1.000776,-0.020945,-0.109519
7356478647,-0.830879,0.041941,-0.125212,0.990345,-0.025411,-0.105884
7356498693,0.124944,-0.194023,-0.112408,0.980846,-0.021322,-0.100736
7356518739,1.094127,-0.422613,-0.206868,0.992166,-0.015765,-0.105568
7356538785,1.668295,-0.254717,-0.172719,1.006166,-0.002203,-0.113182
7356558831,1.949047,0.019411,-0.301343,1.002800,0.015253,-0.116240
7356578877,1.314801,0.270760,-0.289872,0.982737,0.015864,-0.114446
7356598922,0.770083,-0.307781,0.051206,0.970504,0.012208,-0.114323
7356618968,-0.056404,-0.635771,0.022486,0.991996,0.030165,-0.111814
7356639016,-0.982218,-0.422735,-0.021390,1.009695,0.033390,-0.103043
7356659061,-1.819965,0.019448,0.146223,1.006950,0.013370,-0.104507
7356679107,-2.171983,0.232683,0.121778,0.988841,0.007882,-0.106095
7356699153,-2.552993,0.080341,0.198451,0.988132,-0.001596,-0.115236
7356719199,-2.353342,0.011923,0.248295,0.996644,-0.000135,-0.119105
7356739245,-2.285288,0.171870,0.200593,0.992123,0.001600,-0.111678
7356759291,-2.084872,-0.003134,0.296626,0.985482,0.005423,-0.105126
7356779337,-2.205014,-0.101946,0.421549,0.987053,0.017072,-0.103447
7356799381,-2.948286,-0.247141,0.337116,0.991080,0.028361,-0.102355
7356819427,-4.153933,-0.148088,0.467162,0.990100,0.031637,-0.100800
7356839473,-5.384709,-0.277935,0.483835,0.993047,0.030643,-0.099578
7356859519,-6.430892,-0.316148,0.557752,0.996239,0.023633,-0.105158
7356879565,-7.621012,-0.278022,0.702982,0.998791,0.020724,-0.105651
7356899611,-8.390472,-0.232146,0.855306,0.998925,0.026742,-0.098128
7356919657,-9.020482,-0.048830,1.103805,0.995801,0.036761,-0.088742
7356939702,-10.038449,-0.110203,1.047348,0.991101,0.021283,-0.091904
7356959748,-10.639767,-0.079532,1.196460,0.986818,0.021261,-0.101090
7356979794,-11.786036,-0.178823,1.234316,0.995571,0.045101,-0.105364
7356999840,-13.486955,0.202272,1.449447,1.002590,0.053207,-0.105588
7357019888,-14.801224,0.125824,1.498128,0.998893,0.040287,-0.103869
7357039934,-16.128922,0.163919,1.646028,0.990715,0.026615,-0.112149
7357059979,-16.951935,0.118332,1.799695,0.989916,0.026326,-0.120668
7357080025,-17.837460,0.103036,1.878061,0.994806,0.026255,-0.113217
7357100071,-18.607668,0.049751,1.992522,0.989382,0.025260,-0.105407
7357120117,-20.094759,-0.133035,2.213023,0.965561,0.025872,-0.099464
7357140163,-21.117178,-0.879825,2.357611,0.968338,0.033423,-0.101884
7357160209,-22.363798,-1.017369,2.344052,1.004413,0.034996,-0.116663
7357180253,-23.475569,-0.285527,2.569507,1.028086,0.035206,-0.120698
7357200299,-24.354559,0.407726,2.561331,1.021255,0.024445,-0.130005
7357220345,-24.779156,0.850055,2.743851,0.996409,0.012052,-0.121118
7357240391,-24.871544,0.407968,2.724191,0.971881,0.001929,-0.114601
7357280483,-24.697113,-0.049390,2.661197,0.989605,-0.011601,-0.115244
7357300529,-24.148153,-0.003721,2.573978,0.992761,-0.005860,-0.112221
7357320575,-23.625877,0.088168,2.701084,0.984945,-0.001682,-0.109825
7357340620,-23.137676,-0.155699,2.646575,0.982632,-0.008694,-0.111862
7357360667,-22.505198,-0.125325,2.527220,1.001406,-0.008142,-0.123803
7357380713,-22.492531,0.118189,2.373335,1.002576,0.002313,-0.128924
7357400760,-22.554586,-0.026730,2.329173,0.985194,0.003940,-0.120551
7357420806,-22.630039,-0.239989,2.392478,0.978312,0.004581,-0.112446
7357440851,-22.569231,-0.590555,2.384825,0.988600,-0.010593,-0.110327
7357460897,-22.064722,-0.491371,2.374704,0.999284,-0.009932,-0.105608
7357480943,-21.752916,-0.346719,2.276475,0.992466,-0.005291,-0.098691
7357500989,-21.467291,-0.224362,2.423354,0.983857,0.001419,-0.104365
7357521035,-21.499979,-0.552319,2.318100,0.989788,0.017878,-0.113390
7357541081,-22.032427,-0.620686,2.473847,0.997742,0.027526,-0.117263
7357561125,-22.706310,-0.438113,2.409901,1.010876,0.025624,-0.123294
7357581171,-23.776806,-0.004050,2.391021,1.002912,0.019614,-0.119699
7357601217,-24.614807,0.232351,2.551682,0.997648,0.020065,-0.117885
7357621263,-25.736546,0.278059,2.672635,0.986870,0.027236,-0.117441
7357641309,-26.705044,0.019037,2.822195,0.973774,0.030953,-0.114137
7357661355,-27.882969,-0.522382,2.816288,0.978179,0.025304,-0.123099
7357681401,-28.903765,-0.362141,3.018957,0.997664,0.024126,-0.136229
7357701447,-29.656689,-0.064628,3.231254,1.000525,0.019377,-0.149523
7357721493,-30.619576,0.224752,3.248975,0.997344,0.020175,-0.158367
