Timestamp (us),Gyroscope X (deg/s),Gyroscope Y (deg/s),Gyroscope Z (deg/s),Accelerometer X (g),Accelerometer Y (g),Accelerometer Z (g)
2478742391,-0.571591,0.276302,0.570922,-0.297783,-0.340560,-0.893839
2478762421,-0.745049,0.063115,0.374532,-0.293671,-0.334943,-0.892990
2478782450,-0.538148,0.115439,0.456532,-0.298338,-0.335291,-0.890787
2478802479,-0.574793,0.290838,0.658273,-0.300288,-0.335840,-0.888268
2478822508,-0.504835,0.305017,0.641331,-0.301697,-0.334906,-0.890655
2478842538,-0.381730,0.043694,0.210337,-0.300525,-0.330977,-0.894161
2478862567,-0.182401,-0.134197,-0.265851,-0.295988,-0.332459,-0.894648
2478882598,0.031078,-0.089503,-0.341112,-0.294139,-0.337216,-0.893110
2478902627,-0.083034,-0.225972,-0.467878,-0.297425,-0.341597,-0.888183
2478922656,-0.355878,-0.239550,-0.603064,-0.298197,-0.344334,-0.886486
2478942686,-0.590420,-0.283553,-0.669467,-0.299421,-0.337768,-0.886537
2478962715,-0.679098,0.037318,-0.534211,-0.299060,-0.336738,-0.891725
2478982752,-0.852298,-0.129495,-0.682937,-0.300237,-0.337547,-0.892299
2479002774,-0.941605,-0.395665,-0.928977,-0.296884,-0.337480,-0.891879
2479022803,-1.052331,-0.219455,-0.973694,-0.297363,-0.339666,-0.891268
2479042832,-1.247927,-0.300959,-0.841761,-0.299076,-0.343955,-0.888140
2479062860,-1.883440,-0.059472,-0.372235,-0.295954,-0.358201,-0.885209
2479082889,-2.859751,0.183029,0.125912,-0.298106,-0.348423,-0.888349
2479102919,-3.286424,0.179554,0.717111,-0.293384,-0.334939,-0.893899
2479122948,-3.264531,0.340884,1.193440,-0.296562,-0.333557,-0.893298
2479142978,-3.508966,0.259265,1.436635,-0.301430,-0.333877,-0.895663
2479163007,-3.522226,0.807676,1.523009,-0.301311,-0.327236,-0.894413
2479183036,-3.355815,0.555434,1.472133,-0.299944,-0.318487,-0.896592
2479203065,-2.830645,0.544431,1.290508,-0.297945,-0.310289,-0.898857
2479223095,-2.039788,0.631811,1.358396,-0.298311,-0.303985,-0.901635
2479243124,-1.210575,0.496980,1.049063,-0.298905,-0.309723,-0.901059
2479263154,-0.822345,0.257488,0.611499,-0.294518,-0.317405,-0.900602
2479283183,-0.350508,0.078727,0.256869,-0.295778,-0.315303,-0.900329
2479303212,0.113122,-0.229311,-0.073933,-0.296436,-0.316489,-0.899438
2479323242,0.487193,-0.347501,-0.679329,-0.302430,-0.314999,-0.898608
2479343272,1.213049,-0.645444,-2.124659,-0.300820,-0.297144,-0.900608
2479363301,2.949802,-1.613418,-4.299340,-0.292461,-0.277049,-0.903573
2479383330,4.140269,-1.654677,-3.373400,-0.290844,-0.321328,-0.887615
2479403368,2.350988,-0.473001,1.157497,-0.273124,-0.420042,-0.863590
2479423389,-3.045541,1.633221,7.847370,-0.288838,-0.473013,-0.869631
2479443418,-10.572710,3.660741,12.671676,-0.318156,-0.518852,-0.850081
2479463448,-18.743067,5.352229,16.148874,-0.316281,-0.463926,-0.852282
2479483476,-24.277775,6.749580,20.061998,-0.293878,-0.395304,-0.866346
2479503505,-28.134764,7.353365,23.777882,-0.302347,-0.382509,-0.864722
2479523534,-33.288872,8.457902,29.498190,-0.300881,-0.436133,-0.854970
2479543564,-41.055668,9.864059,37.049572,-0.289191,-0.464831,-0.866548
2479563593,-49.972256,11.331595,45.198875,-0.306910,-0.471201,-0.880133
2479583622,-59.985210,12.783578,53.787537,-0.314986,-0.461021,-0.899067
2479603652,-70.449829,13.224539,62.066017,-0.275854,-0.459594,-0.904352
2479623681,-81.622650,12.501059,71.544327,-0.245189,-0.428396,-0.929584
2479643710,-92.587204,10.970989,81.431366,-0.247724,-0.386658,-0.946037
2479663739,-103.740906,8.569743,92.265800,-0.239904,-0.360245,-0.969768
2479683769,-114.610863,4.521284,102.636536,-0.228880,-0.286854,-1.008805
2479703798,-125.081413,-0.763898,112.562927,-0.220571,-0.254220,-1.037765
2479723828,-136.610687,-7.623584,123.427040,-0.195508,-0.209373,-1.070174
2479743858,-148.930481,-15.977395,132.385025,-0.168781,-0.141393,-1.088191
2479763887,-159.647507,-25.920408,139.833130,-0.136943,-0.004380,-1.094075
2479783916,-167.353149,-37.722061,144.826553,-0.130086,0.109256,-1.063151
2479803946,-172.626190,-50.507080,146.425034,-0.101654,0.215967,-1.039061
2479823975,-176.295364,-63.529617,145.554504,-0.096004,0.329921,-0.982956
2479844005,-177.783142,-76.907135,142.148010,-0.084857,0.445552,-0.923460
2479864034,-178.251297,-90.627205,138.077667,-0.072599,0.484450,-0.905921
2479884081,-181.815948,-106.193634,134.643036,-0.076207,0.584781,-0.972517
2479904091,-186.358459,-121.948914,130.094986,-0.039624,0.626571,-0.929998
2479924121,-191.241425,-137.566666,122.891861,-0.004261,0.714573,-0.875659
2479944150,-194.317368,-151.540695,113.878830,0.028549,0.826477,-0.699172
2479964179,-193.896744,-163.774689,102.669250,0.047207,0.889425,-0.563080
2479984208,-192.042114,-173.888718,88.060936,0.055336,0.908704,-0.487635
2480004237,-191.419785,-183.460678,71.999298,0.050757,0.982796,-0.410793
2480024267,-189.975021,-189.736603,55.000530,0.065147,0.994182,-0.268858
2480044296,-187.298691,-193.145248,36.969860,0.044428,1.017964,-0.169555
2480064325,-183.569107,-193.177704,19.578571,0.052762,0.998829,-0.019966
2480084355,-178.393265,-190.269257,3.004907,0.035896,1.013713,0.101866
2480104384,-171.816635,-183.930710,-12.194191,0.000586,1.028185,0.235993
2480124413,-163.693680,-177.014664,-25.251654,-0.004145,0.947266,0.357136
2480144444,-154.734344,-169.040680,-37.021049,-0.019771,0.909415,0.445361
2480184502,-136.108078,-151.422943,-56.342716,-0.074881,0.848741,0.569251
2480204532,-128.240921,-142.849472,-63.575993,-0.082217,0.821925,0.567605
2480224561,-122.517517,-135.266083,-69.823898,-0.117279,0.806796,0.590997
2480264620,-111.737427,-120.357941,-81.044075,-0.094564,0.714405,0.681806
2480284649,-104.371040,-110.628578,-84.860184,-0.095238,0.500694,0.843508
2480304683,-87.741524,-98.986588,-84.783081,-0.253669,0.426638,1.013981
2480324706,-75.078674,-89.098740,-82.911385,-0.171504,0.535550,0.836292
2480344735,-69.382965,-81.020798,-82.460876,-0.186401,0.607708,0.770529
2480364764,-67.659050,-74.829567,-83.437035,-0.198743,0.684317,0.688507
2480384794,-74.243294,-77.133865,-93.209381,-0.213636,0.895464,0.545791
2480404823,-86.568680,-78.336731,-101.386345,-0.219794,0.845889,0.603843
2480424853,-93.683411,-75.992874,-108.256104,-0.120750,0.615176,0.779060
2480444882,-95.541916,-70.988983,-112.590500,-0.168017,0.542174,0.836866
2480464911,-98.233505,-66.350784,-116.065437,-0.153981,0.596464,0.805643
2480484941,-106.395744,-63.169979,-122.427147,-0.091917,0.662258,0.796944
2480524999,-124.400284,-53.536259,-138.090393,-0.111727,0.471900,0.863150
2480545029,-128.865417,-45.317417,-143.446289,-0.140985,0.315423,0.892723
2480565059,-128.232758,-35.409695,-147.843399,-0.150100,0.132835,0.911245
2480585088,-122.714653,-24.416256,-149.889221,-0.191790,-0.002816,0.944096
2480605118,-119.117218,-15.081703,-152.551376,-0.146293,0.066530,0.968939
2480625147,-122.099915,-6.327894,-157.198318,-0.089898,0.171604,1.009719
2480645177,-127.629219,3.646688,-160.469223,-0.077039,0.065907,1.033782
2480665206,-130.395035,13.786365,-164.619705,-0.056000,-0.100347,0.983288
2480685235,-130.929611,25.576862,-167.797318,-0.047964,-0.219216,0.990444
2480705264,-129.730698,37.182446,-168.902588,-0.075303,-0.311692,0.960934
2480725292,-127.814209,49.492256,-167.700897,-0.077253,-0.370011,0.919829
2480745322,-126.379913,60.692043,-164.602173,-0.111953,-0.435951,0.908613
2480765351,-124.442131,70.420151,-159.216232,-0.112718,-0.498669,0.871046
2480785380,-122.381485,79.680229,-152.469086,-0.099618,-0.562674,0.851952
2480805409,-120.704102,88.005386,-145.934158,-0.117672,-0.600465,0.822369
2480825439,-119.222664,95.221619,-138.988144,-0.131244,-0.661131,0.774480
2480845468,-116.712837,101.459778,-131.540619,-0.143275,-0.741579,0.711917
2480865497,-113.318321,106.895645,-123.608231,-0.144204,-0.772077,0.647075
2480885527,-109.063698,111.424171,-114.773125,-0.203448,-0.869595,0.594451
2480905556,-103.003212,113.737999,-105.251328,-0.204436,-0.895494,0.506370
2480925585,-96.149750,114.898918,-95.529915,-0.216766,-0.930301,0.442947
2480945615,-88.742683,114.155258,-85.420715,-0.272143,-0.955431,0.390598
2480985675,-75.736282,112.446274,-68.325165,-0.291367,-0.919934,0.352819
2481005704,-70.700836,111.049545,-61.494686,-0.291327,-0.916356,0.316974
2481025733,-66.633659,110.363792,-55.277210,-0.208801,-0.898254,0.342675
2481045763,-65.201614,116.055328,-51.374027,-0.267744,-0.900952,0.336945
2481065792,-63.122696,116.323990,-47.424995,-0.321419,-0.983325,0.242648
2481085821,-56.772522,112.436897,-41.171959,-0.292650,-1.024024,0.114380
2481105850,-51.153728,107.699165,-35.518700,-0.268799,-0.952969,0.276284
2481125880,-56.567368,110.655487,-34.113121,-0.283876,-0.850668,0.526674
2481165937,-79.353928,124.648933,-28.388247,-0.200965,-0.917852,0.273786
2481185967,-82.199471,128.357849,-23.219437,-0.256042,-0.937530,0.129012
2481205996,-82.254135,130.385239,-17.982084,-0.281402,-0.933175,0.080529
2481226025,-82.871544,131.246399,-11.840522,-0.260985,-0.947989,0.068673
2481246054,-84.476151,132.638977,-5.415779,-0.216071,-0.962574,0.069542
2481266084,-88.440178,137.080826,0.906399,-0.237068,-1.000609,0.053876
2481286113,-93.364403,141.124924,7.405841,-0.219699,-1.003298,0.027567
2481306142,-98.126236,144.332367,14.352149,-0.204693,-1.024122,-0.041674
2481326171,-101.575531,146.962402,21.432838,-0.186496,-1.011193,-0.154736
2481346201,-104.232048,148.722565,29.127781,-0.168193,-0.989839,-0.212578
2481366230,-105.603088,149.474136,37.711338,-0.178494,-0.951450,-0.303045
2481386259,-105.668541,148.440155,47.053566,-0.196115,-0.917929,-0.363002
2481406290,-105.446434,147.214966,56.571930,-0.216206,-0.883081,-0.397880
2481426319,-104.944183,143.688934,65.912598,-0.233010,-0.859185,-0.479640
2481446349,-103.089813,138.697037,73.818062,-0.249993,-0.830687,-0.553692
2481466378,-101.271347,133.489182,80.823044,-0.229178,-0.811470,-0.575634
2481486407,-100.151993,127.879578,87.216919,-0.236026,-0.794218,-0.606078
2481506437,-98.820976,121.100616,92.536461,-0.251509,-0.760873,-0.669288
2481526466,-96.757874,113.979248,96.775002,-0.223591,-0.712294,-0.720057
2481566523,-90.845062,99.031456,102.119858,-0.243019,-0.633836,-0.783462
2481586552,-88.240204,91.790474,103.326813,-0.240442,-0.598536,-0.810482
2481606582,-85.054214,85.230927,104.369102,-0.251360,-0.532912,-0.837440
2481626611,-81.555031,78.637642,104.926575,-0.249936,-0.500173,-0.861490
2481646640,-78.928757,72.559654,105.684021,-0.254394,-0.486942,-0.860709
2481666670,-76.932495,66.636787,106.310951,-0.239255,-0.463323,-0.865996
2481686699,-75.650612,60.893219,107.064926,-0.262957,-0.429783,-0.891177
2481706728,-73.658005,55.004570,106.539108,-0.256304,-0.381793,-0.911805
2481726757,-71.445778,49.536045,106.798370,-0.249500,-0.330646,-0.911587
2481746787,-69.132805,44.011513,106.406128,-0.259671,-0.306012,-0.923484
2481766816,-67.082748,38.561569,105.141174,-0.275798,-0.290536,-0.936110
2481786845,-65.952744,33.819790,104.772095,-0.261935,-0.260551,-0.938164
2481806875,-65.239426,29.789549,104.829025,-0.255447,-0.251128,-0.936602
2481826906,-64.693680,25.454767,104.600327,-0.262207,-0.194994,-0.949247
2481846935,-59.665493,19.761900,101.428154,-0.264305,0.073370,-0.966702
2481866964,-46.493965,16.799530,94.589996,-0.307899,0.257814,-0.934482
2481886993,-28.254711,12.712969,82.842957,-0.302895,0.094395,-1.032501
2481907023,-23.927509,10.968908,75.777992,-0.288774,-0.098693,-0.971795
2481927052,-23.373404,9.369423,74.085716,-0.278683,-0.078754,-0.981123
2481947081,-22.053219,7.270804,70.032387,-0.276547,-0.033948,-0.934753
2481967110,-18.228832,5.729406,68.128899,-0.281048,0.051909,-0.939054
2481987139,-13.240847,4.036381,68.244102,-0.274803,0.056927,-0.947213
2482007168,-9.282528,3.162232,68.048637,-0.308669,0.038885,-0.972671
2482027197,-5.657928,3.336056,66.593163,-0.303983,0.063225,-0.965249
2482047226,-0.611276,3.471471,65.009796,-0.303448,0.119826,-0.956409
2482067256,6.889445,3.603136,61.645874,-0.306720,0.174297,-0.937335
2482087285,15.933757,4.016766,56.278637,-0.319791,0.168245,-0.963530
2482107314,23.482924,4.458552,50.137070,-0.302227,0.127182,-0.938245
2482147373,34.835075,3.770241,39.866997,-0.289694,0.093506,-0.924659
2482167402,39.919189,3.156855,35.226772,-0.299686,0.087819,-0.938568
2482187431,45.093971,2.619996,30.851320,-0.286627,0.078739,-0.941726
2482207460,50.640293,2.380285,27.148365,-0.301629,0.084614,-0.949311
2482227490,57.211174,2.473341,24.421200,-0.304602,0.099550,-0.961454
2482247521,64.892326,2.888937,22.025478,-0.306429,0.093322,-0.969393
2482267550,73.228882,3.452352,19.348293,-0.311017,0.077831,-0.979105
2482287579,81.619003,3.915770,16.444510,-0.309815,0.051419,-0.980882
2482307608,89.612709,3.908477,13.279114,-0.300784,0.006934,-0.968822
2482327638,96.853165,3.500638,9.783104,-0.304499,-0.046025,-0.958417
2482347667,103.035843,2.954162,6.401479,-0.297115,-0.105040,-0.952178
2482367696,108.159714,1.918512,3.015867,-0.296099,-0.155605,-0.935466
2482387725,112.208046,0.555835,0.284542,-0.298316,-0.205831,-0.926655
2482407755,115.737274,-0.970099,-2.013482,-0.302021,-0.248907,-0.924009
2482427783,119.517525,-2.130606,-3.897438,-0.302139,-0.275273,-0.916769
2482447812,123.896431,-3.605647,-5.566164,-0.294484,-0.306719,-0.921226
2482467841,129.013718,-4.879135,-7.251390,-0.299541,-0.340871,-0.932579
2482487871,135.246902,-6.095605,-8.329986,-0.294999,-0.375239,-0.948344
2482507900,141.855453,-7.699120,-10.739601,-0.293594,-0.429837,-0.911852
2482527929,147.883545,-9.533816,-12.639557,-0.292326,-0.468850,-0.876952
2482547958,153.421509,-12.210730,-14.509930,-0.287534,-0.531034,-0.839837
2482567987,157.853928,-15.811118,-16.585381,-0.302934,-0.646976,-0.778166
2482588017,161.980438,-13.408179,-15.322186,-0.270558,-0.576860,-0.872120
2482608046,169.814728,-16.357248,-15.278472,-0.372174,-0.652985,-0.782908
2482628076,174.515854,-13.312052,-12.253760,-0.218020,-0.675610,-0.659008
2482648105,177.543716,-14.040608,-9.092020,-0.226213,-0.752189,-0.575859
2482668136,178.900299,-11.513391,-4.654303,-0.264989,-0.837295,-0.497486
2482688165,179.542328,-8.783875,-2.303710,-0.298251,-0.898511,-0.476500
2482708194,180.216385,-9.732580,-2.682106,-0.307910,-0.947438,-0.432375
2482728224,182.136536,-11.038656,-3.246452,-0.321069,-0.927641,-0.423733
2482748253,187.487625,-14.245153,-4.445243,-0.323848,-0.897634,-0.459014
2482768282,195.986298,-16.650394,-4.610491,-0.327928,-0.898831,-0.436633
2482788311,204.207504,-18.905117,-3.457850,-0.286749,-0.939733,-0.307161
2482808341,208.981995,-21.077795,-1.443203,-0.257792,-0.969401,-0.122460
2482828396,209.467224,-21.346395,0.940069,-0.269406,-0.988743,0.037119
2482848398,206.778534,-21.082611,2.718350,-0.267703,-0.954993,0.152763
2482868427,203.105057,-19.961210,4.458626,-0.255947,-0.929594,0.237088
2482888457,199.100296,-18.122921,6.086572,-0.278320,-0.922151,0.312750
2482908486,194.968094,-16.278149,7.176073,-0.282145,-0.881643,0.384271
2482928515,190.486984,-14.898613,7.442861,-0.304538,-0.843605,0.445974
2482948544,186.014938,-14.682301,8.136436,-0.296751,-0.806524,0.499029
2482968574,182.241135,-14.758877,8.847973,-0.323387,-0.774518,0.521624
2482988603,178.956818,-16.919811,10.714563,-0.311026,-0.735817,0.573216
2483008632,175.182205,-17.759785,13.032335,-0.278394,-0.671442,0.652215
2483028662,169.742081,-16.167725,13.873116,-0.292959,-0.599649,0.727960
2483048691,163.058395,-14.572486,13.697266,-0.269091,-0.508326,0.787438
2483068720,154.502838,-9.992817,10.743145,-0.268884,-0.480313,0.810159
2483088751,151.944611,-6.758027,8.902622,-0.308705,-0.694937,0.652418
2483108781,158.986176,-5.107497,8.308347,-0.280977,-0.726313,0.630029
2483128810,163.820312,-3.014722,6.723616,-0.305553,-0.587021,0.778632
2483148839,166.023132,-6.096600,10.473373,-0.361375,-0.525004,0.840834
2483168868,165.582550,-5.070591,9.304483,-0.279807,-0.364300,0.858710
2483188903,163.742661,-4.724538,9.717704,-0.322441,-0.355664,0.860288
2483208927,164.430267,-4.433515,9.063532,-0.323448,-0.349268,0.857866
2483228956,165.737839,-3.377968,8.115120,-0.296087,-0.280710,0.880946
2483248985,166.648560,-2.548108,7.335217,-0.292976,-0.218068,0.913620
2483269013,166.776184,-1.614743,6.675380,-0.288578,-0.160449,0.931296
2483289043,167.311951,-1.040319,6.306874,-0.284235,-0.121158,0.920958
2483309072,168.790375,-0.340828,6.134910,-0.300717,-0.098113,0.922912
2483329101,171.262985,0.026583,6.110273,-0.313718,-0.053571,0.921012
2483349130,173.750900,0.110960,5.693752,-0.319942,0.039579,0.948978
2483369160,177.109497,-1.204474,0.072913,-0.320100,-0.050610,0.935726
2483389189,181.904190,-1.295946,-1.470751,-0.317416,0.078541,0.950202
2483409218,185.433426,-2.653859,-5.870431,-0.298073,0.170560,0.910102
2483429248,186.057663,-2.986626,-6.511815,-0.320724,0.330771,0.857535
2483449277,184.867798,-3.144601,-5.563300,-0.331573,0.386710,0.804286
2483469306,184.629578,-1.978973,-3.366808,-0.316381,0.289738,0.781726
2483489336,191.002823,-0.356120,-1.921587,-0.293006,0.243466,0.851153
2483509365,198.628036,-1.756452,-3.422564,-0.366357,0.372971,0.886124
2483529395,203.910751,-4.114190,-3.582184,-0.376032,0.571750,0.781630
2483549425,203.482605,-6.050823,-2.951979,-0.332209,0.740370,0.621216
2483569454,199.032440,-8.891047,-5.743247,-0.251613,0.796961,0.514593
2483589483,194.015869,-11.625142,-9.559263,-0.263021,0.767867,0.470317
2483609513,191.520844,-13.796685,-11.877527,-0.306496,0.770231,0.470545
2483629542,191.099915,-13.913927,-11.186774,-0.336061,0.745352,0.457236
2483649571,191.853470,-14.790048,-10.223707,-0.353769,0.774743,0.418420
2483669601,193.516251,-13.313704,-7.702875,-0.352930,0.794672,0.373702
2483689628,195.271759,-11.541306,-5.275468,-0.362401,0.839151,0.331690
2483709658,196.968964,-9.075610,-2.755343,-0.353033,0.870118,0.274796
2483729687,198.769409,-5.781790,-0.537824,-0.344671,0.906254,0.191641
2483749717,199.463867,-1.951233,1.098413,-0.325511,0.937095,0.083142
2483769746,198.390091,-0.109444,1.590431,-0.280451,0.950671,-0.028931
2483789775,195.232498,1.239512,1.638234,-0.296519,0.973123,-0.129408
2483809805,191.507736,3.131082,1.438580,-0.267185,0.946901,-0.194266
2483829834,188.888779,3.576472,0.736020,-0.268483,0.920839,-0.175265
2483849863,188.460495,5.965835,-0.163774,-0.287138,0.918980,-0.243143
2483869892,186.829025,6.101202,-0.961821,-0.269316,0.898546,-0.335614
2483889922,184.754288,5.989003,-1.378898,-0.271824,0.859438,-0.390428
2483909951,182.432709,6.424292,-2.354186,-0.273637,0.859127,-0.460574
2483929980,179.443329,1.213820,-1.455104,-0.267638,0.778540,-0.549959
2483950011,174.588470,-3.594155,0.758985,-0.298355,0.774479,-0.602168
2483970040,169.139786,-8.038923,3.659708,-0.329999,0.710046,-0.703884
2483990070,163.400848,-9.599442,5.914341,-0.272883,0.707381,-0.682440
2484010099,162.207809,-7.805312,5.625744,-0.335719,0.756650,-0.566332
2484030128,166.511200,-3.624706,3.856419,-0.318142,0.751790,-0.595305
2484050157,168.099930,-3.388225,4.249471,-0.287359,0.636661,-0.723498
2484070187,167.180542,-4.018229,5.596350,-0.304163,0.601079,-0.774038
2484090216,166.292007,-5.359564,8.238174,-0.319016,0.561302,-0.794367
2484110244,165.537079,-6.186306,10.193354,-0.318171,0.496680,-0.819600
2484130273,164.799225,-6.304216,12.453455,-0.306510,0.464099,-0.836967
2484150302,164.685532,-6.647797,14.230500,-0.301048,0.438303,-0.855375
2484170332,165.409302,-6.767692,15.937832,-0.304440,0.410637,-0.871662
2484190361,166.842377,-6.649018,17.271980,-0.313664,0.370519,-0.886334
2484210390,168.127121,-5.868392,18.289631,-0.309737,0.306876,-0.910869
2484230420,168.810867,-4.319983,18.057079,-0.335800,0.234528,-0.925747
2484250449,168.990738,-2.606384,16.351969,-0.318095,0.178957,-0.927708
2484270479,169.965546,-1.176360,15.324430,-0.314556,0.173837,-0.912452
2484290508,174.377625,-0.269753,13.453751,-0.315199,0.177593,-0.962639
2484310537,178.764694,0.547719,16.739645,-0.317802,0.103670,-0.998057
2484330567,180.787659,2.332628,18.780388,-0.325417,-0.053079,-1.023275
2484350596,179.742935,3.503042,18.861042,-0.298162,-0.155940,-1.001234
2484370627,177.326050,4.287074,21.855804,-0.276974,-0.193189,-0.962069
2484390656,176.679932,4.771859,22.397337,-0.297483,-0.204027,-0.955930
2484410686,177.878799,5.318181,21.506218,-0.317117,-0.215825,-0.942299
2484430715,180.119339,6.202858,21.014622,-0.318080,-0.260523,-0.929947
2484450744,182.476837,6.564189,18.995884,-0.326137,-0.328927,-0.921672
2484470773,184.515732,7.025852,16.885166,-0.331493,-0.405452,-0.898183
2484490802,185.223511,7.212375,14.609310,-0.319131,-0.495661,-0.858556
2484510832,184.850204,6.794601,12.011972,-0.322264,-0.546234,-0.820274
2484550889,183.386185,5.606453,7.221766,-0.344681,-0.638225,-0.734487
2484570918,183.207413,4.166650,4.322237,-0.329330,-0.681295,-0.690449
2484590947,182.393539,1.626069,1.295168,-0.318302,-0.747592,-0.641767
2484610977,179.512314,-1.874824,-0.822568,-0.259309,-0.824004,-0.517994
2484631006,171.114807,7.505961,7.237794,-0.249989,-0.928908,-0.359871
2484651035,160.347321,14.038464,11.120434,-0.329523,-0.951962,-0.288615
2484671065,150.029694,21.797747,13.825347,-0.263746,-0.959271,-0.323949
2484691094,143.244385,24.443419,13.488987,-0.350099,-0.918996,-0.328175
2484711123,137.919037,27.149940,13.175566,-0.313686,-0.908438,-0.271431
2484731152,132.380524,31.623377,12.816879,-0.361060,-0.923272,-0.238560
2484751182,127.236130,37.884449,12.739074,-0.351951,-0.885989,-0.206114
2484771211,123.094086,43.766941,12.573948,-0.349823,-0.890631,-0.193341
2484791241,120.676414,49.068592,12.164323,-0.383512,-0.894899,-0.206527
2484811271,119.672585,53.552849,10.844809,-0.380013,-0.919089,-0.185696
2484831300,117.753670,57.578480,9.778913,-0.336306,-0.936724,-0.097141
2484851330,114.039192,61.599644,9.083710,-0.311710,-0.934766,-0.084125
2484871359,113.934387,62.790794,7.754370,-0.354791,-0.932128,-0.178833
2484891388,117.292603,60.222443,5.305791,-0.435374,-0.929075,-0.226401
2484911418,123.525551,55.903091,2.774737,-0.362772,-0.888041,-0.217629
2484931447,129.693542,53.407322,1.441477,-0.380675,-0.925292,-0.151894
2484951476,133.462265,56.118111,-1.392425,-0.413849,-0.970082,-0.041834
2484971511,133.605865,56.905273,-4.765422,-0.368331,-0.977380,0.115681
2484991533,129.965912,60.568203,-7.754961,-0.342915,-0.947044,0.182106
2485011563,126.324783,64.293503,-10.305261,-0.359197,-0.905689,0.167891
2485031592,125.102112,65.192696,-11.935974,-0.364579,-0.889021,0.142213
2485051622,125.126892,65.664337,-14.252466,-0.399924,-0.903143,0.149268
2485071651,126.176544,64.251945,-16.120462,-0.420410,-0.888659,0.171162
2485091680,127.577583,60.963474,-18.495701,-0.419150,-0.895677,0.186181
2485111709,130.302078,56.719765,-19.899353,-0.438794,-0.906479,0.200917
2485131738,133.444214,52.604317,-20.985432,-0.427276,-0.882591,0.247428
2485151768,135.384888,48.610085,-21.868391,-0.414053,-0.867701,0.320268
2485171797,136.084839,46.053116,-22.855003,-0.384531,-0.826333,0.396174
2485191827,134.666534,44.406235,-23.637985,-0.375244,-0.773762,0.493948
2485211856,129.679123,44.470631,-25.930733,-0.364719,-0.671517,0.616303
2485231887,121.244713,44.196938,-27.805294,-0.381306,-0.701155,0.624432
2485251916,123.814621,37.190060,-24.939838,-0.507038,-0.967270,0.264612
2485271945,137.996033,24.005692,-18.635277,-0.358355,-0.904373,0.254189
2485291975,146.130386,22.885841,-17.408802,-0.321314,-0.816206,0.451341
2485312004,152.087570,23.171040,-20.554893,-0.487267,-0.812270,0.563163
2485332033,154.231232,19.980532,-22.051071,-0.393577,-0.661414,0.695718
2485352062,153.141495,17.122684,-22.520441,-0.375477,-0.656359,0.684282
2485372092,155.924988,12.284594,-19.491121,-0.388940,-0.713840,0.636606
2485392121,162.260483,7.380466,-14.654987,-0.382179,-0.710017,0.629813
2485412149,168.882034,2.722337,-8.645554,-0.380894,-0.641277,0.712452
2485432178,174.484116,0.255958,-6.650786,-0.330318,-0.627348,0.706647
2485452207,180.237350,-1.079031,-2.974636,-0.346118,-0.555669,0.803368
2485472237,184.301056,-1.463516,-2.256725,-0.323307,-0.439974,0.807730
2485492266,185.747528,-0.831063,-2.041454,-0.283437,-0.277621,0.868764
2485512295,183.280579,0.576438,-6.141223,-0.307214,-0.128095,0.900983
2485532325,178.836411,1.979448,-12.433139,-0.308470,-0.086521,0.895596
2485552354,176.909668,2.221980,-15.787399,-0.322866,-0.159522,0.918149
2485572383,180.379517,1.291083,-17.787165,-0.354734,-0.238044,0.905950
2485592412,187.131897,-0.044816,-15.073452,-0.365624,-0.243025,0.944161
2485612442,195.972855,-0.900187,-8.768844,-0.376955,-0.221383,0.947008
2485632471,205.117966,-1.015790,-1.560446,-0.351449,-0.149686,0.933296
2485652501,212.926208,0.532931,5.011598,-0.318953,0.018330,0.905068
2485672532,216.766068,2.102165,9.162857,-0.305952,0.215081,0.859170
2485692561,216.326340,3.012793,9.905627,-0.295959,0.387373,0.808797
2485712590,212.841736,3.110064,8.439777,-0.283776,0.508555,0.757896
2485732620,207.608673,2.299157,5.775154,-0.294917,0.591232,0.712193
2485752649,202.207825,0.381385,1.906604,-0.289601,0.648525,0.659312
2485772678,196.242661,-2.227225,-2.305195,-0.293634,0.707025,0.612588
2485792707,190.289246,-4.090983,-4.559476,-0.309741,0.767461,0.543411
2485812736,181.488190,-7.471731,-7.439293,-0.309509,0.876724,0.455870
2485832764,177.317947,-6.398712,-7.291095,-0.297871,0.596407,0.671111
2485852794,185.931503,-2.514992,-2.262272,-0.393130,0.527258,0.728447
2485872823,192.054871,1.607541,1.952056,-0.314616,0.684937,0.579907
2485892853,197.979401,6.985720,5.761476,-0.337759,0.688152,0.615805
2485912882,205.309235,11.318254,8.678082,-0.328477,0.769344,0.505693
2485932911,209.381622,15.785978,10.447082,-0.275887,0.848757,0.388874
2485952940,213.017136,22.514200,11.461423,-0.234204,0.853227,0.390232
2485972969,221.031006,35.961235,11.860394,-0.167635,0.835995,0.415986
2485992999,230.604889,42.550289,7.995896,-0.166945,0.881926,0.316912
2486013028,238.964005,46.988716,3.261763,-0.144704,0.938973,0.162510
2486033057,244.524750,50.693375,-2.256102,-0.115202,0.957775,0.014172
2486053087,247.204422,54.596306,-7.678457,-0.108890,0.973274,-0.168078
2486073116,245.983047,54.637993,-13.062696,-0.117131,0.949960,-0.348733
2486093147,241.825943,51.532104,-17.436251,-0.150629,0.885306,-0.488825
2486113176,238.169083,47.905392,-21.979582,-0.161067,0.849150,-0.447151
2486133205,241.738953,48.034946,-27.642780,-0.161008,0.909136,-0.220095
2486153234,256.016296,49.496220,-34.654015,-0.137532,0.971167,-0.276838
2486173264,271.358093,53.481438,-45.469398,-0.112758,0.946220,-0.415432
2486193293,284.318604,56.548267,-59.257996,-0.095554,0.854550,-0.663498
2486213322,290.788666,55.886684,-71.539917,-0.054976,0.668458,-0.863946
2486233352,292.798248,50.744621,-83.194969,-0.028041,0.499675,-0.955998
2486253381,292.911591,42.023712,-91.424103,-0.028426,0.383202,-1.007384
2486273409,292.560791,31.983559,-96.564041,-0.032496,0.248040,-1.052156
2486293438,290.696381,20.156063,-99.126961,-0.045546,0.092042,-1.106853
2486313468,287.057281,8.654742,-98.023727,-0.056664,-0.053167,-1.123440
2486333497,282.265594,-2.285550,-94.871002,-0.057021,-0.205044,-1.116999
2486353526,275.244202,-12.783892,-90.563011,-0.092403,-0.369348,-1.129045
2486373555,266.963837,-21.451963,-84.951721,-0.119373,-0.466313,-1.044564
2486393585,258.342224,-29.071981,-78.318214,-0.110260,-0.554233,-0.987714
2486413614,249.728638,-35.714088,-70.601097,-0.124829,-0.656093,-0.920514
2486433643,240.902283,-40.100540,-62.455677,-0.148958,-0.705270,-0.833536
2486453672,232.893204,-40.925777,-53.354088,-0.189593,-0.725427,-0.769473
2486473702,228.065430,-42.566246,-48.535591,-0.242185,-0.603653,-0.805810
2486493731,234.047394,-48.198498,-45.748260,-0.201618,-0.698403,-0.830311
2486513760,234.184052,-51.989689,-41.144352,-0.166726,-0.774724,-0.680546
2486533791,237.856247,-55.302967,-35.981670,-0.258541,-0.788231,-0.766335
2486553820,240.141235,-58.804180,-32.304169,-0.201021,-0.937955,-0.517371
2486573850,237.899979,-61.659790,-27.117863,-0.187788,-0.962826,-0.405003
2486593879,236.920853,-64.208725,-21.554411,-0.199384,-0.968990,-0.397762
2486613908,239.128098,-69.328072,-17.052076,-0.208726,-0.972902,-0.388456
2486633937,244.347748,-74.656036,-10.984623,-0.185661,-1.011899,-0.348272
2486653967,249.852493,-79.782867,-3.508446,-0.138286,-1.042158,-0.238686
2486673996,253.749115,-85.164719,4.825874,-0.154451,-1.079101,-0.086373
2486694024,254.889771,-87.906754,12.901649,-0.134177,-1.031156,0.090688
2486714053,250.919678,-87.356468,23.184034,-0.058764,-0.949830,0.374033
2486734083,241.292862,-78.376709,30.018866,-0.069440,-0.850631,0.463150
2486754112,236.221848,-70.485146,35.060493,-0.157698,-0.952677,0.295438
2486774141,243.603485,-68.000931,40.729790,-0.184486,-1.101531,0.170106
2486814200,271.871490,-70.671967,62.890484,-0.116711,-1.075422,0.417577
2486834229,280.259705,-69.403336,75.379196,-0.077564,-0.879542,0.604164
2486854259,285.006012,-63.911804,86.155052,-0.030393,-0.727731,0.716162
2486874288,286.748352,-54.093094,93.284042,0.001258,-0.572135,0.788868
2486894317,286.314819,-42.901134,97.905937,0.017356,-0.419017,0.897177
2486914346,284.152740,-30.061935,98.449142,0.028838,-0.249099,0.924862
2486934376,279.560150,-17.151308,96.025986,0.037134,-0.066875,0.970321
2486954407,272.578857,-4.960493,90.817490,0.029079,0.100896,0.980689
2486974436,264.658905,4.777637,83.627449,-0.031363,0.227155,0.949104
2486994465,256.226593,11.586589,76.037170,-0.062525,0.327901,0.903061
2487014495,248.286179,17.692059,68.271065,-0.100114,0.447252,0.875800
2487034524,239.684967,22.531813,63.358551,-0.117048,0.501592,0.821982
2487054559,231.584320,24.519104,55.285751,-0.153935,0.580239,0.760395
2487074582,223.461517,26.956964,49.885639,-0.175271,0.658527,0.696958
2487094612,216.358612,28.402407,45.237396,-0.223864,0.647599,0.670140
2487114659,212.936035,29.698017,42.578705,-0.205725,0.307859,0.726907
2487134669,224.130310,35.727318,40.054146,-0.106558,0.596340,0.791897
2487154698,222.806183,41.314789,38.080730,-0.242648,0.844835,0.590133
2487174728,218.828003,40.236843,32.674232,-0.150438,0.794019,0.505072
2487194757,216.931580,43.987404,29.063068,-0.128340,0.849104,0.469514
2487214786,217.785217,47.687454,26.082972,-0.196092,0.802914,0.496652
2487234816,222.077530,50.090778,23.183666,-0.174090,0.773105,0.492808
2487254845,229.158646,57.616856,20.151712,-0.133948,0.794197,0.472384
2487274874,237.686615,64.636124,15.813005,-0.122409,0.888136,0.392189
2487294904,244.370789,70.316238,10.991816,-0.107855,0.937812,0.197608
2487314933,246.795135,74.209610,4.583742,-0.083989,0.981206,0.008506
2487334962,246.101135,75.009926,-2.997842,-0.093056,0.969330,-0.148960
2487354991,242.277557,71.284058,-10.133501,-0.098666,0.949132,-0.351362
2487375022,236.196472,65.009254,-15.990219,-0.085983,0.886220,-0.401402
2487395051,235.147125,60.107891,-21.992516,-0.147834,0.961494,-0.278464
2487415080,240.202545,56.022999,-26.831070,-0.134417,0.962063,-0.265277
2487435110,248.205826,57.358643,-33.548580,-0.137351,0.971067,-0.369955
2487455139,256.248199,59.487755,-41.925636,-0.110252,0.904283,-0.490275
2487475168,263.022156,60.964996,-51.488224,-0.121381,0.836815,-0.593147
2487495198,269.061890,59.523205,-61.041824,-0.094753,0.711409,-0.704065
2487515227,271.091797,54.528915,-69.460548,-0.081633,0.602498,-0.896029
2487535256,269.538116,46.224056,-74.289604,-0.091965,0.433681,-0.973715
2487555284,265.230011,36.705627,-75.371834,-0.100206,0.285236,-1.048074
2487575314,258.997803,26.800621,-74.472809,-0.090393,0.149747,-1.098375
2487595343,251.256683,16.945568,-70.140244,-0.113483,0.052800,-1.099647
2487615372,244.007187,8.985828,-67.309448,-0.152554,-0.046284,-1.061029
2487635402,237.182114,2.698911,-66.607895,-0.180452,-0.103298,-1.079355
2487655431,231.319229,-2.611434,-65.982315,-0.180611,-0.193097,-1.034177
2487675460,226.653839,-7.068312,-65.454315,-0.226179,-0.118228,-1.047371
2487695490,229.679733,-15.055877,-66.037849,-0.110730,-0.156311,-0.980937
2487715518,231.706940,-20.383358,-67.137032,-0.269527,-0.300587,-1.063274
2487735548,232.514099,-25.265190,-68.922943,-0.262668,-0.380684,-0.986394
2487755577,232.745209,-31.918808,-68.821472,-0.190627,-0.453345,-0.958234
2487775606,235.375092,-39.788963,-69.064987,-0.188045,-0.475389,-0.976563
2487795636,239.824066,-47.991692,-68.008286,-0.151439,-0.525989,-0.913352
2487815666,244.350815,-57.067711,-63.941700,-0.108543,-0.641585,-0.863786
2487835696,247.690018,-66.502823,-59.880257,-0.142514,-0.755636,-0.809704
2487855725,249.115128,-73.919456,-53.903244,-0.123516,-0.840382,-0.698253
2487875754,247.356049,-79.279938,-45.859962,-0.096243,-0.950980,-0.535417
2487895784,242.529388,-82.732681,-36.696861,-0.092496,-0.993066,-0.381458
2487915813,239.586212,-85.283836,-28.086332,-0.142048,-0.959939,-0.449149
2487935842,244.780640,-90.104752,-20.665951,-0.136461,-0.960145,-0.545467
2487955872,256.566040,-98.727692,-13.028485,-0.130843,-1.068361,-0.582164
2487975901,270.198090,-107.833389,-3.429890,-0.101922,-1.115580,-0.449663
2487995929,281.104614,-117.516891,8.879053,-0.067735,-1.146757,-0.245902
2488015958,288.429474,-122.938881,22.007259,-0.040304,-1.137369,-0.056208
2488035988,293.196228,-123.482742,37.587784,-0.018731,-1.095543,0.122096
2488056017,294.572418,-120.531525,52.727890,0.030478,-1.018682,0.308111
2488076046,294.001282,-112.371918,65.359138,0.061735,-0.899393,0.453601
2488096076,290.665009,-101.265213,76.288651,0.057760,-0.817802,0.634779
2488116105,284.853088,-87.855560,84.551483,0.043847,-0.681774,0.785168
2488136134,276.161591,-73.339882,88.959503,0.051632,-0.527216,0.874092
2488156163,267.233643,-59.601921,90.333511,0.005127,-0.425516,0.915724
2488176193,258.615265,-47.384434,90.492134,-0.033177,-0.314736,0.953740
2488196222,250.196518,-36.568604,90.639877,-0.045174,-0.191298,0.963907
2488216251,240.808655,-26.225700,88.963837,-0.054575,-0.077644,0.977860
2488236281,233.810242,-17.731838,88.980125,-0.095411,-0.215722,0.925708
2488256311,236.560043,-9.168400,91.093193,-0.088959,-0.182423,0.893894
2488276341,236.476089,-1.287729,91.686630,-0.109608,-0.020858,0.998763
2488296371,237.699753,6.899520,92.702721,-0.132787,-0.040950,0.985602
2488316400,239.254089,15.096453,92.589149,-0.071632,0.137439,0.975647
2488336429,239.155304,23.672256,91.622406,-0.050719,0.230276,0.934211
2488356458,239.328094,32.332775,89.108330,-0.057045,0.306884,0.908889
2488376487,239.335907,40.655487,85.474861,-0.038719,0.415580,0.836792
2488396517,237.975769,48.304634,80.837967,-0.046745,0.563995,0.760891
2488416564,233.415009,54.128418,73.856812,-0.038406,0.713484,0.654865
2488436574,226.595825,57.931381,64.480431,-0.040818,0.799845,0.592541
2488456603,221.703537,61.644386,56.288536,-0.080354,0.741686,0.627148
2488476633,224.052277,66.240936,50.625156,-0.145898,0.648111,0.718245
2488496662,232.246704,71.694153,46.352516,-0.110714,0.660414,0.726508
2488516691,241.891296,78.280510,41.798100,-0.053472,0.733461,0.634538
2488536720,249.666718,85.807968,35.733624,-0.040314,0.868019,0.474771
2488556750,254.009720,90.995331,27.814358,-0.023591,0.897706,0.300855
2488576779,255.852234,95.361900,18.596647,-0.033526,0.948294,0.116748
2488596808,254.821335,97.748390,9.083307,-0.034663,0.995419,-0.045064
2488616837,251.825211,98.551514,-1.297212,-0.034487,0.974193,-0.170695
2488636867,247.785477,93.790504,-11.024948,-0.031523,0.940673,-0.346789
2488656896,240.383545,77.928680,-17.810228,-0.129544,0.957168,-0.463442
2488676925,233.045593,65.327011,-21.544516,-0.080161,0.910769,-0.588871
2488696956,224.614182,56.887527,-25.177801,-0.168410,0.908395,-0.618903
2488716986,219.872986,53.026775,-28.589954,-0.161518,0.845011,-0.565605
2488737015,218.902588,50.522057,-32.519672,-0.167999,0.833615,-0.556869
2488757044,219.275925,46.109119,-35.894386,-0.166720,0.733979,-0.654906
2488777073,216.858154,40.045776,-36.466381,-0.243849,0.627140,-0.793267
2488797103,210.091095,34.143581,-34.441166,-0.274335,0.513246,-0.927557
2488817132,200.103333,26.665834,-30.667973,-0.244758,0.406635,-1.015339
2488837161,187.959625,19.142727,-25.667143,-0.245293,0.339734,-1.022996
2488857189,178.567398,13.080914,-20.912294,-0.245562,0.379488,-0.935356
2488877218,177.840652,9.604190,-19.230555,-0.254121,0.515220,-0.802411
2488897248,182.060776,6.921645,-18.053509,-0.243060,0.458509,-0.867849
2488917277,185.967804,6.129868,-18.734943,-0.281933,0.411160,-0.923238
2488937306,189.791733,5.338023,-19.568060,-0.255867,0.326867,-0.944592
2488957336,192.619934,4.879697,-22.390972,-0.276116,0.263057,-0.961670
2488977365,196.144089,4.451750,-26.404192,-0.262167,0.197949,-0.948351
2488997394,199.765717,2.778805,-31.536648,-0.245983,0.108543,-0.972926
2489017423,200.729523,0.146151,-34.243637,-0.234710,-0.058928,-0.991546
2489037453,195.827637,-2.741745,-31.537691,-0.272491,-0.294197,-1.062441
2489057482,186.247330,-3.393137,-23.014561,-0.195754,-0.364163,-0.938320
2489077511,178.553360,-4.536900,-15.335586,-0.275344,-0.302033,-0.964601
2489097541,177.823517,-3.768503,-9.799867,-0.315883,-0.198566,-0.967042
2489117571,182.645447,-3.979158,-10.523649,-0.305873,-0.183020,-1.019686
2489137601,190.899796,-6.298193,-14.875064,-0.286087,-0.206244,-1.041490
2489157630,200.430923,-11.153478,-22.199499,-0.256200,-0.273203,-1.008940
2489177659,208.705322,-18.445589,-29.549576,-0.238005,-0.396471,-0.944966
2489197688,214.187088,-24.421007,-32.279385,-0.238734,-0.512231,-0.851742
2489217718,215.772995,-27.338167,-30.320686,-0.241669,-0.646224,-0.753427
2489237747,213.497208,-28.744989,-26.700891,-0.240133,-0.788184,-0.636855
2489257776,206.633728,-27.854376,-21.646839,-0.242425,-0.904372,-0.530971
2489277804,197.588196,-24.644009,-16.052242,-0.250041,-0.939028,-0.436743
2489297834,188.994644,-21.615297,-11.706950,-0.291334,-0.913009,-0.402665
2489317863,182.960709,-22.388649,-11.248448,-0.296177,-0.921809,-0.340654
2489337892,175.678864,-27.694328,-11.472794,-0.260775,-0.931102,-0.315424
2489357921,181.290955,-39.029095,-11.913239,-0.230830,-0.749398,-0.738412
2489377951,197.430527,-37.049328,-8.911960,-0.313814,-0.844399,-0.618305
2489397980,207.809830,-48.195499,-9.139383,-0.295323,-1.090866,-0.373061
2489418009,207.144165,-52.674026,-6.478692,-0.227261,-1.009002,-0.048930
2489438039,202.991364,-53.903709,-2.937111,-0.246188,-1.008217,-0.022573
2489458068,201.242310,-54.711700,0.768897,-0.235743,-0.970171,-0.028898
2489478097,202.482880,-52.831512,5.014856,-0.201280,-0.985331,-0.027565
2489498127,205.541702,-50.602882,9.357336,-0.203922,-0.996509,0.049432
2489518156,207.646393,-47.845783,13.164170,-0.229971,-1.010018,0.176695
2489538187,207.433395,-45.314556,16.319719,-0.234334,-0.945029,0.299559
2489558216,206.135544,-42.627132,18.942682,-0.239010,-0.906436,0.372327
2489578246,204.798874,-40.129791,21.567223,-0.221002,-0.872716,0.397216
2489598275,207.255524,-40.281071,25.732264,-0.252479,-0.931916,0.351240
2489638333,226.797546,-46.668777,40.292339,-0.258641,-1.020434,0.386017
2489658362,237.137939,-46.761768,47.053780,-0.207234,-0.883580,0.528163
2489678392,243.398102,-43.686951,52.292973,-0.173864,-0.755506,0.664457
2489698420,245.930054,-38.862366,55.900684,-0.146659,-0.581775,0.803355
2489718449,244.634995,-32.402191,57.718597,-0.114537,-0.420271,0.877676
2489738478,240.817535,-24.998102,57.836555,-0.103135,-0.290069,0.921608
2489758508,236.520416,-18.148726,57.481270,-0.113811,-0.209668,0.938155
2489778537,232.622482,-11.488848,55.725071,-0.143421,-0.139789,0.935764
2489798566,229.132446,-5.699743,53.711006,-0.143901,-0.033746,0.933085
2489818595,225.024048,-0.630950,51.558628,-0.164824,0.070716,0.942384
2489838625,220.749969,3.703472,50.329781,-0.194466,0.138141,0.923445
2489858654,216.874344,8.032727,50.458363,-0.193777,0.208005,0.922551
2489878683,213.708954,12.446882,52.057503,-0.188951,0.284979,0.869204
2489898713,208.654465,14.848742,45.309563,-0.142422,0.454061,0.814922
2489918742,200.175262,14.642798,34.062916,-0.235909,0.587769,0.774926
2489938771,190.696991,13.818742,27.582552,-0.238479,0.676732,0.735538
2489958802,180.433716,13.375324,22.144939,-0.231450,0.723845,0.661318
2489978831,171.191086,12.061013,17.382360,-0.276429,0.719419,0.655982
2489998861,163.603958,10.044366,12.353519,-0.256553,0.734371,0.616639
2490018890,155.968170,6.510034,6.374471,-0.288943,0.774912,0.587091
2490038919,148.804932,2.452374,1.704169,-0.322728,0.800265,0.523692
2490058948,141.295074,-2.860027,-3.152901,-0.321526,0.825054,0.504404
2490078977,134.938889,-8.451715,-7.756857,-0.335574,0.811680,0.485154
2490099007,129.216400,-15.203470,-12.274946,-0.320242,0.828987,0.452972
2490119035,123.736893,-21.765127,-16.468483,-0.335627,0.846008,0.440098
2490139064,119.082405,-28.671314,-19.953590,-0.345373,0.858002,0.424257
2490159093,114.569443,-36.026237,-23.108833,-0.339669,0.858095,0.402075
2490179123,111.060669,-42.615086,-25.489063,-0.365654,0.856431,0.402550
2490199152,108.789612,-48.115898,-26.050545,-0.399555,0.828522,0.398089
2490219181,107.964371,-53.075314,-26.312588,-0.371288,0.804843,0.414397
2490239211,108.946594,-55.909821,-25.628668,-0.400945,0.805028,0.429985
2490259240,111.301888,-55.851738,-22.746815,-0.436959,0.800958,0.432100
2490279269,115.048828,-53.133907,-18.976768,-0.385409,0.778761,0.434833
2490299298,121.930527,-50.855434,-16.429819,-0.398425,0.714382,0.524133
2490319328,132.328156,-50.112297,-14.467264,-0.415777,0.746326,0.516112
2490339357,140.259659,-53.977318,-12.755331,-0.392796,0.881375,0.355414
2490359386,142.595093,-57.949997,-11.128602,-0.366282,0.963513,0.142156
2490379417,140.287689,-61.426796,-9.697835,-0.340251,0.939910,0.069052
2490399446,138.376144,-64.783936,-8.275463,-0.356724,0.908634,0.092414
2490419476,139.379761,-65.110161,-6.369129,-0.370025,0.879507,0.134471
2490439505,143.391479,-63.882858,-4.034621,-0.409541,0.865551,0.164557
2490459534,148.953049,-60.469025,-0.944349,-0.429782,0.865894,0.158571
2490479564,155.771851,-54.511822,2.163087,-0.428486,0.862406,0.114647
2490499593,162.378067,-48.729637,4.953441,-0.419043,0.887108,0.038525
2490519622,167.616074,-43.414413,7.064664,-0.379213,0.880212,-0.056020
2490539650,170.759109,-39.482620,8.708817,-0.369831,0.891500,-0.175084
2490559679,171.322037,-36.222263,10.342196,-0.353686,0.889059,-0.274172
2490579709,170.593918,-32.857235,11.640460,-0.348562,0.876091,-0.352447
2490599738,169.610291,-29.234018,12.352608,-0.340886,0.856970,-0.393399
2490619767,168.801132,-24.434317,12.342244,-0.335908,0.827723,-0.428919
2490639796,168.970749,-18.827698,11.628026,-0.346684,0.813198,-0.425668
2490659826,170.776062,-10.785135,9.006199,-0.310412,0.802596,-0.474202
2490679855,171.831100,-6.340926,5.807653,-0.267023,0.746846,-0.551338
2490699884,170.110779,-10.709057,7.943743,-0.311712,0.669806,-0.695469
2490719914,165.263489,-14.416371,11.528538,-0.307276,0.625924,-0.766921
2490739943,157.609421,-20.109867,17.638330,-0.337080,0.535378,-0.922712
2490759972,147.436218,-22.248838,21.980759,-0.331153,0.521283,-0.901657
2490780001,142.894501,-22.466457,24.816097,-0.334110,0.615637,-0.739151
2490800032,144.442673,-20.599249,25.680695,-0.327507,0.609672,-0.722848
2490820062,146.054535,-19.591246,26.924057,-0.356586,0.541386,-0.775351
2490840091,145.071747,-19.209337,30.301996,-0.360994,0.443958,-0.839590
2490860120,143.094376,-19.526686,34.686165,-0.365801,0.413374,-0.853737
2490880150,140.764816,-20.068968,39.534557,-0.361872,0.366639,-0.888158
2490900179,138.698517,-20.013664,43.680511,-0.354829,0.375111,-0.864411
2490920208,139.680069,-18.987692,47.016083,-0.343727,0.384591,-0.861769
2490940237,141.556183,-17.704016,49.167114,-0.338883,0.350289,-0.873511
2490960267,143.675568,-15.840849,49.728729,-0.351107,0.316251,-0.896848
2490980294,145.611298,-12.714552,47.603172,-0.359695,0.261322,-0.918310
2491000324,146.356873,-8.508066,41.123421,-0.342435,0.150579,-0.940052
2491020353,148.132004,-3.133018,37.447315,-0.341918,0.392238,-0.910237
2491040382,157.982178,-3.273715,36.020241,-0.341641,0.309560,-0.883975
2491060412,166.664780,-1.821492,40.167244,-0.343180,0.310341,-0.907181
2491080441,176.757416,0.674482,44.548790,-0.367886,0.167929,-0.936014
2491100470,181.241776,3.808904,48.869194,-0.374466,-0.046865,-0.989871
2491120500,179.668457,7.088008,50.448307,-0.348589,-0.192829,-0.963047
2491140529,176.384781,9.328674,50.632622,-0.341406,-0.196046,-0.918591
2491160558,176.741730,11.084945,48.313087,-0.359061,-0.112705,-0.930524
2491180587,183.072113,12.093513,43.561279,-0.371951,-0.039519,-0.955710
2491200617,193.861572,12.975296,37.554058,-0.372753,-0.050060,-0.990512
2491220648,205.644348,12.952605,31.244047,-0.358800,-0.159535,-0.991754
2491240677,214.223312,12.292587,25.028826,-0.344186,-0.336975,-0.943950
2491260706,218.220413,12.036338,20.756599,-0.350740,-0.470864,-0.875455
2491280735,219.379623,11.491416,16.712887,-0.346730,-0.577781,-0.820142
2491300765,218.978226,11.468906,13.907501,-0.343147,-0.635163,-0.761548
2491320794,218.615906,12.132992,11.619535,-0.357606,-0.684022,-0.723982
2491340823,218.737961,12.315258,9.419252,-0.347319,-0.729062,-0.664708
2491360853,217.951141,12.636468,8.627634,-0.328944,-0.792930,-0.602829
2491380882,216.915802,13.682706,8.011781,-0.319953,-0.841945,-0.532110
2491400910,214.576233,13.463617,7.079890,-0.324257,-0.899432,-0.462689
2491420939,211.970184,13.299809,6.321794,-0.311942,-0.899445,-0.379138
2491440968,210.100815,13.025942,5.686292,-0.326795,-0.915507,-0.342188
2491460998,208.817230,12.725654,4.907236,-0.325010,-0.906895,-0.289768
2491481027,208.706863,12.837131,3.928154,-0.334168,-0.901767,-0.253261
2491501056,209.779053,11.738263,2.527626,-0.366292,-0.941269,-0.208136
2491521086,210.682571,10.336026,1.190221,-0.354134,-0.943668,-0.121414
2491541115,211.021851,8.624980,-0.061461,-0.350573,-0.971088,-0.030407
2491561144,210.159775,7.172650,-0.967118,-0.348181,-0.978921,0.045515
2491581174,209.339188,5.112851,-1.367236,-0.337760,-0.950859,0.111858
2491601203,208.804993,4.391585,-1.657141,-0.326607,-0.945604,0.167504
2491621232,208.135651,4.456556,-1.498786,-0.307566,-0.911157,0.254496
2491641262,207.005859,4.872192,-1.912256,-0.323971,-0.889521,0.326551
2491661292,205.168289,5.177606,-2.264486,-0.328197,-0.864468,0.393450
2491681321,203.732391,4.977764,-2.839742,-0.335495,-0.809301,0.438119
2491701350,202.200867,4.018563,-3.021982,-0.339494,-0.772945,0.518912
2491721380,199.499527,3.316741,-3.206948,-0.349676,-0.705507,0.602721
2491741416,194.982758,3.004960,-3.441560,-0.321615,-0.623763,0.691667
2491761439,188.508438,3.456179,-3.956480,-0.334235,-0.549788,0.765911
2491781468,182.838287,2.468056,-3.412595,-0.339973,-0.580776,0.712307
2491821525,186.338043,4.571718,-6.127798,-0.290735,-0.574619,0.713164
2491841554,186.579514,6.597455,-9.988819,-0.366926,-0.510486,0.824902
2491861583,186.140396,3.938210,-9.223657,-0.358788,-0.421770,0.832336
2491881613,186.094177,2.899683,-8.016986,-0.337794,-0.414839,0.839863
2491901642,186.103790,1.957547,-7.485905,-0.331480,-0.331552,0.874423
2491941701,186.688614,1.389462,-7.996436,-0.335150,-0.237280,0.878887
2491961730,187.123718,1.156088,-8.805552,-0.338674,-0.161327,0.900621
2491981759,187.052475,0.547867,-8.701912,-0.342076,-0.084228,0.897536
2492001789,186.802338,-0.269327,-7.641259,-0.350945,-0.036434,0.911528
2492021818,187.770065,-0.773358,-6.605392,-0.343759,-0.038893,0.903771
2492041847,191.039932,-0.928732,-4.646321,-0.326499,-0.005984,0.912207
2492061876,194.054626,-1.101488,-3.733560,-0.333955,0.090162,0.927399
2492081907,195.391541,-2.047466,-4.521092,-0.334615,0.182977,0.912818
2492101936,195.974152,-2.391649,-4.093322,-0.329998,0.276806,0.874687
2492121966,195.858124,-3.076919,-4.337834,-0.316126,0.331592,0.836711
2492141995,195.735138,-3.418841,-4.350187,-0.321202,0.395011,0.806723
2492162024,195.217133,-3.254550,-3.843815,-0.313499,0.442478,0.765109
2492182054,195.209610,-3.399817,-4.047316,-0.316288,0.488948,0.749609
2492202083,195.749084,-3.226539,-3.730062,-0.318292,0.541838,0.709987
2492222112,195.923218,-3.433077,-3.758572,-0.314302,0.597145,0.671307
2492242140,196.111649,-3.868088,-3.800321,-0.322630,0.672468,0.634073
2492262169,195.715103,-3.987062,-3.587214,-0.316787,0.711252,0.568065
2492282199,194.876221,-4.346884,-3.258568,-0.317535,0.765435,0.524185
2492302228,194.439774,-5.082848,-3.237435,-0.316789,0.766706,0.476919
2492322257,195.062485,-4.947838,-2.851581,-0.320533,0.791552,0.437192
2492342287,195.380219,-4.978442,-2.396243,-0.310888,0.833647,0.361782
2492362316,194.846130,-5.050127,-1.918227,-0.314544,0.873478,0.282483
2492382345,193.658264,-4.980858,-1.297649,-0.313681,0.897274,0.214703
2492402374,192.707581,-4.639184,-0.785395,-0.314342,0.908144,0.163029
2492422404,192.038879,-4.215630,-0.379840,-0.311968,0.926037,0.106266
2492442433,191.606094,-3.701834,0.070563,-0.309630,0.927895,0.050358
2492462462,191.323532,-3.737252,0.411919,-0.305681,0.928974,0.001407
2492482492,191.264832,-3.204077,0.422578,-0.295159,0.930308,-0.067245
2492502523,190.838684,-3.155566,0.596353,-0.296369,0.922407,-0.132887
2492542581,190.177185,-2.838639,0.995224,-0.301313,0.907081,-0.265211
2492562610,189.212128,-2.673558,1.031282,-0.293352,0.888131,-0.336010
2492582640,188.071518,-2.506835,1.279540,-0.294556,0.877110,-0.397663
2492602669,186.864899,-2.074703,1.123686,-0.290635,0.842112,-0.461190
2492622698,185.626190,-2.045792,0.978784,-0.289768,0.811462,-0.501537
2492642728,184.882843,-1.592669,1.004949,-0.293150,0.797819,-0.564437
2492662759,183.776321,-1.139428,0.492607,-0.296778,0.746366,-0.593821
2492682785,183.534256,-0.673177,0.685710,-0.293349,0.714459,-0.624370
2492702814,183.704330,-0.210660,0.416534,-0.291795,0.689523,-0.677069
2492722843,183.790405,0.038618,-0.017697,-0.287530,0.639277,-0.734615
2492742873,183.257553,0.003865,0.126397,-0.291667,0.604112,-0.776363
2492762902,183.166214,-0.125482,-0.001457,-0.280360,0.554581,-0.807769
2492782931,183.241592,-0.484466,-0.248616,-0.272264,0.488241,-0.827240
2492802961,182.827026,-1.357148,-0.105011,-0.270566,0.431087,-0.868823
2492822990,182.125259,-1.710338,0.147825,-0.286628,0.376441,-0.899899
2492843019,181.513779,-2.063039,0.688820,-0.285899,0.328345,-0.916035
2492863049,181.316956,-1.856484,0.686991,-0.299539,0.265736,-0.943037
2492883078,180.688766,-1.206399,0.612990,-0.307446,0.213057,-0.960542
2492903107,180.508865,-0.994051,0.095536,-0.307617,0.158055,-0.962879
2492923138,181.157104,-0.571488,0.016481,-0.296575,0.113539,-0.963385
2492943167,181.461166,-0.695342,-0.118810,-0.295708,0.051220,-0.977368
