Timestamp (us),Gyroscope X (deg/s),Gyroscope Y (deg/s),Gyroscope Z (deg/s),Accelerometer X (g),Accelerometer Y (g),Accelerometer Z (g)
7488825646,-0.827621,-0.563612,-0.147046,0.900947,-0.441140,0.070575
7488845699,-0.843565,-0.426972,-0.132353,0.895675,-0.436225,0.065573
7488865751,-0.639061,-0.265683,-0.049612,0.893558,-0.438529,0.070038
7488885803,-0.799485,-0.205326,0.056341,0.895926,-0.441043,0.071720
7488905855,-0.479315,-0.264399,-0.011778,0.892923,-0.441965,0.071255
7488925907,-0.371342,-0.597097,0.087857,0.890284,-0.438463,0.068742
7488945959,-0.188966,-0.445180,-0.087046,0.889890,-0.436951,0.072902
7488966011,-0.484622,-0.750006,0.035371,0.888350,-0.439864,0.072743
7488986064,-0.522464,-0.848270,0.141828,0.895028,-0.440717,0.069256
7489006116,-0.720837,-0.735934,0.103616,0.901437,-0.443836,0.066157
7489026168,-0.553472,-0.704618,0.080713,0.896735,-0.438759,0.072517
7489046220,-0.772447,-1.137807,0.233861,0.893774,-0.441496,0.065803
7489066272,-0.460761,-0.932336,-0.009483,0.897233,-0.441566,0.066737
7489086324,-0.918687,-0.767353,0.141688,0.894483,-0.438107,0.067586
7489106376,-0.903206,-0.760381,0.027975,0.889821,-0.437365,0.069362
7489126428,-0.308526,-1.021334,0.165087,0.893277,-0.442390,0.073262
7489146481,-0.468989,-0.863393,0.096388,0.901024,-0.445024,0.059351
7489166532,-0.471121,-0.498242,0.216394,0.894457,-0.438585,0.072317
7489186585,-0.856534,-1.062489,0.226052,0.887029,-0.437905,0.063805
7489206637,-0.286451,-0.786861,0.005113,0.894271,-0.442044,0.059087
7489226689,-0.378589,-0.643031,0.034965,0.896525,-0.440897,0.062725
7489246741,-0.713744,-0.577137,-0.003039,0.898255,-0.439354,0.062356
7489266793,-0.720581,-0.736557,0.005092,0.894332,-0.437280,0.061850
7489286847,-0.476069,-0.962225,0.081573,0.893266,-0.439786,0.058327
7489306899,0.124211,-0.753281,0.088222,0.895276,-0.441867,0.058638
7489326951,0.085282,-0.676418,0.277445,0.891319,-0.438358,0.063204
7489347003,-0.150775,-0.662730,0.285059,0.892706,-0.440028,0.060598
7489367055,-0.486492,-0.452985,0.185927,0.892905,-0.439976,0.057781
7489387107,-0.183812,-0.034191,0.070694,0.893898,-0.438958,0.058958
7489407159,0.081001,0.256404,0.130232,0.897748,-0.442969,0.057396
7489427211,0.498234,0.502542,0.205027,0.896102,-0.440524,0.057083
7489447264,0.552021,0.374173,0.258503,0.894064,-0.440452,0.062521
7489467316,0.855982,0.407391,0.394704,0.894930,-0.447687,0.058339
7489487368,1.404496,0.319830,0.387234,0.893964,-0.441242,0.064438
7489507420,0.702285,0.762422,0.272271,0.892832,-0.439839,0.054689
7489527472,1.418475,0.690418,0.151005,0.901351,-0.441954,0.064317
7489547524,0.960697,0.907533,0.142838,0.901754,-0.447099,0.060289
7489567576,1.119880,0.947685,0.324539,0.893500,-0.442667,0.066541
7489587628,0.923647,0.634860,0.280212,0.889242,-0.438230,0.059734
7489607679,0.245430,0.677322,0.492514,0.891233,-0.434673,0.060434
7489627731,0.387990,1.095742,0.483443,0.895529,-0.442087,0.062277
7489647783,0.410713,1.028672,0.657982,0.893412,-0.443577,0.066460
7489667836,0.297128,0.928999,0.620471,0.888755,-0.443209,0.067514
7489687888,0.094055,0.344275,0.804451,0.888678,-0.443965,0.065432
7489707940,0.323823,0.244827,0.448503,0.891409,-0.444038,0.066270
7489727992,0.460109,0.367471,0.493506,0.893311,-0.441929,0.067349
7489748044,0.559817,0.216291,0.493992,0.895429,-0.440442,0.062985
7489768096,0.468964,0.184514,0.365291,0.891303,-0.441749,0.067515
7489788148,0.036053,0.126861,0.100378,0.893951,-0.441302,0.066620
7489808200,0.073493,0.188607,0.221415,0.894781,-0.447008,0.067782
7489828252,0.126655,0.181748,0.282052,0.892317,-0.443666,0.066726
7489848305,0.113420,-0.213149,0.275838,0.888330,-0.444817,0.063076
7489868356,0.440437,-0.157822,0.283112,0.885749,-0.444303,0.067687
7489888409,0.512666,-0.826370,0.133812,0.889376,-0.445961,0.071912
7489908461,0.694639,-0.718466,0.201587,0.893387,-0.443697,0.070824
7489928513,-0.104481,-0.693947,0.103256,0.897955,-0.438207,0.066430
7489948565,-0.417787,-0.377586,0.011298,0.895616,-0.440544,0.062169
7489968617,-0.515789,-0.302395,-0.110019,0.895233,-0.445192,0.067583
7489988669,-0.484953,-0.201902,0.033772,0.892234,-0.446213,0.066573
7490008721,-0.462359,0.041591,0.063118,0.889850,-0.445103,0.068270
7490028773,-0.385296,0.102637,0.077914,0.890504,-0.444147,0.065174
7490048826,0.309348,-0.181762,-0.012493,0.890516,-0.448055,0.065037
7490068878,0.605460,-0.248042,-0.103221,0.892169,-0.448262,0.063052
7490088930,0.397469,0.023612,-0.186976,0.891244,-0.444892,0.063734
7490108983,-0.106238,0.141910,-0.111077,0.893592,-0.441135,0.065615
7490129035,0.404270,0.053806,-0.163694,0.892974,-0.444794,0.064017
7490149088,-0.107211,0.186994,-0.125640,0.891777,-0.442603,0.064892
7490169140,-0.230011,0.444556,0.032816,0.896881,-0.444575,0.066042
7490189192,0.264344,0.462336,0.123298,0.894948,-0.447240,0.070603
7490209244,-0.239226,0.738206,0.046461,0.893174,-0.441859,0.059532
7490229296,-0.293102,0.948029,0.038069,0.895124,-0.440098,0.068068
7490249349,-0.617924,0.820639,-0.218900,0.901804,-0.442940,0.065240
7490269401,-0.983575,1.263535,-0.242499,0.893507,-0.447646,0.067780
7490289461,-0.834797,0.995107,-0.346931,0.887217,-0.448563,0.068201
7490309505,-0.315085,0.859365,-0.360873,0.888552,-0.444242,0.071523
7490329557,-0.161912,0.685543,-0.086889,0.891053,-0.447308,0.066396
7490349609,0.072554,0.973393,-0.118133,0.893237,-0.443595,0.065187
7490369661,-0.042404,1.196774,-0.254815,0.892182,-0.440044,0.072318
7490389713,-1.430914,0.488276,-0.039297,0.891505,-0.433727,0.075785
7490409766,-2.879673,0.259016,0.136322,0.893458,-0.432283,0.068420
7490429817,-4.153162,0.799901,0.559229,0.888624,-0.431925,0.068745
7490449868,-7.091033,0.855125,0.325120,0.897576,-0.427980,0.063674
7490469920,-8.366628,0.426607,-0.089799,0.896122,-0.444413,0.071124
7490489972,-9.664652,-1.161505,-1.372295,0.884750,-0.455269,0.056991
7490510024,-11.073274,-0.449660,-2.594467,0.882026,-0.449888,0.052456
7490530076,-11.852958,-2.238683,-3.770347,0.886590,-0.454997,0.069452
7490550128,-10.357617,-4.085723,-4.469349,0.894341,-0.460796,0.056578
7490570180,-8.391243,-3.130651,-4.336907,0.896688,-0.449550,0.054829
7490590232,-8.057533,-1.532125,-4.009058,0.891723,-0.443685,0.059088
7490610284,-8.664578,-0.629715,-3.542060,0.881473,-0.440455,0.064249
7490630337,-8.643208,-0.558511,-3.110312,0.881347,-0.440733,0.070250
7490650389,-7.958886,-0.454771,-3.019962,0.891998,-0.452711,0.063284
7490670441,-7.132500,-0.872386,-3.882813,0.879529,-0.460997,0.063928
7490690493,-5.902296,-3.061723,-4.413806,0.872850,-0.467797,0.040420
7490710545,-0.497783,-3.056957,-4.446031,0.881918,-0.471308,0.034890
7490730597,2.809001,-3.748374,-4.353858,0.903368,-0.459557,0.040087
7490750650,5.211442,-3.485752,-3.726551,0.918487,-0.449656,0.037625
7490770702,6.888802,-2.473134,-3.798838,0.920543,-0.445725,0.058134
7490790754,10.591183,-2.651507,-4.618047,0.899515,-0.442599,0.051224
7490810806,12.134134,-3.970531,-7.099940,0.891526,-0.413441,0.077550
7490830858,13.589146,-5.620894,-10.262768,0.889495,-0.431866,0.060026
7490850910,15.570800,-6.532823,-12.450638,0.892185,-0.443429,0.057907
7490870962,19.198437,-7.134987,-12.980361,0.879935,-0.458156,0.039995
7490891014,22.243999,-7.342251,-12.889765,0.868701,-0.448297,0.038620
7490911068,27.008083,-7.099126,-12.983219,0.879686,-0.442120,0.043261
7490931120,29.929619,-7.279234,-12.074145,0.917466,-0.436855,0.049830
7490951172,31.704679,-5.925462,-12.321959,0.951628,-0.417596,0.044397
7490971224,31.876900,-5.407436,-12.217699,0.939403,-0.385624,0.045667
7490991276,29.762838,-5.666059,-12.511645,0.918703,-0.368116,0.053315
7491011328,27.735085,-6.582854,-12.530515,0.919143,-0.393686,0.037709
7491031381,30.779068,-5.417829,-11.527594,0.909578,-0.404873,0.057493
7491051433,33.703255,-6.837850,-12.205832,0.914575,-0.421640,0.053269
7491071485,37.608280,-4.612072,-13.616975,0.919024,-0.387715,0.055089
7491091537,36.580723,-6.219744,-13.474654,0.915118,-0.338151,0.059032
7491111589,33.485092,-7.153029,-12.598774,0.921937,-0.317614,0.051845
7491131641,29.650316,-7.556711,-12.444460,0.940392,-0.311676,0.057633
7491151693,25.598427,-7.389656,-11.852459,0.946074,-0.328606,0.060959
7491171745,23.828064,-7.127879,-10.647687,0.928083,-0.350891,0.061998
7491191797,26.870201,-8.177783,-10.546607,0.930274,-0.379621,0.060256
7491231916,32.140377,-4.806124,-12.242600,0.970151,-0.308276,0.049352
7491251952,27.219429,-3.288065,-10.806107,0.982123,-0.252399,0.047518
7491272004,19.742363,-0.729178,-9.008513,0.979921,-0.207586,0.042984
7491292057,10.474750,1.072502,-5.055260,0.967553,-0.209089,0.054184
7491312109,4.326455,1.837178,-1.440580,0.965717,-0.248849,0.076080
7491332161,0.747781,2.217734,1.204418,0.957784,-0.287293,0.095645
7491352213,-0.646312,2.777469,3.514559,0.952619,-0.291980,0.092664
7491372265,-2.185821,4.260594,4.336094,0.948608,-0.297854,0.095521
7491392317,-3.370521,4.066231,3.639915,0.944103,-0.301434,0.119251
7491412369,-6.210365,3.100883,2.787813,0.935747,-0.328979,0.081066
7491432421,-6.618164,4.323773,2.109215,0.934180,-0.331738,0.085359
7491452474,-7.916782,4.225529,1.124744,0.949137,-0.339568,0.088282
7491472525,-7.826972,3.521346,0.126716,0.946263,-0.342798,0.098024
7491492577,-7.241840,1.083132,-0.676035,0.930686,-0.351611,0.100378
7491512630,-6.700559,-0.681301,-0.533724,0.927921,-0.341391,0.084790
7491532682,-6.301381,0.617600,1.561032,0.923668,-0.318882,0.083772
7491552734,-7.327778,1.324022,2.680643,0.942584,-0.300866,0.082698
7491572786,-8.562539,3.130914,2.765796,0.944606,-0.292472,0.091249
7491592838,-9.840370,3.866299,3.923290,0.938779,-0.300031,0.078117
7491612890,-10.589592,4.206869,4.528696,0.947308,-0.323049,0.080989
7491632943,-9.637069,4.120505,4.293712,0.949487,-0.348141,0.079568
7491652995,-7.315258,2.811623,3.804777,0.929775,-0.364774,0.075803
7491673047,-3.882692,1.616330,3.322641,0.925936,-0.353894,0.087556
7491693099,-1.414560,0.131779,2.515944,0.930389,-0.345731,0.085857
7491713151,0.029888,-0.570469,1.623541,0.940368,-0.343876,0.093359
7491733204,-0.526084,-0.408338,1.426124,0.941327,-0.339387,0.083044
7491753257,-1.674867,-0.379763,1.130848,0.933957,-0.344942,0.083329
7491773309,-1.120196,-1.284727,0.315245,0.934513,-0.352990,0.085880
7491793361,0.520394,-2.026387,0.188384,0.924142,-0.359651,0.085520
7491813413,1.534376,-2.331206,0.158763,0.925987,-0.352842,0.078456
7491833465,1.682217,-1.554601,0.360667,0.941714,-0.345213,0.082205
7491853517,1.653609,-0.400821,0.364281,0.940380,-0.338041,0.088384
7491873569,1.408645,-1.677470,0.421818,0.926553,-0.342745,0.085614
7491893621,2.369178,-2.222204,0.923570,0.931534,-0.341301,0.090540
7491913673,1.605679,-2.071517,1.529635,0.933290,-0.328545,0.080044
7491933735,-0.017303,-0.492073,2.062866,0.936875,-0.319908,0.086241
7491953778,-0.857587,0.049701,2.167400,0.936586,-0.337320,0.082168
7491993882,-1.268367,0.398868,1.385707,0.932543,-0.347990,0.092806
7492013934,-1.286913,-0.496626,1.457010,0.938213,-0.345585,0.088547
7492033986,-1.866372,-0.340558,1.524886,0.938650,-0.340847,0.089404
7492054038,-2.722446,0.224994,1.803658,0.940776,-0.331259,0.079674
7492074089,-3.452993,0.197300,1.781273,0.937443,-0.339934,0.077115
7492094141,-2.722212,0.404405,1.363461,0.938402,-0.348668,0.088947
7492114193,-2.056684,-0.154271,1.168100,0.938061,-0.347551,0.084479
7492134245,-2.493868,0.473404,1.234300,0.933102,-0.336110,0.084765
7492154298,-3.303855,0.670779,2.067589,0.937616,-0.335490,0.076520
7492174350,-3.207647,1.030567,2.437685,0.933633,-0.341250,0.074650
7492194402,-2.663530,1.598640,2.867537,0.927824,-0.344754,0.071922
7492214454,-1.192153,0.942650,3.255810,0.921983,-0.345563,0.073435
7492234506,-0.297818,-0.080593,3.789549,0.923048,-0.344136,0.077789
7492254558,1.389490,-1.184468,3.959499,0.921357,-0.367104,0.066591
7492274610,2.966617,-1.938849,1.892491,0.909176,-0.383362,0.068783
7492294663,5.688810,-2.390296,0.922987,0.928248,-0.365735,0.072350
7492314715,5.503023,-3.489884,1.305789,0.943679,-0.344880,0.073400
7492334767,5.832314,-3.875046,1.284264,0.947123,-0.338367,0.058080
7492354819,4.920841,-4.283165,1.316305,0.923616,-0.342420,0.057779
7492374871,3.338220,-4.894922,2.251179,0.922949,-0.332211,0.073015
7492394923,2.222024,-4.455320,3.288373,0.936963,-0.332970,0.062217
7492414975,1.022104,-3.416344,3.156370,0.935728,-0.348678,0.063117
7492435027,-0.197184,-3.053384,2.988809,0.929463,-0.369953,0.069408
7492455079,0.386156,-2.570389,3.130941,0.923339,-0.375973,0.075069
7492475131,1.218155,-3.223062,3.504268,0.926216,-0.370728,0.079301
7492495183,2.412795,-3.109308,3.450405,0.914987,-0.387082,0.074684
7492515236,4.681874,-3.021446,2.994570,0.915697,-0.377742,0.073309
7492535288,6.954281,-3.519122,2.381594,0.909317,-0.382993,0.075597
7492555340,7.652086,-5.690462,1.646093,0.913357,-0.392395,0.091003
7492575393,9.104313,-7.469031,-0.182394,0.924592,-0.395851,0.089032
7492595445,10.608675,-9.169469,-1.715590,0.936866,-0.381400,0.087498
7492615498,10.522404,-9.722347,-2.615551,0.940575,-0.360174,0.097275
7492635549,9.864270,-10.576520,-2.551745,0.930435,-0.337683,0.089582
7492655602,8.885928,-10.828001,-0.496638,0.935464,-0.317500,0.076932
7492675654,5.325952,-10.890759,1.657248,0.926253,-0.300009,0.068849
7492695706,1.539813,-10.765351,2.590353,0.919890,-0.296319,0.048221
7492715758,-2.960724,-10.182349,2.195815,0.928723,-0.311057,0.026278
7492735810,-6.713747,-11.131709,1.215136,0.935769,-0.361434,0.015823
7492755862,-9.111550,-12.418011,0.773249,0.938520,-0.356595,0.010697
7492775914,-12.431233,-12.302291,0.895276,0.938701,-0.332466,0.014327
7492795966,-16.526722,-10.914623,1.270876,0.937758,-0.319853,0.013357
7492816018,-19.938072,-9.347781,1.660778,0.954348,-0.321743,-0.000773
7492836071,-24.792362,-6.827395,1.866003,0.963606,-0.315580,0.003130
7492856123,-29.955696,-3.877893,3.017228,0.948327,-0.308124,-0.006880
7492876195,-36.787346,-2.439396,4.651718,0.934622,-0.307991,-0.001799
7492896226,-43.538963,-0.001463,5.782525,0.936101,-0.345464,-0.017623
7492916278,-46.486275,2.615043,7.206964,0.952768,-0.355262,-0.025571
7492936330,-49.318825,6.794288,8.330399,0.962866,-0.327363,-0.020278
7492956382,-51.627953,8.101958,9.812176,0.956812,-0.325382,-0.046155
7492976434,-55.133247,11.927879,9.785062,0.970883,-0.312138,-0.011491
7492996486,-61.950459,15.569224,10.403955,0.980590,-0.324799,-0.027998
7493016538,-67.683472,20.075504,11.019488,0.980913,-0.327224,-0.019697
7493036590,-73.533073,25.134340,11.496737,0.968683,-0.324460,-0.034267
7493056642,-78.746231,29.233540,12.030123,0.960608,-0.309377,-0.032954
7493076695,-84.949295,32.734756,13.861917,0.945095,-0.313742,-0.043646
7493096747,-89.404564,35.583473,15.149662,0.940489,-0.336051,-0.039967
7493116799,-90.392799,36.327381,16.155445,0.925441,-0.370392,-0.037495
7493136851,-88.494316,35.319641,16.900990,0.924219,-0.381080,-0.041379
7493156903,-89.651062,36.597458,17.275940,0.933053,-0.381579,-0.039493
7493176955,-86.394966,37.503883,19.181574,0.907578,-0.407549,-0.066457
7493197007,-86.025864,39.150539,17.485664,0.919133,-0.399130,-0.051204
7493217060,-88.573753,42.758232,15.579386,0.940487,-0.382896,-0.062964
7493237112,-90.333786,46.215263,15.439246,0.939661,-0.372908,-0.082444
7493257164,-94.734108,48.711700,13.795130,0.937624,-0.356096,-0.101012
7493277216,-97.499046,52.447563,13.169331,0.933826,-0.396817,-0.101658
7493317320,-108.513245,61.936291,12.405331,0.870620,-0.388624,-0.116379
7493337372,-113.346481,63.850163,11.521269,0.885584,-0.406717,-0.093979
7493357424,-119.884232,64.135727,10.620678,0.902327,-0.427574,-0.093800
7493377478,-125.560486,64.592186,11.833726,0.904805,-0.432660,-0.093996
7493397530,-137.834106,65.769180,13.759023,0.874186,-0.396682,-0.082997
7493417582,-138.443726,61.256680,13.911207,0.877097,-0.368682,-0.127016
7493437634,-135.452759,61.614677,13.408714,0.895139,-0.388069,-0.100307
7493457686,-133.859192,64.250336,13.171707,0.898224,-0.445754,-0.100163
7493477738,-133.071945,64.483612,14.428734,0.882322,-0.455075,-0.088716
7493497790,-134.049377,64.687332,15.239324,0.900827,-0.447636,-0.092306
7493517843,-134.648407,69.345558,14.170007,0.977178,-0.432370,-0.123115
7493537895,-136.529129,75.850960,13.602563,1.000243,-0.392524,-0.174217
7493557949,-137.469391,82.880669,13.336143,0.948884,-0.405523,-0.224236
7493577999,-137.650879,86.850838,11.079154,0.877543,-0.467434,-0.215936
7493598051,-132.776901,83.506210,7.776968,0.792388,-0.565940,-0.165686
7493618103,-130.057968,78.650269,1.820530,0.754086,-0.617699,-0.106647
7493638155,-128.274796,72.737160,-2.275092,0.792138,-0.591202,-0.063695
7493658207,-125.759781,66.799690,-3.786463,0.850972,-0.531764,-0.052333
7493678260,-125.347588,63.620220,-3.980283,0.871050,-0.486265,-0.063260
7493698310,-123.759270,61.604809,-4.989474,0.861629,-0.471312,-0.096400
7493718362,-122.610168,61.234413,-7.118288,0.850522,-0.471914,-0.098744
7493738414,-123.547218,62.445141,-9.168450,0.866136,-0.471398,-0.103183
7493758466,-122.663826,64.328239,-10.024093,0.878295,-0.446966,-0.105652
7493778519,-127.138184,65.386749,-9.685120,0.905727,-0.405269,-0.078311
7493798571,-131.976730,65.592674,-8.138027,0.945961,-0.373667,-0.130378
7493818623,-133.485458,70.216995,-7.630486,0.912700,-0.410557,-0.176538
7493838675,-134.682831,71.819733,-9.848644,0.911692,-0.467435,-0.131808
7493858727,-141.046326,72.153442,-10.522094,0.935569,-0.443907,-0.142180
7493878779,-146.411636,76.063919,-9.662109,0.941909,-0.385243,-0.164354
7493898831,-153.404175,79.768372,-6.095159,0.936698,-0.323974,-0.161283
7493918884,-164.650238,83.306541,-2.814145,0.921049,-0.301762,-0.162196
7493938936,-167.187805,84.477943,-1.036238,0.906707,-0.389852,-0.144374
7493958988,-164.934036,84.415939,-1.165656,0.882962,-0.517562,-0.151153
7493979040,-159.865463,81.178154,-3.384487,0.865501,-0.567722,-0.148969
7493999092,-157.755142,76.238533,-6.346735,0.877525,-0.572003,-0.145199
7494019144,-150.043015,69.443069,-8.448128,0.893375,-0.568381,-0.129315
7494039196,-143.532242,63.780125,-10.295318,0.869846,-0.541758,-0.125518
7494059248,-137.082703,58.335056,-12.438817,0.856817,-0.481334,-0.110405
7494079301,-134.058609,54.337582,-11.433256,0.870553,-0.452053,-0.104376
7494099353,-130.746201,51.945118,-10.228698,0.875134,-0.479612,-0.094390
7494119405,-126.727951,48.715214,-12.515398,0.889755,-0.467808,-0.090788
7494139457,-121.967300,46.076256,-14.561871,0.907782,-0.434846,-0.056506
7494159509,-116.990242,44.184216,-16.368462,0.878657,-0.439715,-0.062200
7494179563,-111.472267,42.324497,-18.425463,0.857386,-0.424626,-0.064797
7494199615,-105.299400,40.175919,-20.019381,0.864768,-0.413094,-0.085600
7494219667,-95.485451,37.527031,-21.658323,0.877635,-0.399617,-0.079030
7494239719,-96.151207,33.591019,-21.523266,0.894661,-0.376804,-0.055544
7494259771,-97.940559,30.840023,-18.921156,0.898405,-0.394919,-0.109656
7494279823,-89.020164,30.918083,-15.809596,0.925685,-0.412994,-0.119887
7494299875,-81.046738,30.004110,-12.527552,0.923299,-0.419869,-0.098285
7494319927,-75.720932,28.739811,-9.084211,0.921375,-0.403754,-0.089215
7494339980,-73.239632,27.462500,-3.563197,0.937649,-0.389677,-0.072994
7494360032,-72.943939,26.166004,2.383069,0.949685,-0.429340,-0.084719
7494380084,-69.846390,26.633245,4.631325,0.908263,-0.456571,-0.127595
7494400136,-65.624954,29.274067,3.696114,0.905793,-0.404527,-0.090043
7494420188,-66.707924,28.657217,5.707042,0.904437,-0.329341,-0.067293
7494440240,-70.445946,30.171480,8.916612,0.943473,-0.270669,-0.068423
7494460292,-74.966576,31.770775,14.369532,1.010019,-0.267535,-0.069169
7494480344,-74.426956,31.753468,20.659937,0.983179,-0.314354,-0.086176
7494500395,-72.011581,29.730927,23.659750,0.933644,-0.340108,-0.036697
7494520447,-76.645050,31.319086,22.685793,1.001824,-0.359727,-0.040440
7494540499,-82.428673,35.158878,17.619421,1.034963,-0.354210,-0.066534
7494560551,-88.496521,42.613537,15.428277,0.924101,-0.325493,-0.048931
7494580603,-93.450722,45.825539,14.661049,0.853055,-0.376022,0.012225
7494600656,-91.143158,47.056095,14.784842,0.888088,-0.455051,-0.030418
7494620708,-83.738197,48.517239,12.495948,0.885893,-0.456365,0.018114
7494640760,-85.296532,48.100990,9.519398,0.905944,-0.408225,-0.005113
7494660812,-90.466682,51.303467,9.866385,0.903880,-0.368212,-0.015043
7494680864,-102.409843,53.858391,10.854605,0.905071,-0.356715,-0.037344
7494700916,-110.934097,57.489956,9.298969,0.917472,-0.354208,-0.054644
7494720968,-121.659012,62.477715,8.383641,0.909047,-0.352860,-0.079894
7494741020,-134.052368,68.571739,8.852035,0.901285,-0.357938,-0.090796
7494761073,-140.804443,70.902176,7.398789,0.876462,-0.449717,-0.056010
7494781125,-142.336838,66.361809,5.308021,0.823915,-0.507573,-0.020995
7494801177,-144.169922,63.294746,4.803862,0.829559,-0.464149,-0.041362
7494821229,-147.916214,64.398102,9.068325,0.893313,-0.394896,-0.049800
7494841281,-155.577957,66.450706,12.626045,0.969211,-0.345590,-0.082733
7494861333,-158.655136,71.541893,15.345582,1.021161,-0.334863,-0.147834
7494881385,-165.298004,79.550026,19.617582,1.014463,-0.354960,-0.192728
7494901437,-166.882111,86.331490,21.572876,0.976651,-0.442630,-0.199252
7494921490,-162.864670,87.876297,19.209089,0.932085,-0.528493,-0.205391
7494941542,-148.679047,86.903473,10.400728,0.890069,-0.590820,-0.160616
7494961594,-135.588226,84.004471,1.857070,0.836333,-0.625147,-0.074441
7494981647,-125.824440,77.741272,-5.817409,0.789002,-0.607154,-0.003004
7495001699,-119.965385,68.644096,-11.017593,0.791497,-0.559980,0.029913
7495021752,-116.850189,62.184807,-14.028009,0.801800,-0.517160,0.023856
7495041804,-114.397293,58.255810,-16.001017,0.806779,-0.488067,0.030825
7495061856,-115.139496,53.855110,-14.841170,0.818323,-0.497470,0.025835
7495081908,-117.462708,51.913109,-13.408822,0.817224,-0.498751,-0.019327
7495101960,-118.196960,51.200947,-13.618321,0.821513,-0.485247,-0.073438
7495122012,-122.264908,51.287415,-12.548562,0.847040,-0.474869,-0.063198
7495142064,-129.016144,49.982662,-10.214962,0.890062,-0.431683,-0.067756
7495162116,-134.486359,51.237675,-7.792104,0.919253,-0.446086,-0.094829
7495182168,-137.621307,54.063934,-7.815904,0.916214,-0.457566,-0.083812
7495202220,-141.622787,53.867302,-8.359510,0.925267,-0.453465,-0.090702
7495222273,-143.287613,55.950638,-7.335367,0.911487,-0.480151,-0.105941
7495242325,-144.333649,57.837563,-6.795818,0.865070,-0.492939,-0.097216
7495262377,-143.863724,55.378658,-7.151299,0.849156,-0.472052,-0.114566
7495282449,-144.970016,54.271805,-6.965203,0.881150,-0.466505,-0.131944
7495302480,-145.207809,54.642193,-6.973975,0.900340,-0.477758,-0.134041
7495322532,-141.769791,54.723133,-6.134194,0.886395,-0.502606,-0.122219
7495342584,-138.271484,52.605137,-3.740748,0.894343,-0.484546,-0.118463
7495362636,-137.814987,50.898781,-0.339656,0.907160,-0.504574,-0.148769
7495382688,-130.824188,51.142529,0.960637,0.903098,-0.511989,-0.152074
7495402740,-126.572067,51.762081,0.896382,0.888317,-0.473803,-0.122357
7495422793,-125.971222,51.872143,0.873055,0.877969,-0.463428,-0.119551
7495442845,-123.334358,50.501663,2.316857,0.869154,-0.468837,-0.121641
7495462897,-116.981079,49.525730,2.287679,0.851182,-0.495681,-0.121731
7495482949,-111.643791,48.758446,0.295188,0.869444,-0.473761,-0.090954
7495503001,-110.087219,45.910004,-1.552386,0.890942,-0.438812,-0.090025
7495523053,-107.882393,45.012173,-1.747117,0.921153,-0.433596,-0.098505
7495543105,-105.039482,43.596725,-0.424497,0.906140,-0.445157,-0.097750
7495563157,-100.830055,40.369518,-0.088955,0.880640,-0.462534,-0.140173
7495583209,-95.772423,40.506550,-1.652463,0.874115,-0.466546,-0.082643
7495603262,-96.299446,35.191303,-2.467649,0.892432,-0.478978,-0.090822
7495623314,-93.751968,32.776970,-2.725485,0.892763,-0.481732,-0.099240
7495643366,-90.417366,32.189663,-1.807575,0.881467,-0.460667,-0.111197
7495663418,-88.778511,33.341663,0.984517,0.867463,-0.428949,-0.102029
7495683470,-89.547493,32.347244,2.989058,0.871894,-0.438002,-0.106801
7495703522,-88.730690,33.805264,2.210694,0.891481,-0.482985,-0.097689
7495723574,-85.185760,36.952892,2.880713,0.887298,-0.526232,-0.077860
7495743626,-82.123886,36.293125,3.427599,0.869885,-0.485232,-0.067097
7495763680,-82.985870,34.571175,4.532783,0.867003,-0.430433,-0.084929
7495783732,-82.448975,35.160725,4.765512,0.887521,-0.428508,-0.086896
7495803784,-83.101791,36.948017,3.554527,0.915136,-0.443894,-0.093339
7495823836,-82.364510,38.458805,3.996222,0.938206,-0.466192,-0.067651
7495843888,-87.467102,40.306683,7.349118,0.963771,-0.481758,-0.035389
7495863941,-91.751434,37.902496,14.536176,0.904305,-0.461529,-0.149832
7495883993,-81.446159,39.992638,19.853373,0.828221,-0.428122,-0.095319
7495904045,-80.726349,25.833260,24.972233,0.809694,-0.457058,0.000313
7495924097,-75.628502,20.896538,20.584087,0.859291,-0.539976,-0.145517
7495944149,-66.491806,17.976744,16.430098,0.822804,-0.484918,-0.076069
7495964201,-63.754379,9.543340,16.162621,0.771073,-0.539722,-0.088525
7495984253,-48.829742,2.533572,9.944069,0.782399,-0.586378,-0.099902
7496004305,-37.247547,-3.929772,5.945437,0.798097,-0.533351,-0.098314
7496024358,-24.302908,-7.782221,2.831650,0.835714,-0.551257,-0.130195
7496044410,-4.867918,-6.712587,3.018212,0.835449,-0.534756,-0.170922
7496064462,12.459502,-7.477216,3.446780,0.847790,-0.558782,-0.118116
7496084513,25.057281,-8.434492,2.316403,0.920217,-0.637663,-0.085880
7496104565,27.872776,-5.114447,-3.789505,0.891045,-0.698675,-0.039938
7496124617,26.223242,-2.119843,-7.528093,0.963201,-0.567284,-0.082118
7496144669,21.240009,4.908854,-7.376253,0.973041,-0.421443,-0.076102
7496164721,14.673780,12.121605,-7.694387,0.988535,-0.330295,-0.089862
7496184773,6.872552,18.543543,-5.743255,0.998894,-0.315175,-0.076058
7496204825,4.173150,23.497995,-4.622538,0.970131,-0.364464,-0.074782
7496224878,1.817720,26.254246,-5.715002,0.942367,-0.391327,-0.068306
7496244930,0.114483,31.288635,-1.396590,0.946477,-0.400743,-0.002731
7496264982,0.567366,36.699322,7.361040,0.977999,-0.378702,-0.010216
7496285034,4.483126,41.054146,12.452879,0.888272,-0.422151,0.015008
7496305086,12.163767,42.438053,9.671523,0.868186,-0.448701,-0.059989
7496325138,22.140579,48.237389,5.252252,0.836989,-0.416886,0.067296
7496345190,17.268024,47.376125,1.361341,0.867255,-0.369624,0.012706
7496365242,14.602736,54.976215,1.836297,0.946852,-0.270983,0.023944
7496385295,8.194535,62.276604,7.990235,1.041680,-0.311761,0.010455
7496405347,12.171208,67.179550,6.077209,1.084526,-0.402266,0.009353
7496425399,8.671479,68.836411,-0.793810,1.022059,-0.541137,0.035147
7496445451,13.079626,63.992588,-0.596768,0.893958,-0.614872,-0.018893
7496465503,12.702120,62.343872,4.373263,0.786528,-0.544323,0.045602
7496485555,14.939251,59.266956,7.695086,0.765749,-0.475021,0.040926
7496505607,20.394539,57.444798,9.230403,0.817463,-0.444057,0.114732
7496525659,32.419579,57.751762,9.323662,0.828061,-0.523297,0.150443
7496545712,45.205242,55.080696,9.502706,0.797337,-0.523852,0.135326
7496565765,51.766186,50.636578,9.455090,0.774626,-0.471045,0.204081
7496585817,54.092564,45.799801,8.121887,0.802192,-0.472421,0.198930
7496605869,57.494186,44.875492,7.305355,0.834324,-0.462087,0.217851
7496625922,59.811222,44.200665,7.443290,0.828490,-0.419944,0.243315
7496645974,61.282696,43.619438,7.649409,0.812667,-0.388872,0.252113
7496666026,58.880234,43.529350,6.695612,0.819294,-0.336877,0.246469
7496686078,51.223980,44.271568,4.732786,0.812421,-0.312743,0.302671
7496706130,44.108959,44.587917,3.294185,0.837625,-0.348099,0.406413
7496726182,42.203072,43.547821,6.451283,0.940005,-0.450095,0.457033
7496746234,45.606651,38.262070,7.430833,0.903099,-0.491999,0.397455
7496766286,45.156578,33.095272,6.001213,0.847983,-0.482418,0.370506
7496786338,42.202454,28.162682,6.974193,0.800204,-0.474382,0.367984
7496806391,43.107067,22.896301,8.795815,0.780434,-0.464701,0.329832
7496826443,44.672192,19.681751,10.261502,0.759621,-0.431752,0.318034
7496846495,46.494644,15.613962,10.994884,0.787561,-0.407489,0.314043
7496866547,44.913685,15.223138,10.852784,0.854999,-0.374818,0.332956
7496886599,41.824039,17.184628,9.695105,0.874325,-0.376912,0.380832
7496906650,40.992527,17.067621,7.664638,0.861136,-0.379562,0.439299
7496926702,40.358105,12.964649,7.777525,0.837049,-0.345000,0.503074
7496946754,36.270157,5.077051,8.435188,0.818953,-0.334412,0.598706
7496966806,35.885262,-7.898260,8.669508,0.805582,-0.337863,0.626462
7496986858,33.307217,-20.656929,11.806590,0.795502,-0.334784,0.633717
7497006910,21.849709,-31.397387,15.530985,0.802275,-0.197640,0.622816
7497026962,-1.379136,-36.477039,21.399998,0.848579,-0.039447,0.622950
7497047014,-28.909388,-41.717800,27.847076,0.762866,-0.049012,0.615273
7497067066,-52.312107,-56.627678,25.686010,0.626844,-0.117224,0.509945
7497087118,-72.028008,-77.747772,25.682323,0.645947,-0.262606,0.371982
7497107171,-83.296234,-90.564713,19.015476,0.657189,-0.549643,0.323943
7497127223,-70.371613,-99.878647,4.673341,0.722547,-0.689119,0.114987
7497147275,-56.921364,-89.953896,3.148958,1.005769,-0.618680,-0.195281
7497167327,-49.067585,-60.937256,15.559080,1.418750,-0.512929,-0.201939
7497187379,-55.998806,-22.748783,23.024031,1.365994,-0.181584,0.016519
7497207431,-53.845783,-10.112283,22.608364,1.081357,-0.403240,0.503572
7497227483,-35.901329,-9.388898,14.027787,0.731184,-0.692280,0.555784
7497247535,-23.440720,-15.786175,2.783138,0.392343,-0.724837,0.490957
7497267587,-16.383667,-28.916964,-1.638092,0.380947,-0.494242,0.422589
7497287639,-13.627515,-39.814621,-1.442347,0.534193,-0.347277,0.287465
7497307692,-20.334450,-43.968678,-1.925896,0.651815,-0.282614,0.267466
7497327744,-20.526278,-45.852055,-0.630916,0.797420,-0.448007,0.223334
7497347796,-14.293232,-43.675419,-7.401030,0.898133,-0.605340,0.197149
7497367848,-6.422247,-39.343212,-15.937462,0.957982,-0.596447,0.231825
7497387902,1.086212,-37.656429,-17.469273,1.011774,-0.558671,0.196597
7497407954,8.602740,-33.608799,-17.842064,0.990152,-0.516111,0.209038
7497428006,10.163558,-33.247181,-18.692699,0.966007,-0.448494,0.188635
7497448058,4.749290,-31.345901,-18.568512,0.937640,-0.379158,0.187541
7497468110,-2.604014,-29.694508,-18.738365,0.901819,-0.382450,0.172420
7497488162,-5.390981,-23.373903,-18.781906,1.027363,-0.383992,0.140428
7497508215,-1.810574,-10.745693,-14.794670,0.987130,-0.502127,0.157869
7497528267,10.376494,-3.761893,-16.679848,0.877708,-0.494371,0.157912
7497548319,12.679596,2.776838,-10.321703,0.873243,-0.373690,0.128401
7497568371,12.875419,10.382444,-3.549653,0.795802,-0.294368,0.095942
7497608476,4.340837,30.385027,8.578952,0.842094,-0.344222,0.186459
7497628528,5.125247,40.747768,14.954768,0.893545,-0.375907,0.212093
7497648580,13.825854,47.597076,13.412329,0.982883,-0.435880,0.133897
7497668632,19.888527,54.031418,5.422549,1.028731,-0.536959,0.123486
7497688684,25.867281,59.089748,-2.782249,0.967095,-0.615847,0.086517
7497708735,27.006252,63.967026,-8.210830,0.912259,-0.516859,0.200406
7497728787,18.913637,63.996159,-4.850618,0.951954,-0.453727,0.193413
7497748839,23.148462,62.393082,6.150490,0.977518,-0.489165,0.189188
7497768891,26.410952,54.458065,10.905958,0.842790,-0.493306,0.250991
7497788943,20.848482,42.814182,6.158130,0.753600,-0.441137,0.323462
7497808995,12.125973,27.478302,3.091498,0.746537,-0.380432,0.440496
7497829047,-1.561935,12.048812,1.156193,0.712461,-0.410519,0.483136
7497849099,-8.449986,-10.518725,0.304157,0.636776,-0.374916,0.468373
7497869152,-23.443090,-34.286366,4.120152,0.645929,-0.387369,0.421868
7497889204,-42.159489,-56.253155,4.846611,0.714212,-0.378528,0.215214
7497909256,-55.305691,-64.165138,2.619948,0.781846,-0.450431,0.004220
7497929308,-38.353485,-48.610199,1.817675,0.791142,-0.514008,-0.072321
7497949360,-27.562996,-21.179043,8.995173,1.046366,-0.488776,0.154772
7497969413,-18.653490,2.106730,15.672244,1.275160,-0.537179,0.153046
7497989465,-0.708722,12.708343,8.505210,1.094546,-0.494842,0.429927
7498009517,-2.885484,0.925563,-1.283334,0.857791,-0.411302,0.450367
7498029569,-6.194601,-10.794310,-5.971060,0.660971,-0.266229,0.376857
7498049621,-12.519743,-19.358000,-4.271966,0.665083,-0.284904,0.353563
7498069673,-12.670916,-19.564058,-4.286361,0.808560,-0.394900,0.333586
7498089725,-9.234887,-18.506945,-7.535001,0.879652,-0.454620,0.397310
7498109777,-3.991237,-22.857103,-10.561009,0.885364,-0.478376,0.367906
7498129830,1.568003,-30.426996,-11.650978,0.822841,-0.442723,0.316246
7498149882,1.197204,-35.979862,-10.593397,0.804961,-0.452286,0.291873
7498169934,0.442455,-38.415199,-8.364105,0.834282,-0.445039,0.247464
7498189987,-2.420123,-37.506481,-6.971706,0.861359,-0.424992,0.221885
7498210039,-6.091935,-34.778824,-5.229081,0.922363,-0.412162,0.181907
7498230091,-6.952114,-30.753990,-4.151278,0.916563,-0.404228,0.172049
7498250143,-5.078965,-28.805035,-5.219704,0.886016,-0.397785,0.169850
7498270196,-7.273259,-26.478340,-5.977270,0.875912,-0.396000,0.181936
7498290248,-9.008144,-25.231216,-8.648753,0.866827,-0.404963,0.134443
7498310300,-8.154541,-21.561556,-10.276015,0.891299,-0.401138,0.156839
7498330352,-10.893400,-22.152666,-9.681860,0.878820,-0.410303,0.159583
7498350404,-9.915249,-22.197104,-8.120785,0.885771,-0.424828,0.178522
7498370456,-8.129993,-23.687840,-6.805113,0.905507,-0.467642,0.161254
7498390508,-5.825092,-24.190304,-8.206296,0.935369,-0.472519,0.139528
7498410561,-0.588564,-24.462814,-7.494768,0.936884,-0.489831,0.123016
7498430613,0.343894,-23.304043,-5.301190,0.905393,-0.470139,0.119838
7498450665,3.808529,-23.858488,-1.730803,0.875687,-0.444436,0.104607
7498470717,7.237963,-21.878254,1.724756,0.855067,-0.431012,0.131753
7498490789,7.664552,-21.902700,4.612273,0.837286,-0.443982,0.123324
7498510820,13.285628,-21.608854,5.647610,0.860591,-0.420524,0.101769
7498530872,12.754639,-20.698307,6.122133,0.862242,-0.376800,0.109455
7498550924,12.369015,-20.849585,5.410367,0.859425,-0.356891,0.097934
7498570976,6.170710,-19.313307,6.248507,0.904758,-0.373360,0.101991
7498591028,5.914170,-17.116068,7.021659,0.909024,-0.394082,0.068906
7498611081,9.109484,-18.167276,6.758899,0.913582,-0.400940,0.103463
7498631133,9.782248,-20.325901,6.857049,0.930274,-0.404983,0.104083
7498651185,8.282804,-18.026419,8.274494,0.933719,-0.449895,0.114261
7498671237,13.376801,-18.379957,8.326982,0.915947,-0.502533,0.108382
7498691289,13.828318,-21.367271,7.268484,0.934844,-0.417118,0.061449
7498711342,4.300601,-21.865688,4.340481,0.940391,-0.322900,0.047856
7498731393,1.304495,-22.653324,1.744662,0.935020,-0.355564,0.000663
7498751445,-1.312513,-20.555508,0.048242,0.924850,-0.389654,0.026433
7498771497,-11.927660,-16.999670,0.676339,0.911480,-0.395224,0.039309
7498791550,-28.621267,-14.691391,2.387074,0.929481,-0.327183,0.029470
7498811602,-49.491562,-11.920980,8.250948,0.891019,-0.261614,-0.005008
7498831654,-64.084274,-7.582198,11.939639,0.854617,-0.273022,-0.041306
7498851706,-67.707306,-5.323155,16.351654,0.971240,-0.324661,-0.112680
7498871758,-61.451283,4.827127,20.695126,1.067219,-0.365961,-0.182229
7498891810,-55.274742,12.053640,20.183008,1.046615,-0.384434,-0.110817
7498911863,-50.685524,9.498590,13.588934,0.978117,-0.473792,-0.122720
7498931915,-27.140379,7.671767,1.725916,0.819902,-0.604060,-0.096886
7498951967,-1.991950,-0.346455,-8.850643,0.728119,-0.639607,-0.020419
7498972019,2.823321,-11.746363,-12.162945,0.732405,-0.655995,0.034059
7498992072,7.779178,-20.308641,-13.491812,0.744138,-0.561290,0.053768
7499012125,-2.748714,-30.145542,-11.900542,0.836056,-0.396358,0.060690
7499032176,-6.015918,-27.414557,-7.657012,0.857292,-0.381157,-0.023676
7499052229,-4.584277,-20.939577,-5.663822,0.861686,-0.427717,0.042967
7499072281,-11.202594,-19.267712,-4.560739,0.912988,-0.534519,0.038205
7499092333,-21.958296,-16.506218,-6.938702,0.897552,-0.563198,0.010890
7499112385,-31.814646,-16.966034,-9.427143,0.886562,-0.575836,-0.051934
7499132437,-33.440334,-9.474894,-10.445231,0.911532,-0.544324,-0.050486
7499152489,-44.503189,-4.557261,-4.114715,0.960425,-0.480310,-0.009709
7499172547,-53.187641,-7.150201,6.576012,0.916299,-0.457668,-0.129343
7499192594,-51.171230,-1.470891,16.575117,0.826848,-0.408511,-0.166355
7499212646,-56.028065,-0.155592,23.082607,0.760501,-0.368277,-0.112487
7499232698,-69.482254,-3.798212,22.811871,0.750727,-0.375107,-0.105661
7499252750,-77.032135,-9.679482,18.992250,0.781246,-0.412636,-0.129913
7499272802,-78.717941,-13.393085,15.746687,0.813177,-0.481923,-0.177053
7499292854,-74.707626,-14.413896,12.254899,0.851788,-0.525219,-0.148104
7499312905,-69.889748,-16.447184,7.493054,0.864517,-0.557021,-0.188544
7499332957,-59.397243,-15.821121,2.022795,0.879474,-0.555186,-0.221541
7499353009,-48.351498,-10.240342,-3.244942,0.870701,-0.597365,-0.228113
7499373061,-40.829052,-4.047357,-10.097556,0.869350,-0.629756,-0.199210
7499393113,-30.907227,-0.190093,-13.039799,0.967643,-0.615751,-0.162322
7499413166,-37.175621,12.735601,-7.056873,1.009915,-0.520679,-0.096050
7499433218,-48.482109,9.632253,0.074421,0.895544,-0.495646,-0.317818
7499453270,-32.338081,18.661570,0.621234,0.892397,-0.515001,-0.362240
7499473322,-34.485695,24.611118,7.248230,0.867249,-0.500471,-0.262978
7499493374,-37.406322,18.647188,17.940975,0.856654,-0.500512,-0.321764
7499513426,-36.481533,16.273926,27.028421,0.842832,-0.440103,-0.326741
7499533479,-38.583462,19.636869,32.754837,0.844896,-0.403340,-0.246356
7499553531,-44.048832,23.294453,34.540363,0.856685,-0.388110,-0.212185
7499573583,-44.813980,25.473944,31.842592,0.835586,-0.378547,-0.194541
7499593635,-45.475273,24.770269,26.911348,0.790331,-0.354441,-0.153607
7499613687,-48.184650,32.812588,22.943525,0.838486,-0.389568,-0.139408
7499633739,-52.670219,48.306919,20.322439,0.966402,-0.391185,-0.094040
7499653791,-74.440529,47.792339,15.496458,0.967334,-0.398349,-0.233731
7499673843,-107.144165,53.107525,6.273582,0.981215,-0.376944,-0.264054
7499693896,-124.450005,41.997654,11.645931,0.927861,-0.445537,-0.428048
7499713948,-105.047173,51.382622,23.013130,0.839307,-0.519374,-0.463448
7499734000,-93.518112,55.647888,33.665565,0.902562,-0.538663,-0.404883
7499754052,-90.334114,66.164108,39.024437,0.960166,-0.522953,-0.503811
7499774104,-90.434219,81.462921,39.358280,0.888576,-0.455605,-0.439934
7499794158,-98.824699,81.980370,36.229324,0.913696,-0.451064,-0.341744
7499814210,-96.795502,72.411133,32.366001,0.842445,-0.568816,-0.305351
7499834262,-80.059784,67.004257,23.246130,0.678680,-0.694071,-0.283977
7499854314,-61.492180,64.757309,14.910519,0.559072,-0.710982,-0.151302
7499874366,-59.118652,54.900932,10.904064,0.540082,-0.643523,-0.055879
7499894418,-62.796581,45.788956,8.412959,0.610073,-0.585034,-0.081053
7499914471,-62.213921,42.134720,5.007237,0.683026,-0.551365,-0.101375
7499934523,-65.650391,39.853081,1.916510,0.760251,-0.524602,-0.116133
7499954575,-73.465347,38.473141,0.673473,0.837730,-0.517317,-0.133300
7499974627,-79.827095,37.602734,1.663964,0.911543,-0.529831,-0.168531
7499994679,-80.211571,37.452240,3.468409,0.952531,-0.578578,-0.184671
7500014731,-78.280365,37.200172,4.825234,0.908711,-0.594392,-0.197432
7500034784,-70.101440,35.635468,3.448393,0.842718,-0.576558,-0.223736
7500054835,-58.967434,33.887207,-1.187804,0.823083,-0.558976,-0.210991
7500074887,-51.078461,27.122486,-7.003053,0.789879,-0.593876,-0.174741
7500094940,-46.955780,20.663092,-11.067297,0.772103,-0.646308,-0.210887
7500114990,-40.482704,20.262733,-11.439552,0.785863,-0.589401,-0.191635
7500135042,-42.598541,20.161995,-8.384146,0.810802,-0.515477,-0.159505
7500155094,-45.040817,21.147989,-4.816998,0.852231,-0.469628,-0.142655
7500175146,-54.757877,24.979546,1.251525,0.864129,-0.449686,-0.160524
7500195199,-57.998135,31.640982,5.140448,0.890968,-0.494862,-0.159720
7500215251,-55.757969,35.635239,5.383584,0.932902,-0.553817,-0.114389
7500235303,-48.690468,41.190708,5.013334,0.909764,-0.588413,-0.115789
7500255355,-51.984943,42.211765,5.412654,0.929997,-0.476754,-0.061589
7500275407,-61.143730,47.349026,10.892902,0.966596,-0.433447,-0.152533
7500295459,-63.072571,56.930492,14.187725,0.965664,-0.419791,-0.124887
7500315512,-66.662521,62.580101,16.905516,0.960594,-0.416728,-0.132320
7500335564,-61.377361,71.264771,19.791639,0.933010,-0.450327,-0.075688
7500355616,-56.637566,73.254662,19.828598,0.992424,-0.519111,-0.021394
7500375668,-60.779381,74.943939,13.942956,0.982296,-0.458191,-0.112419
7500395720,-66.526535,74.993622,10.943529,0.827264,-0.387456,-0.014727
7500415772,-77.990402,57.509659,3.580412,0.834111,-0.444996,-0.049731
7500435824,-78.585602,58.937847,4.341174,0.817949,-0.333491,-0.147746
7500455876,-84.248238,60.744194,6.512093,0.768119,-0.267195,0.030449
7500475929,-108.607819,55.761322,10.850218,0.745284,-0.311141,-0.002377
7500495981,-122.017624,53.081692,15.138680,0.766394,-0.359985,0.028875
7500516033,-139.847061,41.780949,17.290813,0.793537,-0.361619,0.018362
7500536085,-133.605072,31.000404,20.387672,0.806268,-0.410285,-0.045149
7500556137,-122.649620,26.053423,26.297316,0.828497,-0.543632,-0.084801
7500576189,-128.041779,30.944544,29.783827,1.007863,-0.500959,-0.191267
7500596243,-130.644562,46.204281,32.521210,1.107523,-0.415312,-0.330150
7500616295,-125.015182,54.965954,31.632629,1.022280,-0.486913,-0.247130
7500636347,-116.150986,46.945850,21.986408,0.927205,-0.668482,-0.267152
7500656399,-96.831795,44.855011,11.156519,0.782506,-0.854761,-0.201766
7500676451,-83.041039,34.868214,-1.243387,0.633941,-0.842368,-0.073998
7500696503,-78.755005,23.062580,-8.131374,0.611205,-0.682594,-0.054287
7500716555,-74.935707,15.758639,-10.979969,0.645411,-0.576496,-0.048365
7500736608,-71.955559,12.214113,-11.529640,0.711624,-0.535729,-0.073270
7500756660,-65.430389,12.930444,-10.647657,0.778034,-0.566629,-0.064989
7500776712,-58.445847,14.944187,-10.361462,0.834014,-0.586855,-0.071174
7500796764,-54.483665,14.888649,-8.839287,0.893882,-0.582059,-0.068987
7500816816,-50.980705,12.339351,-7.422042,0.923935,-0.586235,-0.092538
7500836868,-42.861744,11.071956,-9.739679,0.915997,-0.580529,-0.156461
7500856920,-33.792747,13.495998,-12.744896,0.935401,-0.545513,-0.125010
7500876973,-36.587833,14.756520,-14.605105,0.952854,-0.498271,-0.108710
7500897044,-41.720985,14.133995,-15.298427,0.920941,-0.470992,-0.121431
7500917075,-40.067234,17.401682,-16.492584,0.875565,-0.458250,-0.131988
7500937127,-43.486774,20.420815,-15.736315,0.885574,-0.397271,-0.081455
7500957180,-51.120575,27.079960,-11.269846,0.922994,-0.429706,-0.119077
7500977232,-48.479675,36.782104,-9.219988,0.934567,-0.454619,-0.090259
7500997284,-44.455147,40.772282,-4.278509,0.942242,-0.446818,-0.034856
7501017336,-42.148209,45.783253,0.591844,0.951121,-0.470431,-0.029157
7501037388,-37.689415,50.720215,3.544222,0.937657,-0.451094,-0.028113
7501057440,-35.575897,55.250439,4.634399,0.980749,-0.390988,-0.037683
7501077493,-34.636967,62.935654,6.434118,1.015582,-0.345463,-0.061774
7501097545,-40.336235,75.847168,7.202571,1.035840,-0.309894,-0.036231
7501117597,-48.195972,81.974014,11.761901,1.048598,-0.342008,-0.034769
7501137649,-43.033981,88.591492,19.210142,0.978617,-0.407371,-0.147933
7501157701,-29.603725,92.232712,22.876266,0.957334,-0.417158,0.004079
7501177753,-39.250278,85.112701,19.819542,0.931856,-0.436546,0.005486
7501197805,-41.191647,86.421165,11.471281,0.919013,-0.481427,-0.005173
7501217857,-37.849277,90.074127,7.038992,0.877753,-0.538146,0.063354
7501237910,-36.976242,90.513252,1.163481,0.839812,-0.502476,0.079395
7501257962,-29.202677,91.871071,3.748084,0.843473,-0.494407,0.135131
7501278014,-21.963566,98.275673,9.006012,0.807990,-0.547871,0.118593
7501298066,-20.462091,106.101311,10.820208,0.786963,-0.532631,0.152077
7501318118,-25.248484,106.827736,11.789487,0.741762,-0.500667,0.164292
7501338170,-33.684364,105.161949,12.798603,0.689261,-0.473816,0.226865
7501358222,-39.046024,101.932526,14.274348,0.678617,-0.519001,0.245580
7501378274,-39.809856,94.495865,11.981079,0.699618,-0.559824,0.291462
7501398328,-38.365746,82.070961,7.339592,0.669700,-0.540287,0.315472
7501418380,-44.674599,68.826286,-0.062675,0.712041,-0.502024,0.367315
7501438432,-46.749027,55.899319,-0.040141,0.718290,-0.522442,0.400041
7501458484,-48.447998,34.015690,-1.351088,0.687039,-0.551384,0.426875
7501478536,-43.279922,4.203092,-5.456490,0.714012,-0.535226,0.389798
7501498588,-43.678265,-9.511570,-4.476880,0.777637,-0.509201,0.440298
7501518641,-47.992458,-14.879216,2.318715,0.818460,-0.462604,0.420326
7501538693,-66.053932,-11.104741,9.186147,0.845024,-0.325529,0.299324
7501558745,-78.351562,-2.123256,17.147724,0.925574,-0.265137,0.182773
7501578797,-76.518356,8.104209,21.462162,0.926099,-0.469244,0.179595
7501598849,-59.253906,7.037444,11.425254,0.672651,-0.900172,0.333927
7501618901,-36.695442,-13.132003,-10.348121,0.335164,-1.240084,0.378275
7501638953,-1.706375,-39.231781,-35.546257,0.285105,-1.183685,0.320555
7501659006,14.932932,-54.026295,-39.252689,0.565886,-0.693022,0.356674
7501679058,1.226873,-56.210800,-33.199932,0.735465,-0.345859,0.336954
7501699117,-13.886212,-51.797569,-25.615736,0.869235,-0.162296,0.286700
7501719161,-23.491625,-47.231686,-19.989361,0.866162,-0.209527,0.243510
7501739213,-30.416418,-43.851028,-18.467634,0.841761,-0.420840,0.203794
7501759265,-32.568157,-43.773369,-19.566099,0.817683,-0.577818,0.221799
7501779317,-38.695194,-46.731129,-19.955444,0.833773,-0.551189,0.200701
7501799369,-41.335545,-50.957283,-18.045219,0.870288,-0.524912,0.132584
7501819421,-40.489117,-51.165474,-18.226692,0.890122,-0.497102,0.078962
7501839474,-40.806774,-49.744083,-18.822639,0.895615,-0.487570,0.039265
7501859526,-38.730103,-44.546032,-16.537273,0.926324,-0.492562,0.028453
7501879578,-35.833672,-35.902733,-14.120069,0.943718,-0.500832,0.051211
7501899630,-32.458340,-33.590889,-10.991529,0.950765,-0.489925,0.056770
7501919682,-28.510803,-30.288649,-10.299446,0.954235,-0.473242,0.047422
7501939734,-23.816545,-24.479044,-8.850792,0.915310,-0.511223,0.066035
7501959786,-15.970509,-17.746693,-6.405997,0.897893,-0.559002,0.043925
7501979838,-8.820348,-11.438166,-7.824767,0.920906,-0.534288,0.040440
7501999891,-6.087182,-5.460533,-7.785690,0.967871,-0.446646,0.056390
7502019943,-5.921681,0.697565,-4.176647,1.000393,-0.465682,0.054387
7502039995,-4.356866,12.424373,-4.975500,0.989981,-0.494776,0.009935
7502060047,2.383659,26.397480,-4.063481,0.938670,-0.467394,-0.037279
7502080099,5.527589,37.743275,0.466434,0.872477,-0.433534,0.009211
7502100151,3.516360,44.614059,2.580729,0.861376,-0.448496,0.013032
7502120203,11.961594,53.451366,4.730059,0.843916,-0.536215,-0.012888
7502140256,31.436745,58.497528,8.222487,0.861039,-0.588966,0.031741
7502160308,39.564716,55.685516,11.329125,0.977602,-0.592038,0.008610
7502180360,42.904564,50.800480,3.735516,0.958030,-0.506135,-0.023606
7502200413,25.092440,50.761395,-2.018121,0.984823,-0.317447,0.085825
7502220465,5.201061,52.702026,3.673954,1.009339,-0.309861,0.021292
7502240518,-8.827168,51.905235,5.023087,0.901714,-0.361333,0.117644
7502260570,-16.026623,41.076733,-1.144245,0.861013,-0.418546,0.106566
7502280622,-7.856536,35.837120,-3.789265,0.786730,-0.446417,0.164347
7502300674,-13.678161,27.588882,-3.144909,0.761631,-0.475709,0.261481
7502320726,-13.117492,12.752176,-2.912085,0.804160,-0.540156,0.208089
7502340778,-0.716114,1.865947,-6.069656,0.825965,-0.578952,0.255771
7502360830,1.866014,-0.202359,-5.669328,0.735146,-0.506466,0.300548
7502380882,1.605902,-5.884892,-0.033648,0.602977,-0.414005,0.452954
7502400935,-3.252251,-18.093227,3.648021,0.596485,-0.376872,0.375408
7502420987,-1.649054,-31.550106,1.314037,0.626155,-0.343230,0.289525
7502441039,2.417982,-38.461555,-0.952417,0.692011,-0.433386,0.328570
7502461091,-0.425594,-49.975327,-3.549224,0.708729,-0.410934,0.218186
7502481143,-4.144686,-54.914700,-4.053849,0.799683,-0.339012,0.124933
7502501211,-6.470222,-53.158218,-0.019503,0.944562,-0.429977,0.011862
7502521246,-6.181862,-45.704578,0.651976,1.113224,-0.555685,-0.081916
7502561350,15.674145,-12.819348,-7.858901,1.364650,-0.595331,-0.123026
7502581402,26.318460,-5.019119,-12.292881,1.023478,-0.514962,0.137735
7502601454,17.052525,-15.188543,-15.354386,0.820172,-0.378503,0.117537
7502621507,10.295358,-16.628502,-16.377798,0.719079,-0.277474,0.049942
7502641559,6.712856,-17.104618,-13.540372,0.675579,-0.185667,0.053206
7502661611,6.870244,-12.786230,-9.121617,0.740960,-0.200512,0.104555
7502681663,3.997079,-8.222472,-4.786016,0.865457,-0.298684,0.190551
7502701715,-2.492634,-10.072109,-2.450630,0.973693,-0.441999,0.164985
7502721767,-0.544346,-9.113749,-4.175037,0.978990,-0.487145,0.139279
7502741819,3.203587,-14.094261,-4.500241,0.955212,-0.458237,0.137685
7502761872,1.869843,-17.638098,-2.888403,0.957505,-0.433779,0.138600
7502781924,3.419739,-18.974367,-2.111287,0.980723,-0.460209,0.110078
7502801976,3.928564,-18.465769,-2.643745,0.980367,-0.448423,0.133933
7502822028,2.425083,-17.333498,-3.314068,0.954567,-0.402071,0.126216
7502842080,1.424566,-16.281879,-4.052501,0.903216,-0.356150,0.092147
7502862132,4.245942,-14.618808,-3.293745,0.894312,-0.347621,0.067174
7502882184,3.127725,-12.243416,-2.270800,0.887951,-0.344229,0.108624
7502902236,-0.006332,-8.328341,-1.790561,0.875469,-0.365488,0.148952
7502942341,-3.999384,-10.218156,3.605988,0.930950,-0.372711,0.143613
7502982447,5.510942,-6.729896,1.559477,0.932285,-0.361689,0.081511
7503002499,8.659465,-1.937483,2.223967,0.940277,-0.359923,0.070278
7503022551,9.636925,1.889005,2.452966,0.956462,-0.351705,0.057846
7503042603,8.263891,6.209970,4.068033,0.933340,-0.310569,0.047118
7503062655,2.745294,9.822088,5.921942,0.889837,-0.342638,0.034911
7503082707,4.507431,11.211243,7.674856,0.863855,-0.380804,0.038441
7503102760,9.693486,17.083786,10.161440,0.898110,-0.423990,0.094986
7503122812,15.080299,19.846344,11.658247,0.942557,-0.441951,0.173216
7503142864,15.128672,17.676720,11.862759,0.924816,-0.442824,0.120932
7503162921,16.192181,12.357605,11.191030,1.018133,-0.471160,0.094566
7503182968,20.879234,8.632138,10.277594,1.036402,-0.536679,0.058918
7503203020,18.308874,6.199040,5.155924,1.036061,-0.465995,-0.011429
7503223072,11.822467,11.580973,6.958600,0.979469,-0.349609,0.035627
7503243125,6.898057,15.094401,11.791169,0.889206,-0.320782,0.147169
7503263177,2.453421,15.060027,14.544006,0.825581,-0.361370,0.197083
7503283228,-0.503856,11.661379,10.797590,0.794419,-0.451719,0.192818
7503303279,-9.677547,5.074623,6.344337,0.764892,-0.474843,0.155796
7503323331,-15.054282,-6.609411,3.453424,0.780297,-0.393789,0.115796
7503363435,-30.075884,-23.899797,8.732585,0.739386,-0.352936,0.107035
7503383488,-40.942440,-32.312424,9.007905,0.673407,-0.388118,0.058260
7503403540,-44.084194,-39.644604,7.685217,0.723857,-0.400082,-0.081660
7503423592,-34.365746,-32.884876,10.121681,0.846870,-0.375545,-0.068257
7503443644,-32.258247,-23.263714,15.514324,1.104270,-0.476164,-0.149245
7503463696,-23.785355,-7.914392,14.973413,1.302391,-0.564745,-0.185986
7503483749,-17.460554,3.945856,9.958534,1.220041,-0.595569,-0.072699
7503503801,-12.966602,2.029701,3.650292,1.019425,-0.595503,0.014036
7503523852,-9.452911,0.309187,-0.725647,0.837710,-0.552837,0.058696
7503543905,-7.398432,-6.150456,-2.697373,0.757499,-0.483552,0.068413
7503563957,-5.709743,-8.307575,-1.015582,0.751139,-0.441459,0.090420
7503584009,-2.606251,-8.567213,0.333281,0.764016,-0.427465,0.094985
7503604061,-0.489692,-10.140547,0.254592,0.778676,-0.438655,0.072497
7503624113,3.381107,-8.734258,-1.055189,0.785363,-0.475306,0.100870
7503644165,-0.605417,-10.268589,-1.859455,0.827182,-0.498144,0.085708
7503664218,-2.308719,-10.486377,-2.123372,0.880043,-0.498693,0.026196
7503684270,-3.755984,-9.109842,-1.445502,0.912289,-0.493854,-0.002714
7503704322,-4.113817,-9.231965,-1.179692,0.928172,-0.502158,-0.033224
7503724374,-4.278966,-9.801114,-0.973041,0.952067,-0.518534,-0.057677
7503744426,-2.285533,-7.877701,-1.404789,0.949151,-0.521252,-0.056666
7503764479,0.493162,-5.952232,-2.321872,0.937046,-0.506361,-0.036294
7503784532,2.283580,-4.133739,-3.526240,0.911986,-0.491837,-0.014191
7503804584,3.489801,-2.758655,-4.615192,0.877327,-0.459990,-0.011897
7503824637,4.826334,-1.624928,-5.589673,0.839711,-0.430939,-0.001321
7503844689,4.918037,-0.369267,-5.207505,0.829813,-0.422185,0.034407
7503864741,5.278599,-1.056206,-4.962738,0.833163,-0.454409,0.023261
7503884793,7.504194,-1.746377,-4.756506,0.857240,-0.464123,0.026452
7503904845,4.859668,-3.401564,-3.256823,0.897515,-0.475301,0.020051
7503924897,5.226280,-2.416249,-2.691924,0.933102,-0.483822,0.003134
7503944949,6.361547,-1.545597,-1.846479,0.927483,-0.484055,0.013185
7503965002,4.681102,-3.356696,-1.983650,0.914896,-0.476941,0.010650
7503985054,5.809426,-3.136232,-3.098911,0.914718,-0.474826,-0.006734
7504005106,5.689034,-1.457026,-3.945920,0.894605,-0.453724,0.023598
7504025158,3.937460,-2.324788,-4.897265,0.875572,-0.436044,0.011171
7504045210,3.470942,-0.339086,-4.941839,0.870285,-0.430423,0.023883
7504065262,4.149256,0.829166,-4.582312,0.863775,-0.431249,0.030663
7504085326,3.930436,-0.001857,-3.715371,0.859938,-0.425827,0.029209
7504105365,3.174073,0.037551,-2.707240,0.872216,-0.445075,0.028247
7504125417,3.874501,-0.160729,-2.373328,0.893223,-0.457662,0.027996
7504145469,4.857326,-1.787454,-2.519646,0.890597,-0.456628,0.024421
7504165521,4.900523,-4.368018,-2.465295,0.882886,-0.452136,0.015680
7504185574,4.200300,-4.417712,-2.396668,0.901066,-0.454895,0.010479
7504205625,3.043694,-4.171196,-3.033745,0.921064,-0.443072,0.014665
7504225678,3.439123,-3.800230,-3.603583,0.916273,-0.438310,0.005214
7504245730,2.272175,-3.322140,-3.627559,0.903080,-0.434211,0.014435
7504265782,2.721490,-3.462242,-3.437760,0.896108,-0.439665,0.008904
7504285834,3.474614,-3.538760,-3.111865,0.891844,-0.441399,0.021800
7504305886,2.353274,-4.773616,-2.743427,0.890073,-0.431745,0.023675
7504325938,1.532751,-5.165187,-2.590211,0.895606,-0.435623,-0.000689
7504345990,3.262740,-3.775675,-3.141290,0.893556,-0.436333,0.007212
7504366043,3.741854,-4.832483,-3.880554,0.878289,-0.414484,0.019029
7504386095,2.355726,-6.043031,-4.194213,0.880045,-0.399974,0.023236
7504406147,-0.765010,-6.123536,-4.094316,0.902320,-0.407436,0.006212
7504426199,-0.202330,-5.983450,-4.132891,0.925155,-0.409296,-0.000330
7504446251,-1.463267,-6.770451,-3.629527,0.932658,-0.418136,-0.016170
7504466303,-1.684483,-5.574780,-2.807463,0.915631,-0.439243,-0.009139
7504486355,-1.351458,-5.365516,-2.474827,0.912394,-0.439319,-0.001254
7504506407,1.031040,-5.702517,-1.807551,0.889950,-0.433281,-0.001211
7504526460,2.811595,-7.500361,-1.028926,0.874591,-0.437128,-0.007455
7504546512,4.421038,-8.300506,-0.769048,0.895551,-0.448432,-0.000541
7504566565,3.963848,-8.384789,-0.419965,0.919566,-0.449876,0.009189
7504586617,3.033046,-9.371532,-0.628450,0.913489,-0.433274,-0.004407
7504606670,1.450317,-10.961502,-0.713365,0.898966,-0.405493,-0.029188
7504626722,2.365398,-11.214596,-0.864392,0.905059,-0.415587,-0.037117
7504646774,3.073692,-9.820035,-0.763340,0.907925,-0.434581,-0.018791
7504666826,4.313402,-10.967967,-1.093293,0.901150,-0.426936,-0.048737
7504686878,5.302731,-9.412627,-1.068683,0.893509,-0.416451,-0.025828
7504706930,4.972066,-10.407554,-0.792296,0.887845,-0.424685,-0.035316
7504726982,5.782038,-9.176462,-1.433454,0.880525,-0.431272,-0.011843
7504747035,5.020265,-9.700990,-3.151803,0.878875,-0.433330,-0.009377
7504767087,6.288287,-10.011119,-4.280443,0.911887,-0.426644,-0.029851
7504787139,6.476398,-9.404631,-4.608494,0.918126,-0.414729,-0.042669
7504807191,7.988053,-9.713311,-5.759962,0.907407,-0.411686,-0.050687
7504827243,9.241066,-10.421518,-6.197539,0.898512,-0.411800,-0.057292
7504847295,8.618077,-9.277483,-5.920842,0.899835,-0.417915,-0.046670
7504867374,6.508888,-9.334415,-5.540959,0.916293,-0.414208,-0.056866
7504887398,5.659649,-8.811917,-4.875514,0.906244,-0.419450,-0.066147
7504907450,7.622665,-8.729657,-4.702169,0.894061,-0.422082,-0.070474
7504927502,7.634810,-8.369600,-4.203203,0.908518,-0.426018,-0.061965
7504947555,6.432305,-7.346830,-3.296831,0.919676,-0.432666,-0.064808
7504967607,6.767330,-5.871490,-3.241401,0.917225,-0.422733,-0.055943
7504987659,5.464419,-5.666817,-3.143123,0.914823,-0.409453,-0.041754
7505007711,2.634140,-4.372455,-3.222382,0.915847,-0.398276,-0.035423
7505027763,-1.144985,-5.111533,-3.339775,0.906832,-0.398399,-0.068204
7505047815,0.472237,-5.282106,-4.370492,0.912128,-0.386318,-0.075577
7505067867,1.933897,-6.379052,-5.269119,0.918119,-0.385702,-0.071543
7505087919,1.822797,-6.754745,-5.737681,0.924221,-0.395817,-0.081016
7505107972,2.126289,-4.909500,-5.979095,0.931853,-0.402234,-0.073435
7505128024,1.428520,-4.069184,-5.633113,0.922589,-0.395351,-0.067128
7505148076,-0.364064,-4.086517,-4.124214,0.914177,-0.379070,-0.071011
7505168128,-1.975874,-3.783054,-2.495219,0.920004,-0.392521,-0.078539
7505188180,-0.628682,-2.915581,-1.172362,0.921784,-0.412069,-0.092569
7505208232,1.265355,-1.426687,-0.586997,0.921024,-0.408348,-0.073623
7505228285,2.242566,-0.673922,-0.210985,0.914960,-0.407024,-0.081770
7505248337,2.344845,-0.145349,0.431369,0.900330,-0.388907,-0.083356
7505268389,-1.038617,0.501941,0.642534,0.899155,-0.367928,-0.064612
7505288441,-2.258378,1.061029,0.277245,0.908345,-0.382105,-0.085468
7505308493,-1.463334,2.006330,0.076656,0.913291,-0.390232,-0.069889
7505328545,-0.781196,1.196905,-0.170899,0.907184,-0.397593,-0.081843
7505348598,1.056247,0.714068,-0.389669,0.914581,-0.403794,-0.065451
7505368651,0.571627,0.059804,-0.106823,0.924852,-0.405993,-0.074714
7505388703,1.085900,0.588714,0.164017,0.925803,-0.398055,-0.085251
7505408755,0.047406,1.077446,0.488592,0.924693,-0.380568,-0.075736
7505428807,-0.791531,1.270978,0.745903,0.919953,-0.374123,-0.094567
7505448859,-1.376712,2.633347,0.695940,0.915698,-0.371550,-0.085447
7505468911,-2.212424,3.820002,0.730038,0.923288,-0.387608,-0.065849
7505488964,-2.352868,4.367408,1.001043,0.930060,-0.397310,-0.065507
7505509016,-2.595118,4.190113,0.827423,0.919579,-0.391655,-0.068737
7505529068,-6.279355,4.293984,0.654039,0.905020,-0.379817,-0.032623
7505549120,-8.511703,1.742702,0.489296,0.912558,-0.394866,-0.082564
7505569172,-6.010558,2.718997,-0.174313,0.901951,-0.401758,-0.073653
7505589224,-4.363320,2.077225,-0.119626,0.892739,-0.410208,-0.053080
7505609276,-3.391116,1.057708,-0.275611,0.900849,-0.423393,-0.061504
7505629328,-2.242657,-0.421003,0.001925,0.908893,-0.423246,-0.065175
7505649381,-0.702828,-1.053915,0.367356,0.906822,-0.410463,-0.060430
7505669450,-0.325714,-1.796482,0.203046,0.909965,-0.406410,-0.069816
7505689483,0.475020,-1.734938,-0.494711,0.914318,-0.417933,-0.075741
7505709536,2.357926,-1.879510,-1.290662,0.920898,-0.421837,-0.076558
7505729588,3.564515,-1.202748,-1.164575,0.928420,-0.415308,-0.072218
7505749640,3.413901,-0.259205,-0.667562,0.919969,-0.405429,-0.066212
7505769692,4.504507,-1.262185,0.464777,0.905176,-0.399667,-0.080470
7505789745,8.427748,-0.775904,1.272676,0.892644,-0.408835,-0.084270
7505809797,11.640733,1.008885,0.469610,0.895309,-0.457455,-0.079144
7505829849,12.746538,2.649354,-0.567168,0.914957,-0.427728,-0.055447
7505849901,10.609264,1.716568,0.596375,0.919502,-0.357703,-0.025960
7505869953,4.857388,1.110326,0.714163,0.909942,-0.352921,-0.045987
7505890005,3.903984,2.376206,-1.002710,0.898324,-0.377519,-0.042513
7505910057,2.660952,3.401157,-2.104755,0.912986,-0.391252,-0.032980
7505930109,0.121654,4.520700,-2.516988,0.924236,-0.424733,-0.037966
7505950161,-1.695863,4.399750,-2.955514,0.938346,-0.401790,-0.030406
7505970214,-4.285923,4.455424,-2.280272,0.943837,-0.366786,-0.035952
7506010318,-8.870914,7.191580,-0.651040,0.921038,-0.377785,-0.013629
7506030370,-11.471604,7.906978,-0.084173,0.912865,-0.395884,0.005517
7506050422,-14.114465,7.803653,0.712899,0.908370,-0.398803,0.011790
7506070474,-17.016216,7.526384,1.882030,0.903617,-0.385341,0.007147
7506090526,-20.347975,7.585430,3.853523,0.892740,-0.405222,-0.009150
7506110578,-21.576674,7.825233,4.626180,0.886667,-0.422009,-0.006727
7506130631,-23.021360,6.263649,4.086382,0.903937,-0.406732,-0.021232
7506150683,-22.575689,6.076336,2.821186,0.905296,-0.424108,-0.042197
7506170736,-20.008732,5.125183,1.027351,0.891586,-0.450615,-0.038443
7506190788,-19.727692,4.284976,-0.068801,0.908612,-0.424413,-0.032173
7506210840,-20.515448,4.911419,0.164264,0.921193,-0.403277,-0.042871
7506230893,-21.361748,6.577715,0.424082,0.916674,-0.413755,-0.044235
7506250945,-22.534336,6.960967,-0.183145,0.901813,-0.434664,-0.049188
7506270997,-21.979118,6.039671,-1.180587,0.893144,-0.431055,-0.049655
7506291049,-21.874884,4.992570,-1.199752,0.899368,-0.418701,-0.044392
7506311101,-22.670307,5.334136,-0.389702,0.908340,-0.422202,-0.049195
7506331153,-23.435902,6.209850,-0.377294,0.910579,-0.428053,-0.039296
7506351206,-23.016863,6.526580,-1.144006,0.911442,-0.417329,-0.051956
7506371257,-22.384018,8.188993,-1.824484,0.912278,-0.408844,-0.043233
7506391309,-23.383152,8.584816,-1.825498,0.925577,-0.403789,-0.028474
7506411361,-25.165791,8.531844,-1.157743,0.918432,-0.415709,-0.047745
7506431414,-26.972998,9.225375,-1.265605,0.905161,-0.411823,-0.040795
7506451466,-27.940248,9.707891,-1.994509,0.908928,-0.406742,-0.048280
7506471518,-28.882969,11.322384,-2.621217,0.919283,-0.393727,-0.048266
7506491569,-29.159142,12.068251,-3.237586,0.925773,-0.392853,-0.051684
7506511621,-28.680901,12.501982,-3.572722,0.915774,-0.417394,-0.044472
7506531673,-28.247999,11.288717,-3.796062,0.905651,-0.412626,-0.046235
7506551725,-26.763805,8.269285,-3.801335,0.907596,-0.383517,-0.050466
7506571777,-29.870708,8.229759,-3.239268,0.925743,-0.366387,-0.075347
7506591829,-33.390789,11.882036,-3.099041,0.936147,-0.369870,-0.059965
7506611882,-35.235485,14.069851,-3.371197,0.918310,-0.375939,-0.062293
7506631934,-35.834587,13.648062,-3.422587,0.899642,-0.375900,-0.050247
7506651986,-35.625221,12.942597,-3.549072,0.910236,-0.371773,-0.055582
7506672038,-37.040451,14.187976,-3.234551,0.934072,-0.356497,-0.039231
7506692090,-38.808468,15.475016,-1.972681,0.940062,-0.354655,-0.051206
7506712142,-38.636700,16.009134,-1.724476,0.931075,-0.364460,-0.068425
7506732194,-39.194008,15.987041,-1.042099,0.921670,-0.367741,-0.048550
7506752247,-43.279621,16.199383,0.739655,0.938798,-0.345484,-0.057774
7506772298,-47.127243,19.070185,2.489428,0.950890,-0.338110,-0.071407
7506792351,-49.851608,21.217808,3.968457,0.948474,-0.331601,-0.066955
7506812403,-51.510975,21.720551,5.945414,0.939165,-0.333349,-0.079815
