Timestamp (us),Gyroscope X (deg/s),Gyroscope Y (deg/s),Gyroscope Z (deg/s),Accelerometer X (g),Accelerometer Y (g),Accelerometer Z (g)
4510230058,-0.274375,0.150143,-0.035259,0.913492,0.117427,0.393584
4510250103,-0.266615,0.332533,-0.081200,0.907203,0.112180,0.398680
4510270148,-0.228245,0.241353,0.055721,0.905562,0.112112,0.398487
4510290193,0.136438,0.316999,-0.046185,0.907765,0.113549,0.400039
4510310237,-0.539816,0.538002,-0.048827,0.910352,0.115781,0.398855
4510330282,-0.107617,0.355114,-0.265280,0.907640,0.112028,0.403783
4510350326,0.104634,-0.017497,-0.251318,0.914062,0.113903,0.399080
4510370370,0.225742,-0.230439,-0.290137,0.915376,0.109767,0.397121
4510390415,0.658807,-0.352432,-0.308579,0.916631,0.113730,0.393091
4510410459,0.415779,-0.261003,-0.283947,0.909383,0.111410,0.397610
4510430504,1.008247,-0.664329,-0.234780,0.911203,0.117016,0.395028
4510450549,0.597398,-0.755198,-0.269636,0.908378,0.118094,0.399459
4510470594,0.443795,-1.097206,-0.511920,0.913773,0.118912,0.397762
4510490638,0.002763,-0.967650,-0.592462,0.911928,0.116543,0.394126
4510510683,0.010746,-0.998008,-0.478220,0.908561,0.117242,0.395553
4510530727,0.169334,-1.423819,-0.555217,0.912657,0.115589,0.389860
4510550772,-0.050147,-0.990365,-0.500616,0.912304,0.117830,0.396304
4510570817,-0.202860,-1.385462,-0.483835,0.911919,0.113079,0.381682
4510590863,0.458813,-1.120039,-0.550105,0.920160,0.111098,0.389406
4510610908,0.520125,-0.610897,-0.665331,0.927185,0.123828,0.386803
4510630952,0.232287,0.384954,-0.862141,0.920397,0.116052,0.394192
4510650997,0.171811,0.430642,-0.793156,0.918493,0.121969,0.389031
4510671042,-0.254110,0.317004,-0.782165,0.902907,0.117431,0.397331
4510691086,-0.112694,-1.013312,-0.941976,0.910319,0.118849,0.394551
4510711131,-0.226308,-0.557220,-1.048192,0.905819,0.123683,0.398120
4510731174,-0.500684,-1.187785,-0.923599,0.902616,0.122444,0.396650
4510751219,-0.843391,-1.544713,-0.905398,0.907705,0.114135,0.392841
4510771264,-0.387401,-1.681911,-0.885909,0.908130,0.117568,0.389356
4510791308,-0.052022,-1.142566,-0.919464,0.914486,0.122023,0.388273
4510811353,-0.545328,-1.164834,-0.679493,0.909573,0.122737,0.388504
4510831398,-0.430949,-1.248482,-0.550780,0.912934,0.114825,0.385590
4510851443,0.275615,-1.317542,-0.647552,0.916237,0.123080,0.386820
4510871488,0.056136,-0.754904,-0.654019,0.921041,0.127472,0.386364
4510891532,-0.466832,-0.366709,-0.414209,0.917187,0.126180,0.388805
4510911577,-0.938480,-0.366334,-0.486776,0.915428,0.117817,0.388497
4510931622,-0.385562,-0.800205,-0.825810,0.919198,0.119659,0.386233
4510951666,-0.149108,-0.215191,-0.904360,0.916474,0.120715,0.387934
4510971712,-0.193757,-0.465806,-0.530484,0.909712,0.120198,0.390711
4510991757,0.172803,-0.587515,-0.045608,0.912438,0.119046,0.388374
4511011802,0.166584,-0.146601,0.106389,0.911662,0.121686,0.386161
4511031846,0.516179,-0.245706,0.119038,0.909190,0.121563,0.389240
4511051891,0.159011,0.012989,0.037731,0.908868,0.124292,0.387849
4511071936,0.393962,-0.291263,-0.009492,0.910615,0.124608,0.384673
4511091981,0.128518,-0.032588,0.038008,0.917928,0.126988,0.388530
4511112041,-0.054193,0.165116,-0.120762,0.919440,0.117374,0.385980
4511132069,-0.091833,0.704726,-0.280968,0.916749,0.126899,0.386428
4511152113,-0.389006,0.446536,-0.331774,0.908992,0.127134,0.390285
4511172158,-0.937914,-0.199089,-0.418374,0.916767,0.134557,0.386456
4511192203,-1.856994,0.288146,-0.427025,0.916955,0.127876,0.383326
4511212248,-1.781266,0.204455,-0.465618,0.916511,0.117354,0.389783
4511232292,-1.271829,0.272413,-0.484824,0.919908,0.118187,0.385886
4511252337,-0.926178,1.161621,0.014492,0.911235,0.118070,0.389556
4511272382,-0.293631,0.712910,0.627149,0.909988,0.119907,0.388804
4511292427,0.292540,0.978461,0.698586,0.912911,0.113937,0.388783
4511312471,0.749327,0.864154,0.916123,0.913772,0.117407,0.391401
4511332516,0.568424,0.826500,1.344170,0.908162,0.119093,0.386066
4511352562,1.032562,0.765350,1.470180,0.915714,0.119384,0.391399
4511372607,1.108274,1.502356,1.034660,0.921544,0.124930,0.388756
4511392651,1.176729,1.950644,0.828017,0.917540,0.120479,0.395318
4511412696,1.108345,1.684741,0.965922,0.912155,0.126772,0.397139
4511432741,0.163433,0.910197,0.768205,0.906038,0.125949,0.396646
4511452785,-0.287101,0.522801,0.436821,0.909375,0.128971,0.392913
4511472830,-0.493774,-0.009119,0.324634,0.908265,0.115981,0.397109
4511492875,0.182204,0.256185,0.022087,0.913268,0.120801,0.393191
4511512918,0.290316,0.507058,0.340989,0.906744,0.117162,0.393355
4511532963,0.738499,-0.093699,0.528578,0.908435,0.119560,0.388158
4511553008,0.412183,0.248611,0.523138,0.908382,0.122959,0.391498
4511573052,0.054529,-0.062679,0.587121,0.911373,0.122010,0.392529
4511593097,-0.248447,0.667226,0.535426,0.912891,0.112475,0.388340
4511613142,-0.059455,0.142600,0.504000,0.909941,0.123478,0.390959
4511633186,-0.722600,-0.069802,0.158843,0.916249,0.118557,0.391592
4511653231,-0.418297,0.439094,-0.034428,0.928815,0.116222,0.384784
4511673276,-0.172689,1.381439,0.122782,0.917334,0.112650,0.396474
4511693320,0.070845,0.659348,0.532985,0.909334,0.113385,0.393314
4511713366,0.033538,0.568275,0.761906,0.907734,0.116705,0.395187
4511733412,0.435521,0.172663,0.698252,0.908367,0.116048,0.393922
4511753456,0.358902,0.309443,0.477779,0.908205,0.111318,0.395053
4511773501,0.502545,0.058454,0.385496,0.910023,0.117210,0.394198
4511793546,0.570595,-0.321602,0.469135,0.905362,0.111214,0.399949
4511813590,0.494224,-0.351973,0.393566,0.914971,0.119050,0.394128
4511833635,0.608293,-0.048106,0.255275,0.910735,0.116203,0.395031
4511853680,0.790243,-0.025527,0.109111,0.910776,0.117708,0.388919
4511873724,0.760237,0.004943,0.200731,0.908725,0.122061,0.394148
4511893768,0.212246,-0.344210,0.212881,0.917699,0.123331,0.386738
4511913812,-0.380361,0.157887,0.079821,0.916437,0.118446,0.389318
4511933857,-0.001504,-0.093360,-0.136158,0.919834,0.126129,0.387186
4511953902,-1.110285,0.401681,-0.051942,0.914231,0.119275,0.398491
4511973946,-0.723862,-0.252328,-0.084760,0.917835,0.121365,0.392400
4511993991,-1.262181,0.614604,-0.111925,0.914061,0.112304,0.392265
4512014036,-0.236239,0.233714,-0.043248,0.911656,0.110633,0.395721
4512034080,0.093347,0.666892,0.449004,0.907701,0.114805,0.397114
4512054125,-0.538554,-0.411732,0.736746,0.904131,0.113766,0.397370
4512074170,-0.136855,-0.564207,0.482406,0.913803,0.113026,0.390800
4512094215,-0.007888,0.081568,0.099892,0.913466,0.110070,0.397287
4512114259,0.433581,0.096445,0.226004,0.906397,0.117504,0.389526
4512134306,0.136889,-0.503646,0.465014,0.909245,0.114133,0.395674
4512154350,0.568832,-0.747356,0.210529,0.924779,0.121124,0.386171
4512174395,0.350993,0.970531,0.081064,0.918482,0.115708,0.393089
4512194439,0.709083,0.962713,0.284019,0.914789,0.119523,0.396126
4512214484,-0.081455,0.363088,0.610616,0.907248,0.122692,0.402691
4512234529,-0.295248,-0.206765,0.643267,0.915121,0.116392,0.392421
4512254574,0.327735,0.324578,0.272310,0.913563,0.110902,0.399101
4512274617,0.350011,0.256104,0.165548,0.911963,0.113848,0.399703
4512294661,0.380455,0.050907,0.272165,0.909215,0.112039,0.395965
4512314706,-0.173652,-0.199277,0.627091,0.904273,0.116846,0.394978
4512334751,0.692108,-0.359718,0.453002,0.911522,0.113162,0.392148
4512354796,0.396072,0.149730,0.332898,0.913289,0.115312,0.390596
4512374840,0.357103,-0.359486,0.326060,0.908193,0.109556,0.390879
4512394885,0.303265,-0.572286,0.265727,0.917929,0.114413,0.389362
4512414930,0.280633,0.225655,-0.070059,0.922234,0.116178,0.390290
4512434974,0.258393,0.537303,-0.070183,0.916784,0.117445,0.390240
4512455019,-0.349851,0.659410,-0.134199,0.914896,0.113480,0.392808
4512475064,-0.153903,0.225891,-0.379077,0.920277,0.107102,0.391807
4512495109,-0.169531,0.727392,-0.729873,0.917597,0.111256,0.393301
4512515155,0.065784,0.575164,-0.754388,0.908730,0.115953,0.394108
4512535199,0.210960,-0.093593,-0.244443,0.904232,0.120498,0.395585
4512555244,-0.002353,-0.511408,-0.158612,0.913102,0.115325,0.391960
4512575289,-0.336717,0.112022,-0.415660,0.911622,0.114081,0.393416
4512595334,-0.040026,-0.085788,-0.273000,0.908804,0.114105,0.390937
4512615378,0.129606,0.309497,0.159569,0.908756,0.117681,0.393639
4512635423,-0.083294,-0.024680,0.313883,0.911694,0.112050,0.390156
4512655468,0.068145,0.165092,0.061139,0.914132,0.110938,0.392641
4512675511,0.576459,0.111333,-0.194111,0.915069,0.113313,0.395177
4512695556,0.364292,0.195190,-0.047816,0.911499,0.112931,0.397977
4512715600,1.032733,-0.269001,0.016062,0.914891,0.112834,0.391629
4512735645,1.291272,-0.208426,-0.001214,0.915628,0.113653,0.392903
4512755689,1.116516,-0.215862,0.030606,0.911146,0.119763,0.396461
4512775735,0.613988,-0.648662,0.042487,0.908176,0.115601,0.394744
4512795779,0.932648,-1.051765,0.063279,0.912107,0.121516,0.388806
4512815824,0.439233,-0.671295,0.081939,0.911448,0.114345,0.391774
4512835869,0.841205,-0.785744,-0.119110,0.915778,0.117185,0.390052
4512855913,-0.039514,-0.283303,-0.044268,0.911909,0.115080,0.393501
4512875958,0.414601,-0.732282,-0.367294,0.916456,0.112962,0.387361
4512896004,0.613740,0.012427,-0.339051,0.914618,0.119313,0.391938
4512916049,0.316012,-0.375012,-0.473532,0.916641,0.118675,0.383582
4512936094,0.188704,0.400430,-0.336159,0.914915,0.119346,0.384565
4512956138,0.606868,-0.033075,-0.125643,0.916749,0.127181,0.387610
4512976183,0.167510,0.871781,-0.138367,0.925852,0.126031,0.386138
4512996228,0.353847,1.373616,0.636796,0.926886,0.124082,0.395994
4513016273,-1.529458,1.489486,1.153934,0.909459,0.136308,0.399044
4513036317,-2.971746,0.989459,1.980622,0.892252,0.147125,0.384353
4513056360,-2.879678,0.077592,2.635952,0.882829,0.159079,0.391469
4513076405,-4.023327,0.003106,3.818009,0.896505,0.150123,0.379078
4513096450,-4.345204,1.394608,4.474334,0.868135,0.113531,0.366063
4513116495,1.830589,-4.728587,6.024996,0.865797,0.177070,0.410861
4513136539,1.137739,-6.323907,6.527007,0.900594,0.201985,0.385964
4513156584,0.839386,-5.504070,3.656421,0.913731,0.167233,0.398000
4513176628,-3.479474,-5.623783,-0.401377,0.903102,0.168259,0.391905
4513196673,-4.777305,-8.359856,-2.491490,0.919740,0.180954,0.404213
4513216718,-12.056213,-8.666392,-5.139886,0.914356,0.244865,0.406013
4513236763,-23.604183,-9.653621,-8.486264,0.895020,0.246396,0.388743
4513256807,-29.239859,-11.816525,-11.968281,0.899131,0.236067,0.368373
4513276852,-36.453403,-11.637140,-15.653728,0.907114,0.238643,0.363039
4513296898,-46.442177,-13.225967,-18.546776,0.903121,0.231720,0.355601
4513316942,-53.182594,-15.227713,-20.725363,0.918097,0.229632,0.337519
4513336987,-58.306133,-12.610027,-23.781582,0.920712,0.208065,0.335804
4513357032,-62.386028,-13.542658,-26.591045,0.949823,0.222460,0.331801
4513377080,-65.823830,-11.656184,-29.842337,0.946823,0.204381,0.334295
4513397121,-58.080059,-10.685699,-37.193336,0.881266,0.133844,0.340681
4513417167,-54.204330,-17.114946,-44.530540,0.896993,0.215571,0.403852
4513437231,-61.987438,-24.876007,-44.242599,0.980357,0.244521,0.344315
4513457254,-63.589016,-17.516630,-43.094532,0.997821,0.263335,0.297217
4513477299,-68.277946,-7.907142,-47.173927,0.899324,0.341788,0.351842
4513497344,-82.606842,-20.984566,-50.274239,0.932738,0.412560,0.336571
4513517388,-102.738800,-27.443352,-51.119396,1.049274,0.404837,0.229325
4513537433,-116.187531,-8.172969,-54.211327,1.049279,0.310754,0.179390
4513557478,-119.820282,3.897630,-59.626732,0.944801,0.292089,0.218203
4513577522,-127.653992,0.861735,-64.904221,0.839530,0.282741,0.232807
4513597567,-135.066437,-12.121319,-64.606567,0.847340,0.206799,0.273823
4513617612,-139.703735,-20.751591,-64.357162,0.958327,0.220355,0.285538
4513637657,-147.016220,-10.264218,-65.027130,0.982802,0.255443,0.284244
4513657701,-145.932129,-4.451344,-66.625542,0.893349,0.265941,0.315005
4513677747,-146.544800,-12.309665,-66.026802,0.840220,0.269003,0.325700
4513697792,-149.059937,-23.829296,-64.137772,0.901040,0.253542,0.305786
4513717837,-148.534393,-24.642736,-63.501083,0.956156,0.237140,0.269907
4513737882,-144.579712,-19.067396,-63.849026,0.906617,0.225443,0.289489
4513757926,-140.711700,-23.949545,-61.984741,0.874586,0.239992,0.281032
4513777971,-140.221344,-31.123028,-57.563107,0.920878,0.244523,0.247282
4513798016,-137.914703,-29.755934,-55.433723,0.942718,0.237957,0.229287
4513818060,-134.932114,-25.700344,-56.770779,0.923112,0.288767,0.230727
4513838104,-136.671417,-30.903988,-53.827095,0.953927,0.332939,0.225398
4513858149,-139.205811,-31.972683,-52.023968,0.966869,0.330832,0.188000
4513878193,-137.096649,-23.614265,-53.190788,0.952743,0.316682,0.181458
4513898238,-149.031311,-20.869900,-58.046146,0.936590,0.365676,0.178386
4513918282,-164.845123,-37.432487,-56.111328,0.938214,0.329994,0.251984
4513938327,-166.342468,-47.290722,-59.267361,1.079755,0.236267,0.178953
4513958372,-161.557999,-26.958607,-66.393036,1.137910,0.242347,0.119420
4513978416,-165.453156,-17.106272,-69.785492,1.042372,0.209091,0.176081
4513998461,-166.086716,-25.952221,-68.202896,1.017350,0.110483,0.179262
4514018506,-151.134674,-21.928543,-66.828156,1.012944,0.022488,0.167665
4514038550,-134.629242,-15.223454,-66.100174,0.969773,0.027747,0.237684
4514058595,-124.405014,-20.893757,-63.781059,0.993939,0.099327,0.239181
4514078641,-121.721725,-15.133348,-60.683578,0.979459,0.144780,0.266651
4514098686,-116.065315,-12.796831,-59.822578,0.905006,0.098623,0.285061
4514118731,-109.510979,-16.246571,-61.964603,0.883493,0.089473,0.273781
4514138775,-106.532234,-20.878952,-64.139030,0.898558,0.197871,0.292480
4514158820,-112.845238,-25.009504,-66.859787,0.935872,0.284378,0.267730
4514178865,-114.471008,-19.231775,-67.309883,0.960290,0.232195,0.237930
4514198910,-109.282181,-14.409516,-66.645729,0.919402,0.214309,0.289128
4514218953,-108.336418,-17.450495,-66.391083,0.929608,0.225316,0.281737
4514259043,-110.716072,-26.682192,-63.964336,0.991959,0.230643,0.302725
4514279087,-106.608231,-23.622141,-62.817890,0.960076,0.219558,0.304859
4514299132,-98.919899,-28.073997,-60.183376,0.902307,0.210691,0.345481
4514319176,-99.672089,-32.032398,-58.162640,0.916736,0.283608,0.347989
4514339221,-101.986404,-33.282810,-54.380268,0.925685,0.371423,0.306723
4514359266,-104.097176,-35.004742,-50.827572,0.844285,0.385579,0.230354
4514379310,-112.040245,-52.638668,-49.881512,0.842186,0.366950,0.346938
4514399355,-116.642006,-62.459618,-43.734692,1.012459,0.384078,0.219941
4514419400,-115.972015,-36.067173,-36.176956,1.019443,0.386734,0.185919
4514439445,-110.615707,-33.912296,-34.178356,0.930553,0.249568,0.208799
4514459491,-109.229164,-42.273918,-33.419254,0.957287,0.239953,0.270529
4514479535,-113.239044,-36.803520,-28.906509,0.990539,0.307949,0.236706
4514499580,-123.057037,-29.740749,-27.039988,0.960070,0.405991,0.254429
4514519625,-132.918671,-24.190821,-25.925919,0.892396,0.386702,0.182989
4514539670,-139.807144,-33.831718,-29.383642,0.834791,0.222275,0.219888
4514559714,-140.411087,-60.571358,-31.410671,0.908402,0.117303,0.190610
4514579759,-132.764816,-58.927422,-28.773972,1.120027,0.155191,0.107536
4514599812,-123.805130,-27.883591,-22.739290,1.219481,0.188488,0.052177
4514619847,-133.458527,-6.691042,-20.361732,1.081577,0.278059,0.137742
4514639892,-157.252625,-11.901039,-23.168364,1.017092,0.331367,0.189637
4514659936,-166.109894,-21.336821,-30.626028,1.119617,0.386816,0.127744
4514679982,-173.330292,3.042546,-35.728447,1.134429,0.272040,0.058423
4514700026,-187.835678,12.908429,-46.246468,1.055785,0.052803,0.074407
4514720071,-200.878311,8.935528,-49.350014,0.920412,-0.103069,0.099560
4514740115,-187.693573,-0.280832,-50.524189,0.851110,-0.240115,0.266979
4514780205,-130.579788,9.436645,-50.727489,0.920040,-0.127860,0.275023
4514800250,-127.713364,4.091154,-50.119717,0.877500,-0.042819,0.360411
4514820294,-118.857033,1.453229,-51.084076,0.891108,-0.005396,0.319505
4514840340,-105.968552,7.544351,-53.535095,0.945052,-0.009733,0.248010
4514860385,-94.473663,15.155316,-59.306049,0.898834,-0.008668,0.311667
4514880430,-91.109825,9.510719,-63.684170,0.851005,0.096147,0.372454
4514900475,-96.060524,-4.615401,-65.240311,0.919487,0.186892,0.367744
4514920519,-104.662682,-9.329190,-67.866783,1.016743,0.132724,0.352969
4514940564,-95.604080,-0.886425,-70.938217,1.001055,0.074996,0.355607
4514960608,-86.197861,1.248573,-71.545631,0.938301,0.068189,0.368406
4514980653,-81.823547,-5.299468,-71.687256,0.909005,0.074455,0.379794
4515000696,-79.588142,-9.633736,-71.555542,0.945273,0.061243,0.380259
4515020741,-70.269058,-6.068656,-69.779121,0.940059,0.066336,0.380361
4515040786,-67.490784,-10.865671,-66.626671,0.892318,0.128512,0.394886
4515060830,-70.045921,-18.029446,-63.354916,0.888116,0.192691,0.398513
4515080875,-72.884155,-19.743763,-61.167942,0.882190,0.275719,0.370380
4515100920,-77.845627,-17.322609,-61.505486,0.858431,0.308395,0.364292
4515120965,-82.373817,-22.691769,-60.124870,0.866739,0.318973,0.406784
4515141010,-83.796997,-25.783527,-59.029236,0.919124,0.315269,0.369049
4515161054,-80.390266,-28.955196,-57.330624,0.930761,0.307574,0.287713
4515181099,-82.576355,-33.939671,-58.010033,0.890869,0.261078,0.355724
4515201144,-94.210991,-46.627026,-50.572418,0.948421,0.364574,0.376959
4515221190,-108.277405,-41.981812,-41.167015,1.041996,0.543090,0.270648
4515241234,-117.197609,-14.829140,-34.785870,0.928209,0.388494,0.164662
4515261279,-117.861320,-22.126625,-37.866913,0.757167,0.269418,0.362054
4515281324,-113.732399,-44.632721,-30.921789,0.907263,0.372556,0.286732
4515301369,-123.024567,-30.539335,-28.113663,1.053302,0.491149,0.209523
4515321413,-145.889069,-8.558674,-39.409439,1.038253,0.377345,0.162098
4515341458,-164.760544,-12.935296,-55.624710,0.890810,0.116826,0.301833
4515361503,-165.922394,-39.746799,-66.362724,0.824852,-0.138882,0.406069
4515381546,-136.839859,-45.874619,-64.919121,0.951437,0.020629,0.324192
4515401590,-134.718842,-30.457489,-54.391003,0.999586,0.276840,0.290108
4515421635,-142.560349,-28.160164,-48.314598,0.948751,0.189692,0.236467
4515441680,-135.744827,-25.923922,-48.483242,0.924326,0.185875,0.275560
4515461725,-130.956772,-18.098532,-46.691341,0.895103,0.252816,0.306477
4515481770,-135.173630,-15.639174,-45.168148,0.918518,0.282001,0.268624
4515501814,-143.876144,-11.991401,-46.217148,0.926304,0.229611,0.251269
4515521859,-147.825287,-12.666496,-50.749588,0.926773,0.196630,0.242622
4515541904,-148.846100,-18.657511,-56.396492,0.982456,0.208451,0.240291
4515561949,-154.967270,-21.254812,-63.371174,1.057909,0.151842,0.221006
4515581993,-154.695587,-15.670880,-68.566597,1.059090,0.078085,0.235553
4515602039,-143.203644,-16.457214,-71.091812,1.005931,0.051643,0.238297
4515622084,-132.257446,-18.495827,-70.587204,0.976047,0.023423,0.307870
4515642129,-127.694862,-23.211071,-68.088455,0.957628,0.056953,0.317382
4515662173,-120.191200,-24.370840,-63.619629,0.979944,0.061090,0.255237
4515682218,-109.890793,-19.012264,-60.557312,0.956634,0.062526,0.254326
4515702263,-105.167435,-17.123037,-58.934521,0.919554,0.089460,0.283604
4515722307,-102.009003,-17.132975,-58.067387,0.912021,0.153810,0.303867
4515742352,-101.248108,-15.878815,-56.512661,0.957266,0.192063,0.291682
4515762395,-101.522179,-9.416726,-53.720749,0.960044,0.187162,0.312956
4515782440,-96.355446,-6.760991,-53.823822,0.921991,0.201211,0.361180
4515802485,-96.608139,-13.785213,-56.915890,0.961172,0.219654,0.332908
4515822529,-95.917198,-10.418636,-56.772007,0.954627,0.152348,0.341064
4515842574,-87.685593,-13.747691,-57.753788,0.940634,0.173232,0.363277
4515862619,-89.323143,-17.432167,-56.762604,0.955081,0.180601,0.353307
4515882664,-83.481140,-21.198380,-54.152668,0.945008,0.157485,0.350602
4515902709,-76.154648,-23.741299,-49.627838,0.916031,0.129730,0.310469
4515922753,-70.111084,-21.655052,-46.804050,0.888123,0.124106,0.319507
4515942798,-67.259872,-25.988056,-42.692699,0.903907,0.159968,0.331617
4515962843,-66.473953,-25.880211,-38.013569,0.908248,0.212043,0.318017
4515982887,-63.287399,-25.692869,-37.840107,0.891813,0.207302,0.334233
4516002933,-67.898743,-30.947916,-36.390396,0.922310,0.356413,0.354348
4516022978,-80.883835,-31.709055,-29.928843,0.909609,0.346675,0.292971
4516043023,-81.814598,-32.717506,-26.302063,0.983512,0.226705,0.333013
4516063067,-75.405846,-21.868935,-25.614861,1.016286,0.241706,0.269489
4516083112,-78.922470,-10.169644,-28.311075,0.929067,0.262044,0.329137
4516103157,-92.290733,-16.625204,-25.901751,0.928226,0.238819,0.317851
4516123201,-91.140488,-17.552116,-22.877611,0.896861,0.139680,0.335375
4516143245,-81.801193,-24.331472,-20.817303,0.947671,0.067706,0.258588
4516163289,-77.372124,-17.129990,-21.155182,1.024011,0.162897,0.267282
4516183334,-99.954941,-18.385639,-17.240265,0.889877,0.257515,0.365124
4516203379,-105.761864,-30.345848,-21.069767,0.831474,0.099332,0.281241
4516223424,-97.957504,-31.717752,-31.352060,0.978864,0.013767,0.239504
4516243468,-85.701607,-21.157124,-34.350967,1.037546,-0.086800,0.308773
4516263513,-76.359497,-22.713797,-30.063454,1.024134,-0.061060,0.285429
4516283558,-77.147469,-21.045004,-22.174055,0.975381,-0.085218,0.260417
4516303603,-68.517265,-22.183691,-19.359430,0.932580,-0.041832,0.271218
4516323647,-60.123531,-26.218405,-17.355413,1.004512,0.033703,0.288236
4516343692,-56.362373,-18.315296,-13.742558,1.005560,0.064261,0.267779
4516363737,-57.066105,-14.019032,-10.937693,0.961707,0.021267,0.307783
4516383783,-49.775921,-15.567139,-8.432377,0.981069,-0.019176,0.314813
4516403828,-42.389713,-11.650142,-5.293027,0.995765,0.000820,0.311660
4516423872,-37.875648,-6.651396,-2.224098,0.953790,-0.020669,0.316538
4516443917,-32.617477,-8.699531,-0.022698,0.933519,-0.044194,0.336978
4516463962,-25.105467,-9.389876,0.430785,0.969205,-0.022983,0.330964
4516484006,-18.701406,-5.131138,1.048068,0.985458,0.016868,0.328386
4516504051,-15.753645,-2.389776,1.175241,0.974574,0.039516,0.298804
4516524096,-13.198824,4.121342,0.128645,0.897817,0.026465,0.301628
4516544139,-7.617796,1.668797,-0.536527,0.879359,0.064042,0.341152
4516564184,-5.328225,-4.520475,-1.264350,1.025828,0.061023,0.327953
4516584229,-1.155732,10.213919,-0.716044,1.031829,0.017992,0.340278
4516604273,6.151297,11.447245,0.887554,0.928949,-0.010748,0.375909
4516624318,12.632175,5.194719,2.755968,0.916395,0.011641,0.382552
4516644363,17.624390,1.209071,5.921144,0.905814,0.071917,0.425405
4516664408,17.655005,-1.724166,7.378778,0.922162,0.130619,0.420215
4516684452,16.982058,4.845135,11.186874,0.946779,0.118374,0.391726
4516704497,20.031868,6.275753,20.761192,0.908398,0.122754,0.300820
4516724542,27.760162,1.824992,25.901823,0.839834,0.172494,0.329953
4516744587,27.501198,-11.757050,26.297564,0.932261,0.202132,0.346043
4516764631,13.135149,-8.630454,21.650940,1.063122,0.212589,0.286004
4516784677,10.734137,10.159354,19.023270,0.953718,0.219297,0.268488
4516804722,15.950997,11.877295,12.574662,0.843289,0.255555,0.275485
4516824767,-6.131158,2.323317,4.212891,0.799170,0.253379,0.324163
4516844811,-23.695143,-13.785597,-2.447970,0.815538,0.217048,0.401515
4516864856,-27.284433,-22.106253,-4.652363,1.016589,0.192563,0.269532
4516884901,-33.573860,-2.430200,-4.607506,1.082081,0.260683,0.244047
4516904945,-51.206413,8.497064,-10.287787,0.999812,0.301907,0.302467
4516924989,-72.058716,1.185330,-16.208015,0.947607,0.276813,0.354734
4516945033,-84.741692,-0.318813,-21.876402,0.952709,0.289782,0.355939
4516965078,-96.244751,4.286740,-28.085274,0.933230,0.266076,0.327951
4516985123,-111.220802,0.808275,-34.023705,0.896330,0.197270,0.330525
4517005167,-116.647606,-4.281818,-39.150108,0.882178,0.163662,0.330973
4517025212,-119.719101,-5.436918,-44.572548,0.902586,0.190186,0.309507
4517045257,-124.322739,-3.314177,-48.622665,0.923703,0.183143,0.287232
4517065302,-130.457443,0.253365,-54.125122,0.968745,0.189568,0.310724
4517085346,-132.315750,6.136255,-57.788456,0.980976,0.121852,0.288611
4517105391,-125.188347,3.523151,-57.589226,0.925718,0.122599,0.327715
4517125436,-116.424370,-0.049511,-58.399639,0.969084,0.115165,0.272282
4517145480,-125.384369,4.182834,-61.458443,0.977006,0.054496,0.232599
4517165526,-123.879501,3.537358,-57.286930,0.942768,0.051301,0.236746
4517185571,-126.106354,-11.196095,-52.029778,0.939788,0.021474,0.266013
4517205616,-124.362000,-20.267380,-56.788387,1.119529,-0.101430,0.258599
4517225661,-111.525093,-0.632704,-61.301132,1.093286,-0.050035,0.314249
4517265750,-87.451691,-6.236639,-53.839256,0.845263,-0.028801,0.328741
4517285795,-81.862823,-11.157954,-51.264378,0.821175,0.022213,0.336338
4517305855,-82.023659,-15.079067,-49.697685,0.852956,0.111123,0.342209
4517325883,-86.569489,-15.729486,-51.216351,0.884153,0.178419,0.320850
4517345928,-91.212532,-16.579006,-56.200409,0.879864,0.194344,0.308032
4517365972,-93.200562,-19.093012,-55.969475,0.943540,0.204480,0.278460
4517386017,-94.157799,-15.481651,-55.516068,0.987417,0.201738,0.255132
4517406062,-88.692719,-20.511301,-57.442558,0.976972,0.147706,0.287822
4517426106,-90.001984,-18.694185,-58.729340,1.017417,0.121139,0.290704
4517446151,-88.444664,-7.816031,-52.298870,1.039338,0.078306,0.312977
4517466196,-83.251862,-3.225273,-42.500187,0.966420,0.103175,0.310510
4517486240,-83.188103,-16.843388,-37.208321,0.907777,0.136263,0.326833
4517506285,-78.422440,-31.501328,-36.507263,0.991803,0.203976,0.233477
4517526330,-79.222626,-26.301310,-35.508045,0.981470,0.288933,0.223322
4517546376,-81.406357,-29.573925,-32.402802,0.994825,0.299637,0.255925
4517566421,-88.845299,-30.122637,-33.038509,0.994781,0.324958,0.240056
4517586465,-100.213966,-30.325891,-33.598709,1.006813,0.285398,0.178014
4517606510,-113.213463,-23.397577,-32.599014,0.987239,0.268390,0.180834
4517626555,-113.357826,-11.531718,-30.277927,0.979276,0.153942,0.222418
4517646600,-110.629417,-1.489143,-37.340023,0.899393,0.123792,0.299653
4517666645,-119.356697,-15.028437,-42.638828,0.900735,0.119191,0.258913
4517686689,-119.483566,-19.260719,-39.990307,0.977107,0.148165,0.275984
4517706732,-121.433067,-22.594500,-37.237244,1.010340,0.257695,0.262121
4517726777,-134.356247,-17.681768,-39.184505,1.027928,0.182597,0.213796
4517746822,-133.285461,-1.214784,-45.386719,1.038038,0.049915,0.279971
4517766866,-131.537750,4.498084,-48.369038,0.971407,0.119453,0.277545
4517786911,-131.532043,8.953601,-45.013626,0.917937,0.113849,0.299324
4517806956,-126.577423,12.591688,-41.398270,0.818811,0.160337,0.294848
4517827000,-128.315353,-0.138461,-42.469948,0.816636,0.202347,0.250328
4517847045,-132.401337,-11.834767,-47.707039,0.936459,0.147139,0.214149
4517867090,-131.609558,-8.652218,-50.938660,1.080675,0.111177,0.217138
4517907179,-124.250702,8.654699,-53.403591,1.004939,-0.095768,0.262085
4517927224,-108.302528,5.257259,-56.409988,0.971017,-0.157676,0.304229
4517947270,-95.181313,5.207796,-56.693382,0.983028,-0.071090,0.325817
4517967315,-86.876297,4.229174,-53.503117,0.966365,0.009496,0.366000
4517987360,-84.859291,3.841052,-50.722301,0.916788,0.040367,0.359374
4518007404,-84.244171,1.021187,-49.558754,0.865221,0.118374,0.386760
4518027449,-86.769348,-5.193684,-48.855492,0.872519,0.188439,0.383412
4518047493,-91.343925,-4.421057,-46.627079,0.910314,0.225808,0.359799
4518067539,-92.790688,-1.560130,-42.603844,0.885704,0.238816,0.417872
4518087582,-89.401031,-4.078482,-41.705639,0.883203,0.179421,0.393944
4518107627,-90.755722,-4.405138,-43.911869,0.906181,0.169105,0.401753
4518127671,-87.353874,-2.538303,-43.909241,0.876247,0.193042,0.434842
4518147716,-94.293495,-8.376683,-42.662056,0.865209,0.174750,0.441558
4518167761,-84.007278,-17.764637,-42.244484,0.946043,0.110113,0.357465
4518187805,-78.865967,-13.339511,-45.876305,0.971315,0.094005,0.363336
4518207850,-72.654022,-10.782137,-42.985683,0.989434,0.092544,0.362752
4518227895,-76.198532,-7.280103,-37.110970,0.964371,0.130579,0.388840
4518247939,-82.848953,-5.668922,-33.366627,0.931291,0.107320,0.369216
4518267984,-80.785339,-5.548733,-32.567406,0.906454,0.130579,0.344715
4518288029,-73.434990,-8.114344,-27.753244,0.989645,0.182445,0.327050
4518308074,-73.747200,-3.755375,-19.999546,1.031589,0.155832,0.401869
4518328120,-68.597198,7.685599,-22.716253,0.841973,0.146389,0.342566
4518348164,-68.704720,3.542280,-25.004620,0.808606,0.168801,0.359527
4518368209,-84.397202,-18.419777,-12.590463,0.943581,-0.072288,0.343110
4518388254,-74.753220,-15.177075,-17.169884,1.018992,-0.262972,0.252825
4518408299,-61.244087,5.618252,-25.391371,0.997683,-0.091168,0.328002
4518428343,-47.953556,13.306522,-24.852987,0.979670,0.054528,0.367729
4518448388,-53.233555,9.457026,-25.966843,0.989016,0.037173,0.332342
4518468433,-66.279106,6.521753,-20.363636,0.948436,-0.070299,0.400943
4518488476,-41.126350,6.683641,-17.715015,0.965129,-0.144858,0.349694
4518508521,-16.728659,20.725368,-14.365225,0.961241,-0.002128,0.349124
4518528566,-26.203136,15.719806,-8.353197,0.941461,0.065032,0.392036
4518548610,-33.852161,10.476288,-4.015730,0.941266,-0.031148,0.366608
4518568655,-21.285776,17.077396,-5.443902,0.937881,-0.066810,0.382537
4518588700,-8.244741,19.856159,-4.182842,0.986110,0.057114,0.360562
4518608744,-18.183996,24.144520,-2.884145,0.977262,0.136549,0.346276
4518628789,-32.693832,24.726536,-4.144740,0.936443,0.055631,0.380241
4518648833,-29.605635,21.956188,-6.420813,0.985250,-0.105890,0.359079
4518668879,-1.986795,33.411167,-2.468575,1.030015,-0.138849,0.294308
4518688923,13.632654,43.311745,3.641692,1.038491,0.044642,0.370607
4518708969,4.351728,46.057465,6.856611,1.010527,0.177555,0.387150
4518729014,-7.654949,50.117897,4.415555,0.944753,0.088739,0.436840
4518749059,-3.529407,45.257317,4.022840,0.956492,0.005739,0.443256
4518769104,7.959756,46.844261,5.616895,0.940616,0.114624,0.477567
4518789148,-5.119579,54.265224,3.386579,0.851067,0.161702,0.586324
4518829238,-5.239809,31.251062,4.803408,0.854204,0.007334,0.514421
4518849282,-0.531993,38.063545,1.987812,0.850823,0.107787,0.593413
4518869325,-11.656055,35.191170,-0.941028,0.769645,0.091805,0.597868
4518889370,-14.744732,25.738586,-0.916028,0.679936,-0.005769,0.597654
4518909415,-1.705627,16.972357,1.376814,0.665321,0.038045,0.574971
4518929460,1.582216,14.757701,1.346081,0.664031,0.095929,0.608990
4518949505,-6.808487,13.335751,0.756585,0.629848,0.052601,0.673011
4518969549,-8.894610,1.382089,1.713313,0.619687,-0.030942,0.685007
4518989594,2.310401,-6.805243,3.250222,0.619882,-0.028054,0.693907
4519009638,14.510779,-12.776381,-0.418275,0.622199,0.046653,0.729452
4519029683,8.646292,-21.770721,-0.821905,0.614673,0.062927,0.732813
4519049728,5.106109,-36.573902,-1.001697,0.634560,0.029303,0.663314
4519069772,14.109730,-43.619972,-1.109777,0.717883,0.036545,0.577188
4519089819,19.249334,-27.168844,-0.974279,0.659514,0.021330,0.521077
4519109863,22.458858,-26.725834,-6.865394,0.582641,0.029227,0.596109
4519129908,8.835620,-77.034096,-14.445951,0.934848,0.065184,0.549676
4519149952,-11.968727,-111.210045,-10.879223,1.457484,-0.031564,0.457784
4519169998,11.561392,-43.639832,0.524859,1.480032,-0.157031,0.400989
4519190043,76.467064,28.073380,8.278597,1.137795,0.003652,0.542197
4519210087,84.650406,-1.535275,15.199350,0.842577,0.317583,0.629587
4519230132,29.274273,-19.570715,12.517479,0.813678,0.449294,0.591688
4519250175,-14.154054,-0.472240,9.023246,0.745777,0.253790,0.433569
4519270220,-1.890618,8.515370,6.757126,0.633591,0.103479,0.443732
4519290264,0.102171,2.075553,6.077526,0.697887,0.205645,0.459018
4519310309,-24.346699,8.755430,7.302371,0.752453,0.151982,0.400681
4519330354,-15.520640,17.738300,4.795970,0.818141,0.032637,0.447122
4519350399,-1.924535,36.984638,0.186354,0.825895,0.060032,0.594536
4519370443,2.002295,42.872765,2.352367,0.847787,0.119371,0.738329
4519390488,-18.993597,28.914785,5.825265,1.047516,0.204740,0.653593
4519410533,-15.717856,60.608887,10.318308,1.094593,0.113106,0.573481
4519430578,11.572843,68.015518,19.876337,0.762270,0.107936,0.581931
4519450622,13.128441,50.877953,27.300833,0.482845,0.079002,0.615818
4519470667,15.530476,22.837513,28.642128,0.493632,0.072383,0.718194
4519490713,18.190769,7.721919,21.741463,0.779385,0.118997,0.608823
4519510758,11.166958,29.529804,11.604273,0.950607,0.115869,0.493835
4519530802,-2.866302,62.522896,-1.811327,0.739327,-0.141338,0.744332
4519550847,7.809703,56.926769,-2.672575,0.611320,-0.396202,0.874329
4519570892,45.331097,32.955750,5.259692,0.621520,0.040523,0.912952
4519590937,16.462969,28.178032,7.443448,0.568986,0.356760,1.077662
4519610981,4.065680,4.217155,9.686658,0.333322,0.151294,0.921404
4519631025,18.074791,-34.376171,9.478605,0.327420,-0.022936,0.907777
4519651069,18.623459,-53.388031,4.951869,0.406616,-0.096247,0.755824
4519671114,22.951103,-57.451263,3.345543,0.392639,-0.045335,0.594972
4519691159,30.943436,-72.880020,3.230286,0.452805,0.074691,0.500372
4519711203,24.399504,-83.181145,2.718827,0.609175,0.191845,0.321826
4519731248,20.400114,-67.171425,0.951673,0.657413,0.170019,0.303331
4519751293,21.403479,-85.103882,-2.482536,0.972258,0.197847,0.190320
4519771338,7.663744,-123.579208,3.570982,1.478178,0.237053,0.343096
4519791383,-9.598590,-128.324493,-1.198361,2.020932,0.250323,0.377542
4519811427,0.104823,-5.097244,-5.746927,1.896993,0.192743,0.315384
4519831472,5.574436,82.709183,-5.056722,1.031038,0.106475,0.496139
4519851516,16.812616,29.821316,-5.329051,0.600287,0.138153,0.579770
4519871562,5.550968,-31.472160,3.561047,0.701116,0.202915,0.491385
4519891607,-12.465985,-3.249122,6.430326,0.787036,0.129881,0.403847
4519911652,-10.054434,23.009100,6.211790,0.656810,0.073479,0.402997
4519931697,-21.080317,12.270640,4.881858,0.654355,0.240216,0.459690
4519951741,-43.933151,13.020012,4.812580,0.744381,0.227763,0.412105
4519971786,-37.503887,29.505890,0.207195,0.794993,0.073065,0.455177
4519991831,-32.234337,41.333164,-5.238143,0.792155,0.061441,0.605840
4520011888,-32.420807,41.105778,-4.185174,0.796188,0.042348,0.683961
4520031919,-27.813196,39.295063,0.755959,0.900407,0.086910,0.670516
4520051964,-21.321539,47.720280,4.408331,0.903073,0.017000,0.665468
4520072009,-2.841389,44.651039,9.290000,0.858740,-0.074768,0.666994
4520092053,19.176413,41.287567,8.949144,0.779622,-0.023590,0.696585
4520112098,20.605543,35.281258,7.785885,0.677036,0.005801,0.728278
4520132143,17.155331,23.115623,8.006680,0.685363,0.016734,0.681816
4520152187,25.471754,20.447756,7.023625,0.839338,0.016255,0.669925
4520172232,25.317020,29.943287,11.746796,0.835287,0.050436,0.635653
4520192277,27.847271,38.971302,13.021589,0.669296,0.005928,0.754896
4520212322,26.210442,33.953476,6.860445,0.567772,0.071739,0.957733
4520232366,12.067807,14.129285,9.981611,0.527165,0.180864,0.974107
4520252412,18.090199,-5.309278,13.564888,0.352338,0.091410,0.949806
4520272457,31.606922,-23.055061,9.828866,0.279515,0.044403,0.854703
4520292502,26.780418,-41.482056,11.003182,0.276924,0.063154,0.695019
4520332591,21.398336,-79.167320,15.262522,0.480320,0.083497,0.514248
4520352636,16.063652,-72.230293,16.576738,0.726947,0.041857,0.248540
4520372680,21.210875,-24.826427,5.887788,0.727363,0.134411,0.189419
4520392725,28.274567,-62.570740,4.200908,1.115359,0.155336,0.255630
4520412768,1.463817,-126.743095,4.124318,1.613721,0.211639,0.199171
4520432813,-17.351377,-121.756866,2.176449,1.964652,0.209673,0.663984
4520452858,-28.028311,21.362522,-5.205801,1.717314,0.020272,0.411183
4520472902,14.113552,107.971519,-10.852180,0.837209,0.018430,0.463402
4520492947,41.797344,28.003902,-9.914652,0.426067,0.183289,0.735996
4520512992,-10.419285,-46.326244,1.533941,0.556663,0.235407,0.574916
4520533037,-29.045900,-41.193275,5.107752,0.712564,-0.025582,0.510380
4520553081,5.176600,-10.767731,3.140573,0.764872,-0.047307,0.388760
4520573126,-1.900805,-2.727527,3.484348,0.797861,0.177141,0.506235
4520593171,-28.498669,-0.013093,5.293172,0.859026,0.174221,0.406283
4520613216,-19.962084,19.673027,5.490986,0.872683,0.042019,0.420403
4520633262,-14.772723,35.491180,1.032868,0.835462,-0.011788,0.504063
4520653306,-11.882312,34.552361,-2.149998,0.815957,-0.047137,0.517322
4520673351,-8.732150,25.149023,1.042042,0.878132,0.006735,0.581609
4520693396,-9.358150,29.140560,2.444834,0.904139,0.067201,0.613257
4520713440,-10.413363,26.846745,3.955898,0.871774,0.089219,0.628225
4520733485,-2.426801,24.443878,0.080169,0.936834,0.107750,0.602600
4520753530,7.780077,32.057381,-2.526943,0.850466,0.094070,0.586968
4520773575,6.443161,30.235804,0.646622,0.659878,0.052339,0.573630
4520793618,7.495068,14.122523,3.091646,0.616833,0.028107,0.700431
4520813663,15.590099,6.135400,4.416043,0.708355,0.032735,0.660456
4520833707,18.948025,12.761279,6.570484,0.880270,0.023322,0.585312
4520853752,24.883245,17.323784,5.713125,1.008665,0.116599,0.525846
4520873797,16.524206,39.581509,-3.888591,0.766086,0.221620,0.890299
4520893841,-3.966681,27.048496,-8.229666,0.500462,0.045977,1.112412
4520913886,15.701359,-20.598997,-1.463714,0.485150,0.006907,0.911141
4520933931,21.189270,-32.324333,-2.172733,0.557605,0.077283,0.771518
4520953976,13.097102,-26.295626,2.180330,0.442241,0.099726,0.636473
4520974020,7.623805,-37.879375,7.908877,0.353630,0.102456,0.541025
4520994065,7.249013,-49.254204,14.756117,0.450947,0.101805,0.376405
4521014111,0.902824,-32.962799,9.509892,0.523565,0.031272,0.241861
4521034156,4.655905,-46.499874,-0.668892,0.814091,0.101329,0.169204
4521054201,4.164842,-105.419540,0.434284,1.227277,0.118277,0.179183
4521074245,-2.277737,-154.576721,-2.753330,1.712942,0.137173,0.418289
4521094290,1.433692,-68.204338,0.107690,1.901339,0.110692,0.725065
4521114334,18.537148,106.260468,-4.370835,1.242733,0.140898,0.262779
4521134379,43.280876,78.176697,-5.752925,0.525035,0.157211,0.738664
4521154424,23.464745,-26.466259,-2.393794,0.485063,0.298564,0.587346
4521174467,-28.345949,-52.544609,-1.293869,0.643426,0.204410,0.553044
4521194512,-27.140989,-44.596600,-4.121774,0.747096,-0.006498,0.485347
4521214556,6.271414,-26.909565,-7.076314,0.802650,0.023260,0.404477
4521234601,3.372925,-18.644407,-5.530628,0.831312,0.198474,0.487366
4521254646,-20.286621,-14.144502,0.367860,0.811798,0.150500,0.419336
4521274691,-17.594713,-10.961862,0.976530,0.835834,0.018727,0.438717
4521294736,-2.147946,-2.773364,2.495908,0.853942,-0.001757,0.442296
4521314780,5.609084,0.899040,3.309066,0.843320,0.066975,0.507021
4521334825,-1.423229,-9.643245,6.427887,0.871479,0.087600,0.542928
4521354870,-2.953758,-16.292276,6.994426,0.908188,0.112516,0.547087
4521374914,-1.851844,-10.845664,2.265102,0.922692,0.130064,0.507808
4521394959,-1.398544,-14.927987,1.473184,0.927692,0.096319,0.503844
4521435050,4.653269,-15.769108,1.877058,0.986933,0.090018,0.448883
4521455095,1.153462,-15.400730,3.031051,0.968550,0.112865,0.456299
4521475140,-1.068612,-14.943112,2.270589,0.947994,0.094009,0.416062
4521495184,2.868719,-8.045778,0.725458,0.883115,0.051414,0.392451
4521515229,6.670016,-9.417801,-0.635592,0.856226,0.073519,0.405637
4521535273,2.136702,-8.425354,0.342896,0.874648,0.105963,0.404412
4521555317,-0.942039,-5.876067,1.217340,0.859711,0.081775,0.407233
4521575361,2.427357,-5.849319,-0.431216,0.867715,0.062265,0.411186
4521595406,0.889454,-4.913560,-1.441161,0.874414,0.114540,0.430014
4521615451,-1.226732,-3.930864,-0.603089,0.901610,0.090398,0.425768
4521635495,-1.103040,-3.315206,-0.360834,0.908553,0.087452,0.436040
4521655540,1.434484,-3.530383,-0.730528,0.901988,0.055653,0.437620
4521675585,2.952201,-4.633892,-0.946815,0.897095,0.091807,0.447210
4521695630,1.596461,-3.849409,0.030362,0.881062,0.080850,0.424331
4521715675,0.672352,-4.516922,1.249387,0.859842,0.101412,0.425099
4521735719,2.569840,-5.863972,1.053273,0.849714,0.071078,0.407613
4521755764,3.958335,-7.636983,-0.829797,0.854756,0.101261,0.418872
4521775809,0.321482,-8.204095,-1.273711,0.878763,0.103537,0.417754
4521795855,-1.174085,-6.249589,-1.637389,0.873507,0.112566,0.419917
4521815899,-3.956925,-6.832340,-1.417426,0.877029,0.090054,0.415486
4521835944,0.985406,-6.638970,-1.371701,0.876777,0.074161,0.423354
4521855989,0.341800,-7.724767,-0.162049,0.912659,0.099951,0.433236
4521876034,-0.007213,-6.895185,1.622524,0.951789,0.086987,0.423614
4521896079,-0.558790,-7.639011,2.876857,0.958916,0.084600,0.435976
4521916123,3.337694,-9.724958,2.894664,0.964162,0.063748,0.412697
4521936167,1.993047,-10.863531,3.713589,0.969390,0.092601,0.416959
4521956211,1.400637,-10.285419,3.595692,0.977884,0.080208,0.385166
4521976256,0.777196,-8.468709,2.722651,0.961188,0.098706,0.387168
4521996300,0.687456,-6.789064,2.310363,0.926922,0.071441,0.378402
4522016345,2.787407,-7.300726,0.976780,0.901796,0.072701,0.374567
4522036390,2.464479,-7.582040,0.164365,0.908539,0.084138,0.369059
4522056434,0.594148,-6.554558,-0.340311,0.895132,0.090842,0.373185
4522076480,-0.221340,-7.230406,-0.539113,0.891839,0.068856,0.364329
4522096524,3.329659,-6.625487,-0.696422,0.908870,0.081481,0.367808
4522116569,3.120554,-5.051857,-0.460140,0.917425,0.117522,0.389697
4522136613,1.333063,-4.472884,-0.957408,0.930082,0.121946,0.384746
4522156658,0.584443,-2.290830,-0.938495,0.920803,0.090331,0.380842
4522176704,4.056785,-2.939999,-1.185434,0.901560,0.112812,0.398816
4522196749,1.302531,-6.928266,-1.808102,0.928759,0.136228,0.377699
4522216794,-0.043820,-6.722008,-2.079851,0.960642,0.130053,0.384083
4522236838,-0.383925,-6.288329,-1.757685,0.944896,0.111006,0.377661
4522256892,0.288490,-8.409546,-1.852255,0.943166,0.117599,0.378049
4522276928,-1.968118,-8.035077,-1.660086,0.944917,0.115738,0.363965
4522296973,-1.625565,-7.427398,-1.838508,0.932756,0.106338,0.362588
4522337061,-1.221240,-7.381989,-1.498827,0.871562,0.073203,0.368697
4522357105,1.714383,-11.162043,-1.433960,0.877111,0.099797,0.376439
4522377150,-0.312815,-11.410735,-0.595406,0.906067,0.092915,0.354765
4522397195,0.464829,-10.339684,-0.541435,0.912810,0.085585,0.351142
4522417239,0.768591,-10.605955,-0.505421,0.909812,0.086269,0.351206
4522437284,3.447600,-11.779088,-1.195262,0.900949,0.090695,0.377416
4522457329,2.345961,-14.180247,-1.839719,0.916233,0.111152,0.363793
4522477374,2.037127,-13.959266,-1.190005,0.921221,0.120128,0.354651
4522497418,0.081077,-15.371254,-1.074634,0.904641,0.163833,0.375565
4522517463,-1.239560,-18.349577,-1.054075,0.893222,0.167035,0.341131
4522537508,-0.312443,-21.352955,-1.721135,0.883805,0.208269,0.362937
4522557554,-10.717813,-23.806627,-1.799020,0.867965,0.281865,0.371318
4522577598,-22.073315,-28.897226,-2.552774,0.887360,0.298209,0.364588
4522597643,-22.401209,-34.674141,-4.030366,0.919003,0.215693,0.390810
4522617688,-22.111330,-33.613106,-10.265358,0.890356,0.117160,0.359367
4522637733,-19.013889,-39.245014,-20.713230,0.989793,0.000480,0.240149
4522657777,-10.896628,-32.132008,-24.774178,1.176556,-0.142089,0.088096
4522677822,19.391605,-12.250080,-20.652298,1.132462,-0.067800,0.070955
4522697867,37.757835,-10.271632,-14.167066,1.059235,0.309235,0.279260
4522717910,2.651550,0.226572,-10.342463,1.040930,0.598524,0.394277
4522737955,-43.084785,5.157387,-18.170891,0.939801,0.505945,0.367899
4522758000,-74.957283,-14.009201,-23.393572,0.929276,0.412588,0.421035
4522778044,-100.670647,-8.661055,-28.153372,0.909689,0.307590,0.321700
4522798089,-119.709709,-3.427865,-39.081730,0.846321,0.264306,0.306755
4522818134,-138.938873,-11.351180,-49.706696,0.860726,0.274244,0.236218
4522838178,-157.593353,-9.940122,-57.640400,0.876530,0.173983,0.234248
4522858223,-162.832016,-5.339112,-61.931770,0.864321,0.022378,0.184789
4522878268,-157.503906,-5.116812,-64.410683,0.864177,-0.044982,0.186073
4522898312,-146.744659,-8.463730,-66.447906,0.872093,-0.004972,0.225769
4522918357,-147.807755,-17.181473,-67.917091,0.899137,0.120035,0.221202
4522938403,-157.591705,-24.105968,-70.372421,0.962397,0.157093,0.269976
4522958448,-165.434784,-30.150387,-72.675865,1.071961,0.142828,0.176389
4522978493,-165.781509,-27.278189,-75.258514,1.092219,0.155786,0.169693
4522998537,-175.010208,-24.253267,-76.424797,1.051660,0.216550,0.155330
4523018582,-188.415283,-27.761122,-77.103378,1.019452,0.251081,0.148709
4523038627,-197.794861,-35.552086,-78.768692,1.051958,0.235795,0.119574
4523058671,-202.476120,-32.432194,-79.726128,1.063480,0.198065,0.082460
4523078716,-204.531723,-27.119011,-83.014107,0.994293,0.163412,0.101451
4523098759,-204.202820,-29.773830,-87.204178,0.907754,0.149615,0.081904
4523118804,-204.640015,-35.390511,-87.523109,0.896019,0.170418,0.110235
4523158894,-194.347702,-35.777767,-83.822975,1.076670,0.117085,0.043620
4523178939,-192.751389,-30.988169,-78.209824,1.026299,0.223471,0.164647
4523198983,-200.973129,-34.338425,-73.443130,0.976656,0.300058,0.126051
4523219028,-195.223572,-35.924675,-74.194214,0.978442,0.223823,0.026817
4523239072,-187.182816,-38.774021,-73.613235,1.053940,0.182153,0.030990
4523259117,-187.164581,-40.208096,-68.142082,1.202488,0.274273,0.104515
4523279162,-187.922409,-27.383945,-65.657211,1.148748,0.156489,0.081969
4523299207,-163.373245,-24.516626,-65.093933,0.990920,-0.061788,-0.045755
4523319251,-144.894699,-30.719564,-65.115471,1.023093,0.080180,0.073487
4523339297,-155.010727,-31.584339,-63.848644,1.113394,0.410918,0.157181
4523359342,-158.101440,-16.528410,-72.097420,1.055008,0.274384,0.079219
4523379387,-135.421906,-16.119293,-82.145004,0.953921,0.062680,0.106995
4523399431,-131.620438,-28.450031,-80.204590,1.069306,0.109102,0.059019
4523419476,-140.797028,-20.244932,-72.180862,1.166006,0.281320,0.058213
4523439521,-153.273376,-5.655596,-71.238144,1.090148,0.368832,0.113930
4523459566,-153.544373,-4.075338,-73.279251,1.028068,0.322205,0.080721
4523479615,-142.935028,-8.440148,-74.270676,1.080302,0.166136,0.151767
4523499654,-143.201065,-10.575244,-73.230522,1.146923,0.120895,0.122946
4523519698,-134.486786,0.447235,-70.138542,1.122966,0.178876,0.148696
4523539743,-132.824860,-0.449454,-66.531746,1.091915,0.168528,0.178690
4523559788,-131.107147,1.814420,-65.754753,1.120007,0.106098,0.151369
4523579833,-126.537781,10.817165,-66.049698,1.034965,0.119455,0.183231
4523599878,-124.387825,10.920604,-68.519371,0.975733,0.182698,0.232989
4523619922,-126.774384,7.007437,-70.447662,1.046071,0.222642,0.304460
4523639967,-139.995117,11.618137,-68.537506,1.098947,0.252030,0.317532
4523660012,-145.273926,22.113596,-64.240707,1.105707,0.188549,0.314828
4523680056,-144.801636,29.492880,-65.538795,1.032150,0.030376,0.238755
4523700101,-156.780777,27.467009,-63.829956,1.150289,-0.170438,0.222520
4523720147,-175.511276,33.208794,-41.926300,1.286045,-0.249255,0.257212
4523740192,-134.200104,86.252747,-49.972435,0.716448,0.063753,0.492191
4523760236,-149.425110,58.942192,-81.887672,0.734086,0.103987,0.457391
4523780281,-209.715317,-16.818939,-73.590744,0.942528,-0.377461,0.423374
4523800326,-147.610306,13.107259,-84.471329,1.290195,-0.680740,0.229029
4523820371,-81.566895,82.567162,-82.323631,1.092438,-0.491406,0.520824
4523840415,-83.891159,68.481674,-73.013405,0.713738,-0.252467,0.642000
4523860460,-86.366257,51.118576,-67.797577,0.689773,-0.007952,0.731307
4523880503,-99.515594,33.276562,-66.323830,0.838628,0.123242,0.712738
4523900548,-121.031609,34.171711,-60.811672,0.861435,0.030275,0.662687
4523920593,-116.995346,42.061749,-68.788338,0.773324,-0.174924,0.709077
4523940637,-100.668533,46.585613,-68.003601,0.722395,-0.319939,0.683590
4523960682,-79.036430,40.799519,-64.651947,0.741813,-0.277793,0.727268
4523980727,-67.059013,34.687496,-60.928856,0.681619,-0.254308,0.786359
4524000772,-86.744232,33.687424,-40.938942,0.424070,-0.759412,0.977019
4524020817,-26.927340,-3.993145,-19.367916,0.270253,-0.854788,0.883726
4524040861,51.626110,-20.618725,-26.948080,0.272190,-0.261841,1.037992
4524060906,31.309441,-22.296013,-26.684067,0.138162,0.058292,1.081713
4524080950,4.064843,-64.444199,-33.444160,0.158753,0.140349,0.711728
4524100996,-15.449677,-91.108810,-40.148651,0.413702,0.278246,0.354464
4524121041,-89.143997,-130.267670,-63.445198,0.811921,-0.081603,0.570930
4524141086,-169.151169,-155.669708,-66.076004,1.227681,-0.819262,0.320305
4524161131,-48.938198,-68.361122,-22.673189,1.561097,-0.877180,-0.249725
4524181175,177.403061,-70.260063,25.843491,1.630873,-0.319302,-0.089485
4524201220,212.320312,-54.718616,37.750355,2.007697,0.359673,0.669069
4524221265,31.250175,46.306484,20.652569,1.978568,0.948320,0.318939
4524241310,-55.814167,163.259109,7.237579,1.022630,0.439255,0.419129
4524261353,-23.835138,133.914062,3.797595,0.327353,0.058636,0.553850
4524281397,-28.271688,59.364296,-9.460398,0.477814,0.262743,0.698663
4524301442,-80.080734,62.550995,-19.945112,0.698150,0.086783,0.700177
4524321487,-44.896027,108.510979,-6.293992,0.767874,-0.332650,0.571496
4524341532,-16.693686,163.404205,16.247055,0.415269,-0.188703,0.433624
4524361577,-1.950895,126.145447,10.417435,0.062170,-0.094599,0.398493
4524381621,11.905940,69.590263,6.784060,0.036990,-0.061445,0.467685
4524401666,24.299686,70.408905,8.707110,0.277890,0.120256,0.789059
4524421711,12.698126,62.858791,14.387411,0.579185,-0.016822,0.474919
4524441756,13.203724,82.894920,33.715061,0.484738,-0.085158,0.999756
4524461800,40.044468,147.047989,41.668755,0.078096,0.040115,1.341539
4524481845,46.493885,87.333733,46.917152,0.077151,0.156389,1.469947
4524501891,17.287745,32.422623,50.247932,0.334420,0.234305,1.343811
4524521936,17.912649,71.116646,32.113106,0.092282,-0.011597,1.405527
4524541980,47.069702,28.870672,34.496861,-0.181705,-0.059238,1.423130
4524562025,50.146774,-12.189518,37.658447,-0.094414,0.009238,1.366117
4524582070,55.780605,-24.706905,33.726517,-0.051500,-0.032622,1.327263
4524602114,65.460114,-41.585926,40.120956,-0.133421,-0.132248,1.361720
4524622159,65.799927,-56.298264,46.554489,-0.212275,-0.270580,1.320132
4524642204,67.697227,-77.640236,51.892925,-0.201057,-0.185489,1.184947
4524662247,63.755611,-88.666153,50.303261,-0.123736,0.113203,0.997498
4524682292,68.154877,-83.762192,45.244434,-0.117760,0.324072,0.471202
4524702336,43.774349,-52.829712,60.760601,-0.059879,0.060486,-0.101783
4524722381,90.859314,-234.887421,104.293121,1.435567,0.217495,-0.690865
4524742425,155.882431,-407.016357,86.084785,2.340248,0.877673,-0.338638
4524762470,-211.128265,-163.609024,-20.973927,2.934173,1.888749,0.475936
4524782515,-132.827118,173.052292,-14.571383,2.051265,0.306276,-0.189633
4524802560,-32.934956,157.970810,4.431229,0.883437,-0.150773,0.784248
4524822605,2.035686,21.018610,-2.358188,0.700341,0.280910,0.709334
4524842649,-84.508186,18.126030,24.560741,0.885517,0.019283,0.579739
4524862694,-48.956112,74.429596,19.938206,0.640924,0.022907,0.611791
4524882740,-43.768650,102.649193,9.046154,0.333951,0.496990,0.671096
4524902785,-44.644218,87.460991,-13.924790,0.200987,0.456595,0.458962
4524922829,-34.756813,66.287735,-6.781291,0.215883,0.234035,0.311140
4524942874,-15.181387,54.041950,-5.358051,0.108638,-0.193445,0.503804
4524962919,-29.496090,55.512585,-7.710398,0.278055,-0.245017,0.593325
4524982964,6.762189,32.467415,11.467666,0.744231,0.216813,0.410374
4525003008,15.161077,73.926254,20.963127,0.822568,0.086924,0.925509
4525023053,-9.437147,132.977554,27.739050,0.460541,-0.608252,1.641664
4525043096,40.307693,78.033623,42.044342,0.144778,-0.245718,1.700734
4525063141,30.995811,42.268589,49.592625,0.201824,0.233095,1.643664
4525083186,16.545818,47.721436,45.744362,-0.127803,0.129329,1.538777
4525103230,14.530872,-7.095629,40.021732,-0.499232,-0.212723,1.501377
4525123275,21.698900,-34.104622,28.656284,-0.563881,-0.371522,1.345073
4525163365,31.556280,-7.940594,19.223560,-0.827036,-0.152381,0.198915
4525183409,128.418121,-143.440979,46.850040,0.767068,0.369730,-0.315072
4525203454,153.198456,-452.072205,15.869185,2.483772,0.487467,-0.358040
4525223499,-154.460815,-275.576874,15.722372,4.079987,0.752689,0.901017
4525243543,-15.754326,315.469269,30.311827,1.810880,0.087788,-0.578891
4525263588,65.949471,263.470184,-21.422306,-0.125554,0.327952,1.351514
4525283634,0.293278,23.489645,-3.901298,0.096958,0.710861,0.971598
4525303679,-96.700142,-25.901518,8.506964,0.477318,0.142052,0.799804
4525323723,-30.116577,35.852913,-1.516234,0.574074,-0.376655,0.752715
4525343768,-8.679459,129.275345,10.885070,0.153457,-0.083995,0.740672
4525363813,-14.236117,81.399033,18.103661,0.009276,0.434971,0.713211
4525383858,-32.096870,16.004171,21.006926,0.274664,0.234933,0.317571
4525403902,-19.531387,34.056549,29.814541,-0.013059,-0.123166,0.339547
4525423947,26.376751,66.980118,10.743749,-0.339274,-0.251738,0.791627
4525443990,0.101779,10.662438,1.864111,0.271402,-0.075961,0.747021
4525464035,-18.942392,-15.474270,20.562532,0.788563,-0.146158,1.085329
4525484080,33.513504,92.199043,24.004824,0.202050,0.058138,1.931172
4525504124,44.140415,58.686729,25.623436,-0.441275,0.577400,1.831233
4525524169,-25.021200,-14.719912,13.119640,-0.454017,0.332672,1.987845
4525544213,-36.263897,-42.420238,0.928481,-0.361750,-0.161454,1.688873
4525564259,-4.025270,-2.166052,-19.583332,-0.431981,-0.368844,1.182953
4525584303,-3.202284,10.367401,-35.059013,-0.521309,-0.222254,0.447090
4525604348,33.600704,-218.309265,-19.857924,1.518394,0.225299,-0.224722
4525624392,13.147104,-410.221893,-14.301128,2.052563,0.116480,0.378514
4525644438,-10.905035,-52.631947,40.663574,2.594696,-0.194229,0.728641
4525664484,48.790131,193.868805,25.886602,0.930315,-0.054095,0.297705
4525684528,105.156319,73.426620,-4.409688,0.020805,0.176566,1.508335
4525704573,-22.386917,-7.268872,6.540665,0.215108,0.457739,0.607641
4525724618,-54.410301,-20.113178,14.553762,0.312953,0.029357,0.735257
4525744662,-40.597008,6.999405,9.302725,0.406136,0.068404,0.529945
4525764707,-33.665604,20.658045,6.143639,0.395698,0.196947,0.971740
4525784752,-7.946519,-2.226347,-9.116144,0.737672,-0.107932,0.896544
4525804796,-12.688516,41.887909,-1.754601,0.747973,-0.245197,0.458644
4525824840,1.646590,40.828320,35.664215,0.301945,-0.073237,0.557940
4525844885,31.737862,28.409920,11.561888,-0.238833,0.045238,0.917099
4525864929,9.131224,10.974387,3.013513,-0.242987,-0.183963,1.107878
4525884974,20.846769,-46.694290,20.561237,0.516111,-0.127940,0.747781
4525905019,43.270191,-32.875835,30.645712,0.857899,0.054703,1.443804
4525925063,7.366989,72.447418,13.367895,-0.227023,0.024169,1.854572
4525945108,30.327141,-23.891453,23.529545,-0.659119,0.108124,1.427184
4525965153,22.619646,-46.229008,10.742457,-0.282965,0.296258,1.495387
4525985197,12.397120,10.612221,-1.665964,-0.161892,0.071908,0.606251
4526005242,-24.340242,23.752224,-8.154143,-0.041080,-0.301742,0.184311
4526025287,3.604040,-233.652588,12.436744,1.909142,-0.025526,-0.488561
4526045331,96.370514,-404.011536,11.543729,2.188270,0.301150,0.490421
4526065378,11.187119,1.751234,-17.669586,2.705386,0.604369,0.853415
4526085422,-51.895733,237.648636,-15.618646,1.218805,0.161506,0.001137
4526105467,9.801562,109.348312,0.134689,0.114846,-0.120569,1.360523
4526125512,24.214577,2.369868,-2.982941,0.281762,0.176839,0.629839
4526145557,-37.988220,23.966864,3.446303,0.354306,0.172393,0.782085
4526165601,-34.785843,25.752768,8.996655,0.342243,-0.021005,0.389371
4526185646,-36.473557,16.256718,-0.390024,0.553809,0.150048,0.715535
4526205689,-66.114845,22.809229,-5.014191,0.653753,0.219645,0.951496
4526225734,-37.279987,45.378727,-10.482761,0.683985,-0.114560,0.839850
4526245779,3.761278,80.776558,-13.078295,0.351921,-0.183161,0.826701
4526265823,0.613312,37.098057,3.732152,0.188195,0.005373,0.991016
4526285868,6.628187,12.627140,5.758492,0.175058,0.028255,0.926271
4526305913,15.328523,23.624285,3.213060,0.098161,-0.020514,1.069325
4526325957,15.429631,25.797794,2.768368,-0.081051,-0.038883,1.107590
4526346002,13.823379,29.628860,0.392535,-0.195391,-0.058318,1.120572
4526366047,10.041380,11.596466,2.145079,-0.026114,-0.041186,1.104733
4526386092,34.128944,-2.963789,3.650187,-0.085047,0.027954,1.313954
4526406136,59.566475,14.679688,6.813378,-0.505865,0.198030,1.331418
4526426181,48.091225,-49.559921,4.958483,-0.255548,0.069392,1.119898
4526446227,-15.275321,-131.846558,15.113556,0.712673,-0.032131,1.126443
4526466272,2.078153,-87.632675,32.872169,1.158143,0.044260,0.714722
4526486316,29.030296,8.122168,3.069335,0.705067,0.116687,1.090380
4526506361,27.946484,3.003442,-23.505371,-0.054463,0.112533,1.361186
4526526413,8.620287,-87.785057,-5.954971,0.267438,0.200960,1.108702
4526546451,-10.971015,-66.432472,12.017101,0.408140,0.006439,1.076648
4526566496,16.611012,-36.166965,13.262580,0.077442,-0.023373,1.122277
4526586559,14.556194,-71.171173,19.505100,0.025753,0.183507,1.106808
4526606583,-22.843952,-83.277519,18.767212,0.038650,0.070761,0.961615
4526626628,-16.112370,-98.524460,14.920867,0.173679,-0.055461,0.644441
4526646672,-5.833384,-89.051514,6.407266,0.354707,-0.193207,0.228733
4526666717,-8.411600,-111.233734,10.813289,0.943715,-0.263146,0.249272
4526686762,53.341583,-119.976364,23.878176,1.092251,0.046036,0.409773
4526706807,36.055786,22.954014,6.079238,0.690748,0.478510,0.995971
4526726851,-28.637056,-18.976398,5.990191,0.427773,0.079165,1.188722
4526746896,-22.574324,-80.485382,8.386387,0.763476,-0.299859,0.921715
4526766941,28.517057,-13.556646,-1.522922,0.828967,-0.240123,0.746349
4526786986,46.781651,-10.895428,1.907506,0.497253,-0.031195,0.861652
4526807030,28.223280,-46.646851,5.062350,0.565008,0.160074,0.763423
4526827076,15.973866,-34.888298,-0.919013,0.742594,0.159078,0.691438
4526847121,21.467272,-15.965096,-12.863564,0.727299,0.184567,0.855178
4526867166,9.666496,-7.195148,-21.382433,0.468011,0.094847,0.933597
4526887210,5.825752,-23.191599,-22.053982,0.360394,0.083810,0.961764
4526907263,-2.747286,-32.752865,-20.706957,0.476866,0.208854,0.895848
4526927300,-14.548378,-26.397652,-24.164991,0.493470,0.237546,0.876431
4526947344,-18.159174,-26.145504,-28.137152,0.445306,0.162798,0.841098
4526967407,-17.950951,-29.156359,-29.910965,0.455073,0.127078,0.763348
4526987433,-16.493708,-31.938263,-27.237869,0.541623,0.133384,0.718224
4527007477,-19.805925,-32.761597,-22.175999,0.682060,0.144859,0.717607
4527027522,-21.723545,-18.606207,-19.432093,0.733118,0.155191,0.701506
4527047566,-22.774216,-3.782819,-16.946869,0.644479,0.241912,0.760051
4527067611,-36.898071,-21.790432,-13.758999,0.871251,0.308234,0.769354
4527087656,-55.088955,-9.163993,-11.155518,1.031076,0.278142,0.734169
4527107701,-60.443390,25.184610,-2.218296,0.693262,0.056763,0.811737
4527127746,-51.910938,-5.284013,2.956005,0.641878,-0.101762,0.895793
4527147790,-40.097317,-5.835176,16.891232,0.716788,-0.186511,0.892124
4527167835,-22.268501,17.563551,25.714386,0.504005,-0.332477,0.941485
4527187880,-3.190763,-3.256651,24.338396,0.409099,-0.415673,0.976985
4527207926,20.085697,-12.094733,21.738050,0.546288,-0.312347,0.863238
4527227971,39.840675,3.384831,19.096004,0.483442,-0.116485,0.839038
4527248015,39.042740,-5.514730,19.460979,0.365685,-0.003855,0.827416
4527268060,34.838783,-14.950880,20.088739,0.353764,0.080721,0.799317
4527288105,28.064629,-21.011786,16.984816,0.419538,0.102573,0.792971
4527308150,19.088266,-25.483181,11.808863,0.570472,0.032095,0.764702
4527328194,13.148189,-21.633202,9.359584,0.721330,0.012962,0.676009
4527348239,9.612396,-11.651752,6.444212,0.689147,-0.014917,0.724986
4527368282,13.896450,-16.446016,1.730646,0.723093,-0.004772,0.785786
4527388327,19.462730,-20.381212,-0.098610,0.843386,0.073749,0.799127
4527408372,14.553823,-6.337625,1.807469,0.824206,0.135503,0.801937
4527448461,-0.059960,-20.328011,-3.788599,0.822117,0.167492,0.771158
4527468506,-2.537796,-13.653823,-6.807992,0.805749,0.107565,0.720639
4527488550,-1.192627,-12.567482,-5.470895,0.739066,0.081743,0.680579
4527508595,-4.953044,-15.246351,-3.413064,0.736802,0.097919,0.606227
4527528639,-8.394164,-17.751619,-3.437639,0.755325,0.056257,0.556814
4527548684,-5.745298,-20.292522,-3.402218,0.780249,0.074895,0.513414
4527568729,-11.082200,-14.845163,-1.957065,0.761245,0.075365,0.501344
4527588775,-12.754376,-21.418650,-2.684622,0.778144,0.037200,0.490676
4527608820,-9.213966,-16.784779,-1.565785,0.866373,0.020408,0.444480
4527628865,-7.033330,1.097352,-2.505989,0.881713,0.015938,0.387908
4527648910,-4.226479,7.404112,-1.162178,0.914047,0.026745,0.386052
4527668954,-7.456836,9.490039,0.049072,1.001763,0.055986,0.362962
4527688999,-13.480394,22.499666,-0.762676,1.091449,0.076757,0.370183
4527709044,-16.491869,43.944504,0.733325,1.050422,0.096587,0.404953
4527749131,-18.173439,46.748947,-2.958925,0.948206,0.047153,0.567312
4527769176,-18.789446,42.911037,-3.163886,0.955075,0.091642,0.669055
4527789221,-31.877157,42.830750,-4.000515,0.999852,-0.015330,0.668991
4527809266,5.392555,63.783268,-5.814500,1.026115,-0.328099,0.413198
4527829311,31.810806,92.993454,-4.208659,0.698029,0.007941,0.389090
4527849355,4.752895,85.572487,5.422028,0.563265,0.221415,0.557417
4527869400,0.736085,38.521805,9.329312,0.946057,0.085682,0.245044
4527889445,8.479598,73.213364,11.690234,1.094788,0.182783,0.113952
4527909489,5.980987,127.656860,6.279401,0.795644,0.045121,0.412440
4527969624,13.550153,124.308182,11.031679,0.584729,0.127102,0.720502
4527989669,7.434291,123.942924,-1.605549,0.399583,0.269863,0.852080
4528009714,-17.105736,94.984619,2.739099,0.353131,0.151531,0.969710
4528029759,-3.731478,58.148567,4.674994,0.532248,0.010849,0.935944
4528049804,4.460853,60.968830,4.411440,0.698670,-0.038612,0.946217
4528069848,2.753206,67.618935,0.014870,0.586710,0.029413,0.918070
4528089893,-7.262716,54.969391,-6.699515,0.472831,0.183405,0.960852
4528109938,-15.099189,27.225945,-6.856987,0.608266,0.095185,0.855319
4528150026,-7.166430,40.198643,-12.262881,0.557731,0.067291,0.914542
4528170070,-16.103348,27.127056,-8.959462,0.602398,0.131524,0.800714
4528190115,-13.809847,38.147003,-6.922909,0.546266,0.038409,0.780679
4528210160,-7.848076,36.765667,-7.942454,0.398322,-0.003056,0.941817
4528230205,-9.896916,14.826730,-2.397975,0.543682,-0.006544,0.874533
4528250249,-2.419383,32.037102,0.385283,0.530946,0.021053,0.819586
4528270294,-2.491016,28.540318,-0.776461,0.401441,0.067582,0.908481
4528290339,-13.359120,11.387000,-1.522547,0.520245,0.096162,0.908658
4528310383,-13.166883,20.907806,-7.505766,0.589415,0.108792,0.882383
4528330428,-13.068582,26.340982,-10.246625,0.403538,0.031406,1.002844
4528350472,-4.648752,8.084305,-10.545324,0.332137,-0.052175,1.096424
4528370519,-7.592001,-8.270034,-10.949157,0.446453,0.017144,1.085580
4528390563,-14.975304,-14.184340,-10.376531,0.467706,0.074936,1.053210
4528410608,-11.907489,-20.438751,-2.372074,0.327739,-0.043575,1.141661
4528430653,-3.082516,-29.892212,1.667845,0.177207,-0.037047,1.215164
4528450704,-7.787821,-44.073292,-3.295510,0.043475,0.164353,1.292371
4528470742,-22.329927,-89.167679,-13.090875,0.049607,0.175646,1.391015
4528490787,-42.762833,-121.212341,-18.808096,0.128672,-0.143088,1.326122
4528510850,-9.430536,-110.477058,-15.516066,-0.017201,-0.310325,1.108385
4528530875,25.775682,-97.097198,-26.494736,0.034557,-0.180583,0.865878
4528550920,13.382868,-99.265656,-21.544811,0.283678,-0.067525,0.340527
4528570964,27.961597,-104.057053,-0.198937,0.878629,0.115459,-0.449636
4528591009,82.110474,-202.212891,1.421361,1.845772,0.240335,-0.804321
4528611054,41.032177,-271.691528,-11.316704,2.250792,0.393728,-0.852976
4528631099,-46.719002,-6.039093,7.106974,3.089686,0.479119,0.656685
4528651143,-61.230103,351.456146,22.116837,1.108526,0.067235,0.487469
4528671188,10.812222,138.925613,-8.174493,0.167568,-0.092857,0.140865
4528691233,-32.271198,-36.157822,24.181080,0.999836,0.149152,1.260060
4528711277,-47.294037,118.842590,27.821739,1.074649,-0.199830,0.174503
4528731322,-26.322529,192.354675,13.375704,0.001380,0.149557,0.713415
4528751368,-15.267708,77.205925,4.783518,-0.078004,0.259024,0.659399
4528771413,4.937769,70.528290,17.243193,0.105274,-0.135095,0.221697
4528791458,12.946326,72.571655,13.020268,-0.088846,-0.242434,0.731561
4528811502,-1.656782,25.978973,17.853918,0.361787,-0.074731,0.450684
4528831547,5.583128,61.955891,21.116446,0.639500,-0.041057,0.601110
4528851592,11.831429,110.612511,9.480817,0.331783,-0.159366,1.524396
4528871636,-4.222647,75.388100,23.136829,0.280696,-0.047209,1.610227
4528891681,-22.410172,77.335571,25.750381,0.037241,0.120469,1.788608
4528911725,-22.490656,61.878128,14.033435,-0.313104,0.059501,1.796931
4528931769,10.543497,20.893312,5.758749,-0.395164,0.077463,1.715973
4528951814,17.193344,-23.395620,2.351876,-0.403185,-0.013706,1.624075
4528971858,-9.179603,-71.012184,-10.466278,-0.419001,-0.362529,1.538616
4528991903,-31.671942,-58.181156,-17.482393,-0.460804,-0.637051,0.823601
4529011948,-36.287720,-63.775978,-11.049963,-0.059174,-0.446759,-0.074466
4529031993,98.095238,-279.925354,-8.257252,1.872468,0.069307,-0.511189
4529052037,169.172791,-447.080963,-26.166260,2.789582,0.539440,-0.303703
4529072082,-41.640186,135.320648,21.241549,3.010956,0.649592,0.443297
4529092127,-58.690712,341.008728,1.210257,0.415639,-0.159728,0.645157
4529112172,56.928501,42.177567,-18.264208,-0.140332,-0.146884,0.839649
4529132218,-17.635326,-19.733641,16.457893,0.623572,0.420588,0.740669
4529172307,-17.642534,104.189690,3.107808,0.238056,-0.335636,1.037168
4529192352,-13.027092,62.084309,17.427008,0.059936,0.092444,0.702843
4529212397,6.674009,57.524635,6.256592,0.073097,0.314034,0.624815
4529232442,10.780735,54.807472,5.884851,-0.128484,-0.000002,0.527515
4529252486,1.344078,30.017916,13.339913,-0.200381,-0.167066,0.773916
4529272531,3.575783,15.316301,13.473831,0.101755,-0.121546,0.723306
4529292574,27.560732,28.103783,-1.097879,0.535196,-0.080384,1.371274
4529312619,2.054397,81.527283,13.468608,0.095334,-0.010086,1.794753
4529332664,11.036833,54.585297,19.321772,-0.363910,0.213902,1.812766
4529352708,15.629128,2.177279,8.571458,-0.544825,0.270684,1.976950
4529372753,25.045940,-59.666611,-0.508045,-0.543996,0.144289,1.697855
4529392797,7.914306,-46.632744,-19.389048,-0.595572,-0.099015,1.268755
4529412842,-60.139980,-45.717812,-42.248680,-0.086690,-0.314574,0.394032
4529432887,-9.366163,-274.832458,-27.641867,1.957269,0.062688,-0.269065
4529452932,108.600021,-421.032379,-5.118975,2.358901,-0.044190,-0.473741
4529472976,110.247284,145.069458,2.416194,2.373065,0.543265,1.519031
4529493021,-12.465054,269.944855,-22.396582,0.165124,0.340206,0.664875
4529513066,19.021700,4.934314,-6.251892,-0.216397,0.241919,0.792638
4529533112,-63.342964,-57.356461,14.588898,0.363337,0.265785,0.768361
4529553157,-54.384415,35.167683,16.817261,0.512878,-0.188030,0.438975
4529573201,-25.726004,61.110226,7.324394,0.326030,-0.122980,1.038058
4529593246,-6.890970,41.827507,-6.598521,0.304406,-0.138683,0.777551
4529613291,-9.988746,54.287823,10.463197,0.098050,0.049878,0.594675
4529633336,8.141746,13.787260,19.321594,0.069217,0.149548,0.451065
4529653380,28.997530,18.554117,11.416994,-0.123839,-0.108657,0.727105
4529673423,11.529343,9.966926,-1.635845,-0.124196,-0.227602,0.792817
4529693468,20.381079,-30.881386,10.493707,0.506125,-0.053702,0.894041
4529713513,27.312412,-4.011998,8.967684,0.834467,0.276411,1.832748
4529733558,-10.682259,82.778885,0.377808,-0.178973,-0.042355,1.894621
4529753602,27.968906,-15.285248,7.083972,-0.708697,-0.034219,2.097356
4529773647,11.533913,-40.771023,7.896868,-0.337067,0.228213,1.805196
4529793692,5.699283,20.013559,-16.083025,-0.491463,0.052157,0.884150
4529813736,-15.214718,-16.208626,-16.368382,-0.003239,-0.048103,0.226377
4529833781,54.511707,-326.027924,16.636175,2.298630,0.179575,-0.466742
4529853826,54.296555,-407.747528,-10.649835,2.407972,0.560352,0.180699
4529873870,-66.802437,207.543518,-24.526426,2.110518,0.550699,0.860074
4529893915,-33.511124,254.292191,-35.262943,0.180892,0.018903,0.743028
4529913961,35.384964,-37.355400,-7.396312,-0.080989,0.082983,0.778824
4529934006,-52.588047,-27.387833,-0.545177,0.472563,0.260015,0.901767
4529954051,-59.047421,60.782429,-8.067796,0.369408,-0.142441,0.445107
4529974096,-43.324165,54.780880,-5.005845,0.080988,-0.116071,0.969384
4529994140,-40.881916,28.093300,-3.734702,0.273389,0.066629,0.902273
4530014185,-9.823064,29.215019,-1.878864,0.610762,0.409248,0.734387
4530034229,1.118110,32.787918,-13.355482,0.508876,0.230033,0.276713
4530054273,-28.893154,50.880516,3.092103,-0.060865,-0.233239,0.687259
4530074317,5.776468,14.321540,2.898940,-0.382932,-0.155449,1.217604
4530094362,12.547001,3.687298,-2.909966,0.115940,0.264176,0.827112
4530114407,-2.407326,-47.721752,-10.121216,0.726146,0.141796,1.702783
4530134452,-48.098595,46.162788,5.133152,0.156988,-0.823071,1.977175
4530154496,48.863255,-4.449314,24.336569,-0.762602,-0.339675,1.691695
4530174541,46.814804,-61.452541,24.832792,-0.495160,0.275581,1.774971
4530194586,15.762092,-30.062086,15.007905,-0.498200,0.409780,0.992406
4530214630,-16.879362,13.543653,-12.566980,-0.831016,-0.025821,0.381478
4530234675,-45.390007,-113.097092,-45.733921,0.939704,-0.039331,-0.259814
4530254720,-73.603035,-432.904358,-49.961449,2.478466,-0.345564,-0.500061
4530274765,189.587646,-199.540329,49.138573,2.846859,-0.832993,0.714633
4530294811,164.662170,201.087326,23.940046,1.392742,0.779901,0.774186
4530314855,8.160257,143.740952,-4.128633,0.429203,0.895765,1.244722
4530334900,-102.466827,-56.891827,-7.562693,0.375265,0.269135,0.702049
4530354945,-63.371796,-42.589481,11.923988,0.758708,-0.277514,0.123946
4530374990,30.997438,73.370316,15.189456,0.622167,0.052063,0.395364
4530395034,-21.581470,79.264519,6.879302,0.332869,0.238606,0.854309
4530415079,-71.929955,15.125925,2.914977,0.341866,-0.265471,0.782786
4530435132,-21.209583,25.161943,22.636528,0.791052,-0.097937,0.525936
4530455167,2.843976,70.865494,36.228485,0.668886,0.323168,0.701199
4530475212,21.864681,63.241344,37.506863,0.146494,-0.028988,0.655769
4530495256,30.541586,18.594461,19.556694,0.033603,-0.250824,1.020862
4530515301,7.528061,5.395988,17.917231,0.045385,-0.014981,1.094569
4530535346,31.288166,11.667659,15.291273,0.008179,-0.039508,1.105243
4530555390,23.024136,-21.698532,1.398988,0.300123,-0.044592,1.759205
4530575435,-24.642103,-16.940186,11.915144,0.033071,-0.281173,2.098440
4530595480,72.180580,-18.907696,31.157440,-0.530042,0.056692,1.590701
4530615525,62.415432,-41.516727,19.209158,-0.505087,0.517535,1.541375
4530635569,33.047695,-45.912510,7.820581,-0.314424,0.453752,1.036540
4530655614,-45.509338,0.411057,-13.713965,-0.304574,-0.034511,0.346246
4530675660,-130.446121,-24.688999,-47.191833,0.957219,-0.286551,-0.395942
4530695705,-42.266968,-258.213013,-30.559296,1.934046,-0.321264,-0.586724
4530715749,158.150909,-314.528656,-5.302469,1.227830,-0.192788,2.309193
4530735794,123.792183,30.939501,-17.585400,1.361751,0.599164,0.654180
4530755839,29.127571,161.319931,-0.877779,0.650610,0.597036,0.851941
4530775884,-36.164772,-81.855377,11.904878,0.056352,0.234128,1.423540
4530795929,-61.974174,-93.723175,6.148858,0.455005,-0.278379,0.745299
4530815973,21.163614,-70.701263,-4.490307,0.346107,-0.367280,0.657106
4530836016,64.800117,-90.400803,-1.941771,0.409624,0.029536,0.633172
4530856061,6.790213,-109.334129,4.935505,0.681599,0.259363,0.716385
4530876106,-22.805161,-98.162697,12.137835,0.921097,0.049381,0.504547
4530896151,10.160833,-66.944214,13.242094,0.855517,-0.038172,0.527825
4530916195,15.069099,-45.698277,10.228476,0.667707,-0.068179,0.552740
4530936240,18.870209,-58.056755,18.065479,0.553426,-0.188842,0.523676
4530956284,34.674267,-64.225876,20.464178,0.606219,-0.010559,0.627018
4530976329,14.428744,-53.905807,11.711477,0.689675,0.205281,0.630034
4530996374,-5.850067,-52.236462,0.361751,0.782754,0.140638,0.620504
4531016418,-12.355938,-48.402470,-4.909563,0.870465,0.095650,0.582185
4531036463,-8.344200,-43.953190,-7.702352,0.815271,0.096599,0.573944
4531056508,-5.466625,-54.543419,-7.638219,0.814315,0.079692,0.541210
4531076554,4.052828,-58.304577,-3.639480,0.855331,-0.013012,0.527161
4531096599,5.611096,-49.274681,-0.064129,0.845864,-0.017108,0.533590
4531116644,3.201931,-47.858166,1.491899,0.829684,0.004607,0.502702
4531136688,2.822011,-48.633816,-0.073823,0.875974,0.081694,0.479733
4531156733,1.231923,-42.059395,-3.511318,0.860759,0.110241,0.462543
4531176778,-2.628234,-42.103210,-6.940386,0.833298,0.135287,0.440194
4531196822,-1.273281,-44.575680,-9.310108,0.820127,0.091966,0.460941
4531216866,-2.796548,-48.093945,-10.331191,0.871885,0.135201,0.457684
4531236910,0.411528,-46.773613,-9.046690,0.971645,0.075055,0.403372
4531256955,-2.149235,-38.561562,-6.635057,0.955490,0.119624,0.381036
4531277000,-4.604160,-36.718582,-3.326873,0.860875,0.024044,0.356460
4531297044,2.826155,-39.628448,-3.297290,0.895956,0.064801,0.341722
4531317089,1.093597,-37.438324,-4.116471,0.933814,0.100213,0.375029
4531337134,-0.379199,-35.233070,-4.610071,0.965162,0.154441,0.362155
4531357178,-8.262040,-30.079760,-2.764205,0.943096,0.216189,0.383244
4531377223,-17.861183,-33.453575,-2.314121,0.882916,0.110557,0.376301
4531397268,-15.589531,-35.630852,-5.673912,0.928190,0.071202,0.323149
4531417312,-12.495178,-31.294462,-7.743440,0.944010,0.094149,0.351937
4531437357,-7.040947,-32.515560,-8.355475,0.946748,0.087528,0.349735
4531457403,-5.005886,-32.159557,-7.182961,0.959403,0.083503,0.336295
4531477448,-4.748363,-30.874754,-6.058642,0.944052,0.073117,0.330806
4531497493,-1.887628,-32.610458,-6.673162,0.944367,0.062582,0.299394
4531517537,2.985783,-31.892754,-7.008320,0.928978,0.096861,0.305281
4531537582,0.050425,-35.203487,-5.603772,0.951092,0.152334,0.306714
4531557627,-2.599178,-36.925743,-3.791530,0.975499,0.127394,0.287251
4531577671,1.384932,-35.796890,-4.265005,0.983251,0.080994,0.278677
4531597716,-1.641391,-32.199974,-6.096448,0.943887,0.131403,0.272055
4531617759,-12.756653,-33.856369,-9.293144,0.871796,0.131706,0.215352
4531637804,-11.439308,-37.896862,-16.788212,0.847426,-0.032288,0.179745
4531657849,3.590012,-40.021236,-30.088705,0.909221,-0.135460,0.147999
4531677894,25.723030,-40.489433,-31.507362,1.164649,-0.066116,0.017824
4531697938,48.792751,-12.711167,-26.095818,1.317484,-0.008286,0.023471
4531717983,65.204643,29.905554,-29.202606,1.203254,0.262361,0.323217
4531738028,43.106976,35.157711,-20.802767,1.136681,0.650356,0.410299
4531758072,-34.015579,17.233744,-20.202127,0.969775,0.780587,0.511341
4531778117,-107.322815,-19.925577,-24.686342,0.824495,0.527861,0.523746
4531798162,-136.305832,-41.068565,-24.863140,0.769665,0.296587,0.450689
4531818206,-140.260437,-35.854137,-31.648506,0.753696,0.145586,0.326086
4531838252,-149.921860,-39.429241,-39.463608,0.819427,0.003838,0.288223
4531858297,-151.064880,-42.165127,-40.831169,0.910677,-0.117369,0.143946
4531878342,-143.777466,-20.515842,-38.187778,0.869037,-0.151253,0.074909
4531898387,-137.388763,-16.934326,-39.283855,0.764046,-0.150351,0.133041
4531918431,-133.912628,-33.067722,-43.089165,0.852321,-0.077961,0.127352
4531938476,-139.072845,-34.828705,-47.679855,1.063237,-0.012085,0.105406
4531958521,-144.550339,-25.879398,-50.891712,1.128403,-0.040189,0.123412
4531998609,-144.946198,-35.998859,-58.146965,1.080477,0.047992,0.140725
4532018653,-153.134918,-40.751560,-61.995499,1.233679,0.116076,0.077916
4532038698,-164.115814,-33.651554,-64.051132,1.292115,0.133626,0.066635
4532058743,-171.085022,-28.674553,-63.773857,1.178782,0.097257,0.059734
4532078788,-179.190170,-35.066929,-62.867661,1.063401,0.089818,0.052762
4532098832,-188.469772,-48.183884,-59.683468,1.055906,0.033161,0.006469
4532118877,-194.017441,-49.166695,-58.596294,1.126055,-0.005782,-0.014002
4532138922,-195.302063,-38.281906,-59.754719,1.094190,0.006379,0.000414
4532158966,-198.721313,-35.656143,-58.489201,0.990188,0.017304,0.022234
4532179011,-200.743820,-43.056797,-56.988750,0.948153,-0.022768,-0.008424
4532199056,-200.208405,-46.455456,-58.505684,0.941106,-0.036390,-0.003173
4532219100,-198.675964,-54.088421,-59.706291,0.997279,-0.014059,-0.025982
4532239146,-192.337189,-57.179340,-58.738731,1.094130,-0.050276,-0.005219
4532259191,-188.336029,-54.855438,-55.312901,1.132188,-0.029887,-0.044076
4532279236,-194.517227,-52.187748,-50.643723,1.032960,-0.017211,-0.110002
4532299281,-192.649811,-54.287037,-50.389420,0.932969,-0.107485,-0.168165
4532319325,-178.460022,-63.839340,-53.003220,1.049472,-0.118330,-0.165859
4532339370,-171.775299,-51.304657,-54.521416,1.162143,-0.059477,-0.164975
4532359415,-172.395920,-35.906303,-57.167145,1.118091,-0.069508,-0.030559
4532399503,-176.012177,-46.734219,-57.266315,1.161367,0.158811,0.051178
4532419547,-177.386093,-51.606468,-60.344204,1.137981,0.123715,0.053664
4532439592,-177.745148,-64.763016,-60.481377,1.191172,0.162253,-0.103500
4532459637,-184.266205,-62.028183,-59.237892,1.129384,0.232841,-0.076856
4532479682,-188.607925,-58.500336,-65.058792,1.002939,0.267990,-0.167476
4532499726,-187.949142,-64.821426,-74.695007,0.985625,0.214961,-0.261669
4532519789,-189.884628,-79.293365,-78.887016,1.128619,0.151200,-0.285317
4532539816,-186.568939,-68.790634,-75.707443,1.341720,0.229342,-0.195637
4532559860,-189.447281,-37.236912,-74.039192,1.320723,0.422384,-0.095323
4532579905,-189.934448,-24.797813,-82.153084,1.148306,0.370146,-0.024226
4532599950,-192.225433,-55.396229,-82.129440,1.181365,0.262085,-0.097931
4532619996,-198.286728,-64.463585,-76.284492,1.192953,0.233058,-0.003831
4532640041,-198.428818,-52.123623,-67.610214,1.078206,0.168188,-0.009050
4532660085,-196.750900,-61.706848,-61.633656,1.044785,0.067855,-0.122272
4532680130,-186.376129,-71.085785,-57.940895,1.099257,0.005532,-0.218322
4532700175,-173.706070,-57.465782,-51.483944,1.133729,0.017954,-0.169100
4532720219,-172.590561,-42.421268,-43.286583,1.011807,0.006516,-0.087774
4532740264,-165.577637,-48.012253,-39.777317,1.063950,0.026342,-0.087283
4532760309,-156.855530,-46.498871,-38.055325,1.177425,0.061672,-0.072452
4532780352,-150.652603,-33.598446,-38.495991,1.200516,0.083989,-0.039965
4532800397,-158.366211,-36.039196,-38.480255,1.166626,0.115066,0.064051
4532820441,-160.679062,-45.591206,-38.316360,1.261190,0.058487,0.025604
4532840486,-153.136520,-38.308353,-37.657337,1.294481,0.002183,0.024036
4532860531,-144.032944,-28.267199,-35.679688,1.178248,-0.084358,0.044568
4532900621,-130.969910,-39.563805,-31.883835,1.218794,-0.136569,0.044112
4532920665,-111.253044,-14.905860,-24.988539,1.183112,-0.119219,0.049808
4532940710,-99.710503,-4.385555,-17.659143,1.003052,-0.073766,0.124686
4532960754,-101.374695,-19.669319,-18.104271,1.056952,-0.044256,0.131573
4532980799,-100.540627,-15.650403,-20.613266,1.187669,-0.126068,0.132657
4533000845,-83.423912,5.192358,-17.876875,1.171845,-0.222823,0.146542
4533020890,-65.704803,14.992487,-11.378839,1.052513,-0.213902,0.249751
4533040935,-54.041290,16.360645,-5.824402,0.939681,-0.146586,0.347974
4533060979,-42.895775,11.083960,-5.333496,0.920905,-0.053731,0.391045
4533081024,-35.800888,12.149477,-5.449847,0.939640,0.010873,0.349861
4533101069,-28.478327,20.953285,-3.396427,0.864938,0.052234,0.380020
4533121114,-24.422707,16.299559,-0.292003,0.813612,0.092333,0.447780
4533141158,-19.677486,9.365253,3.312098,0.861911,0.067939,0.427211
4533161202,-8.462961,14.623567,4.897169,0.893770,0.056357,0.417161
4533181246,-1.383680,17.788187,7.658669,0.864503,0.109789,0.458295
4533201291,0.816216,15.105041,11.643944,0.854777,0.141432,0.476900
4533221336,3.214368,16.540480,13.810651,0.853857,0.159667,0.475286
4533241380,6.957431,16.644829,16.410166,0.858898,0.196706,0.489129
4533261425,12.399808,15.903778,18.441315,0.879250,0.157499,0.505261
4533281470,22.886709,14.419924,17.859505,0.900967,0.100710,0.500972
4533301515,31.969322,24.925751,22.091890,0.915044,0.099502,0.426520
4533321560,26.374123,33.250301,32.183067,0.809345,0.251700,0.440151
4533341604,20.592304,19.379881,39.843575,0.789215,0.210660,0.509263
4533361649,24.620840,12.527744,38.889732,0.893371,0.080063,0.504365
4533381693,31.135677,22.348507,35.988873,0.945177,0.072960,0.461829
4533401739,27.888391,33.813278,36.246716,0.886036,0.144135,0.461720
4533421784,28.689676,30.673632,36.540653,0.850879,0.210034,0.462558
4533441829,27.058008,30.368727,31.472050,0.852382,0.233947,0.469473
4533461873,15.497050,33.058811,24.953083,0.828211,0.122917,0.521380
4533481918,18.800392,27.217628,22.746828,0.813140,0.052656,0.531865
4533501963,23.039015,26.711092,20.017931,0.824002,0.107526,0.514921
4533522008,19.264996,26.036774,17.548704,0.774700,0.140133,0.572014
4533542051,14.393666,12.906459,16.394775,0.751665,0.079566,0.607853
4533562096,11.882506,2.101607,18.983992,0.778679,0.051092,0.584249
4533582140,14.823081,-1.084237,22.057489,0.789339,0.128358,0.587696
4533602185,14.276350,-1.220469,22.297972,0.787857,0.207717,0.578198
4533622230,7.801309,-6.621106,17.568436,0.800104,0.181948,0.595162
4533642274,6.128503,-15.455185,9.780860,0.838339,0.089773,0.597841
4533662319,10.683132,-19.615732,11.921087,0.977095,0.039015,0.560852
4533682364,20.017740,-1.450145,12.777013,0.973618,0.035519,0.436580
4533702409,36.088955,28.363543,18.171724,0.841030,0.055286,0.487071
4533722453,52.330254,1.421779,21.561850,0.818776,0.089052,0.471152
4533742498,47.537277,-21.437820,19.692783,0.956326,0.219415,0.478000
4533762543,30.828665,-16.400148,17.881079,0.960351,0.241833,0.572622
4533782589,19.684134,-8.184311,12.252656,0.857974,0.246411,0.627737
4533802633,6.209563,4.580047,9.487038,0.721981,0.237958,0.676888
4533822678,0.352401,4.279884,6.842971,0.616599,0.175206,0.631387
4533842722,0.645745,-5.099777,6.514385,0.589345,0.173561,0.624829
4533862767,-8.292941,-12.304203,8.540014,0.602568,0.153348,0.617991
4533882812,-12.600954,-16.115782,9.094692,0.635060,0.159429,0.631106
4533902857,-15.130642,-16.167450,7.659042,0.708689,0.135675,0.587683
