Timestamp (us),Gyroscope X (deg/s),Gyroscope Y (deg/s),Gyroscope Z (deg/s),Accelerometer X (g),Accelerometer Y (g),Accelerometer Z (g)
2570496990,-0.123005,-0.692506,0.523611,1.000809,-0.018046,0.008766
2570517058,0.045183,-0.676273,0.249597,1.000996,-0.017967,0.007948
2570537093,-0.054768,-0.365406,0.036017,1.003568,-0.017377,0.004324
2570557145,-0.405939,-0.070894,0.080509,1.003650,-0.017535,0.005963
2570577197,-0.321674,0.043111,0.004063,1.001650,-0.020259,0.006343
2570597249,-0.274719,-0.152751,0.194111,1.001013,-0.021165,0.006622
2570617301,-0.136497,-0.430391,0.451895,1.002095,-0.021136,0.008538
2570637353,0.070579,-0.701068,0.444003,1.003823,-0.020490,0.008997
2570657405,0.418769,-0.326614,0.244719,1.003277,-0.017154,0.007228
2570677457,0.547176,-0.520190,0.539921,1.002663,-0.020371,0.004716
2570697509,0.377191,-0.299697,0.598327,1.001359,-0.013271,0.005897
2570717561,0.009326,0.168021,0.459173,1.000378,-0.012333,0.001698
2570737613,0.139054,0.264899,0.154767,1.001009,-0.015293,0.004282
2570757665,0.573126,-0.072802,0.359945,1.000166,-0.013076,0.006977
2570777717,-0.141347,-0.478539,0.466596,1.003726,-0.016146,0.007765
2570797769,-0.385749,-0.310222,0.760192,1.004745,-0.018258,0.006070
2570817820,-0.082412,0.101267,0.612815,1.005570,-0.016822,0.004696
2570837873,0.016480,0.056742,0.732591,0.998346,-0.018409,0.009207
2570857924,-0.477105,-0.113090,0.784519,0.998073,-0.016155,0.007997
2570877976,-0.484027,0.008594,0.789637,1.001921,-0.018630,0.005872
2570898028,-0.338615,0.084865,0.719276,0.999993,-0.020856,0.009338
2570918080,-0.229862,-0.052776,0.468026,0.999444,-0.022205,0.010440
2570938133,-0.275007,-0.172824,0.686907,1.002733,-0.021315,0.008635
2570958184,-0.244561,0.031739,0.555738,1.002093,-0.020859,0.008807
2570978236,0.166268,0.275495,0.303485,1.000679,-0.024758,0.003208
2570998290,0.788752,0.421956,0.173374,1.001931,-0.021991,0.005911
2571018342,0.636229,0.116693,0.174097,0.999825,-0.022606,0.007721
2571038394,0.535889,0.070435,0.204026,1.000362,-0.018160,0.007219
2571058446,0.465967,0.197442,0.006284,1.002259,-0.016580,0.009395
2571078497,0.336457,0.051746,-0.038648,1.003536,-0.016397,0.009311
2571098549,0.176042,0.005366,-0.000517,1.002446,-0.016500,0.008669
2571118602,0.054853,-0.110182,-0.151405,1.001715,-0.015956,0.008657
2571138653,0.001785,-0.140776,-0.173625,1.001087,-0.018689,0.008230
2571158705,0.123966,-0.215945,-0.271431,1.000277,-0.019709,0.006964
2571178757,-0.469544,-0.166834,-0.361490,1.003180,-0.016420,0.007764
2571198809,-1.170139,0.239095,-0.285985,1.001620,-0.010715,0.006687
2571218861,-2.015006,0.856891,0.053633,1.001030,-0.008577,-0.002612
2571238913,-2.007682,1.579771,0.777808,1.014820,-0.010498,-0.005673
2571258965,-1.332003,1.044133,1.224069,1.007188,-0.015270,-0.007853
2571279017,-0.283443,-1.397988,1.690788,0.995018,-0.031284,-0.007572
2571299082,-0.164293,-0.794092,1.691843,0.990548,-0.040259,-0.018315
2571319120,0.414196,-0.099532,0.284192,0.999180,-0.043238,-0.011858
2571339172,0.833736,2.194100,-2.117174,1.021959,-0.046858,-0.008019
2571359224,1.686735,4.208403,-3.517226,1.017992,-0.038094,-0.004422
2571379276,3.588520,4.853526,-4.308326,1.009811,-0.030009,0.003151
2571399328,3.803184,5.338623,-5.848602,1.000221,-0.012177,0.012693
2571419379,2.553446,4.947892,-7.514188,0.991687,-0.009984,0.021241
2571439431,0.560065,4.880232,-7.748205,0.988422,-0.002365,0.014495
2571459483,-0.460052,5.919907,-6.758587,0.999645,-0.008048,0.015640
2571479535,-0.034392,7.322567,-6.286095,1.011124,-0.020724,0.023321
2571499587,0.499650,8.369035,-5.827571,1.010943,-0.025238,0.025371
2571519639,1.191639,8.262712,-5.349973,1.014071,-0.013624,0.030166
2571539691,1.597026,8.065578,-5.728384,1.023583,-0.014399,0.025335
2571559743,2.211694,7.598145,-7.045727,1.014890,-0.015333,0.031283
2571579795,3.756341,6.728528,-8.096745,1.007319,-0.022105,0.035397
2571599847,5.759958,6.429889,-8.172208,0.999931,-0.024907,0.037558
2571619899,6.991202,6.472437,-7.520996,0.992576,-0.012056,0.041538
2571639951,7.092590,6.695710,-5.937799,0.982424,0.025029,0.044218
2571660003,8.225953,6.187568,-4.632863,0.984987,0.030333,0.039812
2571680055,9.272705,4.909900,-3.673878,0.994063,0.029817,0.046881
2571700107,9.230314,3.506771,-2.221448,0.980958,0.003211,0.056366
2571720159,10.276333,1.345983,0.741425,0.972019,-0.000135,0.058795
2571740211,11.276731,0.838177,3.433355,0.983770,0.010468,0.055120
2571760263,12.686732,0.868973,5.638231,0.994660,0.028114,0.054812
2571780316,12.647814,1.088298,5.546541,1.001613,0.044889,0.057757
2571800368,11.626717,0.773342,3.622929,1.005880,0.043859,0.061344
2571820420,9.195295,0.746923,1.964080,1.013290,0.040747,0.058615
2571840472,4.875108,-0.016639,2.134961,1.004168,0.036731,0.045964
2571860524,3.226604,-0.327764,1.462083,0.991002,0.018352,0.046174
2571880576,-0.524572,-2.905025,-0.035935,0.971738,0.034744,0.058208
2571900628,-1.360975,-3.130118,0.048502,0.984887,0.017684,0.032051
2571920680,0.549345,-5.737918,2.262295,1.002740,0.011896,0.037607
2571940732,-0.029450,-6.768335,4.380578,0.997948,0.036998,0.033738
2571960784,-1.411088,-7.731260,4.801222,0.992383,0.053686,0.026144
2571980836,-3.350075,-8.138743,4.795727,0.993937,0.053951,0.025334
2572000888,-5.436783,-7.909692,4.757773,1.003199,0.042383,0.021898
2572020940,-7.384432,-6.841247,5.254984,0.999275,0.030887,0.012733
2572040992,-9.199212,-6.042877,4.926973,0.996387,0.039291,0.003527
2572061044,-11.683136,-5.093063,4.030253,1.001458,0.040467,0.008820
2572081094,-13.727301,-4.507226,1.550632,0.992679,0.038618,0.014323
2572101146,-16.217457,-3.553323,0.108215,1.013473,0.041891,0.011252
2572121198,-21.468624,-1.460367,1.558001,1.043028,0.044477,0.022429
2572141250,-28.480642,1.414734,2.460024,1.029259,0.051982,0.034786
2572161302,-35.395546,3.413978,2.819346,1.022942,0.072783,0.029048
2572181354,-40.941544,5.590050,3.314001,1.015686,0.066181,0.025892
2572201406,-47.094448,7.352256,3.817873,1.001727,0.062709,0.013927
2572221458,-54.040703,7.895060,4.394435,0.989056,0.065477,0.012442
2572241510,-61.056419,7.206325,4.778214,0.999570,0.070699,0.020272
2572261562,-67.506653,6.155880,5.003881,1.012391,0.081272,0.020604
2572281614,-73.426430,5.467149,5.455486,1.011636,0.091887,0.019658
2572301666,-78.549049,5.283614,5.738333,0.986733,0.079109,0.013085
2572321718,-84.126060,4.821458,5.650931,0.981823,0.055211,0.007238
2572341771,-89.607635,4.953509,5.788816,0.989734,0.038369,0.003672
2572361822,-94.431732,4.760345,5.442539,0.991015,0.027443,0.008170
2572381874,-98.144760,4.650021,5.042535,0.993274,0.022175,0.014336
2572401926,-100.209633,4.098144,3.946211,1.002335,0.010471,0.014081
2572421988,-102.967949,3.656137,2.933119,1.017810,-0.012303,0.013909
2572442030,-108.511917,3.851398,3.525546,1.012214,-0.013894,0.005072
2572462082,-113.829941,1.489631,4.103968,1.003761,-0.004993,-0.019357
2572482134,-114.801598,-0.056563,3.109214,0.961516,0.002720,-0.032651
2572502185,-114.412277,-2.523686,1.541156,0.945783,0.008098,-0.041823
2572522237,-113.461693,-3.482383,-2.169562,1.010389,-0.008807,-0.090519
2572542291,-116.092178,-0.676484,-5.922315,1.078079,-0.006152,-0.099522
2572562343,-120.117928,4.210390,-6.907852,1.088708,-0.001877,-0.126398
2572582395,-118.559105,7.947596,-10.581912,1.082924,-0.052482,-0.125399
2572602447,-110.692543,8.477736,-18.893030,1.020302,-0.147455,-0.079392
2572622499,-101.879494,6.645360,-23.626652,0.952544,-0.224231,-0.037177
2572642551,-94.973297,5.113709,-24.465054,0.934835,-0.239061,-0.010320
2572662603,-88.974052,3.316480,-24.347281,0.933469,-0.168996,0.016488
2572682655,-85.803497,1.418791,-25.183113,0.957561,-0.086208,0.033242
2572702707,-86.777420,1.209040,-24.931946,0.996595,-0.034929,0.036106
2572722759,-90.630882,2.294630,-23.357914,1.024720,-0.028264,0.040500
2572742811,-95.979782,2.603072,-21.879208,1.045243,-0.032936,0.040972
2572762863,-98.487404,2.040000,-19.496597,1.011028,-0.033897,0.061735
2572802967,-95.756081,0.733247,-10.496825,0.989203,-0.002088,0.021041
2572823018,-84.217392,-1.791739,-11.136377,0.957640,-0.025489,-0.041532
2572843069,-73.503212,-5.324634,-11.840378,1.062615,-0.024477,-0.018532
2572863121,-68.371155,-3.630980,-9.839586,1.080169,0.016748,-0.016522
2572883173,-65.000885,-4.279743,-7.875580,1.053482,0.062307,0.003211
2572903225,-63.057327,-2.327813,-3.760034,1.043488,0.137894,-0.040360
2572923277,-66.585648,0.778173,3.619982,0.984114,0.245469,-0.011943
2572943329,-70.945869,-1.957034,11.361471,0.925360,0.311742,-0.006492
2572963381,-69.735138,-3.975049,15.119585,0.872105,0.247398,-0.018667
2572983433,-63.077431,-8.109309,12.357601,0.834726,0.085678,0.000117
2573003485,-61.198215,-3.348267,9.384744,0.984424,-0.143169,0.035909
2573023537,-64.118919,10.450550,8.337795,1.052017,-0.169782,0.057963
2573043589,-71.206070,18.601545,10.457035,1.078907,-0.031166,0.051642
2573083693,-99.619987,21.864719,-2.345119,1.110153,0.278621,0.025375
2573103744,-114.459480,18.794682,-12.651885,1.012527,0.185738,0.038482
2573123797,-120.132164,15.504246,-8.508028,1.009772,0.106675,0.050374
2573143849,-122.428146,13.918489,2.381623,0.985138,0.065811,0.042947
2573163900,-125.925247,12.392522,9.572956,0.956784,0.023043,0.049058
2573183952,-131.697510,11.273869,12.708942,0.924119,-0.021117,0.060244
2573204005,-137.541718,9.803408,11.920265,0.923675,-0.039280,0.067267
2573224056,-143.835022,7.681551,9.436303,0.955501,-0.037699,0.064930
2573244108,-152.583633,3.353487,9.954491,0.968004,0.015060,0.067407
2573264160,-160.605499,-0.739136,14.526356,1.020445,0.059201,0.026279
2573284214,-162.702286,-0.725537,18.831890,1.042400,0.088167,-0.016617
2573304266,-160.972778,1.073366,26.570782,1.020125,0.172557,-0.084551
2573324318,-163.448563,4.998745,25.603172,0.989046,0.179208,-0.135926
2573345125,-168.475357,4.104218,16.626949,0.949226,0.071044,-0.209663
2573365178,-173.598969,8.921832,-1.327247,0.929697,0.012666,-0.254750
2573385229,-182.701080,6.497524,-15.086673,0.983507,-0.125277,-0.251954
2573405282,-179.036774,5.839368,-20.891171,1.047237,-0.232469,-0.183825
2573425333,-166.491852,2.908748,-24.280838,1.042280,-0.345310,-0.106211
2573445385,-154.673859,1.179031,-31.486601,1.009216,-0.353014,-0.029559
2573465437,-142.578857,-4.433290,-32.305180,0.998902,-0.314818,0.000190
2573485489,-134.269608,-7.649214,-30.826694,0.986380,-0.259516,-0.006355
2573505541,-128.665436,-8.419883,-30.037792,0.979489,-0.216331,-0.003268
2573525593,-125.641075,-11.012094,-28.908232,1.014691,-0.183896,-0.021571
2573545645,-125.232979,-9.671335,-27.404781,1.011735,-0.159039,-0.042874
2573565697,-126.199883,-9.081085,-25.511736,0.979883,-0.081850,-0.059898
2573585754,-127.300278,-11.031088,-23.011154,0.993522,-0.033338,-0.062362
2573605799,-126.483688,-11.874475,-25.160959,0.984264,-0.049093,-0.108233
2573625852,-120.524765,-12.654076,-26.145624,1.003759,-0.082214,-0.089171
2573645903,-117.221214,-12.363063,-20.774303,1.049602,-0.096570,-0.064323
2573665955,-115.122421,-11.216255,-13.290977,1.084012,-0.092854,-0.057487
2573686007,-117.371284,-5.273170,-2.791076,1.114569,-0.011980,-0.023035
2573726111,-118.869019,-5.527920,8.859184,0.953786,0.209329,-0.107987
2573746163,-120.692238,-5.447484,10.254072,0.938381,0.138975,-0.088650
2573766215,-121.395424,-3.949409,17.358217,0.996610,0.039718,-0.081454
2573786267,-119.587898,0.286171,22.580050,1.005069,0.012589,-0.080171
2573806320,-116.022064,3.644736,26.561338,0.972071,0.026893,-0.072300
2573826371,-108.976746,5.407789,30.349855,0.914882,0.007631,-0.089024
2573846423,-101.512329,5.403326,25.542196,0.947888,-0.076425,-0.063187
2573866475,-99.438248,9.592360,15.969971,1.043301,-0.155686,-0.048415
2573886527,-101.474976,13.189449,10.668179,1.094189,-0.138838,-0.059882
2573906579,-106.767517,14.957023,5.146459,1.114010,-0.101060,-0.038639
2573926631,-114.261253,15.637680,-0.704217,1.077851,-0.000384,-0.032518
2573946683,-119.352341,14.368223,-1.698483,0.983549,0.047767,-0.050103
2573966735,-125.047050,12.028071,0.282104,0.965159,0.015921,-0.069677
2573986787,-130.997955,10.118440,3.375403,0.981933,-0.037217,-0.058582
2574006839,-137.443924,8.183806,6.628121,0.956715,-0.066947,-0.049692
2574026891,-140.484116,6.788183,7.566206,0.929302,-0.109785,-0.048664
2574046944,-143.110596,8.271927,4.818430,0.979854,-0.175192,-0.023827
2574066996,-149.986038,8.498500,2.144685,1.088930,-0.127408,0.022744
2574087048,-161.082825,13.349466,9.968497,0.943610,0.041655,-0.045680
2574107100,-176.781479,15.137074,13.545101,1.001116,0.183451,-0.190874
2574127152,-189.036118,13.707426,4.254938,1.065971,0.144928,-0.271129
2574147204,-188.611816,11.357359,-5.225967,1.067982,0.003588,-0.294744
2574167256,-181.821655,12.735206,-8.044886,1.027966,-0.189989,-0.292333
2574187308,-169.699600,12.541569,-9.177729,0.967932,-0.320857,-0.234441
2574207360,-155.174347,14.033442,-12.765223,0.925153,-0.363723,-0.162632
2574227412,-141.963181,14.846642,-19.063187,0.906785,-0.373141,-0.119301
2574247464,-131.384399,13.461213,-24.572018,0.901516,-0.350488,-0.071704
2574267516,-125.305511,11.104834,-27.711296,0.941709,-0.278637,-0.027899
2574287568,-121.542709,8.644679,-26.870449,0.998384,-0.213782,0.006924
2574307620,-119.595818,5.530795,-23.093658,1.034491,-0.151892,0.021732
2574327672,-119.749313,4.258019,-20.125847,1.047885,-0.100345,0.028229
2574347723,-120.355042,4.058425,-15.062203,1.047501,-0.092849,0.012326
2574367774,-118.597145,2.237195,-8.371902,0.991274,-0.105693,-0.000466
2574387826,-117.280815,-0.516325,-5.778451,0.937113,-0.130216,-0.049008
2574407878,-112.111275,-2.697408,-7.872117,0.996114,-0.134136,-0.065449
2574427930,-108.436455,-1.900964,-5.784355,1.085136,-0.063976,-0.045908
2574447982,-104.511581,1.063256,-4.499942,0.979049,-0.061431,-0.067775
2574468034,-94.599304,-0.469984,-5.096867,0.926926,-0.085598,-0.059685
2574488086,-85.507828,-0.666064,0.099790,0.947720,-0.061548,-0.026461
2574508138,-80.642212,2.169391,2.854636,0.966458,-0.031184,-0.034496
2574528190,-74.727448,6.567103,3.072359,1.082359,-0.059925,-0.009802
2574548242,-74.956718,9.687182,3.289056,1.130913,-0.088470,0.026317
2574568294,-82.228172,11.261228,4.006179,1.090965,0.011473,0.026150
2574588346,-91.151672,13.657621,3.220414,1.022905,0.114034,-0.047500
2574608398,-99.070206,9.495308,0.289315,0.953010,0.092121,-0.057013
2574628450,-102.832947,3.321190,-4.531047,0.953007,0.020690,-0.051914
2574648502,-104.126610,4.500432,-3.996552,1.033381,-0.048056,-0.042915
2574668554,-106.168213,10.294518,3.146313,1.053188,-0.070948,-0.020152
2574688605,-110.683350,12.157960,5.953266,0.988333,-0.077509,0.020453
2574708657,-118.143211,11.439216,4.457721,0.935325,-0.060616,0.034605
2574728709,-124.230858,6.637589,4.173240,0.907730,-0.011177,0.020659
2574748761,-126.511047,0.612038,5.687855,0.942145,0.008006,0.003413
2574768813,-130.860718,2.897740,5.476871,0.943141,0.025731,-0.066493
2574788865,-139.745712,0.112026,2.738420,0.992228,-0.037449,-0.057325
2574808919,-138.984314,0.847479,4.198358,0.960131,-0.083191,-0.048935
2574828970,-138.578720,-2.308437,6.528251,1.010932,-0.076779,-0.040287
2574849023,-143.724274,0.942390,6.094429,1.103569,-0.068516,-0.093257
2574869075,-143.412094,3.838550,6.357183,1.092197,-0.151662,-0.118005
2574909178,-128.129028,4.117970,-2.448301,0.970205,-0.279181,-0.083312
2574929230,-120.976364,0.087883,-8.447032,0.931377,-0.347307,-0.050626
2574949282,-113.630447,-3.011107,-11.478087,0.939466,-0.303811,-0.021626
2574969334,-107.260895,-5.672940,-11.607566,0.990588,-0.212643,-0.001233
2574989386,-104.857544,-5.172524,-11.792028,1.017251,-0.161817,-0.002723
2575009438,-104.746124,-4.782607,-11.475094,1.007744,-0.125058,-0.016667
2575029490,-105.078606,-4.509653,-9.990442,1.004510,-0.093656,-0.024960
2575049542,-104.156464,-4.618894,-10.210177,0.999689,-0.088189,-0.029511
2575069594,-102.818054,-5.158136,-11.626055,0.976959,-0.116263,-0.025984
2575089646,-100.651779,-6.456029,-13.812658,0.961337,-0.166638,-0.026421
2575109696,-99.494034,-8.564788,-15.927906,0.942950,-0.165624,-0.016202
2575129748,-99.994461,-8.685297,-16.457842,0.967081,-0.150930,-0.034378
2575149800,-97.432564,-9.331662,-16.873354,1.007084,-0.126760,-0.027649
2575169852,-99.260239,-10.304953,-17.627256,1.033509,-0.095778,-0.025366
2575209956,-92.956253,-6.177495,-11.345572,1.027990,-0.029002,-0.050262
2575230008,-87.968018,-3.950724,-7.732251,0.997903,-0.013907,-0.057467
2575250060,-84.946922,-5.189056,-5.000617,1.009935,0.029197,-0.063061
2575270112,-86.031036,-0.569355,-0.870466,1.054346,0.061183,-0.050392
2575290164,-90.750237,2.263398,11.338704,1.117158,-0.011599,-0.060556
2575330268,-74.988014,13.880422,7.321781,1.045029,-0.046964,-0.102101
2575350320,-63.319855,18.674599,4.269593,1.027063,-0.048109,-0.115939
2575370372,-62.928467,27.509901,3.632694,0.975413,-0.073992,-0.094375
2575390424,-63.714436,33.084709,2.439021,1.056326,-0.115884,-0.081865
2575410476,-59.175812,36.959969,-2.888771,1.071803,-0.138303,-0.082677
2575430528,-52.745495,36.994690,-5.240619,0.990440,-0.153853,-0.051901
2575450580,-44.738018,33.095284,-3.486825,0.942959,-0.129482,-0.004714
2575470632,-38.858639,30.928705,-0.434678,0.986857,-0.082433,0.025862
2575490684,-33.324165,30.213028,0.717852,1.018376,-0.079005,0.012868
2575510736,-30.108488,29.812902,0.149683,0.998251,-0.126996,0.001829
2575530788,-27.035175,26.137045,-0.854307,0.963591,-0.162164,0.006716
2575550841,-19.944124,20.019617,0.452713,0.942881,-0.156939,0.006782
2575570893,-10.748450,15.781120,2.578627,0.926302,-0.150021,0.016672
2575590945,-2.874949,13.871793,2.241396,0.980068,-0.147737,0.034749
2575610997,3.688915,15.644225,0.823305,1.045068,-0.133222,0.074304
2575631049,8.589003,19.399963,0.217488,1.099066,-0.102693,0.085240
2575651101,9.814483,22.714773,-0.286995,1.056664,-0.096304,0.068234
2575671153,11.631095,21.919443,-0.678997,1.007807,-0.092587,0.049667
2575691205,14.816177,19.933584,-1.067375,0.972850,-0.064921,0.058279
2575711257,18.235146,17.841824,-0.439889,0.968852,-0.035113,0.072174
2575731310,22.211241,17.028561,0.099627,0.983342,-0.032192,0.102871
2575751361,24.235329,17.215773,-0.000253,1.003659,-0.045200,0.111436
2575771413,24.413706,16.151478,0.783984,0.980701,-0.031895,0.117754
2575791465,23.653133,13.258201,0.240956,0.930379,0.000329,0.117024
2575811517,25.203449,9.214049,0.193717,0.916502,0.051446,0.110336
2575831569,30.121645,7.627700,-0.037486,0.920587,0.082108,0.144728
2575851619,27.177050,2.341963,-2.087297,0.901621,0.074897,0.164490
2575871671,21.172459,-6.127827,-3.867380,0.898889,0.081921,0.160481
2575891723,18.065063,-16.600098,-3.572521,0.875316,0.064557,0.131432
2575911775,18.447710,-24.254707,-4.304175,0.864817,0.026020,0.106537
2575931827,23.571938,-35.348923,-4.025213,0.895844,0.001279,0.035881
2575951879,26.295380,-40.958591,-4.340312,0.954258,-0.006451,-0.018419
2575971931,29.800802,-44.961220,-1.053637,0.887325,-0.069451,-0.061788
2575991983,31.861990,-42.477341,6.614566,1.078611,0.018838,-0.016285
2576012035,18.445646,-23.826809,10.496055,1.431926,0.146064,0.020556
2576032087,-4.538624,-1.099444,12.282633,1.441779,0.238812,0.081809
2576052139,-21.492373,12.311781,13.667200,1.236299,0.195138,0.102670
2576072191,-26.926607,17.775196,11.672170,1.066147,0.062277,0.082188
2576092243,-23.197252,17.789375,8.866600,0.941823,-0.021431,0.041832
2576112295,-16.457394,19.095741,7.995738,0.845886,-0.083660,0.031602
2576132347,-10.450527,23.496113,4.946889,0.835941,-0.108433,0.060811
2576152399,-5.588009,29.537663,-0.297534,0.906863,-0.060297,0.099746
2576172451,-1.757961,34.313473,-4.150284,0.986834,-0.015367,0.167411
2576192503,-0.528837,37.626907,-6.072030,1.028116,-0.037004,0.243116
2576212555,-1.017756,37.084515,-7.297781,1.094983,-0.024526,0.260532
2576232607,-4.983002,41.282833,-6.787910,1.132590,0.032550,0.224056
2576252659,-4.245681,43.689522,-5.136670,1.078263,0.009861,0.234204
2576272711,-0.819601,41.193745,2.404214,1.001405,-0.068098,0.258555
2576292765,4.066527,38.808735,4.358514,0.893158,-0.112227,0.270749
2576312816,6.929106,34.342159,0.992688,0.800210,-0.053409,0.281133
2576332868,7.794432,27.620420,-2.773932,0.792965,0.014407,0.316833
2576352920,5.291012,21.082361,-5.228846,0.839270,0.056747,0.296949
2576372972,3.153793,22.117811,-4.951244,0.935233,0.046893,0.292018
2576393024,1.471633,24.502256,-0.722234,0.966836,0.004106,0.287557
2576413076,2.435431,25.689051,1.069552,0.901370,-0.004094,0.308818
2576433128,6.716168,23.471416,1.310642,0.864518,0.000117,0.310326
2576453180,8.546610,19.012812,2.659262,0.918958,0.026544,0.294683
2576473232,6.973064,10.929362,-0.230232,0.982083,0.005066,0.314374
2576493284,5.170035,-0.763175,-4.554790,0.957120,-0.056141,0.326720
2576513336,5.521700,-11.217127,-8.528158,0.952260,-0.053598,0.314659
2576533388,7.055352,-18.084732,-8.451979,0.958543,0.004933,0.302302
2576553440,9.562549,-20.745270,-4.396525,0.930638,0.040075,0.286066
2576573492,11.587780,-23.253048,0.302782,0.881530,0.048415,0.292347
2576593542,9.770861,-23.859312,3.541722,0.860016,0.030245,0.270138
2576613594,11.573752,-25.880770,4.950163,0.861560,0.009204,0.266211
2576633646,9.851750,-33.284821,5.196069,0.850033,-0.008215,0.250608
2576653698,7.281992,-38.449089,5.154133,0.875200,-0.037070,0.217402
2576673750,3.482706,-39.536201,7.637527,1.040666,-0.029122,0.182130
2576693802,-3.709153,-33.864517,1.989337,1.129780,0.090527,0.161382
2576713854,-8.506095,-28.650393,-1.664850,1.190413,0.149899,0.161398
2576733906,-11.751976,-21.078608,-6.252337,1.146020,0.088547,0.160157
2576753958,-11.564676,-14.752189,-14.429160,1.038388,0.002859,0.150479
2576774010,-10.024242,-12.139432,-20.615555,0.951095,-0.042260,0.134569
2576794062,-8.584791,-12.522044,-20.182741,0.933541,-0.022653,0.148850
2576814113,-7.555029,-12.963439,-14.232098,0.955209,0.010563,0.168432
2576834166,-6.985508,-12.360726,-5.973310,0.964060,0.044381,0.181190
2576854218,-6.764647,-13.072340,1.297286,0.973656,0.061616,0.184149
2576874269,-6.278377,-13.633375,5.702423,0.972262,0.081433,0.178729
2576894322,-5.353699,-13.940164,7.848001,0.984113,0.044796,0.181691
2576914374,-6.419556,-12.473164,8.032793,1.013794,0.004678,0.192727
2576934425,-6.906378,-9.800266,8.630070,1.041351,-0.012786,0.212665
2576954477,-7.891749,-8.872263,11.128274,1.031927,0.006711,0.224278
2576974529,-9.562855,-9.971516,11.898121,1.012841,0.069937,0.213777
2576994582,-15.230895,-14.116753,12.929970,0.948355,0.060764,0.223969
2577014633,-15.131763,-18.180761,14.838679,0.890361,0.024193,0.197715
2577034685,-10.732538,-21.304472,18.129589,0.884214,0.057190,0.218920
2577054739,-11.302266,-18.851597,18.833759,0.946754,0.019125,0.222349
2577074791,-5.727562,-13.805113,1.996712,0.949242,-0.026740,0.178455
2577094843,5.023835,-7.920657,-13.738508,1.057457,-0.060119,0.210418
2577114895,11.421401,3.355813,-16.310978,1.112947,-0.116014,0.289983
2577134947,9.710622,8.408567,-9.089885,1.092096,-0.065922,0.276168
2577154999,8.026478,8.064562,-1.744099,1.000882,0.033285,0.219388
2577175051,8.268019,5.131760,-1.173235,0.917022,0.127196,0.217161
2577195103,8.836955,1.447365,-2.138424,0.991119,0.080222,0.243950
2577215164,5.471948,2.157963,-0.343482,1.040177,-0.006447,0.300832
2577235207,1.808592,5.997079,1.872786,1.018111,-0.020379,0.308471
2577255258,-1.515086,9.658222,-0.382038,0.960136,0.014073,0.305843
2577275310,-2.524579,11.391953,-4.881980,0.924893,0.021986,0.279963
2577295362,-1.784251,12.966747,-8.715040,0.921324,0.004250,0.259967
2577315414,0.896367,15.121914,-10.421091,0.951992,-0.009162,0.244889
2577335479,4.236519,19.166315,-11.785253,0.971590,-0.009269,0.183228
2577355517,5.965480,21.851770,-11.491952,0.975124,0.039326,0.162605
2577375569,7.422985,20.284992,-9.857588,0.997478,0.090600,0.180529
2577395621,8.055653,16.470186,-8.707820,1.012024,0.116158,0.205784
2577415673,4.799409,12.635872,-7.821888,1.008586,0.103353,0.238626
2577435725,-2.096205,10.879633,-4.706049,1.009393,0.101624,0.257465
2577455777,-9.136377,10.258255,-0.858911,0.977040,0.124339,0.275331
2577475829,-14.086988,7.687487,2.296948,0.924235,0.109747,0.286032
2577495881,-16.189020,2.690086,6.536383,0.900023,0.101473,0.314857
2577515932,-14.990625,-1.145953,9.739923,0.903503,0.068345,0.297634
2577535984,-11.141005,-5.401477,9.904818,0.876293,0.022751,0.296514
2577556036,-5.519961,-11.252296,8.081325,0.861668,-0.025440,0.296151
2577576089,-0.630177,-17.136578,6.523465,0.884635,-0.041832,0.289959
2577596140,2.632827,-22.455635,5.987388,0.903346,-0.035710,0.283114
2577616193,2.602268,-27.423265,6.800306,0.913540,-0.016110,0.260602
2577636244,4.174870,-31.540930,7.109524,0.906923,-0.030098,0.229998
2577656296,6.927274,-35.939415,5.016767,0.909150,-0.049792,0.186435
2577676348,11.004395,-37.034222,-0.634791,0.955510,-0.096112,0.154854
2577696400,17.709763,-36.550285,-4.261548,1.049755,-0.065329,0.158256
2577716452,19.043041,-29.548857,-0.557293,1.059225,0.028403,0.129064
2577736504,19.678854,-25.637091,5.090486,1.076827,0.040099,0.137415
2577756556,18.669931,-20.478292,5.565695,1.167409,0.006555,0.160440
2577776608,16.864653,-12.354858,5.076019,1.086821,0.013049,0.156794
2577796661,14.342473,-9.455359,6.393229,1.048190,0.035864,0.157074
2577816714,9.098651,-6.746768,6.749521,1.043754,0.052959,0.158753
2577836765,4.776686,-2.684369,4.152612,1.006339,0.055184,0.148465
2577856818,3.244801,1.427069,2.820242,0.975829,0.034074,0.138223
2577876869,3.771790,5.167916,0.783586,0.974579,0.024717,0.138504
2577896921,4.573120,7.818807,-2.219518,1.021076,0.030985,0.150394
2577916973,3.805245,12.258260,-5.288867,1.063097,0.053452,0.171245
2577937025,1.608209,18.730843,-7.114193,1.036995,0.072733,0.151115
2577957077,-0.790607,21.001282,-8.151915,1.017466,0.056317,0.162527
2577977129,-3.720664,20.891081,-8.142929,1.045791,0.002588,0.194159
2577997181,-7.243728,24.108171,-5.992779,1.064600,-0.002983,0.176453
2578017233,-9.251995,28.148478,-2.489361,1.026141,0.014351,0.181069
2578037285,-6.857450,32.224567,-0.276032,1.017030,-0.055559,0.230619
2578057337,-4.172994,37.789345,1.750171,1.096977,-0.099062,0.315303
2578077389,-3.262322,44.509144,4.576385,1.112203,-0.018814,0.352835
2578097440,1.951335,43.618053,3.539313,1.056716,0.063018,0.352949
2578117492,10.437302,39.492184,0.215817,0.971057,0.090001,0.302225
2578137544,17.915447,36.450710,-1.064743,0.848679,0.036213,0.257173
2578157596,21.101007,33.826256,-0.397446,0.785189,-0.008783,0.239794
2578177648,22.495245,31.758837,0.170033,0.722952,-0.000109,0.246069
2578197700,26.349899,26.493668,0.338405,0.699003,-0.000639,0.257175
2578217752,33.751106,19.306990,1.512579,0.798406,0.019424,0.272643
2578237803,40.812954,12.533903,3.610080,0.908465,0.005162,0.306943
2578257855,45.517395,7.138460,5.104921,0.989786,-0.024656,0.305956
2578277907,47.576508,3.531881,1.706097,1.011085,-0.046941,0.307274
2578297959,47.243069,0.620676,-2.103549,1.002941,-0.095589,0.305689
2578318011,43.636879,-1.248031,-2.156479,0.957799,-0.107830,0.314418
2578338063,35.606525,-3.996191,0.144647,0.926566,-0.029110,0.315557
2578358115,28.466291,-6.025026,1.230350,0.938982,0.027400,0.268731
2578378167,30.124617,-6.859104,3.271384,0.967154,-0.008283,0.208542
2578398219,39.083897,0.194332,7.313842,0.915438,-0.029574,0.207967
2578418271,59.886929,-4.417208,10.475295,0.836828,-0.066894,0.215294
2578438323,69.351349,-10.361630,9.082778,0.991108,-0.126374,0.193628
2578458375,66.586655,-5.063325,14.211601,1.179539,-0.049444,0.156357
2578478427,59.981575,1.910826,20.601677,1.238922,0.021462,0.130691
2578498479,50.683968,1.825325,25.084393,1.215723,0.113460,0.169906
2578518531,38.070381,2.480048,29.997721,0.970618,0.257013,0.169415
2578538583,28.152514,0.094399,25.568144,0.772025,0.248388,0.117484
2578558636,24.279789,-8.010469,22.868999,0.846742,0.027252,0.125663
2578578688,21.988409,-2.322163,20.773569,1.024378,-0.146164,0.157739
2578598740,18.742846,8.848121,14.991364,1.096951,-0.165905,0.151121
2578618792,16.198231,13.130593,4.564012,1.003108,-0.149131,0.195158
2578638844,14.300182,10.557253,-4.210468,0.933778,-0.140050,0.275812
2578658896,9.028311,9.428393,-9.184108,1.002993,-0.096398,0.312697
2578678948,2.914904,9.275053,-5.513223,1.094256,0.013205,0.287991
2578699000,0.568809,14.636201,-0.483289,1.106327,0.118052,0.260507
2578719052,-2.909710,22.108030,-0.242554,0.995211,0.139426,0.247293
2578739104,-8.049090,27.357201,-4.002848,0.921546,0.102736,0.266190
2578759155,-15.466606,31.176037,-7.098045,0.900620,0.098788,0.292081
2578779207,-21.831694,33.148449,-10.338828,0.889934,0.082573,0.303553
2578799259,-29.123501,34.202763,-12.545385,0.868965,0.103088,0.324616
2578819311,-35.141575,31.809792,-14.967877,0.848328,0.105780,0.344615
2578839362,-36.482170,29.212870,-18.459940,0.842076,0.091136,0.376368
2578859414,-32.487457,26.738039,-18.975756,0.849043,0.089784,0.401608
2578879466,-27.838758,23.447651,-14.691514,0.902322,0.125262,0.377309
2578899518,-23.865774,18.690216,-11.197770,0.951437,0.086462,0.369472
2578919570,-21.757759,11.630377,-12.098814,0.955938,0.025277,0.378755
2578939622,-21.852652,3.817785,-13.307230,0.906429,-0.013106,0.383483
2578959674,-21.788153,-3.366638,-12.592812,0.904197,-0.001819,0.385336
2578979725,-22.601233,-7.492008,-11.039782,0.921638,0.066884,0.377303
2578999777,-25.047550,-8.460635,-8.026742,0.943087,0.139661,0.367706
2579019830,-27.736298,-8.492661,-4.319580,0.948313,0.166706,0.364795
2579039881,-30.776459,-9.149879,-1.868248,0.911395,0.134911,0.364447
2579059933,-31.848961,-10.879600,-1.770964,0.905477,0.085311,0.372249
2579079985,-31.961592,-14.509451,-4.206420,0.891464,0.063977,0.362854
2579100037,-28.489439,-15.516821,-8.615118,0.934920,0.013428,0.315488
2579120089,-25.305790,-13.404972,-10.487933,0.907785,-0.036033,0.272516
2579140141,-27.106609,-14.725700,-6.200641,0.968758,0.018990,0.247772
2579160193,-31.448986,-12.045613,-4.086247,0.961382,0.088792,0.180385
2579180245,-37.309715,-10.528291,-10.175326,0.960446,0.086799,0.123417
2579200297,-40.779938,-9.599937,-18.226164,1.104917,0.118791,0.127433
2579220349,-41.460587,-5.134877,-19.741947,1.208947,0.146226,0.143031
2579240401,-38.245480,2.324540,-17.586033,1.099269,0.109515,0.146859
2579260453,-33.057098,5.769520,-17.213196,0.981535,0.001557,0.176357
2579280505,-28.251476,5.966565,-12.645446,0.944403,-0.080592,0.206582
2579300559,-27.387299,5.414537,-7.209733,0.899369,-0.057391,0.241348
2579320610,-33.121449,2.500056,-3.574941,0.905230,0.061698,0.270730
2579340662,-35.876881,1.154730,-0.984916,0.951634,0.145104,0.244465
2579360715,-37.340599,0.801827,3.533871,0.994387,0.197429,0.250070
2579380766,-44.338661,3.188769,8.848525,0.911838,0.117500,0.219781
2579400818,-42.946392,4.545424,9.449679,0.935876,0.026144,0.270359
2579420870,-37.464363,6.474570,5.128685,1.001754,-0.089736,0.334151
2579440922,-28.172888,6.023962,1.110137,1.051286,-0.231002,0.353132
2579460983,-16.643366,4.215116,-0.320090,0.991870,-0.264558,0.334650
2579481026,-6.082979,0.396478,-2.826843,0.905552,-0.185031,0.292401
2579501078,0.951335,-3.440640,-4.612297,0.882697,-0.038237,0.230011
2579521130,7.741042,-5.915897,-5.682357,0.833930,0.047243,0.217225
2579541182,13.254294,-8.015169,-8.397900,0.820782,0.049376,0.235102
2579561234,15.397646,-6.557238,-12.951048,0.928515,-0.007166,0.267512
2579581305,14.731128,-1.856938,-14.497961,0.986941,-0.040481,0.286125
2579601337,13.558926,4.355483,-17.702120,1.037247,-0.039751,0.304105
2579621389,14.819426,9.226683,-23.017038,1.051607,-0.017199,0.316033
2579641441,19.153423,13.829449,-27.142212,1.029154,-0.013486,0.318648
2579661493,24.910645,15.596127,-28.635790,1.025863,-0.000171,0.329104
2579681544,27.427645,15.131145,-26.740332,0.996752,0.034557,0.347855
2579701596,29.368015,13.191931,-25.673273,0.963949,0.006722,0.312227
2579721648,33.923058,14.870712,-24.225494,0.967126,-0.018615,0.280642
2579741701,40.415051,18.971382,-19.967363,0.955392,-0.014233,0.258332
2579761753,45.763596,20.177963,-12.394437,0.945893,0.003832,0.252330
2579781805,45.443378,18.579506,-3.150067,0.966393,0.116822,0.291429
2579801856,37.485912,14.268461,6.417060,0.961695,0.327314,0.303411
2579821908,24.830219,4.955962,17.473385,0.957411,0.458580,0.315403
2579841960,11.433723,-7.380765,26.471334,0.915329,0.435178,0.305469
2579862012,3.931398,-19.868881,25.872782,0.828675,0.253106,0.248796
2579882064,4.115242,-31.080120,17.582075,0.827589,0.066658,0.216228
2579902116,5.725751,-35.129005,5.954185,0.863503,-0.022143,0.214693
2579922168,9.759628,-34.543041,2.017275,0.921083,-0.024596,0.237760
2579942220,11.255634,-29.939495,3.334785,0.984983,0.049125,0.217638
2579962272,13.384077,-24.602438,5.937968,1.015590,0.109656,0.176074
2579982324,13.110707,-20.283033,6.173285,0.999750,0.131528,0.176799
2580002376,10.908899,-20.622417,7.600070,1.003823,0.141583,0.161262
2580022428,7.560174,-21.181664,11.453279,1.034419,0.138630,0.153333
2580042481,4.396078,-22.587944,13.232709,1.011029,0.111777,0.159840
2580062533,-1.854069,-24.980839,12.257879,0.994628,0.133953,0.162830
2580082585,-14.606186,-26.609898,10.342902,0.955750,0.189079,0.173549
2580102637,-32.480099,-27.206053,8.987002,0.973851,0.189630,0.164765
2580122689,-49.564316,-26.221458,8.277170,0.977148,0.228573,0.142707
2580142741,-61.728416,-25.219460,6.436289,0.979830,0.228397,0.136275
2580162793,-72.361000,-24.286295,4.132794,1.011314,0.205745,0.142213
2580182845,-85.475456,-20.923809,3.186009,1.027709,0.184486,0.139758
2580202906,-94.532082,-18.354204,3.513800,1.017396,0.152565,0.126422
2580222949,-102.572929,-16.356266,3.630994,0.991309,0.121068,0.113423
2580243001,-112.191872,-14.681104,2.362904,0.960930,0.131027,0.096461
2580263053,-121.245415,-14.278451,-0.227317,0.958172,0.131761,0.084618
2580283105,-129.399261,-13.791072,-3.553304,0.976938,0.120339,0.077158
2580303157,-137.294830,-11.909863,-6.429447,1.009501,0.058764,0.073921
2580323207,-144.479797,-10.019534,-7.403551,1.035745,0.020919,0.079180
2580343259,-149.583603,-6.196423,-7.422517,1.040926,-0.018303,0.054768
2580363311,-152.947586,-0.693088,-6.455038,1.033816,-0.005318,0.017032
2580383363,-160.339569,5.177336,-5.699625,1.026568,0.013773,-0.000236
2580403415,-170.364288,9.093971,-7.445192,1.030141,0.021858,-0.007211
2580423467,-181.100525,12.456239,-9.681232,1.094606,0.020218,-0.023912
2580443519,-186.586090,18.615538,-10.829800,1.118228,-0.041993,-0.025751
2580463571,-182.570129,24.400652,-14.936199,1.099234,-0.105959,-0.003879
2580483623,-175.071030,27.400417,-21.307907,1.052588,-0.203607,0.024004
2580503675,-166.996658,25.714079,-26.193350,0.983892,-0.277164,0.069175
2580523727,-159.980804,22.436113,-30.769779,0.945959,-0.268450,0.112793
2580543779,-150.718414,19.005136,-35.452572,0.961251,-0.233638,0.130585
2580563831,-142.624039,16.643389,-37.925591,0.952976,-0.180131,0.131361
2580583883,-136.021683,13.492312,-38.826519,0.951481,-0.126871,0.126462
2580603935,-131.688217,11.411382,-38.631393,0.933773,-0.104032,0.118802
2580623987,-131.776993,9.983582,-39.823914,0.927359,-0.091028,0.133420
2580664091,-130.498413,1.204674,-46.380226,0.962836,-0.071430,0.183522
2580684143,-130.002991,-1.552702,-53.123749,0.981595,-0.129607,0.184964
2580704194,-129.954041,-5.481854,-58.627712,1.016842,-0.155095,0.156971
2580724247,-131.543823,-9.300097,-60.516315,0.987905,-0.097963,0.134747
2580744298,-136.063431,-12.487100,-58.010269,0.950191,-0.044433,0.103323
2580764351,-133.847473,-15.781773,-57.878433,0.952447,-0.096466,0.117665
2580784404,-129.487320,-18.288324,-55.393002,0.970330,-0.173547,0.138042
2580804456,-121.651604,-17.091362,-41.128693,1.064141,-0.155830,0.206575
2580824508,-113.648232,-10.198940,-23.185541,1.137175,-0.059151,0.234239
2580844560,-107.979866,3.730600,-19.658255,1.069244,0.030701,0.129381
2580864612,-99.605446,20.161240,-13.594007,1.142722,0.044244,0.169553
2580884664,-104.061058,14.818110,0.803248,1.107088,0.184038,0.159866
2580904716,-97.205124,15.828106,-0.233371,0.804715,0.305646,0.126505
2580924768,-87.009491,13.359056,-2.638542,0.947947,0.089811,0.139107
2580944820,-78.541283,14.060872,-8.441828,1.043726,-0.136932,0.165041
2580964872,-71.632591,15.173930,-12.434614,0.974791,-0.224893,0.149211
2580984923,-61.301033,12.584506,-11.216675,0.922690,-0.097809,0.155641
2581004976,-45.272728,12.258861,-9.659901,0.886130,-0.011258,0.190734
2581025028,-27.081758,12.871344,-13.238070,0.957234,-0.060581,0.231707
2581045080,-10.464747,15.062914,-17.586605,0.975213,-0.094962,0.245502
2581065144,3.490361,16.222952,-17.845592,0.977327,-0.138379,0.233204
2581085182,16.172712,15.676284,-14.172356,0.973331,-0.183842,0.237792
2581105234,26.381710,10.924263,-5.481649,0.923255,-0.127955,0.214342
2581125286,33.313606,7.285666,2.592473,0.944758,-0.008845,0.172490
2581145338,35.419785,8.485883,4.126128,0.993542,0.039448,0.162007
2581165390,36.471035,10.361576,3.126453,1.058695,0.019869,0.161514
2581185442,34.853256,10.023561,5.363976,1.023618,-0.052291,0.178278
2581205494,36.615284,10.865547,8.225305,1.033529,-0.071991,0.145949
2581225546,39.380169,12.153630,10.963480,1.008237,-0.000193,0.132215
2581245598,41.679684,11.847853,14.245419,0.970566,0.056146,0.138566
2581265650,44.477173,10.656487,15.036755,0.952442,0.087499,0.135530
2581285702,47.717388,9.614941,15.054367,0.993739,0.084652,0.152579
2581305754,49.726173,9.434775,15.698497,0.993601,0.074208,0.165695
2581325806,50.269100,8.434847,16.679436,0.993906,0.089910,0.183692
2581345858,47.682777,7.319043,18.177240,0.983910,0.120523,0.178450
2581365910,43.093277,7.543217,17.556601,0.965405,0.147491,0.180188
2581385962,38.691330,6.373251,14.780699,0.927614,0.141172,0.176085
2581406014,34.964489,2.866512,11.542713,0.913197,0.118708,0.189512
2581426066,31.944319,-0.036635,10.576088,0.932034,0.109037,0.215751
2581446118,29.658682,-2.340771,9.933039,1.013074,0.103816,0.219385
2581466170,24.203671,-5.719457,9.514590,1.007884,0.067133,0.189872
2581486222,19.006033,-10.423929,9.267358,0.956131,0.042734,0.181608
2581506273,15.847081,-15.307024,9.876449,0.942608,0.042650,0.171425
2581526327,13.985240,-19.480766,10.869168,0.978334,0.061325,0.194910
2581546379,12.334285,-21.439322,11.391864,0.983305,0.055834,0.236088
2581566431,12.771118,-22.977127,10.267745,0.978160,-0.012554,0.277105
2581586483,14.446394,-23.706409,8.465879,0.969049,-0.055065,0.266354
2581606535,17.886469,-27.443295,7.037550,0.940621,-0.055001,0.185810
2581626587,19.834167,-33.625633,4.610168,0.870078,-0.055716,0.120881
2581646639,25.661449,-45.910496,3.164984,0.875622,-0.047431,0.057387
2581666691,25.165020,-44.934765,1.911268,0.867966,-0.036950,-0.041398
2581706795,18.254353,-31.711496,35.124588,1.249322,0.225860,0.120765
2581726846,-0.945880,-12.051600,42.521263,1.313307,0.270855,0.131513
2581746898,-25.298393,2.755569,38.219391,1.198900,0.187257,0.110130
2581766950,-33.738430,1.299479,25.615978,1.080338,0.046565,0.048480
2581787002,-26.635183,-6.260416,10.148151,0.975659,-0.115834,0.055525
2581807054,-18.051569,-7.454199,4.593884,0.932180,-0.263295,0.081280
2581827105,-10.812828,-5.386137,3.606537,0.904789,-0.289017,0.116738
2581847156,-3.540147,-4.312358,0.227654,0.910495,-0.252080,0.151342
2581887261,-1.578097,2.494768,-3.411652,1.006122,-0.061381,0.212614
2581907313,-4.491891,6.461021,0.122654,1.045563,-0.011197,0.208768
2581927365,-7.833934,10.114378,5.037558,0.994452,0.032806,0.212259
2581947417,-12.929112,10.151911,9.025743,0.985800,0.095726,0.210560
2581967469,-14.165789,11.738494,10.286395,1.058232,0.076837,0.180846
2581987521,-10.123424,13.780800,6.139832,1.054460,-0.099449,0.243571
2582007573,-9.662670,18.441986,-1.538717,1.003892,-0.248549,0.251027
2582027625,-10.010164,21.237959,-8.013081,0.904948,-0.199023,0.215852
2582047677,-5.926472,16.707859,-15.471752,0.874216,-0.072830,0.200996
2582067729,-1.834808,9.214760,-17.304213,0.843827,0.015887,0.208569
2582087781,-0.824106,8.351570,-12.003899,0.921310,0.015866,0.163222
2582107833,-0.400125,22.134211,-8.277219,1.039616,-0.088269,0.188714
2582127884,3.812067,26.027390,-8.049582,1.096676,-0.083726,0.250141
2582147936,6.607018,24.849701,-6.295763,1.065848,-0.039361,0.199331
2582167988,6.219142,15.735886,-6.484013,0.962685,-0.043579,0.148662
2582188040,6.079040,0.037327,-7.354502,0.905803,-0.055352,0.153757
2582208092,5.097300,-10.770887,-7.157757,0.887923,-0.057489,0.172378
2582228144,2.894687,-13.815184,-6.085442,0.880948,-0.023573,0.194475
2582248196,1.400328,-14.351357,-4.097383,0.901713,0.012724,0.226375
2582268248,4.217700,-15.145430,-2.928474,0.920315,0.012612,0.241232
2582288301,11.276276,-18.397354,-3.442688,0.917390,-0.050683,0.211952
2582308353,17.709358,-18.976814,-5.678736,0.917080,-0.070312,0.243623
2582328405,29.830147,-23.868736,-9.046339,0.931116,-0.109302,0.170284
2582348457,38.013256,-24.082693,-11.716260,0.937357,-0.074898,0.192742
2582368509,45.833771,-22.521290,-12.990065,0.987737,-0.056612,0.173893
2582388561,45.317902,-14.475765,-11.532131,1.114277,-0.015449,0.090791
2582408613,35.639698,-10.600903,-5.857876,1.148865,0.092683,0.092784
2582428665,19.910049,-6.198830,-4.185009,1.156782,0.151272,0.097070
2582448717,5.039876,-2.910514,-3.046711,1.155336,0.155658,0.092646
2582468769,-3.628922,-2.208350,-1.901673,1.121140,0.175093,0.084545
2582488821,-7.643491,-2.635264,-2.831008,1.034892,0.148937,0.098595
2582508873,-7.544963,-6.277849,-1.507331,0.896002,0.058037,0.136107
2582528925,-5.492700,-9.260644,2.481182,0.855228,0.008836,0.164653
2582548977,-3.903343,-9.269136,3.094550,0.906840,0.001649,0.181552
2582569029,-1.426044,-8.766563,0.780369,0.964965,0.006227,0.232534
2582589095,0.994666,-8.061306,-0.640174,0.949076,0.028616,0.256883
2582609132,1.327429,-8.361347,0.785587,0.920224,0.061908,0.232117
2582629184,4.043925,-7.074442,4.584838,0.843073,0.080194,0.258442
2582649235,7.760217,-6.833817,12.358718,0.776490,0.076800,0.234561
2582669288,18.680840,-13.239815,16.886446,0.845477,0.072838,0.303078
2582689339,22.963266,-16.679338,4.020152,1.044201,0.080204,0.317580
2582709391,24.685852,-9.073566,-8.708992,0.962065,0.085945,0.267581
2582729443,26.329105,-10.144512,-3.302081,0.991048,-0.075837,0.271749
2582749495,19.712206,-12.603899,-3.609605,1.069912,-0.114666,0.212501
2582769547,15.969683,-9.211382,-2.301246,1.124928,0.025040,0.150745
2582789599,14.500514,2.120311,2.366754,1.172542,0.062071,0.127933
2582809651,10.416842,14.801296,5.818386,1.170305,0.073372,0.130695
2582829703,4.053837,26.137691,4.303654,1.185013,0.057801,0.164334
2582869807,-3.160187,39.088634,-3.908563,1.038862,0.032437,0.288103
2582889859,-6.065750,38.322113,-3.268271,0.967691,0.057409,0.317301
2582909911,-5.729649,36.653011,-3.444533,0.934805,0.073505,0.336149
2582929963,-4.851625,34.586346,-3.422561,0.895496,0.073576,0.385584
2582950015,-4.778440,31.789621,-2.768738,0.867325,0.077385,0.414968
2582970067,-6.270785,29.670135,-1.449753,0.840312,0.078296,0.419310
2582990119,-8.662884,27.248653,1.060485,0.821116,0.071392,0.415982
2583010171,-11.118377,24.199343,2.799854,0.810152,0.074314,0.418688
2583030223,-12.483850,20.872320,1.523374,0.826293,0.061798,0.424128
2583050275,-10.616968,17.201736,-0.996003,0.850164,0.037075,0.438943
2583070328,-8.017376,12.676176,-2.618374,0.891611,0.028222,0.448882
2583090380,-5.457819,8.020195,-3.217122,0.908942,0.029049,0.446814
2583110432,-4.170525,3.111145,-2.905077,0.910958,0.024027,0.431982
2583130484,-4.965819,-1.785278,-0.849187,0.927625,0.015765,0.423470
2583150536,-6.548169,-5.719498,0.513978,0.919934,0.040096,0.416954
2583170588,-9.462340,-9.175508,0.845223,0.923783,0.086285,0.405995
2583190640,-11.152021,-11.215180,1.785055,0.919404,0.082184,0.393015
2583210692,-16.361223,-13.158215,3.635261,0.927516,0.045462,0.365051
2583230744,-23.302111,-13.307307,6.434840,0.929168,0.066600,0.337007
2583250796,-28.721952,-12.164875,10.207122,0.891909,0.176194,0.293213
2583270848,-29.135054,-11.780067,10.258993,0.920001,0.129220,0.314314
2583290900,-26.350218,-13.003867,7.147284,0.931100,0.001748,0.350859
2583310952,-23.012781,-15.600048,4.934427,0.944272,-0.069550,0.363320
2583331004,-20.252377,-18.998457,3.709801,0.942065,-0.048579,0.356063
2583351056,-19.691555,-22.003162,4.583959,0.959663,0.015183,0.339273
2583371120,-20.747932,-22.636517,5.162512,0.950025,0.058727,0.297711
2583391158,-21.609470,-22.646183,5.723689,0.939358,0.070355,0.260875
2583411210,-21.232700,-22.660492,4.276027,0.949442,0.028254,0.256889
2583431262,-19.583149,-22.205515,1.295351,0.961753,-0.038026,0.258198
2583451314,-17.531630,-20.968380,0.327842,0.995776,-0.081789,0.261400
2583471366,-17.576504,-17.855206,2.856081,1.018702,-0.080902,0.269095
2583491418,-18.100321,-14.836600,5.331761,1.033591,-0.063489,0.270999
2583511470,-20.324966,-12.274277,7.044134,1.037148,-0.049592,0.263774
2583531522,-20.636095,-10.006715,8.188430,1.032683,-0.046036,0.246161
2583551574,-22.474066,-8.101662,8.811563,1.015988,-0.030259,0.240134
2583571626,-24.622932,-6.535081,6.662072,0.992372,-0.025415,0.207465
2583591678,-22.386387,-3.304095,3.868679,0.994552,-0.060744,0.195347
2583611730,-16.981256,0.320938,2.482503,1.011228,-0.096674,0.183430
2583631782,-13.449696,3.951408,1.491072,0.989486,-0.077037,0.181231
2583651834,-8.492739,6.210341,-0.564767,0.998393,-0.064774,0.179698
2583671886,-2.588263,7.544108,-2.238801,1.028453,-0.074032,0.188470
2583691938,1.336845,8.970738,-3.988251,1.025799,-0.071538,0.204509
2583711990,4.137133,10.153381,-5.941099,1.009000,-0.041796,0.209408
2583732042,4.007741,12.173380,-6.910542,0.996538,-0.018535,0.224228
2583752093,4.069137,14.369480,-5.447813,0.996436,0.009188,0.212274
2583772146,5.809308,18.778204,-3.978138,0.996150,0.012876,0.196960
2583792198,9.593126,21.785269,-4.171720,0.972104,-0.041446,0.220503
2583812250,11.289022,22.617443,-5.183183,0.936672,-0.062310,0.241124
2583832302,14.998615,23.789610,-2.543464,0.955453,-0.109353,0.233259
2583852355,21.907135,19.241531,-1.385789,0.905106,-0.196090,0.249538
2583872407,23.286617,10.432106,-5.675922,0.850081,-0.191973,0.240920
2583892459,21.488794,0.998815,-10.493320,0.865698,-0.116716,0.182994
2583912511,20.014925,-5.151298,-11.494770,0.943321,-0.037036,0.151721
2583932563,18.024912,-5.538544,-9.454000,0.993083,0.036067,0.179856
2583952615,14.157393,-4.024886,-6.206489,1.013344,0.108516,0.217606
2583972667,7.605706,-0.503548,-2.040323,1.041433,0.154500,0.239630
2583992719,1.303981,2.010358,-1.364673,1.038577,0.116727,0.248045
2584012770,-5.889247,3.471174,-4.216876,1.011452,0.063311,0.220842
2584032822,-12.589471,3.260014,-9.056756,0.886962,0.010226,0.193581
2584052874,-14.411960,-1.445494,-4.568319,0.901736,0.000745,0.150716
2584072926,-12.366888,-2.577060,-4.345346,1.053849,-0.013504,0.102791
2584092978,-4.391455,4.486767,-14.407019,1.011372,-0.029618,0.094224
2584113030,2.955549,4.785498,-15.577781,1.023071,-0.085366,0.101496
2584133082,4.204192,5.628514,-8.434166,1.092331,-0.140315,0.117710
2584153133,8.100510,8.340439,-7.398979,1.036301,-0.095738,0.104800
2584173185,14.026066,8.355189,-8.788053,0.993252,-0.054520,0.102927
2584193237,16.579132,7.407855,-5.178099,1.010211,-0.038932,0.110320
2584213289,16.237564,6.949417,-1.697658,1.007125,0.011578,0.129526
2584233341,14.678099,7.383001,0.044554,0.991979,0.069572,0.133837
2584253393,12.787945,9.243612,3.290177,0.963607,0.098285,0.138393
2584273445,11.273252,10.455677,6.833483,0.914717,0.112430,0.182234
2584293497,9.580317,10.452621,2.112396,0.945190,0.058579,0.204977
2584313548,9.419962,12.706490,-5.042272,1.026802,0.008693,0.211131
2584333600,7.794603,17.947399,-7.742712,1.022370,-0.011389,0.230782
2584353652,4.229302,23.142782,-4.849047,0.999749,-0.000405,0.227222
2584393756,-3.085049,22.617485,-1.130986,0.988458,0.038539,0.252139
2584413808,-3.039769,21.771328,0.668126,0.961439,0.042081,0.256269
2584433860,-3.158008,21.068054,3.618806,0.952791,0.013743,0.283801
2584453912,-2.888402,19.847145,4.752182,0.953106,-0.009773,0.303979
2584473964,-2.200660,20.205029,3.015128,0.946258,-0.017752,0.325381
2584514068,1.731478,20.681063,-2.588739,0.949204,0.007072,0.339111
2584534120,1.579175,20.050310,-1.335984,0.924266,0.016210,0.327467
2584574224,3.790621,16.751623,0.561768,0.899699,0.028492,0.313246
2584594276,2.864334,14.752916,-2.401971,0.941827,0.026395,0.312660
2584614329,4.446911,15.049817,-2.706707,0.929914,0.025395,0.308043
2584634381,3.933972,15.518633,-2.473195,0.880609,0.034336,0.254422
2584654433,1.128202,14.308594,-7.227628,0.983377,0.008659,0.247359
2584674485,3.037399,14.590709,-10.200220,1.104447,0.000515,0.282121
2584694537,4.101160,17.957615,-7.112401,1.084206,0.016845,0.289968
2584714589,3.856127,23.013351,-4.522575,0.982935,0.043448,0.227686
2584734641,2.909844,27.141249,-8.651842,0.983919,0.004394,0.234871
2584754693,3.570428,22.171093,-16.130535,0.948443,-0.057734,0.299139
2584774745,4.636188,12.504812,-15.150231,0.885293,-0.106807,0.365605
2584794797,1.524255,3.816650,-7.661510,0.923734,0.036990,0.376846
2584814849,-2.193886,-2.378069,5.768314,0.950835,0.216324,0.314070
2584834901,-5.381320,-6.876521,10.794622,0.900910,0.299623,0.282306
2584854953,-9.762072,-10.003193,9.503349,0.856850,0.229636,0.306342
2584875005,-12.940866,-13.078918,5.430003,0.919217,0.105404,0.320037
2584895057,-15.482608,-13.396521,-0.130967,0.952032,-0.006215,0.298841
2584915107,-15.724792,-13.795036,-2.865513,0.916989,-0.108847,0.293964
2584935159,-13.555492,-14.702861,-6.993676,0.893006,-0.132600,0.275710
2584955211,-9.731311,-16.769930,-10.072529,0.922988,-0.070938,0.262576
2584975263,-6.625246,-18.096798,-10.614729,0.955509,-0.018406,0.271559
2584995315,-4.479299,-18.745289,-6.149239,0.982458,0.005015,0.266026
2585015367,-2.214547,-17.342369,-1.546860,1.052471,0.023976,0.272393
2585035419,-2.042625,-14.686687,0.444773,1.034505,0.031351,0.269908
2585055471,0.780613,-14.895442,4.120298,1.014552,0.026678,0.270184
2585075523,4.865069,-13.815434,6.206939,0.994013,0.033424,0.255782
2585095575,11.385897,-14.438038,5.456484,1.007554,-0.005585,0.251513
2585115627,22.748909,-13.764478,1.789548,0.976965,-0.071639,0.230521
2585135679,31.176435,-13.360378,0.557414,0.951113,-0.062226,0.219232
2585155731,34.948273,-17.079908,0.326383,0.951757,-0.010648,0.223547
2585175783,35.777798,-14.232258,0.786176,0.963226,0.018830,0.211836
2585195835,42.204639,-12.281054,4.953207,0.902811,0.074783,0.085975
2585215887,46.936920,-20.852865,4.746140,0.878474,0.204143,0.113934
2585235939,42.827480,-28.747805,7.859419,0.901270,0.123231,0.106943
2585255991,36.134945,-33.691074,12.198801,0.987635,0.075850,0.109558
2585276042,23.000397,-32.581253,11.600840,1.069981,0.099096,0.140683
2585296094,12.006993,-28.122253,6.594790,1.041618,0.168824,0.154307
2585316146,-4.673837,-25.560116,2.832639,1.028048,0.239464,0.178750
2585336198,-24.964779,-22.431305,-1.225779,0.977438,0.307448,0.162699
2585356250,-40.586639,-18.087589,-2.879911,0.982071,0.214690,0.149628
2585376304,-56.105743,-14.584907,-4.379601,1.024732,0.104472,0.174290
2585396355,-74.524414,-11.541184,-2.238796,1.011373,0.153575,0.204801
2585416407,-95.116875,-10.206700,1.970138,1.014537,0.248773,0.177365
2585436459,-108.716095,-9.035427,4.358235,0.998251,0.266301,0.147418
2585456511,-119.092812,-8.948390,4.839043,0.958726,0.225893,0.129611
2585476563,-129.218063,-10.326229,5.112599,0.956676,0.173965,0.100932
2585496615,-138.022629,-12.034898,4.530411,0.972774,0.129860,0.082835
2585516667,-146.501312,-12.740554,2.557704,0.953523,0.112134,0.078813
2585536719,-152.967712,-13.994881,0.578604,0.946779,0.075949,0.065370
2585556771,-157.867935,-15.369468,-0.430524,0.971692,0.033244,0.035776
2585576823,-158.661163,-16.169176,-1.215702,0.977645,0.007093,-0.002414
2585596875,-157.406586,-15.850204,-1.293030,0.967460,-0.014722,-0.027045
2585616927,-161.238510,-11.256004,2.845749,0.992554,-0.005600,-0.066689
2585636979,-174.445175,-3.509533,8.538214,1.015061,0.020380,-0.108819
2585657031,-185.509460,3.444140,5.524439,1.102435,0.028689,-0.119474
2585677082,-188.289230,11.625945,-3.908267,1.171704,-0.077474,-0.094852
2585697134,-185.584137,15.415988,-12.403128,1.127890,-0.210905,-0.034361
2585717186,-181.113800,14.375068,-17.145535,1.068330,-0.317381,0.039247
2585737238,-174.624512,15.329805,-20.531309,1.031010,-0.348957,0.060706
2585757290,-167.755646,18.467726,-24.819061,0.980949,-0.300734,0.054158
2585777342,-163.420456,17.942440,-28.320250,0.950121,-0.259408,0.051553
2585797394,-160.568436,13.805408,-31.186995,0.948193,-0.228088,0.069262
2585817446,-156.688889,8.359346,-34.428535,0.972248,-0.254838,0.069197
2585837498,-152.305786,4.285662,-34.870770,0.993197,-0.264208,0.046006
2585857550,-142.882111,2.115337,-33.669117,0.974167,-0.260207,0.055549
2585877601,-132.987213,-2.044605,-34.241825,0.974245,-0.282498,0.053354
2585897653,-120.899010,-5.589511,-33.468369,1.034082,-0.286144,0.049640
2585917706,-112.920090,-6.239752,-26.913126,1.068198,-0.237454,0.037412
2585937757,-111.618027,-2.472382,-19.582554,1.054865,-0.148719,0.043652
2585957809,-117.306816,2.404845,-13.193149,1.018744,-0.031080,0.035037
2585977861,-128.611740,6.732310,-6.299671,0.972777,0.023898,0.010899
2585997913,-139.797348,13.545237,-6.243442,1.000098,-0.010102,-0.013871
2586038017,-123.727295,28.118189,-17.326668,1.079225,-0.119672,0.057122
2586058069,-113.547218,32.754459,-18.604315,1.068170,-0.284762,0.096853
2586078121,-99.807961,40.739414,-16.256847,1.075194,-0.347676,0.111991
2586098173,-82.698082,50.436680,-10.740879,1.034314,-0.312231,0.131921
2586118225,-65.392136,56.469315,-6.280982,0.948382,-0.209025,0.183012
2586138278,-45.248775,54.273094,-5.848467,0.865735,-0.149075,0.239444
2586158330,-26.465290,46.666763,-10.755157,0.775941,-0.077529,0.249885
2586178382,-14.328522,40.475739,-11.890074,0.886028,-0.087786,0.246331
2586198434,-7.068013,39.768269,-10.025755,0.993543,-0.202228,0.251508
2586218486,-0.321326,38.396141,-14.275185,0.902655,-0.219678,0.290691
2586238538,5.262892,32.572403,-22.563612,0.925254,-0.207760,0.333066
2586258590,6.728557,28.166739,-30.446215,1.016355,-0.150943,0.346778
2586278642,3.088989,28.873276,-31.402325,1.058213,-0.042521,0.367995
2586298694,-0.946863,34.032238,-28.978266,1.031236,0.076346,0.322986
2586318746,-3.406086,37.901669,-24.420624,0.909023,0.106927,0.300862
2586338798,1.938936,33.110649,-15.667449,0.859101,-0.068906,0.351439
2586358850,11.048683,30.357542,-6.680088,0.885650,-0.208128,0.370779
2586378902,19.853714,26.774889,-4.882192,0.908842,-0.130990,0.341695
2586398954,27.863514,23.780819,-2.828361,0.828557,0.117549,0.274448
2586419006,33.237289,18.068138,5.412612,0.861845,0.226741,0.248881
2586439058,31.320646,12.761789,6.234937,0.943082,0.183542,0.284494
2586459108,24.989292,5.177024,5.482657,0.948813,0.114479,0.321051
2586479160,17.052872,-3.399134,3.286775,0.942140,-0.001344,0.304258
2586499212,11.004899,-8.837961,0.647420,0.999368,-0.020805,0.255812
2586519264,11.090700,-12.599216,1.228772,0.988007,0.086752,0.211680
2586539316,15.450840,-17.302668,2.061980,0.934095,0.144002,0.188823
2586559368,17.461004,-19.777014,3.668963,0.910786,0.095125,0.192677
2586579420,17.125244,-18.753670,4.969134,0.937492,0.018615,0.200659
2586599472,16.828814,-15.974783,5.323452,0.980308,-0.027894,0.213861
2586619524,16.763432,-15.866760,6.861632,1.031986,-0.031028,0.170821
2586639576,16.426657,-18.672691,10.077317,1.025904,-0.019904,0.129842
2586659628,20.298742,-21.052704,12.668587,1.017948,0.013880,0.117216
2586679680,23.255440,-19.069656,13.464089,1.038264,0.031947,0.125966
2586699732,24.416569,-15.131894,13.093902,1.044935,0.011715,0.133337
2586719784,22.286654,-12.644726,13.631763,1.006785,-0.002016,0.132044
2586739836,19.306637,-11.867378,13.584654,0.987903,-0.003745,0.134747
2586759888,18.048555,-7.468649,11.781301,1.018357,0.001801,0.162255
2586799992,16.949322,9.729726,6.220102,1.129565,0.005802,0.209167
2586820044,14.125332,18.180910,4.592809,1.074279,-0.014070,0.225909
2586840096,13.284281,18.286013,2.879897,0.989961,-0.041314,0.284520
2586860148,12.864590,11.496162,1.668071,0.897482,-0.037803,0.366801
2586880199,13.711980,-3.786046,0.788222,0.814911,-0.029237,0.451639
2586900251,17.022472,-14.035528,-2.724571,0.870859,-0.047044,0.340817
2586920305,28.091677,-19.422497,-7.651365,0.842904,-0.229441,0.130878
2586940357,44.197575,-28.505344,-10.384447,0.796909,-0.118681,0.068196
2586960409,47.741829,-23.643009,-3.892118,0.826175,-0.018650,-0.013096
2586980460,40.506332,-20.110250,-3.204494,1.158711,0.173959,0.005391
2587000513,27.964088,-9.354099,-1.259058,1.346823,0.222431,0.145671
2587020565,16.245863,2.868574,0.044403,1.287857,0.206374,0.290673
2587040616,5.033627,15.599251,1.921937,1.131807,0.141329,0.334489
2587060669,-2.565271,19.274834,1.563301,1.009767,0.059769,0.323389
2587080720,-4.747391,16.847744,-0.617891,0.863147,-0.016015,0.287872
2587100773,-4.501566,13.574546,-1.053856,0.801509,-0.045792,0.273511
2587120824,-3.751925,12.651602,2.276224,0.809234,-0.013380,0.277008
2587140877,-3.005618,11.706779,6.947856,0.863849,0.051652,0.305453
2587160928,-2.647338,13.469795,9.245659,0.906824,0.072937,0.319689
2587180981,-1.018147,14.822078,6.519583,0.943459,0.054054,0.347069
2587201032,1.676462,14.232397,1.738349,0.941851,0.042953,0.378087
2587221087,5.693207,10.758694,0.513542,0.908661,0.054712,0.373171
2587241135,7.837431,9.649780,0.615139,0.934731,0.046759,0.346547
2587261187,9.397695,9.420317,1.130753,1.076100,0.047239,0.320096
2587281239,10.310135,12.139079,5.122754,1.080196,0.077305,0.306235
2587301291,10.470961,12.437369,10.093466,0.900584,0.048805,0.323196
2587321343,10.113240,12.060337,4.880568,0.857345,-0.019144,0.330674
2587341395,10.607072,15.271890,-3.967736,0.911672,0.017968,0.344444
2587361447,10.291248,18.979645,-6.761880,0.921026,0.065967,0.357678
2587381498,4.039126,20.340815,-8.340804,0.935550,0.073186,0.364696
2587401550,-4.141412,17.530592,-9.684890,0.949048,0.121739,0.339600
2587421602,-7.792959,10.021788,-4.814783,0.904795,0.196070,0.308889
2587441654,-7.821735,-2.400118,0.912250,0.864249,0.181725,0.296679
2587461706,-6.806268,-14.113800,4.711420,0.873456,0.085860,0.313577
2587481758,-6.676907,-20.321514,4.944976,0.893829,0.030137,0.333998
2587501810,-7.216094,-21.733997,4.237610,0.933243,-0.006839,0.347247
2587521862,-8.469511,-22.483232,4.702947,0.957654,-0.025050,0.359900
2587541914,-12.468589,-25.508999,5.760670,0.918176,0.008332,0.375048
2587561966,-16.880079,-28.744064,7.759048,0.892463,0.069672,0.360705
2587582018,-17.027100,-33.380821,11.784347,0.855293,0.094029,0.328623
2587602070,-18.126989,-36.145573,12.703733,0.896355,0.026132,0.262809
2587622122,-13.051133,-36.536770,8.034667,0.842423,-0.088873,0.189414
2587642174,-11.243987,-36.416653,9.549412,0.981580,-0.054549,0.134654
2587662226,-12.254683,-32.985847,14.077738,1.113229,-0.063790,0.122516
2587682280,-9.253098,-28.195902,9.717439,1.241015,-0.128350,0.143892
2587702332,-5.646475,-17.431320,7.117396,1.268647,-0.143349,0.196520
2587722384,-3.465084,-10.833246,7.397056,1.150428,-0.120499,0.243495
2587742436,-2.795465,-9.279948,7.429362,0.977511,-0.056839,0.223355
2587762488,-1.731472,-11.248442,5.980613,0.827894,-0.030465,0.197178
2587782540,-1.013769,-15.669400,4.836015,0.776082,-0.041552,0.192213
2587802592,-0.831935,-18.290524,4.337193,0.816895,-0.053430,0.187641
2587822643,-0.205814,-19.727154,3.409714,0.883013,-0.045827,0.226466
2587842696,-1.229612,-18.832081,3.149303,0.938994,-0.010418,0.254445
2587862752,-3.413177,-17.094278,5.288924,0.991850,0.013692,0.261357
2587882799,-5.197340,-16.367531,8.000311,1.035368,0.022009,0.251754
2587902851,-4.377174,-15.829022,10.665961,0.994714,0.010320,0.241059
2587922903,-2.353371,-20.301357,10.847401,0.890365,0.028116,0.288282
2587942955,-4.389884,-22.501013,4.875896,0.861736,-0.003631,0.258091
2587963007,-3.624258,-24.830973,-4.180777,0.950539,-0.025419,0.251974
2587983076,-0.124236,-26.082920,-10.074118,0.973700,0.008982,0.265191
2588003109,5.004652,-24.201244,-13.136716,0.982653,-0.038577,0.254536
2588023162,7.855126,-21.807268,-13.274806,1.085410,-0.149558,0.261002
2588043213,11.541935,-18.592012,-11.665279,1.016614,-0.139106,0.265483
2588063265,17.230770,-18.142010,-13.609035,1.009147,-0.059985,0.240066
2588083317,16.302660,-16.706236,-7.717228,1.048564,-0.011702,0.179167
2588103369,13.237852,-9.771024,-1.540466,1.040789,0.003512,0.144945
2588123421,13.182895,-1.380295,-2.387887,1.055383,0.012458,0.139219
2588143473,10.881270,8.131115,-4.966385,1.104841,0.049277,0.190675
2588163525,7.254810,17.094917,-6.337480,1.107221,0.046526,0.252434
2588183577,4.302127,21.888182,-10.021177,1.061130,0.017622,0.322605
2588203629,2.480649,23.584183,-12.451651,1.003532,0.013249,0.337061
2588223681,-1.352685,23.578014,-10.669231,0.953097,0.048685,0.338566
2588243733,-6.376488,21.888111,-7.402697,0.932373,0.068777,0.349092
2588263785,-7.947784,20.254980,-5.926202,0.906723,0.079393,0.364783
2588283837,-7.631795,18.031656,-6.085389,0.888384,0.093412,0.375943
2588303889,-9.113087,15.783854,-5.857335,0.862469,0.106586,0.373516
2588323941,-12.998046,13.058940,-5.361532,0.861482,0.099546,0.389768
2588343993,-13.397473,10.635771,-5.171146,0.874440,0.061925,0.406473
2588364045,-12.840870,6.992814,-4.378156,0.894310,0.010206,0.401850
2588384096,-10.134818,2.306807,-2.680428,0.908373,-0.019051,0.412376
2588404149,-6.067533,-3.263228,-1.722868,0.915653,-0.014312,0.412282
2588424201,-2.116238,-7.787205,-2.095189,0.913842,0.007759,0.399290
2588444254,1.654882,-11.467484,-2.121723,0.923955,0.018944,0.379238
2588464306,6.639789,-14.477441,-1.847833,0.939345,0.014378,0.368857
2588484358,11.322340,-17.472031,-2.430312,0.931206,0.025387,0.352040
2588504410,14.764081,-20.909418,-2.124094,0.935946,0.042410,0.328065
2588524462,15.348108,-23.832388,-1.553383,0.949035,0.052417,0.314137
2588544514,14.036642,-25.316368,-0.767178,0.957047,0.070735,0.291260
2588564566,12.060911,-25.296267,0.847763,0.982435,0.090945,0.258215
2588584618,8.308414,-23.296480,2.820294,1.001026,0.111260,0.233573
2588604670,3.539166,-19.151751,5.286001,0.987821,0.102549,0.204497
2588624722,3.128816,-15.358259,6.531180,0.977832,0.039797,0.182523
2588644774,5.886782,-13.153098,4.248928,1.005222,0.020532,0.216385
2588664826,5.104102,-9.179708,1.923928,1.030391,0.075999,0.202925
2588684878,0.396965,-3.249164,3.405775,1.066922,0.120026,0.200948
2588704930,-8.240542,2.523842,3.252485,1.068976,0.110621,0.197345
2588724981,-15.563816,7.745726,2.229054,1.035218,0.081626,0.169812
2588745032,-17.652834,10.526199,1.090940,1.026864,0.032901,0.188403
2588765084,-15.068814,14.481960,0.894509,1.039320,-0.034149,0.212170
2588785136,-9.997067,16.623743,1.794828,1.018030,-0.072008,0.223818
2588805188,-7.705653,16.487995,1.968809,0.968698,-0.037226,0.223884
2588825240,-6.775197,16.399612,1.438261,0.940913,0.001033,0.247965
2588845292,-5.186955,17.106256,1.094217,0.957637,-0.023206,0.253181
2588865344,-3.864229,18.382504,2.256516,0.966434,-0.020781,0.275391
2588885396,-3.616563,18.040249,4.296348,0.983815,0.002234,0.300241
2588905448,-0.577655,18.258066,3.188005,1.007485,0.017715,0.267147
2588925500,4.811744,19.308771,-1.887825,0.996860,-0.000929,0.222754
2588945552,8.502254,20.396994,-6.478137,0.950871,-0.008225,0.202336
2588965604,5.545382,17.495893,-8.384581,0.931603,0.030824,0.204020
2588985655,-1.054169,13.610504,-9.710357,0.950712,0.087736,0.197226
2589005707,-5.754180,12.130183,-8.445503,0.969375,0.066017,0.181250
2589025760,-4.459425,8.818543,-5.251383,0.959636,0.014407,0.188868
2589065863,-7.572731,2.244575,1.623738,0.950349,-0.008776,0.182890
2589085915,-7.483497,-1.716433,4.221779,0.914994,0.013660,0.168747
2589105967,-5.052277,-4.238912,4.987516,0.917574,0.016745,0.193632
2589126019,-0.747161,-4.341804,3.478151,0.946631,-0.027970,0.220167
2589146071,3.685516,-4.720432,0.256846,0.974641,-0.060092,0.263453
2589166123,7.772123,-6.603585,-1.625256,0.991840,-0.046586,0.277687
2589186175,11.308075,-7.827939,-0.811327,1.006384,-0.021053,0.256500
2589206228,13.057123,-8.292465,0.750927,0.960393,-0.011832,0.228348
2589226280,15.214130,-8.746826,3.495320,0.957917,-0.008994,0.198306
2589246333,21.895866,-9.086004,1.781305,0.995511,-0.032349,0.173031
2589266385,24.734295,-7.892563,8.673050,1.051647,-0.021618,0.171396
2589286436,14.005915,-6.848746,22.717016,1.126978,0.046669,0.163597
2589306488,3.426613,-4.989254,21.577471,1.141014,0.091054,0.126374
2589326540,-0.218496,0.080634,8.358733,1.075068,0.072171,0.048237
2589346592,-6.644052,7.330701,0.613043,0.972690,0.078198,-0.016905
2589366644,-10.017035,9.500560,2.675802,0.856330,0.057454,-0.000948
2589386696,-10.066115,7.634103,1.704565,0.896246,0.037318,0.027196
2589406748,-10.474645,9.065170,-2.059386,0.989404,0.019173,0.084961
2589426800,-10.060112,11.417655,-5.031010,1.040254,-0.018118,0.138193
2589446852,-7.547892,14.173953,-7.542443,1.040627,-0.058425,0.172380
2589466904,-4.518103,14.245406,-7.778697,1.003031,-0.069387,0.199597
2589486956,-2.116124,14.179188,-6.331730,0.980586,-0.041966,0.189032
2589507007,2.168495,12.795592,-6.260252,0.939372,-0.044011,0.160226
2589527059,4.169152,11.289627,-8.764398,0.913034,-0.026729,0.165656
2589547111,5.628374,8.293826,-5.018159,0.981726,0.000557,0.144288
2589567163,3.685332,5.245422,-1.270549,0.996170,-0.000100,0.153395
2589587215,3.281153,4.543631,-2.579149,0.989354,-0.036561,0.152496
2589607267,5.908813,4.815369,-0.746897,1.019303,-0.046031,0.133642
2589627319,3.919832,3.949247,4.789422,1.010603,0.014387,0.141242
2589647371,0.921529,2.821997,3.710566,1.001899,0.059620,0.141657
2589667423,0.269533,2.500321,0.346845,0.982204,0.025032,0.159458
2589687475,1.243704,0.820006,-2.254867,0.946509,-0.039110,0.184304
2589707527,0.382859,-0.360883,-5.615553,0.948548,-0.038567,0.209397
2589727579,-0.446127,1.315422,-6.189461,0.991558,-0.017505,0.233542
2589747631,-2.078027,5.492379,-4.270649,1.030923,0.009315,0.254233
2589767683,-2.856158,12.052656,-4.505193,1.091092,0.047467,0.250764
2589787734,-2.169581,19.638000,-5.024204,1.074899,0.079735,0.228736
2589807787,-0.717810,25.182653,-6.097293,0.998346,0.075629,0.226514
2589827847,0.634098,26.668577,-7.815731,0.954423,0.037647,0.226642
2589847890,0.220079,25.664696,-7.668127,0.917554,0.012722,0.230214
2589867942,-0.869641,23.714758,-6.365025,0.894036,-0.015985,0.259644
2589887994,0.568407,20.591194,-5.983395,0.889299,-0.053856,0.293404
2589908046,4.350306,18.586653,-7.539077,0.911125,-0.049040,0.315678
2589928099,6.551312,18.024504,-9.864651,0.944048,-0.000022,0.320252
2589948150,5.918404,16.909689,-10.224378,0.941902,0.038832,0.324695
2589968204,3.686177,15.201607,-9.111182,0.932692,0.051630,0.318847
2589988256,3.022376,13.067789,-7.314963,0.905791,0.042167,0.309223
2590008308,3.238676,10.669218,-3.881085,0.909042,0.071839,0.299632
2590028360,1.746436,3.228977,4.785087,0.880922,0.069081,0.308099
2590048411,0.002620,-0.001332,8.374096,1.024095,-0.032453,0.289022
2590068463,-1.695703,6.742325,4.486185,1.104060,-0.142337,0.248418
2590088515,-1.723201,15.140858,-1.143595,0.983025,-0.021943,0.229443
2590108567,2.576408,18.740967,-7.713304,1.036345,0.115767,0.193691
2590128619,13.057606,20.050919,-13.072232,1.049192,0.018393,0.212541
2590148671,22.835138,25.263449,-12.851090,1.023854,-0.081313,0.245779
2590168723,28.428288,29.498775,-11.571642,0.931727,-0.086847,0.241464
2590188775,30.716509,29.835751,-11.073392,0.904597,-0.023145,0.265619
2590208827,34.051800,25.894945,-9.833189,0.906230,-0.006406,0.305244
2590228879,36.807228,21.500183,-10.144906,0.922784,0.028934,0.340761
2590248953,37.576397,17.994976,-9.397939,1.021029,0.087027,0.379229
2590268982,32.395664,12.686239,-3.193402,1.047378,0.258556,0.464134
2590289033,17.274702,3.272919,7.674659,0.988969,0.515056,0.486835
2590309085,-0.700742,-8.284648,19.756163,0.827193,0.517123,0.369696
2590329137,-9.119378,-23.032482,21.712248,0.736919,0.242367,0.261720
2590349189,-10.977030,-35.468102,16.389847,0.716519,0.007421,0.188770
2590369241,-9.957943,-40.790222,9.306347,0.767677,-0.110608,0.167596
2590389293,-5.980323,-43.575237,4.191176,0.851594,-0.086137,0.163181
2590409345,1.557809,-45.118183,3.314694,0.965499,0.003987,0.158038
2590429397,9.851469,-42.259651,4.976889,1.074815,0.033346,0.142023
2590449449,13.006168,-37.448692,6.164261,1.087612,0.054028,0.156871
2590469501,15.535654,-33.737709,6.931221,1.082638,0.037915,0.142662
2590489553,11.793765,-32.273693,5.813379,1.044041,0.023928,0.155365
2590509605,4.919538,-28.949648,5.539069,1.058102,0.095538,0.115919
2590529657,2.191271,-24.831650,7.670680,1.015033,0.141922,0.068362
2590549709,-1.226516,-28.756447,6.427293,0.934288,0.131124,0.069096
2590569761,-11.964467,-32.498547,6.822896,0.986466,0.100310,0.079184
2590589813,-25.020901,-31.843037,6.332576,1.022910,0.119427,0.088946
2590609865,-39.995178,-29.865923,3.132686,1.032918,0.201130,0.082709
2590629917,-54.037689,-27.286922,0.506397,1.040772,0.224891,0.052861
2590649969,-67.619766,-23.664427,0.339513,1.015560,0.178069,0.022596
2590670021,-80.839531,-21.749111,-1.246461,0.950876,0.112329,0.048164
2590690073,-88.673302,-17.728842,-5.668524,0.977458,0.059392,0.065507
2590710126,-96.020271,-9.629242,-8.990707,1.094069,0.064752,0.092173
2590730178,-104.645210,-1.356366,-10.009038,1.106378,0.139241,0.070222
2590750230,-114.149979,2.876416,-10.323454,1.054249,0.143879,0.033809
2590770282,-122.837219,3.035276,-9.835907,0.995945,0.137696,0.029741
2590790334,-130.546417,2.115455,-11.656567,0.984022,0.141321,0.024525
2590810386,-137.582184,2.612113,-14.672240,1.006938,0.127036,0.025943
2590830438,-144.171036,3.671978,-17.924957,1.024357,0.101206,0.053267
2590850490,-152.019760,5.996693,-19.150433,0.996164,0.087849,0.063947
2590870542,-158.927094,5.424218,-19.699305,0.964786,0.081880,0.038800
2590890594,-169.621246,4.888738,-18.890347,0.942871,0.045093,-0.014642
2590910646,-175.823395,-0.539162,-14.860202,0.915554,-0.012951,-0.022253
2590930698,-180.571976,-1.120346,-14.219903,0.995073,-0.090084,-0.034247
2590950750,-183.755783,2.665776,-14.868468,1.093640,-0.100609,-0.016522
2590970802,-183.201385,8.101223,-13.083599,1.128040,-0.093401,0.005814
2590990854,-175.923828,11.585021,-17.122581,1.105833,-0.151111,0.059219
2591010907,-164.044769,13.702031,-25.948362,1.046454,-0.238585,0.108161
2591030956,-152.121292,11.840586,-32.486759,0.996479,-0.310377,0.146718
2591051008,-142.223724,7.974133,-34.667221,0.937414,-0.292047,0.166991
2591071060,-134.483276,3.650970,-34.814194,0.913476,-0.195544,0.158888
2591091112,-126.079788,-1.067376,-34.512871,0.953139,-0.084068,0.133249
2591111164,-116.530190,-3.764397,-33.893028,0.995569,-0.043249,0.122081
2591131216,-111.657623,-2.959216,-32.859192,1.006739,-0.042942,0.129154
2591151268,-108.448944,-3.608368,-33.183971,0.986339,-0.053913,0.146677
2591211424,-92.117920,-10.061411,-30.878616,0.978809,-0.117079,0.171894
2591231476,-86.736786,-12.529876,-31.819363,0.955345,-0.148018,0.146638
2591251528,-80.179924,-18.021091,-34.167370,0.986050,-0.143808,0.163166
2591271579,-76.389420,-19.761978,-33.662487,1.074201,-0.115018,0.180726
2591291631,-74.954773,-16.383942,-26.808096,1.073093,-0.076334,0.179452
2591311683,-75.809624,-11.806726,-14.053026,1.027985,0.013817,0.162366
2591331736,-87.649605,-3.612328,1.005010,0.971691,0.243556,0.117410
2591351787,-93.755775,4.168079,13.106668,0.978804,0.345923,0.050476
2591371840,-87.510666,0.807063,15.382173,1.028836,0.225237,0.098215
2591391891,-82.682098,-0.401595,13.747591,0.942558,0.078300,0.084399
2591411944,-78.305725,-4.751031,10.532410,0.936837,-0.097600,0.059492
2591452047,-82.951691,-4.129167,4.445992,1.019277,-0.192058,0.055444
2591472101,-74.012413,-3.414661,-1.039186,0.983247,-0.131115,0.059482
2591492152,-59.252632,-5.940513,-5.135866,0.987394,-0.101414,0.083797
2591512204,-46.882244,-7.842606,-7.771121,0.985218,-0.084538,0.088858
2591532257,-37.610817,-8.630432,-6.286177,0.955095,-0.081393,0.078338
2591552309,-28.039194,-10.406852,-4.176457,0.962929,-0.131599,0.073340
2591572361,-19.980074,-10.830133,-2.616555,0.983216,-0.168158,0.067727
2591592413,-11.435039,-8.495361,-0.005273,0.999507,-0.164228,0.086064
2591612465,1.918010,-5.328014,2.040614,1.022582,-0.199566,0.101996
2591632517,15.441649,-2.890706,1.322637,1.051970,-0.243245,0.118252
2591652569,26.701612,-2.035329,-1.101940,1.036278,-0.224668,0.110836
2591672621,38.451035,0.058558,-3.864431,1.029493,-0.198428,0.104304
2591692673,49.648895,2.974831,-6.864511,1.033616,-0.161168,0.097904
2591712725,56.877174,6.590692,-6.788554,1.016299,-0.114576,0.073794
2591732777,59.439518,9.846063,-6.073089,1.006912,-0.065398,0.064251
2591752828,57.636501,10.997904,-5.742951,0.987691,-0.012570,0.050871
2591772879,54.055721,10.915070,-4.339305,0.989833,0.033826,0.035535
2591792931,51.113525,10.635858,-2.237942,0.990446,0.071960,0.020920
2591812983,49.811214,9.013178,-1.784736,0.989316,0.056758,0.018997
2591833035,48.033585,6.964662,-2.148423,0.998538,0.054077,0.033544
2591853087,46.330238,3.815132,-2.622028,0.989303,0.099800,0.062033
2591873139,44.116966,1.509542,-4.765732,0.979028,0.148184,0.079849
2591893190,38.175331,-1.236174,-6.626193,0.971865,0.179858,0.104062
2591913243,28.245167,-6.943680,-5.731469,0.953636,0.192838,0.112416
2591933295,20.650330,-15.646700,-4.342187,0.904154,0.172343,0.103578
2591953347,14.782766,-23.849592,-3.682813,0.820870,0.099555,0.070839
2591973398,19.681181,-30.051271,-5.019792,0.827818,-0.013223,0.061560
2591993450,23.582541,-33.185310,-6.435202,0.948736,-0.092637,0.048886
2592013503,25.481403,-35.262775,-0.789964,0.957584,-0.095825,0.034171
2592033555,23.558254,-35.762642,16.939613,0.973175,0.001805,0.016156
2592053606,15.786901,-31.899916,21.127768,1.173367,0.151321,-0.010693
2592073658,3.363309,-21.180002,18.434963,1.262552,0.234738,0.021056
2592093710,-5.657521,-8.260685,20.265606,1.217781,0.181023,0.064985
2592113762,-7.717982,-0.443794,15.995175,1.178147,0.074749,0.098561
2592133814,-6.981825,2.700981,10.731865,1.072627,-0.005119,0.114460
2592153866,-7.471896,3.263773,7.804619,0.996000,-0.062883,0.089411
2592173918,-7.562875,2.400224,3.411831,0.899769,-0.069761,0.055090
2592193970,-5.541129,4.164385,-1.809278,0.878974,-0.037488,0.040482
2592214023,-3.926294,6.447938,-3.720031,0.934989,0.021437,0.035380
2592234076,-2.906186,9.757138,-1.306524,1.009042,0.065548,0.039939
2592254128,-1.757638,13.838017,2.945965,1.030208,0.061434,0.085942
2592274179,0.459324,15.984638,3.960951,1.067594,0.012005,0.124678
2592294231,4.296331,21.868048,1.173014,1.132090,-0.057770,0.121308
2592314283,7.466791,31.536926,-1.370048,1.149791,-0.067422,0.123454
2592334335,6.362282,38.085320,-1.945490,1.080395,-0.044441,0.146508
2592374439,-1.836702,42.945667,6.764013,0.955125,0.041682,0.120538
2592394491,-5.170346,54.313477,2.292319,1.030352,0.050197,0.113521
2592414543,-6.442816,64.045235,-1.318038,1.037200,0.049365,0.143389
2592434595,-11.641345,64.629524,-5.577604,0.976520,-0.013464,0.168588
2592454647,-18.500671,58.364346,-10.790674,0.952234,0.001777,0.151608
2592474699,-18.175486,51.937996,-9.321062,0.933572,0.032344,0.131672
2592494751,-12.788144,43.414017,-3.859464,0.920097,-0.017295,0.137968
2592514802,-6.984792,35.555519,-1.628941,0.898351,-0.058943,0.151565
2592534853,-3.916658,28.697948,-0.355857,0.908400,-0.057721,0.178433
2592595009,-7.559270,19.285427,-1.193728,0.937836,-0.051597,0.316988
2592615061,-11.186495,14.768908,0.240371,0.912791,-0.024248,0.314585
2592635114,-13.528764,8.963299,1.784566,0.878842,-0.002263,0.294095
2592655165,-13.083993,1.909601,2.369559,0.878856,-0.012941,0.297127
2592675217,-11.660665,-4.649580,3.308717,0.897141,-0.015345,0.336093
2592695269,-12.223730,-9.846422,4.440928,0.929682,-0.012801,0.382191
2592715321,-13.188307,-13.749603,5.273242,0.955859,-0.019499,0.399086
2592735373,-13.591469,-18.458097,5.433609,0.943761,-0.038086,0.403668
2592755425,-10.829165,-23.255981,6.191912,0.927603,-0.024654,0.354048
2592775477,-7.017601,-23.181482,6.826953,0.890522,0.004826,0.273284
2592795529,-3.023135,-19.615961,9.481062,0.848449,0.013811,0.183269
2592815581,-2.984955,-15.916000,17.062412,0.915075,-0.023268,0.095649
2592835633,-10.697731,-14.191338,14.452009,1.096537,-0.177143,0.133980
2592855684,-6.795786,-15.230285,-0.165585,1.200880,-0.280074,0.207982
2592875737,0.611041,-16.270235,-10.176397,1.178600,-0.211380,0.288553
2592895788,7.080033,-16.030718,-10.202225,1.075502,-0.116835,0.301905
2592915840,7.665855,-16.896118,-8.403234,0.945759,-0.031198,0.261641
2592935893,5.445002,-18.320843,-9.307023,0.818921,0.004110,0.202076
2592955946,2.799222,-20.673985,-8.926620,0.753530,0.015265,0.185215
2592975998,-0.772973,-23.064981,-6.378179,0.804495,0.016490,0.199559
2592996050,-3.660633,-24.051823,-3.387658,0.901175,0.018294,0.222035
2593016102,-4.621129,-24.482071,-2.006469,0.989318,-0.000244,0.233781
2593036154,-4.833343,-23.042261,-2.200830,1.018456,0.001218,0.223428
2593056206,-3.091268,-21.675007,-1.486150,1.023737,0.004003,0.207619
2593076258,-0.993718,-21.368345,-0.783098,1.019100,-0.001580,0.192746
2593116362,2.019770,-21.459351,-0.283628,1.028102,-0.019174,0.174382
2593136414,5.042788,-20.299028,-0.000685,1.024365,-0.009763,0.185062
2593156465,7.472279,-19.754051,-1.564679,1.016366,-0.020803,0.202219
2593176517,6.580816,-16.769430,-4.068128,0.992716,-0.039298,0.202266
2593216621,4.636241,-17.204388,-4.808686,0.951325,0.002657,0.181674
2593236674,8.240900,-18.335218,-1.289415,0.899201,0.016293,0.171058
2593256724,9.107832,-27.254539,1.560388,0.878386,-0.000653,0.215731
2593276776,9.651263,-34.321545,-3.644932,0.826891,0.026473,0.246407
2593296828,9.177501,-37.664448,-2.359982,0.867546,0.045711,0.206575
2593336932,7.526944,-25.280048,5.684669,1.102174,0.011719,0.182275
2593356984,5.134847,-22.107151,-2.692595,1.092221,0.043981,0.184376
2593377035,0.784023,-20.939583,-3.240780,1.061993,0.007337,0.180587
2593397088,-0.732899,-23.099974,-1.163749,1.080507,0.008092,0.147809
2593417140,0.693537,-20.173758,-2.098965,1.062632,0.000901,0.136859
2593437192,0.108933,-15.224938,-0.456021,1.041448,0.021365,0.148015
2593457244,-0.020509,-8.675980,1.643566,1.037623,0.029415,0.158800
2593477296,0.632922,-2.790160,2.517372,1.026378,-0.001838,0.179804
2593497348,-0.675521,1.953234,4.835804,0.992651,0.000090,0.224803
2593517400,-1.661948,3.303763,6.923288,1.003645,0.044617,0.255539
2593537452,-2.448141,5.647301,6.172750,1.026543,0.053097,0.279688
2593557504,-3.686313,9.910811,5.771965,1.066313,0.044420,0.295884
2593577556,-6.098216,15.868797,5.623437,1.084295,0.050461,0.257952
2593597608,-8.074286,23.362156,1.725461,1.025730,0.057315,0.167573
2593617660,-8.978631,23.034172,-1.175832,0.946554,0.039991,0.137129
2593637712,-10.046391,17.386173,-1.231786,0.861083,0.012267,0.175015
2593657764,-9.196642,10.443806,-1.465846,0.943569,-0.014946,0.222812
2593677816,-6.847941,10.523631,-3.270736,1.041702,-0.017907,0.248626
2593697869,-5.035911,13.451216,-3.190511,1.016972,-0.010427,0.280082
2593717921,-3.444960,14.462311,-2.216866,0.975373,-0.005848,0.282643
2593737973,-1.430135,12.677627,-0.801736,0.956954,-0.015083,0.287800
2593758025,-0.635486,9.739650,0.776954,0.929005,-0.027055,0.287195
2593778077,-0.466578,6.025451,1.509694,0.901372,-0.019603,0.285186
2593798129,-0.838928,2.482223,2.226877,0.899539,-0.002405,0.293699
2593818181,0.038923,-0.618908,4.329048,0.958732,-0.013435,0.294791
2593838232,-0.629665,-1.593697,5.734749,1.006427,-0.026271,0.298459
2593858285,-2.833869,-0.644888,5.588250,1.008197,-0.010389,0.284110
2593878337,-4.252817,1.591933,5.421881,1.022743,0.009638,0.265441
2593898389,-2.278848,3.042043,4.597666,1.038127,-0.014167,0.250193
2593918441,2.062336,5.505045,1.836497,1.023542,-0.044994,0.218637
2593938493,3.952821,8.243870,-1.591712,1.024357,-0.042660,0.171810
2593958544,4.845491,10.797870,-4.405039,1.014647,-0.024206,0.154896
2593978614,3.485231,13.846785,-8.257601,1.021094,-0.019077,0.156791
2593998647,-0.027237,19.036442,-11.108784,1.061212,-0.000958,0.146868
2594018699,-4.137750,23.257879,-10.394311,1.047523,0.031793,0.132850
2594038751,-6.048480,25.270329,-8.323941,0.992317,0.036938,0.139034
2594058803,-9.300652,26.847342,-7.691605,1.011845,0.006484,0.166699
2594078855,-13.695812,31.066776,-5.802287,1.042694,-0.015199,0.202523
2594098906,-17.874687,35.365997,-2.329318,1.061965,0.005845,0.248222
2594118959,-19.380684,39.222343,1.576242,1.063472,0.044590,0.282775
2594139010,-15.338305,38.827385,2.167346,1.014601,0.012293,0.300070
2594159063,-10.045917,36.048466,-2.144937,0.950677,-0.071462,0.298132
2594179115,-5.463797,32.817196,-7.622572,0.873839,-0.130461,0.262916
2594199167,-0.465694,29.025190,-10.968734,0.796945,-0.088437,0.233529
2594219218,2.553950,22.665554,-12.531879,0.748477,-0.011947,0.221030
2594239270,5.245594,16.804003,-11.830517,0.793140,0.017387,0.238821
2594259323,8.732944,13.228163,-8.264886,0.909554,0.006090,0.276221
2594279374,12.445053,14.371706,-6.549703,0.985037,-0.033165,0.296115
2594299426,13.879658,17.772644,-5.660028,0.999921,-0.055835,0.303299
2594319478,12.387147,21.254780,-3.314448,0.987188,0.016045,0.293379
2594339530,12.901350,23.883293,-1.171262,0.924963,0.067043,0.292166
2594359582,13.653872,21.311352,-1.685611,0.950539,0.035081,0.315166
2594379634,12.161849,18.044039,-4.190044,0.978067,0.006552,0.330051
2594399686,9.434107,15.877449,-7.827101,0.931472,0.045574,0.327633
2594419739,7.265867,15.129627,-9.786716,0.910301,0.070248,0.334559
2594439791,5.992475,13.915830,-9.531981,0.916304,0.067458,0.322728
2594459844,6.364909,10.938821,-6.490270,0.921766,0.053195,0.315570
2594479895,6.599915,8.587946,-1.540771,0.914947,0.057466,0.310292
2594499947,5.806344,6.142807,3.970255,0.912693,0.059334,0.320615
2594519999,3.493458,4.280305,7.153066,0.919080,0.037105,0.315374
2594540051,1.701007,3.411654,7.300687,0.942488,0.018092,0.297310
2594560103,2.710168,2.046524,5.281456,0.944179,0.030013,0.298366
2594580155,6.271815,1.610267,3.447604,0.968914,0.021865,0.328537
2594600207,9.364614,1.178438,0.401268,0.984385,-0.048943,0.368637
2594620259,10.490935,-0.579257,-4.981708,0.934430,-0.092134,0.373963
2594640311,14.087715,-2.725122,-8.279999,0.876715,-0.042132,0.365886
2594660363,17.720463,-1.705248,-8.027101,0.864938,0.078167,0.355322
2594680415,23.720543,-3.493430,-5.287036,0.883526,0.081761,0.324057
2594700467,26.748253,-8.677080,-3.383073,0.930754,0.009179,0.375127
2594720518,28.679321,-10.597229,-1.694605,0.922640,-0.019014,0.342496
2594760622,34.628143,-10.887595,6.239481,1.014223,-0.115593,0.226204
2594780673,24.729206,-8.626509,15.049483,1.016374,0.003173,0.188764
2594800726,13.011518,-6.670515,18.328533,1.086337,0.202624,0.160322
2594820777,3.390354,-3.134085,17.266241,1.147855,0.265411,0.132039
2594840830,-4.180778,3.004038,16.126057,1.091669,0.305090,0.132545
2594860881,-4.994997,4.085871,7.990393,0.873120,0.195915,0.207057
2594880933,3.718724,0.739279,0.419917,0.856121,0.032405,0.218190
2594900985,12.292379,1.478118,-2.048792,1.024002,-0.222523,0.244416
2594921037,12.864491,12.205240,-2.639221,1.044238,-0.244767,0.287078
2594941089,7.240939,17.154766,1.915805,0.887528,-0.085264,0.346831
2594961141,1.540824,15.862649,3.960992,0.950237,-0.008979,0.373022
2594981193,-5.123033,19.484020,-4.711901,1.058025,0.093834,0.347512
2595001245,-11.367935,27.077339,-6.403251,0.989238,0.112257,0.331088
2595021297,-13.270462,30.947863,-2.247495,0.894189,0.092616,0.319099
2595041349,-15.404062,33.136536,0.307398,0.870916,0.144582,0.328784
2595061401,-19.802399,30.502966,-1.023463,0.870312,0.109494,0.340456
2595081453,-25.015200,28.261564,-3.120864,0.860064,0.040097,0.381539
2595101505,-30.746328,26.832060,-3.553511,0.833341,0.017552,0.410330
2595121557,-35.186119,23.108055,-4.403126,0.857698,0.041591,0.442216
2595141609,-33.712940,20.355736,-6.569318,0.871171,0.091904,0.451454
2595161662,-29.351849,16.557365,-7.868917,0.850119,0.132376,0.476738
2595181714,-30.589537,12.477697,-7.051055,0.842816,0.135270,0.476926
2595201766,-31.584721,8.511126,-8.999989,0.871987,0.077340,0.474986
2595221818,-30.011887,4.055768,-14.055510,0.905844,-0.004032,0.478621
2595241870,-24.984993,1.115405,-18.412619,0.928042,-0.065064,0.470397
2595261922,-22.683014,-0.804450,-21.847656,0.942007,-0.056735,0.478942
2595281974,-20.723799,0.276623,-16.205742,0.963051,0.031539,0.421903
2595302026,-25.041615,-3.709866,-10.688171,0.935779,0.112953,0.445761
2595322078,-33.697647,-5.112129,-13.385996,0.887435,0.193305,0.379051
2595342130,-29.543104,-9.347527,-22.331184,0.871363,0.162804,0.383380
2595362182,-23.836594,-11.373859,-29.306419,0.963843,0.043760,0.373962
2595382234,-26.023752,-7.771434,-26.430485,0.993053,0.065720,0.310023
2595402286,-27.062195,-8.036657,-21.692360,1.006800,0.158256,0.298234
2595422338,-21.608089,-11.992878,-21.476004,1.006872,-0.018627,0.312006
2595442402,-18.934969,-17.524023,-20.131563,0.969524,-0.030750,0.359687
2595462440,-25.394644,-26.128567,-16.355648,0.969286,0.293079,0.316312
2595482492,-27.640930,-32.387997,-3.873484,0.903512,0.416083,0.293427
2595502544,-23.385992,-34.947773,7.085439,0.895519,0.244001,0.249920
2595522596,-20.525635,-35.855003,9.520410,0.936124,-0.037190,0.244283
2595542648,-22.974018,-36.882172,10.487334,0.967476,-0.188948,0.243808
2595562700,-26.796944,-38.398514,11.153267,0.952221,-0.152551,0.230827
2595582752,-23.523699,-40.072163,8.429463,0.949091,-0.056548,0.203519
2595602804,-13.985864,-40.059418,5.394496,0.924266,0.002739,0.178845
2595622856,-7.110847,-40.817081,3.333224,0.938507,0.016396,0.153068
2595642908,-4.600657,-40.436665,3.270403,0.982996,0.014880,0.122682
2595662960,-3.306129,-36.999165,5.281686,0.988600,0.006631,0.104004
2595683012,5.324008,-34.389725,6.823359,0.954300,-0.001307,0.049413
2595703064,12.801709,-38.165031,7.144487,1.000524,0.051720,0.084663
2595723116,9.727940,-38.777252,10.740098,1.027689,0.038935,0.075915
2595743168,2.433937,-39.389915,12.631925,1.025844,0.011068,0.078042
2595763220,-6.708502,-39.608715,10.301560,1.055046,0.071313,0.074007
2595783272,-20.636703,-36.178276,8.937983,1.065909,0.122080,0.077223
2595803324,-39.375816,-33.213394,8.555380,1.055308,0.155050,0.065315
2595823376,-58.308784,-30.342175,6.771060,1.040582,0.185187,0.027326
2595843428,-72.915871,-24.977833,2.202737,0.998640,0.172130,0.003732
2595863479,-82.368332,-19.966005,-2.214597,0.968709,0.138884,0.040804
2595883531,-91.828552,-15.298830,-5.903162,1.007356,0.117734,0.068133
2595903585,-100.878365,-10.466415,-6.704856,1.037694,0.089894,0.054402
2595923637,-109.088303,-9.102992,-4.713414,1.019860,0.057267,0.018117
2595943689,-115.975342,-12.679905,-1.394251,0.984891,0.036270,-0.009062
2595963741,-118.608902,-16.476562,-0.000876,0.969323,0.019908,-0.019980
2595983793,-120.034012,-17.662619,-0.003869,0.980139,-0.015844,-0.012037
2596003845,-119.653679,-16.587133,-1.993395,1.008979,-0.050733,0.015382
2596023897,-120.111794,-15.574303,-3.421569,1.000399,-0.038327,0.026629
2596043949,-121.978790,-15.513760,-2.723860,0.986188,-0.008522,0.009915
2596064001,-124.842827,-12.760637,-1.390868,0.968099,0.003670,-0.005259
2596084053,-123.534508,-10.612985,0.723381,0.972527,-0.006589,-0.024558
2596104104,-127.235779,-6.931953,3.190312,1.003807,-0.011147,-0.024011
2596124156,-131.976349,-5.174589,5.065498,1.051470,-0.025878,-0.045042
2596144209,-131.279114,-2.035767,6.085176,1.062043,-0.034808,-0.086853
2596164261,-127.392014,-1.014474,5.102611,1.064171,-0.058013,-0.096112
2596184312,-121.930771,0.872012,0.061770,1.067956,-0.103136,-0.081658
2596204363,-114.982994,1.866732,-7.068311,1.051816,-0.179354,-0.027359
2596224415,-108.621277,1.264113,-14.078997,1.010582,-0.233688,0.004424
2596244467,-104.096672,-1.417241,-18.974928,0.954381,-0.222480,0.021800
2596264519,-99.968964,-5.530893,-20.667463,0.924673,-0.188163,0.018102
2596284571,-95.027222,-8.262314,-21.917891,0.915092,-0.149601,0.015952
2596304623,-91.202583,-10.274405,-22.313980,0.944223,-0.104560,0.016182
2596324675,-89.768570,-9.946326,-21.140873,0.992177,-0.068154,0.013283
2596344726,-89.058762,-10.385257,-18.062553,1.019668,-0.051306,0.011829
2596364779,-88.947067,-9.632472,-15.594446,1.016836,-0.036772,0.005643
2596384831,-90.479057,-10.417395,-13.287201,1.013462,-0.014405,-0.005456
2596404883,-92.680336,-10.038176,-13.469633,0.974204,0.002117,-0.019558
2596424935,-94.325073,-10.718429,-14.891557,0.975007,0.020475,-0.025672
2596444986,-96.790329,-9.188361,-15.290071,1.013915,0.034771,-0.029470
2596465038,-97.384827,-8.054373,-14.232717,1.025121,0.014656,-0.033702
2596485090,-91.739456,-8.157492,-15.962341,1.007599,-0.030473,-0.054752
2596505142,-87.580498,-9.903471,-16.639887,1.019485,-0.018206,0.026623
2596545246,-76.519554,-11.536387,-13.788445,0.980101,-0.012053,-0.007446
2596565298,-80.089760,-15.251779,-15.373552,1.001004,0.024233,-0.014625
2596585350,-81.252556,-21.378803,-13.055608,0.979837,0.064323,-0.016148
2596605403,-79.945671,-21.440275,-0.156468,0.999384,0.138484,-0.075125
2596625454,-83.667450,-11.062457,18.028889,1.076883,0.163322,-0.135755
2596645507,-81.879974,-6.170289,23.854780,1.125445,0.166104,-0.100998
2596665560,-71.209122,-2.338163,19.767939,1.064374,0.155544,-0.144115
2596685612,-55.776016,-0.012930,13.774726,1.009740,-0.049689,-0.083780
2596705664,-41.033108,1.056916,9.256397,0.992490,-0.255860,0.007006
2596725716,-32.346096,1.566013,7.553916,1.022130,-0.270928,-0.002970
2596745768,-24.622213,1.688763,8.172262,0.998088,-0.191123,-0.016061
2596765820,-15.054227,0.255088,8.067746,0.944378,-0.114457,0.010209
2596785872,-5.482882,1.539014,4.331125,0.980278,-0.076133,0.009838
2596805924,1.079625,6.434072,3.296379,1.014090,-0.065891,0.022047
2596825976,6.316131,8.875984,4.665501,1.002047,-0.063679,0.006940
2596846028,11.708494,8.854249,6.452322,0.983719,-0.063390,-0.008190
2596866080,16.142641,8.115665,6.324472,0.982798,-0.061333,-0.023125
2596886132,20.077509,6.781340,6.145797,0.986687,-0.059263,-0.018759
2596906184,22.207043,5.191084,6.976637,0.997699,-0.053059,-0.018662
2596926235,22.104763,3.800104,8.012204,1.009552,-0.042572,-0.024152
2596946288,22.004519,2.801636,7.492733,1.023222,-0.041989,-0.023608
2596966341,20.681789,1.420402,6.535427,1.008868,-0.049541,-0.028530
2596986390,18.800875,-0.959264,5.536284,1.002586,-0.049754,-0.029753
2597006442,18.070450,-2.085720,4.638526,1.004808,-0.052537,-0.034159
2597026494,17.881571,-2.405368,4.707904,1.004340,-0.057291,-0.029744
2597046546,18.031286,-2.000786,4.903511,0.994796,-0.045072,-0.025137
2597066598,18.585947,-1.349813,4.029494,0.997762,-0.013567,-0.033569
2597086650,19.721252,1.301637,4.361012,1.007482,-0.005602,-0.062766
2597106702,20.179691,3.774779,4.807066,0.969999,-0.028473,-0.048862
2597126754,17.730530,1.714948,2.154809,1.013814,-0.049867,-0.001135
2597146806,15.319175,6.082109,-1.042558,1.074754,-0.026017,-0.020064
2597166858,16.957167,8.278615,0.055828,1.050812,-0.018586,0.001401
2597186910,16.599152,10.751324,1.275224,1.011695,-0.002015,0.009930
2597206962,14.498539,11.262033,0.175251,0.994348,-0.000549,0.013516
2597227014,13.017923,11.033447,-0.823866,0.982247,0.002705,0.007758
2597247065,11.881859,10.412206,-1.844486,0.980009,0.005797,0.014704
2597267118,9.810383,9.370392,-2.378277,0.993701,-0.001031,0.030785
