Timestamp (us),Gyroscope X (deg/s),Gyroscope Y (deg/s),Gyroscope Z (deg/s),Accelerometer X (g),Accelerometer Y (g),Accelerometer Z (g)
2478738024,-2.449340,4.677066,-2.617998,1.007807,-0.060522,0.049205
2478758076,-1.528977,3.953662,-3.911829,0.984377,-0.068061,0.052944
2478778128,-0.769612,3.179526,-4.659745,0.985439,-0.047193,0.063525
2478798180,-0.410397,2.840830,-4.567756,0.990568,-0.031049,0.067101
2478818232,-0.543146,2.930632,-3.438754,0.987341,-0.030609,0.072980
2478838284,-0.832810,2.892271,-3.203573,0.997742,-0.040800,0.076716
2478858336,-0.803067,3.209148,-3.545728,1.006081,-0.053064,0.075554
2478878387,0.107028,3.913089,-3.616683,0.998381,-0.048650,0.080447
2478898439,0.485820,3.634968,-2.372909,0.990146,-0.038761,0.080729
2478918491,0.492460,3.029949,-0.817140,0.987192,-0.030832,0.082888
2478938544,0.249228,2.577576,-0.072758,0.991027,-0.027861,0.080427
2478958595,0.556480,1.650388,0.650330,1.000867,-0.028998,0.081964
2478978647,-0.069393,1.635488,1.340286,0.999796,-0.032755,0.079910
2478998699,-0.450782,1.357491,2.190221,0.996182,-0.026074,0.071082
2479018751,-1.553674,1.213346,2.145630,1.005197,-0.020708,0.070084
2479038803,-1.565772,0.890671,1.555587,0.997748,-0.025117,0.067901
2479058855,-2.402555,0.921477,1.290511,1.003712,-0.030428,0.064006
2479078907,-3.857452,1.079559,1.381423,1.010329,-0.026353,0.068459
2479098959,-4.104315,0.152495,1.498388,1.024552,-0.034212,0.056654
2479119011,-3.500947,-0.336004,1.659018,0.976204,-0.054132,0.056178
2479139063,-2.580186,-1.330347,0.737489,0.979297,-0.072334,0.066317
2479159115,-0.940273,-1.050469,-1.113315,1.003884,-0.078258,0.074012
2479179167,1.776593,-0.101596,-2.731854,1.009443,-0.073911,0.072184
2479199220,3.106688,0.219314,-2.581846,0.998174,-0.052149,0.070852
2479219272,3.061108,0.173803,-2.528621,0.985148,-0.029519,0.073316
2479239324,3.468097,0.295233,-4.151078,0.987443,-0.028108,0.069953
2479259376,4.660142,0.569202,-6.471601,0.996128,-0.039245,0.071325
2479279428,6.499330,1.937996,-8.007911,0.994446,-0.050286,0.068260
2479299480,6.987120,3.608013,-8.536784,0.984964,-0.054906,0.070700
2479319532,6.623784,4.316703,-7.743309,0.998901,-0.061704,0.076058
2479339584,9.411866,5.382995,-7.679749,1.015002,-0.074704,0.073050
2479359636,8.857468,7.393257,-6.155532,1.000595,-0.066121,0.084664
2479379689,18.123528,10.701298,-1.653117,0.993355,-0.062553,0.042764
2479399740,27.878893,8.679604,3.488967,1.041820,-0.007472,0.036836
2479419792,29.198929,9.999898,5.613642,1.013921,0.074826,0.027142
2479439844,24.287321,5.770089,5.698147,0.969590,0.157134,0.052595
2479459896,16.366766,-0.291721,1.326014,0.952599,0.114557,0.064056
2479479948,5.144248,-3.626915,-3.046781,0.978326,0.064281,0.070546
2479500000,-4.962639,-3.178963,-4.590892,0.986929,0.060598,0.097733
2479520050,-14.866795,-1.346958,-4.775632,1.033060,0.050319,0.102541
2479540102,-24.536516,2.957208,-3.240971,1.041521,0.080513,0.090528
2479560154,-36.020649,5.670521,-0.495138,1.057073,0.111541,0.065831
2479580206,-50.646660,5.993558,-2.711764,1.026592,0.219347,0.048553
2479600258,-71.054565,4.996698,-3.587921,0.980809,0.321261,0.047322
2479620310,-89.979507,3.064234,-5.082849,0.944740,0.291835,0.040954
2479640362,-108.586327,4.309531,-6.209889,0.955007,0.234809,0.028781
2479660414,-124.031258,4.653119,-6.736193,1.010322,0.132651,0.036899
2479680466,-139.297989,7.269674,-6.967232,1.053802,0.066953,0.055145
2479700518,-151.140778,10.875290,-5.603718,1.019074,0.053703,0.029604
2479720570,-161.422256,10.615993,-5.963014,0.998391,0.049661,0.029686
2479740622,-170.259872,8.219925,-7.164297,1.005199,0.026843,0.014912
2479760674,-180.105347,5.112513,-5.770772,1.031405,0.018230,0.012198
2479780726,-188.458801,2.546977,-5.463427,1.037376,0.026344,0.000423
2479800778,-194.229874,-0.902584,-7.154785,1.006674,-0.002707,-0.050718
2479820830,-201.175949,-1.942565,-3.571501,0.957257,-0.018013,-0.135504
2479840882,-210.309738,4.737961,1.024262,0.990162,0.010476,-0.226395
2479860934,-218.243744,11.655060,-2.604379,1.075527,-0.001859,-0.257274
2479880985,-216.408127,18.641628,-7.744892,1.152907,-0.151777,-0.256808
2479901038,-208.536407,22.312126,-15.278623,1.113864,-0.303717,-0.208067
2479921090,-198.481262,20.627279,-26.758457,1.022585,-0.320535,-0.117998
2479941141,-190.132462,15.309234,-39.559074,0.970402,-0.282164,-0.037561
2479961195,-181.563522,11.122110,-45.444073,0.992943,-0.237540,-0.001746
2479981247,-171.379654,12.412399,-47.612091,0.995701,-0.190327,0.001908
2480001299,-162.454239,16.220282,-53.721817,0.877307,-0.235971,-0.026941
2480021351,-161.959244,16.781773,-57.869614,0.834217,-0.253976,0.023403
2480041403,-169.244934,17.659523,-53.209030,0.868056,-0.106696,0.024664
2480061455,-172.953796,9.683813,-42.895603,0.990002,0.072190,0.049906
2480081506,-176.672882,1.028398,-33.208881,1.040495,0.148589,0.060468
2480101558,-179.369888,-7.272686,-30.951122,1.060353,0.073161,0.100925
2480121611,-183.373672,-6.743490,-37.946918,1.109751,-0.050130,0.086980
2480141662,-183.543747,-4.150669,-47.906967,1.097923,-0.091751,0.088195
2480161714,-177.908752,-6.447590,-53.183563,1.073020,-0.013694,0.067303
2480181766,-169.336365,-9.192787,-48.379620,1.063557,0.028696,0.027574
2480201818,-161.647552,-13.427038,-40.440132,0.985529,0.058673,0.026492
2480221870,-156.178467,-19.081347,-33.866768,0.868597,0.152512,0.005127
2480241922,-153.668518,-25.336439,-32.785038,0.821923,0.119898,-0.025727
2480261974,-149.983337,-31.786234,-32.491257,0.920369,0.048214,-0.034469
2480282025,-147.978500,-33.929020,-26.482044,0.990661,0.066172,-0.028362
2480302077,-146.947952,-29.558502,-18.334929,0.996906,0.080559,-0.059021
2480322129,-139.296249,-24.467422,-11.132403,1.019950,0.041468,-0.051408
2480342181,-128.078125,-26.468105,-0.594686,0.975041,0.087501,-0.033900
2480362233,-120.366829,-32.662270,8.321653,0.943319,0.204462,-0.046112
2480382285,-121.729416,-41.736431,8.209399,1.090510,0.190174,-0.032179
2480402337,-128.565460,-34.205738,5.631734,1.141454,0.138209,-0.065298
2480422389,-131.620926,-24.949957,6.616490,1.085349,0.059095,-0.112586
2480442441,-133.178894,-19.705868,4.348015,1.043607,-0.114704,-0.105508
2480462493,-133.625931,-16.725554,0.707581,1.012229,-0.171117,-0.074540
2480482545,-133.404953,-13.736402,-2.228274,1.001165,-0.042179,-0.039939
2480502597,-138.247772,-12.473841,-4.049879,1.004987,0.066340,0.000366
2480522649,-147.558624,-5.028581,2.801841,0.992556,0.189343,-0.024412
2480542701,-165.747910,-2.732542,14.896316,0.981014,0.215299,-0.152396
2480562753,-178.536240,5.610081,13.606359,0.995055,0.125197,-0.216509
2480582805,-184.977692,10.342331,5.096297,1.115472,0.069259,-0.233094
2480602857,-190.884445,10.975326,0.867125,1.114209,-0.046781,-0.208493
2480622909,-191.818954,10.132927,-4.109020,1.097011,-0.120164,-0.146328
2480642961,-187.969040,8.411389,-8.992864,0.980193,-0.110433,-0.082922
2480663012,-185.001968,1.022274,-8.832019,0.917783,-0.073105,-0.061439
2480683064,-184.504761,-3.217152,-7.460952,0.941950,-0.072080,-0.063370
2480703116,-185.870285,-4.890606,-8.962919,0.918849,-0.056718,-0.033720
2480723168,-186.433517,-6.453884,-11.875233,0.897594,0.006278,-0.047324
2480743222,-184.489395,-7.562333,-13.888099,0.926498,0.021318,-0.086737
2480763273,-180.180725,-11.430623,-15.384490,0.942092,-0.045266,-0.100942
2480783325,-174.644089,-16.429331,-15.634467,0.991375,-0.144423,-0.091720
2480803377,-167.730774,-18.934620,-14.385306,1.025357,-0.187766,-0.097248
2480823429,-160.757584,-21.800604,-15.006927,1.030867,-0.155695,-0.104579
2480843481,-154.642075,-23.564644,-15.760883,1.056791,-0.095608,-0.093639
2480863533,-153.804123,-23.500837,-16.140347,1.066303,-0.076959,-0.061523
2480883585,-157.574905,-22.498268,-16.968586,1.065262,-0.068995,-0.012454
2480903637,-163.235535,-23.636089,-15.772785,1.000918,-0.016336,0.020380
2480923697,-165.354218,-27.688894,-15.795975,0.935563,-0.003591,-0.018857
2480943741,-164.300766,-33.508064,-17.496716,0.897292,-0.074774,-0.079833
2480963793,-161.388428,-37.913559,-13.677917,0.881865,-0.116335,-0.086641
2480983845,-155.730835,-40.682896,-6.083818,0.892709,-0.074093,-0.075965
2481003897,-143.616821,-41.415852,-0.075422,0.902651,-0.022208,-0.102579
2481023949,-133.211472,-41.262260,2.641251,0.977370,-0.030229,-0.045699
2481044017,-124.378555,-34.865559,3.813591,1.046470,-0.056870,-0.140784
2481084104,-114.622253,-25.828587,-6.998242,1.161941,0.243282,-0.237868
2481104156,-125.103432,-30.051868,1.053676,1.037658,0.209726,-0.310251
2481124208,-128.331299,-36.535629,7.905788,0.879411,0.231023,-0.276810
2481144259,-124.398346,-51.010380,16.245668,0.824295,0.200511,-0.190599
2481164311,-126.970604,-45.389996,22.881525,1.040403,0.019908,-0.139535
2481184364,-129.582382,-21.410275,29.954346,1.295268,-0.133766,-0.181482
2481204416,-136.458893,-0.797104,32.508041,1.090733,-0.086674,-0.211742
2481224468,-152.581512,7.176188,29.090843,0.809701,0.094979,-0.338622
2481244520,-162.949158,5.842736,25.840117,0.942029,0.205113,-0.370677
2481264572,-165.080505,3.838453,20.845657,1.194203,0.117107,-0.375324
2481284624,-164.347351,6.143513,12.462709,1.177313,-0.037359,-0.309582
2481304676,-163.580795,4.294860,5.079328,1.062942,-0.145526,-0.231435
2481324727,-161.963516,1.709682,2.783666,0.979183,-0.187183,-0.183287
2481344780,-160.838745,-0.134537,4.108366,0.967147,-0.122853,-0.168394
2481364832,-161.645432,-0.387687,4.526362,0.954743,-0.007906,-0.178264
2481384883,-164.457855,1.012878,3.218941,0.906444,0.029644,-0.168953
2481404935,-167.029633,0.596311,3.630541,0.856775,0.029625,-0.156218
2481424987,-165.381134,-1.563424,6.138462,0.864701,0.008015,-0.175633
2481445039,-162.918411,-1.490281,10.343669,0.958447,-0.013900,-0.185076
2481485143,-154.256592,-3.581723,17.585745,0.964858,-0.080716,-0.156719
2481505196,-148.696472,-6.842058,13.699450,0.942506,-0.142279,-0.169798
2481525249,-144.613724,-8.273025,6.510521,1.015091,-0.125254,-0.165754
2481545301,-140.544479,-9.311178,3.814565,1.099175,-0.064257,-0.170044
2481565353,-138.850662,-7.780443,5.218383,1.117978,-0.034951,-0.188609
2481585404,-137.659653,-7.335372,5.936433,1.055474,-0.036294,-0.209485
2481605456,-135.889786,-6.280013,5.325860,1.041234,-0.036051,-0.222131
2481625509,-134.587204,-7.511273,7.353228,1.025795,-0.027088,-0.190080
2481645560,-135.457092,-6.248250,8.690657,1.017759,-0.052063,-0.175307
2481665612,-134.070389,-3.738194,9.212049,0.989146,-0.064747,-0.155550
2481685664,-132.228943,-1.358889,7.801098,0.985808,-0.069001,-0.128350
2481705716,-129.523605,1.710313,6.546626,1.011492,-0.088643,-0.114399
2481725768,-127.504066,3.558411,4.985865,0.993650,-0.089570,-0.087340
2481745820,-126.983719,2.561592,2.889746,0.892373,-0.045564,-0.095020
2481765872,-124.086342,-0.535865,1.095613,0.892873,0.014223,-0.101253
2481785924,-122.122589,-2.356248,1.722672,0.976317,0.040809,-0.103786
2481805975,-120.237778,-3.345391,1.823947,1.001206,0.010510,-0.104350
2481826027,-120.706329,-1.755766,0.378632,0.997634,0.014603,-0.103513
2481846079,-123.640488,-1.346018,0.976985,1.011184,0.072579,-0.111268
2481866131,-122.667969,4.464444,5.200839,1.155373,0.135806,-0.121429
2481886183,-122.777405,18.575029,8.517311,1.109302,0.117149,-0.090912
2481906235,-127.769279,26.112535,5.112871,0.990352,0.132667,-0.086664
2481926287,-130.076797,22.943544,5.783968,0.966784,0.166212,-0.126390
2481946338,-124.564835,24.228874,8.847088,1.009341,-0.005083,-0.224624
2481966391,-115.247513,30.729294,7.919529,1.040146,-0.343512,-0.209492
2481986443,-105.748619,35.764137,4.351902,1.051495,-0.494499,-0.095149
2482006494,-95.375122,35.324944,5.804943,1.049147,-0.414456,0.000973
2482026547,-86.107445,35.873272,12.082765,1.096787,-0.256494,-0.008970
2482046598,-77.605347,38.313240,19.354757,1.030069,-0.116775,-0.019058
2482066650,-65.759796,35.757980,20.806995,0.987767,-0.105688,0.006779
2482086702,-56.297047,33.023331,16.781099,0.940971,-0.134732,0.041683
2482106754,-47.815872,25.036303,13.940807,0.995770,-0.160307,0.068452
2482126806,-44.341457,20.285255,12.970698,0.989727,-0.148350,0.066816
2482146858,-42.885880,15.180308,13.343989,0.945525,-0.114789,0.063388
2482166910,-38.627136,8.037764,13.943111,0.923762,-0.081737,0.027043
2482186962,-34.855030,4.835034,12.603773,0.937907,-0.075657,0.037070
2482207014,-34.924957,3.972067,11.871611,0.966238,-0.069048,0.037467
2482227066,-30.478983,4.910244,12.768717,1.012365,-0.113585,0.029130
2482247118,-24.245766,8.199600,12.664253,1.032576,-0.167464,0.045075
2482267171,-19.247702,11.815876,12.710673,1.040251,-0.174072,0.045569
2482287223,-13.817141,14.932294,11.303505,1.055859,-0.173634,0.042039
2482307275,-8.145735,17.558418,8.950573,1.056770,-0.165471,0.053675
2482327327,-4.305838,20.461536,7.870592,1.039426,-0.152373,0.051038
2482347379,-1.198339,21.740557,7.630147,0.997667,-0.137296,0.044296
2482367432,2.070748,20.890528,7.889616,0.968323,-0.135492,0.041523
2482387484,6.537476,19.794487,7.626566,0.960702,-0.154721,0.044963
2482407536,11.106897,19.623463,7.072291,0.953363,-0.160132,0.055334
2482427588,16.053141,19.846544,7.221370,0.959594,-0.164575,0.067790
2482447648,22.764400,20.938232,6.048099,0.977391,-0.156128,0.122349
2482467692,26.128551,21.395678,5.279870,0.989377,-0.155199,0.192223
2482487744,25.475792,18.601131,7.025309,0.960517,-0.108843,0.255555
2482507795,23.785385,11.857997,8.504297,0.947987,-0.020565,0.280620
2482527847,23.661337,3.224654,8.390089,0.946350,0.030431,0.269930
2482547899,25.486984,-6.392126,6.815848,0.920834,-0.011508,0.289229
2482567967,31.334404,-18.872746,6.803754,0.904898,-0.078294,0.303976
2482588002,33.901844,-29.633339,12.046679,0.917379,-0.064611,0.267552
2482608053,29.118839,-32.045895,14.838145,0.776277,-0.010107,0.205574
2482628106,15.303831,-32.676537,15.830418,0.695465,-0.031483,0.114091
2482648157,16.261898,-33.777035,6.511757,0.799288,-0.162258,0.057448
2482668209,23.290430,-33.036327,-10.826331,0.993734,-0.397859,0.052192
2482708313,47.735981,-30.394217,-14.451579,1.246487,-0.178490,0.137513
2482728365,43.999645,-31.370193,-4.086472,1.218060,0.108464,0.131263
2482748417,35.254826,-33.334557,-0.757058,1.126356,0.230554,0.131200
2482768469,26.595716,-35.310341,-4.104697,0.979436,0.182028,0.102182
2482788521,20.831675,-36.959007,-3.149627,0.862063,0.103363,0.102260
2482808573,17.373316,-37.657543,-0.796533,0.875187,0.015183,0.115916
2482828625,15.604299,-38.628906,2.284491,0.901148,-0.021879,0.137978
2482848677,12.769488,-42.302296,1.775193,0.930795,-0.021137,0.134453
2482868729,9.641062,-42.697292,-3.413936,0.977674,0.014693,0.097562
2482888781,10.266223,-38.653603,-11.666416,1.028841,0.053373,0.043219
2482908833,12.304180,-29.400740,-19.982815,1.154576,0.090812,0.037043
2482928885,14.856039,-17.046509,-21.026701,1.221261,0.094230,0.043475
2482948937,16.703001,-8.982635,-11.930068,1.147535,0.087509,0.042212
2482968989,15.097299,-5.556796,2.003970,1.106641,-0.002814,0.002978
2482989041,13.589003,-1.421297,9.228152,0.990621,-0.051569,-0.040541
2483009093,16.586458,-1.997879,10.987409,0.869308,-0.086943,-0.043173
2483029145,24.254883,-2.439778,7.621189,0.895328,-0.140888,-0.007192
2483049198,33.264366,3.152662,-2.087145,0.952186,-0.056869,0.033500
2483069250,34.667213,11.363222,-4.116773,0.964287,0.019023,0.046340
2483089302,30.568409,18.142717,-1.076800,1.070284,-0.026457,0.058252
2483109354,29.910080,35.011494,-2.802067,1.102488,-0.052553,0.051875
2483129406,23.838255,48.950859,-7.167979,1.095960,-0.039972,0.023963
2483149458,23.550760,53.987740,-14.688402,1.115481,-0.015869,0.010008
2483169510,24.405586,49.316013,-12.421654,1.082034,0.025339,0.018655
2483189562,23.007050,36.595444,-3.297740,0.950799,0.047053,0.000569
2483209614,21.139399,23.812454,4.848867,0.871718,0.055265,0.034449
2483229666,18.627150,15.080052,7.138366,0.920229,0.033630,0.090029
2483249718,14.727757,14.482880,3.185574,0.982290,0.002824,0.124725
2483269770,10.845159,14.500497,0.390238,0.983157,0.007264,0.130133
2483289822,5.906396,12.511898,0.762609,0.984113,0.036828,0.138886
2483309874,0.591966,7.430598,2.267455,0.939766,0.065739,0.147053
2483329925,-2.041608,-0.486318,2.788290,0.908762,0.067081,0.163177
2483349984,-5.577719,-10.392936,2.937349,0.897201,0.063446,0.177678
2483370028,-10.847528,-25.185396,2.990166,0.867467,0.057409,0.198623
2483390080,-9.824000,-39.959122,0.706397,0.823708,0.013237,0.236177
2483410132,-11.833872,-49.598911,-4.132952,0.777644,0.035352,0.213964
2483430184,-17.245949,-57.612297,-0.397334,0.697859,-0.136126,0.006803
2483450236,-13.260371,-51.171204,-8.772936,0.904245,-0.121176,-0.091880
2483470288,-22.569908,-36.699501,-1.278480,1.037061,0.043861,-0.249988
2483490340,-25.518501,-29.330305,12.157388,1.379047,0.059588,-0.199940
2483510392,-23.139568,-23.506054,11.120906,1.475111,-0.028256,0.003431
2483530443,-14.985288,-11.722883,5.234071,1.384959,-0.095389,0.081911
2483550496,-8.290418,3.097292,4.490973,1.213270,-0.095821,0.039710
2483570548,-3.813481,11.056899,0.422394,0.954060,-0.096387,-0.017561
2483590600,-0.693282,10.599106,-4.351864,0.772239,-0.083857,-0.079524
2483610652,-0.204097,5.393564,-6.873050,0.755304,-0.037499,-0.075364
2483630703,-1.298298,-0.699341,-7.624724,0.796044,-0.004531,-0.012292
2483650755,-4.004525,-3.188949,-7.152882,0.926064,-0.021818,0.055358
2483670807,-5.268374,-1.134506,-5.113200,1.051237,-0.024773,0.102994
2483690860,-4.271046,2.605447,-0.594219,1.131435,-0.013577,0.117611
2483710912,-1.298618,4.238481,3.650908,1.139984,-0.039492,0.133967
2483730964,1.272753,6.725533,5.308808,1.125659,-0.075244,0.107378
2483751016,3.779108,7.715222,5.554626,1.100744,-0.104402,0.079819
2483771068,3.945406,6.069652,3.278972,1.084729,-0.111263,0.047066
2483791119,3.290730,6.095547,3.248796,1.125461,-0.075493,0.032399
2483811172,0.600855,8.248530,3.143793,1.095743,-0.040660,0.045873
2483831225,-1.297673,11.093345,4.771709,0.945098,-0.018299,0.057088
2483851277,-3.090367,11.762283,7.953195,0.833455,-0.033332,0.058651
2483871329,-5.510988,12.646634,6.245729,0.839834,-0.070131,0.108564
2483891381,-3.949173,12.327322,3.366279,0.885361,-0.070981,0.118439
2483911432,-1.882002,15.336905,1.748445,0.890527,-0.104585,0.124954
2483951537,0.933781,22.461582,-2.976045,0.991487,-0.058194,0.125951
2483971588,1.119269,25.496355,-1.076670,0.968832,-0.028181,0.118808
2483991640,-6.374212,29.663542,-13.805896,1.149828,0.039745,0.094858
2484011692,-14.689197,26.767944,-24.881023,1.223204,0.088288,0.072549
2484031744,-21.578831,27.625441,-26.215462,1.057185,0.027460,0.088617
2484051796,-25.699083,24.252090,-18.790174,0.995816,0.027002,0.091459
2484071848,-24.164558,21.989439,-7.255320,0.911561,0.064161,0.091613
2484091900,-23.347315,15.385096,1.551163,0.859851,0.028189,0.112839
2484111952,-24.049065,12.530845,4.706511,0.910324,-0.044194,0.139028
2484132003,-26.427414,11.957846,4.193950,0.936290,-0.075186,0.172653
2484172107,-27.725672,-1.769527,2.900231,0.855230,-0.019830,0.225241
2484192158,-26.279987,-8.031013,0.480877,0.900588,-0.034361,0.193103
2484212210,-27.790894,-9.167244,-4.744160,0.936665,-0.081293,0.158457
2484232262,-28.176971,-11.532925,-9.866827,0.876783,-0.195813,0.120096
2484252314,-30.811497,-13.029232,-3.676319,0.986811,-0.094743,0.086624
2484272367,-35.885918,-12.326900,5.758840,1.166565,0.014106,0.020748
2484292418,-31.134172,-7.603148,4.717739,1.281198,-0.065966,0.007491
2484312471,-20.272839,1.013911,-2.818925,1.255894,-0.205009,0.085718
2484332523,-8.998350,6.321680,-10.670224,1.123212,-0.235135,0.153653
2484352575,-1.714794,7.267576,-15.071831,0.999028,-0.170061,0.155110
2484372627,2.898646,6.508769,-19.769783,0.890648,-0.088650,0.127406
2484392679,3.741865,4.936379,-21.977718,0.839566,-0.013012,0.125714
2484412731,1.387566,3.468168,-21.221518,0.848988,0.035224,0.142854
2484432782,-0.977893,3.211995,-18.476223,0.889595,0.053883,0.158104
2484452835,-4.396658,4.290864,-17.213057,0.941793,0.037621,0.188472
2484472886,-6.135709,2.781263,-18.829144,1.002814,-0.049250,0.241987
2484492939,-4.327808,1.808578,-18.447477,1.065312,-0.103685,0.276233
2484512990,1.464100,1.180399,-16.931549,1.099678,-0.088047,0.284476
2484533058,4.301778,1.989956,-17.897860,1.064088,-0.057673,0.259969
2484553094,1.793610,3.051621,-15.498111,0.986788,0.033437,0.213106
2484573148,-6.376810,1.633111,-5.698349,0.869356,0.135782,0.163829
2484593199,-9.909346,-2.531674,5.609886,0.828518,0.199054,0.147175
2484613251,-7.868935,-4.761778,9.785283,0.924960,0.119875,0.141959
2484633303,-6.957446,-4.079479,0.316494,0.962862,-0.004784,0.161393
2484653355,-7.203576,-3.193192,-9.311750,0.957325,0.050784,0.191611
2484673407,-11.556458,-1.371762,-13.295454,1.049784,0.060286,0.168345
2484693459,-19.627525,-2.133260,-25.689180,1.123051,0.087596,0.128832
2484713511,-27.915340,-2.055589,-26.444441,1.069112,0.085508,0.124475
2484733563,-35.281662,0.894528,-18.137909,1.040791,0.133434,0.157528
2484753615,-44.289360,4.299322,-5.876156,1.020615,0.227928,0.192827
2484773667,-59.928749,6.882006,5.693488,0.978596,0.289461,0.207358
2484793719,-75.016396,10.115582,11.591637,0.965320,0.276397,0.223593
2484813771,-85.378899,5.383931,9.989673,0.816008,0.174796,0.193809
2484833823,-81.657761,-10.027850,-1.114749,0.706433,0.069930,0.151985
2484853875,-74.237022,-26.132599,-7.989020,0.745473,-0.077734,0.144337
2484873941,-70.917091,-40.871017,-3.482970,0.893418,-0.210303,0.088845
2484893977,-73.843803,-39.628731,1.493149,0.985262,-0.040635,-0.018348
2484914029,-86.866676,-30.752096,16.412827,1.060311,0.067571,-0.106863
2484934081,-101.123138,-18.852314,19.696396,1.265966,0.045459,-0.109057
2484954133,-97.482018,-13.548324,8.346303,1.331937,-0.172177,-0.025910
2484974185,-79.525414,-11.515728,-10.477961,1.243980,-0.376104,0.041899
2484994237,-64.652763,-9.425992,-17.114376,1.056979,-0.397134,0.086986
2485014289,-56.832787,-8.609292,-19.696775,0.889017,-0.302790,0.077069
2485034341,-53.785748,-10.428556,-20.009890,0.852669,-0.170109,0.052918
2485054393,-52.923748,-10.840296,-13.998660,0.894992,-0.071219,0.061889
2485074445,-51.107239,-7.998962,-9.567817,0.926124,-0.037452,0.099618
2485094497,-49.394272,-6.309108,-7.035289,0.997044,-0.053170,0.139747
2485114549,-48.322525,-2.268139,-5.404955,1.040807,-0.052543,0.138777
2485134601,-47.511829,2.489055,-4.292367,1.088696,-0.076051,0.145842
2485154653,-45.328499,3.106229,-4.992522,1.075627,-0.146538,0.155471
2485174705,-42.857471,6.076303,-9.664680,1.065213,-0.246393,0.131197
2485194757,-43.885796,8.936105,-14.949129,1.035746,-0.204239,0.129137
2485214809,-41.449989,5.978589,-12.158313,0.945362,-0.092394,0.111206
2485234861,-41.926815,-0.596178,-9.323698,0.792590,-0.015657,0.100328
2485254913,-42.596355,-7.661230,-4.592586,0.778093,0.068385,0.089800
2485274965,-42.282017,-9.131283,6.288174,0.974712,0.077213,0.105179
2485295017,-41.178711,-2.198805,13.721593,1.126484,-0.066967,0.133462
2485315069,-34.154995,7.386000,10.707575,1.136697,-0.033749,0.116609
2485335122,-28.672773,9.100450,15.626071,1.107613,0.101040,0.111844
2485355174,-30.563042,3.646724,18.320896,1.055597,0.024263,0.081281
2485375226,-32.894241,-9.459364,17.896980,0.997010,-0.052885,0.083122
2485395278,-33.854992,-21.275333,20.772560,0.931114,-0.077994,0.046319
2485415330,-32.755203,-29.904501,27.236446,0.895641,0.005366,0.099633
2485435382,-41.503990,-29.996151,37.365314,0.971456,0.048850,0.021507
2485455434,-48.092968,-28.816341,39.857033,0.892285,-0.015809,0.029510
2485475486,-42.816338,-31.485147,32.573421,0.770660,-0.107322,0.014893
2485495538,-25.523275,-35.711231,17.537701,0.801844,-0.139965,0.014674
2485515590,-1.924298,-29.894476,5.413377,0.990016,-0.323281,-0.050488
2485535642,23.115400,-20.137064,-3.322077,1.135402,-0.556998,-0.101011
2485555694,40.502953,-12.111093,-7.842565,1.197981,-0.420343,-0.129323
2485575746,40.797401,-7.836924,-3.355494,1.153983,-0.127858,-0.063675
2485595798,30.292252,-5.335375,6.886314,1.127811,0.036558,-0.004508
2485615850,17.043533,-0.391650,19.583830,1.058265,0.118728,-0.016767
2485635901,7.098685,5.382918,24.615000,1.002569,0.067864,-0.039022
2485655952,3.473484,4.367168,21.413868,0.897086,-0.015701,-0.027533
2485676004,7.357779,-3.103846,17.292562,0.861430,-0.083776,0.008266
2485696056,13.436689,-8.988102,12.119125,0.878402,-0.152170,0.070979
2485716108,13.472500,-14.095816,5.141336,0.998720,-0.135967,0.143989
2485736160,12.796819,-7.955867,4.362519,1.141568,-0.075811,0.084231
2485756212,8.620376,-2.642684,4.914095,1.110824,-0.157665,0.159758
2485776264,11.448771,-3.459673,-1.132088,0.977386,-0.146194,0.118145
2485796316,18.108381,-5.618780,-8.478569,0.836859,-0.087116,0.064660
2485816368,20.616486,-10.470297,-18.307795,0.777600,-0.081185,0.030908
2485836420,13.549441,-17.852413,-23.456310,0.845162,-0.130407,0.053951
2485856472,8.792268,-18.877602,-18.600578,1.074804,-0.150918,0.064814
2485876524,5.286654,-14.249158,-8.201814,1.245659,-0.145300,0.075685
2485896576,6.583698,-6.611741,2.450166,1.168431,-0.129773,0.023062
2485916628,11.590653,-1.762164,17.392563,1.125121,-0.133989,-0.004734
2485936680,12.636394,0.478745,29.692705,1.093253,-0.115544,0.025818
2485956732,6.619109,1.873852,34.419273,0.962754,-0.068663,-0.037178
2485976784,7.179880,0.290528,29.581579,0.874960,-0.007490,-0.098402
2485996836,9.738766,-6.481838,24.465485,0.840405,0.024988,-0.051763
2486016888,18.655720,-14.841397,12.713468,0.858623,-0.062317,0.009906
2486036940,37.558212,-19.972923,4.076941,0.863292,-0.146035,0.063894
2486056991,51.432419,-27.266983,-1.594579,0.856654,-0.255331,0.084379
2486077044,61.179329,-32.637802,-7.400125,0.876336,-0.236424,-0.001132
2486097097,77.907516,-35.675533,-15.232157,0.789605,-0.265962,-0.167269
2486117149,100.929810,-35.520630,-28.905611,0.822135,-0.355776,-0.290692
2486137201,119.877007,-30.339836,-27.581043,1.216301,-0.296934,-0.283580
2486157253,111.532631,-17.009706,-8.358344,1.467358,-0.026336,-0.198955
2486177305,85.660965,-4.088897,13.471483,1.344975,0.288544,-0.162842
2486197357,66.075836,-0.677519,24.509127,1.117546,0.412183,-0.167158
2486217409,58.499847,-3.552004,27.970108,0.957658,0.269653,-0.191998
2486237461,58.015434,-6.208718,26.137749,0.877704,0.065310,-0.167388
2486257518,63.181377,-10.960118,18.580931,0.874671,-0.080606,-0.090287
2486277565,73.144791,-14.275490,7.462959,0.956005,-0.160871,0.009374
2486297617,76.311646,-8.339244,1.726861,1.051649,-0.090951,0.081314
2486317669,75.387909,-2.085337,8.397854,1.171905,0.013115,0.058878
2486337721,76.399361,-0.630178,23.724716,1.337526,0.081410,0.075984
2486357773,82.901489,5.619578,37.646187,1.206935,0.024529,-0.012805
2486377828,91.034134,7.446045,23.979759,0.829449,-0.153396,-0.084312
2486397875,98.110916,-0.423377,1.631319,0.737690,-0.155856,-0.121742
2486417927,98.180283,-9.909830,-9.901505,0.738816,-0.117382,-0.099822
2486437979,93.989662,-19.659218,-18.999088,0.798873,-0.108501,-0.085139
2486458031,95.662094,-26.256012,-29.034220,1.008878,-0.074683,-0.033146
2486478083,96.113586,-24.972652,-35.427860,1.132525,-0.090007,0.000990
2486498135,96.190483,-21.161221,-34.251122,1.083854,-0.172935,-0.021753
2486518186,98.742561,-14.712970,-26.854439,1.070792,-0.190843,-0.039543
2486538239,105.383972,-4.478291,-21.571602,1.108782,-0.176536,-0.151045
2486578343,105.710335,0.807502,1.139364,0.996780,-0.004535,-0.088302
2486598394,102.039017,-5.464066,2.405209,0.906540,0.049855,-0.102204
2486618447,101.413750,-12.487254,-4.262590,0.906464,0.044044,-0.101956
2486638498,100.906410,-15.949568,-13.390705,0.921111,0.022085,-0.070243
2486658550,99.422951,-15.717354,-17.142570,0.915447,0.018352,-0.050790
2486678602,100.735382,-13.883615,-13.056711,0.890050,0.012691,-0.023276
2486698654,107.825577,-10.832388,-8.499596,0.912279,-0.025232,-0.048400
2486718706,127.837990,-6.396751,-14.441053,0.818877,-0.291514,-0.218025
2486738758,148.982361,-12.621636,-31.396290,0.939543,-0.378906,-0.261418
2486758810,153.344101,5.229820,-30.587751,1.246953,-0.198244,-0.274144
2486778862,144.108185,13.806177,-10.658679,1.441601,0.101137,-0.207611
2486798914,119.907784,14.763697,12.045474,1.312675,0.326778,-0.146245
2486818966,90.449722,9.387546,25.466331,1.059316,0.457660,-0.116384
2486839019,72.787506,-4.862331,30.478256,0.935946,0.416994,-0.107517
2486859071,64.626762,-19.508780,32.593060,0.875510,0.323432,-0.077598
2486879123,63.242832,-27.821810,30.416714,0.839902,0.178260,-0.058175
2486899175,65.271683,-29.884193,23.943100,0.845613,0.033476,-0.011471
2486919227,65.449768,-25.732285,17.653357,0.950732,-0.056200,0.016941
2486939279,64.934189,-22.594822,13.724404,1.054412,-0.066823,0.033340
2486959331,66.832268,-18.697458,11.012201,1.087947,-0.015447,0.056704
2486979383,66.959526,-14.634661,9.876471,1.129640,0.016546,0.051086
2486999435,63.486195,-11.659649,10.913332,1.166645,-0.053298,0.040705
2487019487,61.754578,-13.229099,15.413668,1.163914,-0.126442,-0.016725
2487039539,67.624260,-15.720269,13.980195,1.062193,-0.293872,-0.076401
2487059591,78.560165,-14.259346,-2.755428,0.841620,-0.373972,-0.091034
2487079643,84.173340,-15.771137,-15.886518,0.756765,-0.238555,-0.068573
2487099694,80.348099,-20.310833,-20.295647,0.850627,-0.128502,-0.023739
2487119747,73.112587,-21.861835,-21.576191,0.970371,-0.068830,0.001049
2487139805,72.360939,-9.042295,-11.684089,1.261523,-0.156808,-0.058761
2487159849,79.987839,11.054079,-6.215790,1.083760,-0.126889,0.002525
2487179901,87.048943,16.399799,2.244171,1.037456,0.023792,-0.089614
2487199953,93.275665,8.524351,14.531882,0.957537,-0.005756,-0.033945
2487220005,82.876938,-2.818113,13.217973,0.894686,-0.074376,0.038021
2487240057,73.463722,-4.422884,15.280696,0.968194,-0.085049,-0.008322
2487260109,72.513695,-3.934051,16.726925,0.978647,-0.044922,-0.069605
2487280161,76.979225,-7.400170,12.644669,0.917937,-0.011430,-0.056245
2487300213,77.766884,-14.171136,9.575510,0.843028,-0.027526,0.024570
2487320265,78.312363,-25.266260,8.446391,0.786583,-0.096388,0.014606
2487340317,82.667709,-34.865402,5.848045,0.877505,-0.083648,-0.074690
2487360369,97.041191,-43.209602,0.467969,0.838617,-0.233859,-0.115216
2487380421,113.343933,-43.450966,-16.089352,0.958247,-0.484235,-0.195902
2487400473,121.361473,-27.552986,-18.231153,1.329091,-0.476818,-0.274700
2487420525,116.919693,-9.081509,-5.151336,1.444731,-0.131548,-0.221074
2487440577,100.228195,0.899122,10.463085,1.345126,0.099319,-0.109755
2487460629,80.837967,3.475596,21.329220,1.140105,0.248288,-0.061402
2487500733,56.635048,-19.059877,31.411995,0.853174,0.137863,-0.000356
2487520784,49.430618,-28.230371,26.921480,0.874370,0.089804,0.015800
2487540836,45.336124,-32.753475,20.617647,0.909877,0.025762,0.055874
2487560888,41.795464,-30.602423,13.904099,1.000132,-0.087562,0.065641
2487580940,37.332081,-18.746714,9.719119,1.033283,-0.220855,0.059966
2487600994,37.912975,-13.207236,3.939820,0.973170,-0.242181,0.045518
2487621046,39.413742,-11.014345,-3.768483,0.892500,-0.177968,0.011666
2487641098,34.591385,-13.516909,-15.126607,0.822885,-0.141307,-0.012700
2487661150,30.124052,-18.256321,-24.029144,0.899100,-0.156442,0.010192
2487681202,32.358028,-19.690744,-22.675930,1.114442,-0.160826,0.026402
2487701254,41.994026,-8.518663,-11.531260,1.251213,-0.241601,-0.046128
2487721306,51.991997,6.072272,-2.747974,1.070000,-0.192058,0.002909
2487741358,58.070541,5.969100,10.627113,1.021761,-0.114533,0.044022
2487761410,63.499676,-0.295720,19.135229,0.995939,-0.193851,0.009675
2487781462,75.608032,-5.018494,17.313158,0.977821,-0.314310,-0.011962
2487801513,90.874954,-7.691244,8.684590,0.913769,-0.374030,-0.004000
2487821565,98.978119,-11.292827,2.236892,0.856607,-0.263481,0.003222
2487841617,102.663307,-18.038700,0.136738,0.847951,-0.113275,-0.025934
2487861669,109.372803,-28.347595,-1.883986,0.850937,-0.037653,-0.075411
2487881721,118.760445,-38.740860,-9.195469,0.840879,-0.088820,-0.106881
2487901773,137.304749,-47.289021,-19.911890,0.810139,-0.224419,-0.207230
2487921824,154.849701,-48.321602,-23.650902,1.131425,-0.289369,-0.256004
2487941876,154.646469,-36.098942,-18.660521,1.417796,-0.166910,-0.211858
2487961928,136.658722,-18.142813,-5.839445,1.372159,0.049205,-0.123980
2487981980,115.037941,-10.552417,4.267457,1.168891,0.188384,-0.074319
2488002032,99.880997,-9.641743,9.067106,1.024109,0.175467,-0.065835
2488022084,90.555641,-14.266756,12.436209,0.946412,0.049427,-0.029845
2488042136,82.913826,-19.802570,14.102592,0.842755,-0.017542,-0.027169
2488062188,79.229507,-25.322235,13.039112,0.782857,0.029994,-0.003878
2488102291,92.057335,-36.872898,-0.757176,0.991972,0.012658,0.054517
2488142395,104.327354,-27.108047,-10.715975,1.212851,-0.215112,0.046359
2488162447,107.092041,-19.393368,-8.545629,1.112145,-0.205770,-0.041440
2488182499,110.698105,-21.134380,-16.248693,0.896198,-0.188912,-0.100423
2488202551,109.561661,-26.050388,-32.488216,0.840986,-0.151598,-0.093885
2488222603,101.833969,-27.115917,-35.718056,0.997970,-0.081126,-0.082045
2488262707,95.254669,-14.465439,-23.731541,1.063784,-0.126227,-0.120319
2488282760,96.644363,-11.610512,-19.111120,1.093277,-0.185020,-0.067988
2488302811,98.576950,-9.395491,-14.200685,1.120641,-0.224022,-0.144231
2488322863,104.644623,-3.892763,-7.491657,1.078013,-0.239657,-0.189340
2488342915,105.806015,-3.442775,-1.180343,0.982520,-0.142573,-0.183870
2488362967,112.336510,-5.030212,-0.851264,0.894947,-0.036411,-0.212076
2488383019,116.065468,-15.505097,-6.819009,0.857501,0.005278,-0.143389
2488403073,113.041664,-24.003860,-16.239626,0.760193,-0.002249,-0.133812
2488423125,111.553772,-31.573669,-26.808403,0.769360,0.017909,-0.167971
2488443177,128.633057,-37.408695,-29.575756,0.989316,0.008269,-0.189839
2488463228,138.508209,-28.967958,-29.183876,1.175502,0.019242,-0.168924
2488483280,127.604843,-9.565240,-24.206911,1.315650,0.087882,-0.130008
2488503332,109.486275,7.269018,-14.572666,1.324014,0.167399,-0.072522
2488523384,91.661270,21.740171,-7.961965,1.202992,0.246071,-0.041753
2488543436,85.663986,21.005444,-3.910170,1.058169,0.222656,-0.036693
2488563488,89.352631,17.246227,1.656868,0.956861,0.146206,-0.087785
2488583540,94.015930,9.548270,8.828718,0.893745,0.057328,-0.053940
2488603592,97.647682,2.558551,10.230902,0.880220,0.050521,-0.044960
2488623644,94.581886,1.038088,15.451536,0.853203,0.196654,-0.019032
2488643696,90.119591,-1.472679,23.972921,0.904096,0.269979,0.018107
2488663748,85.053291,-2.409611,27.502136,1.017514,0.207726,0.063347
2488683800,79.474480,-0.516521,26.504726,1.105562,0.103864,0.087076
2488703852,70.906723,-2.082881,19.388901,1.091882,0.029943,0.047028
2488723903,57.547276,-7.213766,11.794409,1.086617,0.046219,0.003995
2488743955,50.650684,-11.715576,11.736547,1.089805,0.052547,0.001309
2488764006,52.493210,-13.962014,15.934805,0.999257,-0.032789,0.000928
2488784058,55.324081,-13.503337,18.304445,0.898104,-0.079748,0.017477
2488804111,53.690243,-15.053953,17.294781,0.828966,-0.107603,0.037213
2488824163,44.772068,-18.571705,14.081392,0.853734,-0.134234,0.071051
2488844214,33.061752,-22.827309,14.714051,0.973503,-0.060947,0.069325
2488864266,25.125635,-24.835920,17.414280,0.998636,0.024249,0.031618
2488884318,24.951962,-31.371574,17.724861,1.034474,0.055969,0.014055
2488904370,30.082478,-34.772617,12.444673,1.039607,-0.057887,0.050673
2488924422,39.441673,-43.791412,7.614362,1.026922,-0.145008,0.034141
2488944474,35.280693,-44.552711,13.962029,0.997814,-0.172192,-0.103168
2488964526,21.173574,-37.676502,22.219498,0.910721,-0.147735,-0.203496
2488984578,2.252822,-26.200882,19.693100,0.909539,-0.155233,-0.200328
2489004630,-1.340788,-21.051647,12.946502,0.985689,-0.199777,-0.213814
2489024682,5.245461,-13.620008,3.657101,0.910183,-0.268660,-0.113670
2489044734,20.935696,-2.331432,-16.160791,0.731370,-0.460428,-0.275674
2489064786,40.664040,-16.108782,-24.267603,1.051175,-0.450273,-0.109296
2489084838,53.474796,-4.734082,-10.782846,1.222007,-0.498850,-0.222946
2489104890,55.177849,-0.418218,-3.567988,1.264604,-0.346404,-0.038640
2489124942,47.429314,13.155135,-0.474358,1.333857,-0.175034,-0.009868
2489144994,39.259274,16.887621,-0.848149,1.193495,-0.034626,0.007870
2489165046,29.798803,19.658117,-0.748278,1.005551,0.023137,0.003415
2489185099,19.149035,21.413040,2.046039,0.908957,0.023421,-0.019176
2489205151,11.393636,18.075872,2.166359,0.828415,0.003822,-0.017703
2489225203,3.741197,14.077500,-3.918244,0.778354,-0.015306,0.024970
2489245269,-4.462481,11.320363,-5.247347,0.908059,-0.028408,0.144191
2489265307,-7.490392,9.121407,10.260259,1.211531,0.038631,0.160290
2489285359,5.628695,23.132318,14.148443,1.154611,-0.191393,0.094113
2489305411,13.303043,14.901020,-6.023801,0.877568,-0.322122,0.080302
2489325463,-0.404514,12.935063,-20.571405,0.728624,-0.196849,0.076524
2489345515,-11.673022,11.073774,-24.721891,0.753784,-0.147389,0.036686
2489365576,-10.362991,14.079661,-24.944921,1.149818,-0.205585,0.016901
2489385619,5.751330,30.136614,-23.535576,1.422608,-0.242485,0.031349
2489405671,13.835872,45.472038,-15.095238,1.179286,-0.259069,0.039995
2489425723,26.771479,46.755028,-6.888597,1.040754,-0.288544,0.001274
2489445775,46.367851,41.857189,-10.516480,0.810465,-0.263913,0.005536
2489465827,73.957359,27.302929,-16.357262,0.782917,-0.405882,0.063605
2489485879,95.877640,18.984535,-29.038605,0.796897,-0.484738,0.113058
2489505929,103.669319,14.067422,-39.096825,0.788971,-0.357006,0.126247
2489525981,104.099861,10.014454,-41.773540,0.755909,-0.156099,0.113872
2489546033,98.557610,-2.309575,-35.279438,0.799251,0.069122,0.119206
2489566085,98.020340,-18.221630,-26.311565,1.037902,0.121689,0.002958
2489586137,101.156219,-27.532385,-28.865007,0.756448,0.086279,0.009734
2489606189,96.964767,-32.410210,-26.360834,0.799162,0.010848,0.008092
2489626241,88.284492,-28.946802,-23.148670,1.281817,0.041323,0.019341
2489646293,69.195564,-18.086145,-12.341502,1.403033,0.267612,0.036576
2489666345,50.005219,-11.070422,-1.983364,1.218823,0.421178,0.047217
2489686397,38.722992,-12.343711,3.997192,1.087272,0.386209,0.049052
2489706449,32.872643,-14.807647,4.576153,0.996269,0.279218,0.059369
2489726501,26.743128,-17.856852,5.331544,0.947709,0.175442,0.059226
2489746553,22.853432,-15.681107,4.067302,0.941375,0.145465,0.034990
2489766605,23.875675,-13.010283,-2.005425,0.927957,0.116798,0.020957
2489786657,25.341562,-11.740284,-9.157271,0.919122,0.069758,0.043161
2489806708,24.706228,-8.571077,-13.942714,0.965638,0.071960,0.069458
2489826760,23.120441,-4.672033,-17.585915,1.041468,0.129396,0.090689
2489846813,24.808811,0.764032,-21.659979,1.111483,0.206540,0.067662
2489866865,30.865662,5.532412,-18.207367,1.061558,0.217666,0.071905
2489886917,34.845608,4.656600,-7.185940,1.023856,0.101584,0.060803
2489906968,35.019226,7.889159,-4.013978,1.140771,-0.051691,0.068223
2489927021,32.026089,22.477026,-5.063619,1.042040,-0.018157,0.020147
2489947073,32.825012,23.026175,2.892114,0.911628,0.126892,0.017726
2489967126,29.823021,21.360804,-1.633313,1.030799,0.158271,0.014481
2489987178,24.659651,25.563084,-8.838415,1.078480,0.174069,0.006366
2490007230,16.452406,31.381609,-10.636647,1.023629,0.228033,0.020894
2490027282,7.727683,36.514046,-11.151488,1.016745,0.236068,0.024751
2490047334,-0.988334,41.223911,-11.270771,0.990032,0.200740,0.042693
2490067385,-9.023962,43.313812,-7.432628,1.000852,0.151485,0.072241
2490087437,-16.813698,43.963730,-4.658242,1.008868,0.119040,0.089487
2490107489,-25.245504,47.034336,-2.589235,1.014662,0.153962,0.110118
2490127541,-34.920216,49.551182,-1.563782,1.005474,0.134616,0.163081
2490147600,-47.043110,47.992771,-8.549544,0.935244,0.112838,0.195008
2490167645,-62.036884,43.482632,-6.361172,0.828081,0.189511,0.210901
2490187698,-76.264229,31.544418,5.280751,0.797124,0.162504,0.233261
2490207750,-87.306244,16.071974,4.617933,0.773463,0.094199,0.244608
2490227801,-90.040245,-8.113194,1.784329,0.779677,-0.020216,0.299235
2490247853,-85.449593,-29.474453,4.531701,0.871133,-0.152483,0.331224
2490267929,-84.599571,-32.991356,15.320799,0.944539,-0.113910,0.246685
2490287956,-99.091736,-20.351988,28.924446,1.024670,-0.038994,0.116512
2490308008,-106.467247,-11.706537,32.694290,1.142354,-0.056049,0.049017
2490328060,-93.656174,-11.286219,19.925394,1.181279,-0.349455,0.149390
2490348112,-71.803955,-15.095581,1.256319,1.110344,-0.617892,0.284776
2490368164,-52.970772,-19.952047,-4.637549,0.963296,-0.591574,0.318147
2490388216,-43.177773,-25.410004,-7.471859,0.841367,-0.369411,0.229734
2490408271,-38.220592,-30.724777,-12.669603,0.810872,-0.190469,0.148286
2490428319,-36.379257,-32.896580,-17.050982,0.852704,-0.142675,0.142031
2490448371,-34.366379,-30.777290,-16.543619,0.924583,-0.146456,0.152582
2490468423,-33.002144,-26.813728,-13.056276,0.944314,-0.131234,0.184901
2490488475,-32.580849,-24.436966,-9.813241,1.035024,-0.143114,0.159688
2490508527,-27.803453,-21.913256,-10.634558,1.009390,-0.229482,0.127879
2490528579,-20.946289,-22.019701,-12.940596,0.989543,-0.339372,0.146914
2490548631,-17.418159,-22.163704,-14.146390,1.027849,-0.374150,0.161584
2490568683,-18.419876,-24.775936,-13.219982,1.045902,-0.252569,0.147127
2490608787,-15.829969,-23.241745,-10.997963,1.075795,-0.064215,0.085629
2490628839,-16.923153,-16.739845,-12.929881,1.032140,-0.053452,0.031483
2490648891,-20.724190,-10.778048,-8.651825,0.920354,-0.006421,-0.004663
2490668943,-24.749414,-8.641392,4.408344,0.853875,-0.040400,0.031249
2490688995,-20.960440,-7.184536,11.154848,0.954269,-0.130486,0.057088
2490709047,-15.582835,1.660112,-1.526792,1.005413,-0.053343,0.049651
2490729099,-18.305746,12.168700,-2.054682,0.972799,0.026889,0.067849
2490769204,-36.996513,33.270771,-23.948252,1.223445,0.091201,-0.016550
2490789256,-43.526947,39.019779,-26.466829,1.107864,0.126584,-0.021414
2490809308,-47.982113,40.791946,-20.158106,1.050029,0.055506,0.004628
2490829360,-52.314720,43.091530,-12.214184,1.018398,-0.013135,0.038371
2490869464,-57.781990,42.790592,-4.950592,0.947358,-0.025518,0.079363
2490909568,-67.831734,41.125835,-0.916910,0.964314,-0.008915,0.164541
2490929620,-73.021545,36.045921,-0.518640,0.872233,-0.001010,0.223508
2490949672,-73.713829,26.026476,-1.939032,0.845990,-0.057754,0.249608
2490969724,-71.419945,12.987473,-1.341641,0.872026,-0.090988,0.272535
2490989776,-73.532707,-1.378914,1.588607,0.860249,-0.041021,0.203800
2491009828,-80.699615,-14.496677,13.883913,0.889236,-0.004789,-0.000086
2491029880,-91.282074,-12.146320,21.913212,0.908141,-0.085073,-0.090180
2491049932,-79.377350,-16.030504,2.899247,1.031136,-0.464143,0.081217
2491090034,-20.804647,-5.855356,-28.404367,1.118286,-0.960245,0.391676
2491110086,1.357938,-6.986545,-24.921907,0.932979,-0.669764,0.319018
2491130138,10.518371,-13.339419,-19.779850,0.803629,-0.321098,0.189282
2491150190,9.602204,-21.917044,-13.883858,0.783952,0.009416,0.146146
2491170242,3.257495,-30.425270,-10.600945,0.824789,0.172592,0.158906
2491190294,-4.555845,-34.647427,-9.909133,0.888909,0.182376,0.210870
2491210346,-15.003472,-37.674259,-8.356517,0.916907,0.113628,0.227860
2491230398,-23.461693,-39.641365,-6.952249,0.965515,0.050194,0.225576
2491250450,-26.574516,-42.838287,-3.870665,0.964858,0.026987,0.178216
2491270502,-27.040012,-46.820175,-1.598252,0.986931,-0.022044,0.138679
2491290554,-26.785748,-51.152721,-0.294989,1.006343,-0.053139,0.108548
2491310606,-27.707434,-51.910606,-1.535004,1.020705,-0.095113,0.074509
2491330658,-27.374237,-52.185284,-3.292492,1.045757,-0.117234,0.042042
2491350710,-25.168610,-50.385696,-3.117570,1.029148,-0.078204,0.010026
2491370762,-22.274384,-48.234215,-2.034627,1.015499,-0.058359,-0.004387
2491390814,-18.856857,-45.437248,-1.461882,1.014263,-0.045467,-0.017632
2491410866,-14.677260,-41.164082,-1.137017,1.026549,-0.035504,-0.034474
2491430918,-12.514163,-36.054550,0.269463,1.022910,-0.031240,-0.053544
2491450970,-11.744521,-30.630383,1.250925,1.011317,-0.030315,-0.082538
2491471022,-8.061516,-23.982668,0.627991,1.029643,-0.049393,-0.104364
2491491074,-8.615028,-20.471144,1.851454,1.028055,-0.047343,-0.036690
2491511126,-6.735303,-10.950030,1.279882,1.037489,-0.065232,-0.190738
2491531177,-2.507581,-12.377669,2.844586,1.089698,-0.060536,-0.079452
2491551231,-8.089966,-9.212432,3.729951,1.107382,-0.079797,-0.069379
2491571283,-11.294803,-8.351599,5.107477,1.057403,-0.078866,-0.066472
2491591335,-7.504069,-8.102152,4.620236,1.020568,-0.053134,-0.078573
2491611387,-4.821056,-8.015086,6.005947,0.992744,-0.055855,-0.073922
2491631439,-4.469749,-5.151296,5.912587,0.989156,-0.048260,-0.056768
2491651491,-5.028823,-1.978363,4.029847,1.016160,-0.037650,-0.049610
2491671543,-7.186210,2.867192,1.785692,1.031726,-0.034454,-0.031723
2491691595,-9.166493,8.128890,-2.059119,1.025538,-0.046764,-0.027535
2491711647,-10.703010,11.816985,-6.694454,0.992693,-0.066429,-0.044445
2491731699,-8.486767,12.701910,-5.910068,0.945794,-0.046899,-0.062998
2491751751,-5.139267,11.385425,-2.670488,0.916951,-0.040433,-0.044737
2491771803,-2.556822,7.340480,-1.513032,0.952873,-0.041456,-0.013570
2491791855,-0.967052,3.836698,-0.190355,1.005717,-0.042720,0.023537
2491811907,-0.024011,6.191738,1.483728,1.042798,-0.070229,0.025663
2491831959,-0.030996,10.595428,1.567083,1.051548,-0.109578,0.030089
2491852009,0.407818,13.248088,0.413366,1.065683,-0.079605,0.014482
2491872061,-1.221370,12.361080,-3.698381,1.044698,-0.051862,-0.011980
2491892113,-4.523069,8.001337,-7.805155,0.944339,-0.030954,-0.040472
2491912165,-3.600015,-1.194521,-5.522841,0.884947,0.013267,-0.039496
2491932217,0.147873,-13.797338,0.104966,0.874511,0.042475,-0.015642
2491952269,0.464024,-19.436762,3.565135,0.890054,0.038830,-0.006038
2491972321,-2.855897,-19.968973,2.075076,0.940103,0.013372,-0.008660
2491992373,-3.572663,-16.682337,-0.869054,0.956427,-0.027139,-0.035977
2492012425,-2.138490,-10.640973,0.981628,1.051550,-0.073872,-0.065753
2492032477,-5.309948,-3.132393,3.109289,1.177737,-0.091110,-0.121826
2492052529,-9.054066,10.844346,2.236332,1.212028,-0.062275,-0.169540
2492072581,-10.853844,17.072090,3.291715,1.189431,-0.004085,-0.169465
2492092633,-12.075313,15.798373,1.227476,1.120816,0.052227,-0.140974
2492112685,-13.193645,11.935731,-3.359250,1.011760,0.044865,-0.117942
2492132737,-14.380266,9.193075,-7.244967,0.902411,-0.019996,-0.093973
2492152789,-14.968194,7.697780,-6.595398,0.861687,-0.071713,-0.057127
2492172841,-15.417195,6.772234,-4.833733,0.871689,-0.085122,-0.030454
2492192893,-14.906991,5.552660,-2.540864,0.908345,-0.072621,-0.006799
2492212945,-12.400019,5.423467,-0.358557,0.971903,-0.057286,0.013923
2492232997,-9.360478,6.670718,-0.750446,1.026374,-0.051374,0.018785
2492253049,-5.781066,8.582775,-2.213448,1.029940,-0.046792,0.014576
2492273101,-2.865088,8.892570,-3.056800,1.017544,-0.044878,-0.002256
2492293153,-1.879399,8.522314,-3.798608,1.013924,-0.037102,-0.010734
2492313206,-2.277786,7.787508,-4.334042,1.010741,-0.027565,-0.016865
2492333258,-4.284027,7.039069,-4.164023,0.994451,-0.010940,-0.014446
2492353310,-6.638187,5.480529,-3.286249,0.985645,-0.000093,-0.010635
2492373362,-7.052433,4.334715,-2.774365,0.988207,-0.002906,-0.010766
2492393414,-6.086463,3.304297,-3.445680,0.995760,-0.009441,-0.005093
2492413466,-5.248196,3.112395,-3.445312,0.998516,-0.024824,-0.001078
2492433518,-4.648324,2.962373,-2.581004,1.000478,-0.024986,0.006390
2492453570,-4.213452,2.497807,-2.064186,1.005139,-0.015039,0.015124
2492473621,-4.107162,2.604158,-2.163116,1.006418,0.001865,0.021662
2492493673,-4.483363,2.902049,-1.489484,1.007203,0.010072,0.023663
2492513726,-4.208006,3.080567,-2.354197,1.004697,0.000300,0.020487
2492533777,-3.178034,3.538896,-4.167508,0.997465,-0.020070,0.020308
2492553830,-1.447338,3.693242,-5.555594,0.997114,-0.027772,0.021849
2492573881,0.504754,3.412474,-6.351101,0.996755,-0.026974,0.020474
2492593933,1.699907,1.834080,-6.277870,0.989522,-0.017804,0.021134
2492613984,2.684890,0.610638,-5.084103,0.983389,-0.012525,0.022756
2492634036,3.891359,-1.190618,-3.054737,0.987020,-0.003369,0.020768
2492654088,4.044769,-2.369859,-1.216619,1.001157,0.005940,0.015125
2492674140,3.929769,-2.263608,-1.103261,1.027370,0.012016,0.003880
2492694192,3.269912,-1.370192,-0.802950,1.023785,0.012979,0.008297
2492714244,2.371289,-0.314011,0.269937,1.002671,0.029304,0.009503
2492754348,0.272668,0.270424,1.216028,1.016674,0.040249,0.010294
2492774400,0.170764,0.513354,-1.073619,1.009965,0.033379,0.007418
2492794451,0.031609,0.169137,-2.535123,0.979848,0.030775,0.014232
2492814503,-1.470789,-0.594604,-2.903334,0.958866,0.037621,0.013277
2492834555,-3.371032,-0.921019,-3.333544,0.963691,0.043780,0.011241
2492854607,-3.815918,-1.474125,-3.899904,0.976910,0.044170,0.011057
2492874659,-3.397450,-2.959386,-3.902512,0.983489,0.038375,0.011444
2492894711,-3.256839,-4.039639,-3.201575,0.996619,0.034789,0.012760
2492914763,-3.427962,-4.785308,-3.289893,1.001703,0.038190,0.014756
2492934815,-3.394175,-5.505662,-3.188896,1.000194,0.028075,0.012863
2492954867,-1.180341,-5.480861,-2.757756,1.005040,0.014389,0.001695
