Timestamp (us),Gyroscope X (deg/s),Gyroscope Y (deg/s),Gyroscope Z (deg/s),Accelerometer X (g),Accelerometer Y (g),Accelerometer Z (g)
3813089962,0.232163,0.010330,0.585148,1.000901,-0.012212,-0.041015
3813110014,0.338265,0.033155,0.469892,0.998899,-0.012225,-0.041574
3813130066,0.353079,-0.005449,0.378140,1.000454,-0.016294,-0.040426
3813150118,0.534299,0.064179,0.391926,1.000722,-0.013845,-0.040816
3813170170,0.412564,-0.149730,0.300928,0.999178,-0.016208,-0.040617
3813190222,0.578547,-0.042804,0.178562,1.000083,-0.014385,-0.040359
3813210273,0.447821,-0.043383,0.208470,0.999638,-0.014142,-0.042365
3813230325,0.424442,-0.119765,0.124983,1.003108,-0.014598,-0.042971
3813250377,0.278898,-0.082675,0.086691,0.999641,-0.015953,-0.041889
3813270429,0.444999,-0.043008,0.161956,1.001469,-0.014697,-0.043345
3813290481,0.299160,0.031696,0.123523,1.001363,-0.015835,-0.040243
3813310532,0.283253,0.031529,0.115687,1.001448,-0.010315,-0.041851
3813330584,0.289880,0.062045,0.153114,1.000622,-0.012108,-0.040018
3813350637,0.160244,0.015285,0.115076,0.998912,-0.016136,-0.041892
3813370689,0.038294,0.014071,0.054233,0.997918,-0.016701,-0.043165
3813390741,0.015557,0.058570,-0.082346,1.000366,-0.014316,-0.041903
3813410793,0.083268,0.180488,-0.037136,1.001194,-0.013791,-0.043448
3813430845,-0.144171,0.108821,-0.263832,1.002714,-0.013176,-0.038810
3813450897,-0.091231,0.155500,-0.089148,1.000354,-0.012754,-0.040649
3813470948,-0.030187,0.177945,-0.142110,0.998378,-0.015988,-0.044170
3813491000,-0.113183,0.063497,-0.088274,1.001945,-0.020428,-0.043912
3813511053,0.153660,0.071247,-0.315373,1.000747,-0.017964,-0.042949
3813531104,0.091975,0.101570,-0.231249,0.999072,-0.013015,-0.039655
3813551156,0.007900,0.176419,-0.261251,1.000001,-0.013504,-0.042279
3813571208,-0.245043,0.485758,-0.163165,1.000559,-0.013441,-0.044275
3813591260,-0.359091,0.561110,0.056647,1.001490,-0.018357,-0.045120
3813611311,0.173661,0.578681,0.124369,1.000347,-0.013731,-0.039093
3813631362,0.181934,0.394593,0.018575,1.001630,-0.017172,-0.038498
3813651413,0.442001,0.241100,-0.389821,1.001556,-0.022806,-0.038525
3813671465,0.868451,-0.015743,-0.569858,1.002551,-0.018276,-0.039570
3813691517,1.109579,-0.022003,-0.621461,1.003273,-0.013925,-0.040433
3813711569,0.977825,-0.038439,-0.702960,1.000261,-0.011398,-0.041120
3813731621,0.883620,0.029888,-0.618182,0.998709,-0.012477,-0.040119
3813751673,0.537057,0.429705,-0.587653,0.997349,-0.009251,-0.043074
3813771725,-0.157960,0.885074,-0.837299,1.001545,-0.008255,-0.043964
3813791777,-1.178110,1.232668,-0.820994,1.001539,-0.006618,-0.043802
3813811829,-1.661173,1.172489,-0.939482,1.002184,-0.011053,-0.042746
3813831880,-1.663314,0.956993,-0.959213,1.002456,-0.015740,-0.040145
3813851932,-0.875193,0.913027,-1.138682,1.002368,-0.015657,-0.040692
3813871984,-0.469625,0.994735,-1.476893,1.002732,-0.013490,-0.041714
3813892036,-0.111431,0.988019,-1.314316,0.999622,-0.014372,-0.039363
3813912088,0.206997,1.237113,-1.402835,0.998346,-0.011489,-0.040860
3813932139,0.146593,1.036560,-1.398479,1.001772,-0.009857,-0.035219
3813952191,-0.212036,1.258682,-1.471480,1.001680,-0.006245,-0.036807
3813972243,-0.691377,1.404137,-1.452919,1.002305,-0.004771,-0.035456
3813992295,-0.741989,1.353481,-1.638432,1.002308,-0.011452,-0.032471
3814012347,-0.504115,1.395715,-1.861703,1.001390,-0.012342,-0.031013
3814032398,0.053207,1.401318,-2.190335,0.999481,-0.014255,-0.031095
3814052451,0.951086,1.536599,-2.753475,0.998387,-0.017414,-0.029430
3814072503,1.354270,1.610404,-3.235880,1.000493,-0.016350,-0.031609
3814092555,1.856875,1.605617,-3.311829,1.000660,-0.010808,-0.031672
3814112607,2.389875,1.833627,-3.820591,1.001211,-0.008562,-0.033512
3814132659,1.864599,1.770375,-3.676189,1.001500,-0.009138,-0.035775
3814152711,2.276565,1.823276,-4.138832,1.003150,-0.013398,-0.035260
3814172762,2.712203,1.724308,-4.631276,1.006119,-0.004003,-0.033166
3814192815,2.925611,1.755012,-4.798193,1.004650,0.000890,-0.033869
3814212869,3.610273,1.887919,-4.897418,1.003817,0.004618,-0.033555
3814232918,3.595124,1.865141,-4.882175,1.001595,0.008303,-0.029614
3814252970,3.709950,1.774312,-4.957693,0.999220,0.009572,-0.029464
3814273022,4.084332,1.638332,-5.237777,1.000215,0.005533,-0.026138
3814293074,4.291322,1.531096,-5.601270,0.997011,0.003121,-0.022770
3814313125,4.824845,1.615350,-6.033747,0.996179,0.000261,-0.019290
3814333175,5.504396,1.547141,-6.715857,0.998916,0.007570,-0.023263
3814353227,5.601544,1.882142,-6.663992,1.000782,0.024019,-0.023258
3814373279,4.618085,1.887007,-6.080085,1.002499,0.033352,-0.025263
3814393331,3.299923,1.859174,-5.518684,1.002304,0.031217,-0.022058
3814413383,1.828470,2.050398,-4.973144,1.000929,0.033848,-0.022099
3814433435,1.279574,1.906416,-4.366138,1.001467,0.038020,-0.022688
3814453486,0.474223,1.650053,-4.455920,1.005727,0.040256,-0.019503
3814473538,0.028562,0.971346,-4.476162,1.001299,0.030498,-0.021330
3814493590,0.319017,0.827803,-4.665243,0.999379,0.026899,-0.018575
3814513642,0.181961,0.894511,-4.779109,0.992814,0.025713,-0.017881
3814533694,0.442775,0.741307,-5.263727,0.991873,0.027948,-0.013915
3814553746,0.862174,0.494729,-5.073550,0.993335,0.031550,-0.016400
3814573797,1.530970,0.471618,-4.618967,0.996700,0.036541,-0.017343
3814593849,2.123579,0.388190,-4.020149,1.002023,0.033129,-0.021719
3814613901,2.258553,0.551524,-3.543285,0.999283,0.031150,-0.019898
3814633953,2.844543,0.413133,-3.224697,0.996083,0.034324,-0.019866
3814654005,3.088345,0.279184,-3.050005,1.001359,0.037429,-0.019501
3814674056,3.096699,0.149941,-3.087457,1.004635,0.036819,-0.018199
3814694109,3.071668,0.395111,-2.709346,1.002817,0.039148,-0.020238
3814714160,3.747784,0.582738,-2.551071,0.999918,0.041715,-0.024560
3814734212,4.198628,0.116449,-2.322253,1.005095,0.044207,-0.022643
3814754265,4.409743,0.392712,-2.073173,1.003377,0.040291,-0.023065
3814774317,4.942600,0.501083,-2.293523,0.999743,0.041605,-0.025923
3814794369,5.932867,0.513224,-2.597070,1.000174,0.041215,-0.021462
3814814421,6.376639,0.180557,-2.838606,1.001874,0.044184,-0.017395
3814834473,6.574784,0.203762,-2.975176,0.997479,0.048371,-0.016202
3814854524,6.598677,-0.016142,-2.959269,0.990164,0.048045,-0.012433
3814874576,5.393816,0.116381,-2.368145,0.983971,0.043146,-0.010966
3814894628,4.773343,0.459378,-1.512687,0.983764,0.060976,-0.015718
3814914680,4.050364,0.124373,-0.920121,0.997862,0.088962,-0.024121
3814934732,2.361757,-0.459489,-0.265728,1.006413,0.089117,-0.020973
3814954783,0.490178,-0.931346,0.282238,1.004416,0.058560,-0.022723
3814974835,-0.095015,-1.229849,0.503262,1.001374,0.048310,-0.027443
3814994887,0.331491,-1.437654,0.814566,1.003034,0.044658,-0.028934
3815014939,0.674944,-1.422678,0.427867,1.005111,0.042185,-0.024256
3815035001,0.760763,-1.509710,-0.216075,0.991518,0.042899,-0.023088
3815055041,1.020965,-1.571434,-0.640375,0.993010,0.041199,-0.027875
3815075093,0.455481,-1.067264,-0.763177,1.001788,0.047560,-0.035520
3815095145,0.354073,-0.746965,-0.430771,1.005059,0.053548,-0.036657
3815115197,-0.480612,-0.125249,0.302538,1.007411,0.058017,-0.035783
3815135249,-0.689562,0.324220,0.763378,1.006769,0.049274,-0.030779
3815155300,-1.039619,0.321740,0.733194,1.003938,0.044950,-0.027750
3815175352,-1.054550,0.403419,0.460075,1.006835,0.043382,-0.023439
3815195404,-0.833918,0.465113,0.383996,1.001151,0.047506,-0.020074
3815215456,-0.712745,0.452404,0.649260,1.002600,0.046540,-0.017962
3815235508,-0.751956,0.597445,0.815511,0.997947,0.046808,-0.017544
3815255559,-0.670872,1.054383,0.957909,0.998578,0.046465,-0.016172
3815275611,-0.633124,1.077885,1.033604,0.997292,0.043960,-0.013244
3815295663,-0.443158,1.124917,1.071270,0.998129,0.041577,-0.014846
3815315715,-0.040470,1.219320,1.176909,1.000131,0.043033,-0.015031
3815335767,0.005123,1.227306,1.192024,1.000666,0.043603,-0.013307
3815355819,0.469565,1.192528,1.214718,1.001503,0.040230,-0.014261
3815375870,0.644674,1.103583,1.374121,1.001786,0.040386,-0.016079
3815395923,0.988932,0.719144,1.451115,0.999496,0.040227,-0.014185
3815415974,0.853435,0.504589,1.277586,1.000479,0.041902,-0.011561
3815436026,0.740444,0.320980,1.172153,0.997379,0.048570,-0.014932
3815456078,0.413854,0.234616,1.058880,0.997562,0.051546,-0.016511
3815476131,0.110462,0.095024,0.907888,0.996918,0.050566,-0.015050
3815496183,0.019381,0.108794,0.779030,0.993933,0.046534,-0.017024
3815516235,0.234106,-0.073682,0.514320,0.991842,0.044893,-0.017110
3815536286,0.325957,-0.269309,0.696857,0.995052,0.041875,-0.018961
3815556338,0.813517,-0.364621,0.727331,0.992585,0.042786,-0.018444
3815576390,1.470869,-0.696997,0.311403,0.993023,0.034892,-0.011351
3815596442,2.511877,-1.604306,-0.178467,0.990995,0.036023,-0.008198
3815616494,3.761489,-2.086755,0.269916,0.997977,0.047819,-0.023099
3815636546,4.766186,-1.071611,1.289226,0.997487,0.064369,-0.041198
3815656597,4.906419,-0.662524,2.204821,1.000111,0.057205,-0.034281
3815676649,5.264635,-0.683823,2.068348,1.004745,0.032133,-0.034685
3815696701,6.598230,-0.401429,0.930064,1.010599,0.022356,-0.033076
3815716753,7.566193,-0.203250,0.057462,1.010212,0.025297,-0.030659
3815736805,9.445957,0.094776,-0.376224,0.999602,0.030230,-0.027156
3815756855,9.681708,0.509287,-1.097735,0.994184,0.044836,-0.027817
3815776907,7.958173,1.225996,-1.228444,0.993379,0.075148,-0.030083
3815796959,4.947160,1.629524,-0.334463,0.998221,0.103501,-0.030467
3815817010,1.425772,1.940685,0.885910,1.004898,0.107522,-0.036192
3815837063,-1.692917,2.781177,1.361580,1.014998,0.092307,-0.040761
3815857115,-5.551211,4.227378,1.145737,1.024586,0.082365,-0.038579
3815897218,-15.321469,7.027749,0.290665,1.012146,0.123295,-0.020691
3815917270,-21.339750,6.622239,0.013748,1.013054,0.132095,-0.008972
3815937321,-28.957930,6.074815,0.556408,1.020631,0.131944,0.004807
3815957373,-36.604229,5.382638,3.441474,1.017099,0.139949,0.012415
3815977425,-43.623138,5.357673,6.740865,1.009276,0.176288,0.006940
3815997477,-49.872459,5.365748,9.668502,1.006940,0.190003,-0.005777
3816017529,-54.500343,5.631531,12.056579,1.001558,0.170833,-0.011228
3816037581,-58.578094,6.030779,13.375370,0.992330,0.150887,-0.013244
3816057633,-62.415752,6.309022,13.322701,0.985378,0.125897,-0.012459
3816077684,-66.278900,6.200069,12.096639,0.982284,0.103505,-0.002133
3816097736,-71.282188,5.929717,10.538056,0.990470,0.099107,-0.012385
3816117788,-75.785530,5.676041,9.896297,0.988633,0.101263,-0.026601
3816137840,-79.614204,5.523547,10.148268,0.997908,0.092281,-0.033521
3816157891,-83.068306,4.987146,10.530273,0.997439,0.083290,-0.026785
3816177945,-86.108521,3.704050,11.255760,1.000477,0.074745,-0.027574
3816197996,-88.411964,3.134473,11.205477,1.010920,0.044835,-0.036878
3816218048,-91.058296,2.503605,11.420787,1.017042,0.018253,-0.041526
3816238100,-93.063278,2.858020,11.912902,1.021104,0.027472,-0.039150
3816258152,-95.637512,3.309805,11.586349,1.021537,0.049449,-0.046308
3816278204,-98.631882,3.799975,11.760026,1.004846,0.057783,-0.064609
3816298256,-102.600456,4.441037,11.592470,1.000403,0.049416,-0.064544
3816318308,-108.017937,5.611630,11.423595,1.015163,0.051094,-0.063822
3816338359,-113.231987,7.118591,11.412649,1.020393,0.047055,-0.067556
3816358411,-117.439636,8.313140,11.379692,1.003172,0.050603,-0.070900
3816378463,-122.161499,9.166117,10.688720,0.983909,0.049414,-0.081293
3816398515,-126.927681,9.857987,9.778529,0.988294,0.029695,-0.088577
3816418567,-130.712296,10.482088,9.141073,0.990451,0.010248,-0.089154
3816438619,-133.597961,10.922755,8.579721,0.978512,0.014494,-0.076292
3816458669,-135.910416,10.814042,8.186799,0.990182,0.015418,-0.076947
3816478721,-138.501556,10.096327,7.818811,0.992841,0.023688,-0.083658
3816498772,-140.723145,9.063330,6.436199,0.990888,0.017745,-0.105143
3816518824,-145.268829,8.688822,4.741395,0.985754,0.008882,-0.126980
3816538876,-150.220261,8.594761,3.394398,0.987868,0.018500,-0.134619
3816558928,-157.265396,10.872647,3.533016,0.996848,0.079164,-0.157161
3816578980,-164.851730,14.569795,4.167144,0.982565,0.082860,-0.195295
3816599032,-167.647369,14.811751,4.500763,0.974365,0.031111,-0.216839
3816619084,-172.879379,16.115356,5.960842,0.968687,-0.025239,-0.262033
3816639135,-178.540710,20.535383,8.463808,1.035882,0.032050,-0.307298
3816659187,-188.483917,24.330147,13.751904,1.114885,0.003301,-0.271051
3816679239,-188.912811,22.148216,10.114095,1.095148,-0.121041,-0.201316
3816699291,-181.773819,15.407412,2.859023,1.026560,-0.286054,-0.160085
3816719343,-166.200439,8.592583,-4.413904,0.967616,-0.444274,-0.134587
3816739394,-144.896240,4.201469,-10.105608,0.911002,-0.471372,-0.121042
3816759446,-126.141335,-0.725174,-15.013943,0.903039,-0.353696,-0.112191
3816779498,-114.387703,-4.269202,-17.347744,0.902874,-0.264808,-0.097225
3816799550,-107.237610,-5.875031,-18.163242,0.916529,-0.179360,-0.089938
3816819601,-105.730904,-7.375137,-18.037338,0.942113,-0.073915,-0.090250
3816839653,-109.122719,-9.013017,-19.023350,0.974794,0.000287,-0.103601
3816859705,-115.858475,-10.494349,-19.409992,0.993423,0.020640,-0.119154
3816879758,-122.764175,-10.977246,-17.806749,1.000456,-0.031961,-0.126312
3816899810,-124.811035,-11.880765,-19.303555,1.005232,-0.100805,-0.144476
3816919862,-124.315514,-13.363899,-22.640938,1.006803,-0.153258,-0.153128
3816939914,-120.552277,-15.566236,-25.438879,1.004946,-0.151686,-0.163702
3816959966,-116.554550,-17.204918,-25.790844,1.006052,-0.135384,-0.173880
3816980018,-111.542274,-18.073824,-25.516764,1.012119,-0.116236,-0.176422
3817020121,-106.869934,-19.941175,-24.314491,1.003141,-0.045342,-0.173216
3817040173,-108.289726,-18.013680,-20.584208,0.990056,0.021313,-0.167173
3817060225,-112.199760,-18.018904,-18.574398,0.977163,0.075779,-0.187708
3817080276,-118.133507,-18.178707,-13.713655,0.979554,0.076634,-0.191790
3817100328,-123.649910,-16.120668,-6.723437,1.002022,0.056738,-0.188765
3817120380,-130.598175,-14.440955,-1.648891,1.009231,0.030444,-0.192500
3817140432,-133.331635,-11.071242,1.008247,0.999329,0.008028,-0.233845
3817160483,-127.793533,-10.716236,4.589932,0.996894,-0.001463,-0.249202
3817180534,-120.138496,-8.441509,13.014791,1.037748,0.006395,-0.239643
3817200586,-116.900314,-5.189570,23.264359,1.069442,-0.018680,-0.206137
3817220638,-111.982361,-3.120315,30.842047,1.086512,-0.046264,-0.180612
3817240690,-107.155098,-1.997777,34.080284,1.023953,0.018410,-0.178442
3817260742,-107.212059,-3.679743,29.887354,0.981556,0.123547,-0.183503
3817280794,-112.195282,-1.637052,21.939312,1.002937,0.177028,-0.233866
3817300845,-123.968018,6.614380,19.588261,1.036450,0.111755,-0.241780
3817320897,-134.142059,12.686231,15.470686,1.076874,0.012166,-0.229616
3817340949,-135.615906,15.909019,14.012516,1.052172,-0.031564,-0.208564
3817361001,-135.047882,17.224579,12.575362,0.994911,-0.036769,-0.188824
3817381053,-133.956284,16.455540,9.894678,0.930533,-0.004997,-0.155294
3817401105,-135.764984,14.235868,10.107592,0.937932,0.037720,-0.117019
3817421156,-139.735779,10.953089,12.507667,0.965227,0.068315,-0.122905
3817441208,-145.246277,8.137938,14.815721,0.977389,0.055002,-0.153748
3817461260,-152.149170,5.747317,16.069321,0.939033,0.074615,-0.167788
3817481312,-159.873901,3.620775,16.715986,0.936390,0.081749,-0.202426
3817501364,-168.249435,2.354216,17.170441,0.940338,0.043179,-0.219128
3817521415,-172.488739,1.602036,15.461676,0.942802,0.032403,-0.229711
3817541467,-177.724609,0.838065,16.512037,0.955540,0.036783,-0.243122
3817561519,-181.382019,0.755931,18.105179,0.969299,0.020204,-0.280277
3817581572,-187.667236,2.839340,19.115782,0.997028,0.018809,-0.344319
3817601624,-198.685455,8.435055,18.600145,1.036054,0.068829,-0.417148
3817621676,-207.865494,12.376296,19.863045,1.066043,0.051184,-0.423093
3817641728,-210.280258,10.768103,17.762484,1.080200,-0.018018,-0.346485
3817661780,-203.377319,4.464393,12.635677,1.010907,-0.127274,-0.275185
3817681831,-190.050797,-3.542536,5.253960,0.944292,-0.287372,-0.246448
3817701883,-174.643677,-8.708007,-2.737015,0.888137,-0.319308,-0.215394
3817721935,-162.236725,-11.022260,-6.954864,0.908109,-0.235070,-0.243038
3817741996,-154.079865,-11.884028,-9.993912,0.942015,-0.115004,-0.270635
3817762039,-149.547333,-11.360718,-12.354359,0.953253,-0.064439,-0.268959
3817782090,-147.344131,-10.166262,-13.026195,0.966886,-0.043921,-0.272099
3817802142,-146.349609,-9.414866,-10.490181,0.996092,-0.031809,-0.268306
3817822194,-146.878616,-9.682910,-5.524855,1.007394,-0.024020,-0.271770
3817842246,-146.786530,-10.535481,-1.194364,1.010676,-0.028254,-0.269698
3817862297,-146.672577,-12.532518,-0.179521,1.011060,-0.049048,-0.262547
3817882348,-146.744171,-13.987500,-2.084380,1.015860,-0.072586,-0.276510
3817902400,-146.971939,-15.152433,-5.975870,1.031173,-0.117243,-0.269341
3817922452,-144.968674,-16.432272,-9.935956,1.022590,-0.164218,-0.274584
3817942504,-138.735123,-17.867571,-12.843513,1.004214,-0.156465,-0.269623
3817962556,-131.633820,-18.862587,-10.667409,0.989161,-0.118683,-0.255535
3817982608,-125.100235,-19.865490,-6.755499,0.972222,-0.077818,-0.247948
3818002660,-119.377510,-19.633963,-3.681245,0.968608,-0.048726,-0.252491
3818022711,-118.144012,-19.983271,-0.178994,0.976675,-0.017883,-0.244339
3818042763,-119.042175,-19.314581,4.434601,0.973261,0.006785,-0.234197
3818062815,-120.406929,-17.953449,8.583657,0.966760,0.023800,-0.237803
3818082867,-120.260620,-15.643638,12.327230,0.975414,0.010536,-0.245495
3818102918,-119.241180,-12.850230,16.008200,0.988108,0.016914,-0.252567
3818122970,-118.180267,-9.761344,20.749191,0.977438,0.003007,-0.244939
3818143022,-117.084251,-6.976086,24.263426,0.993486,-0.037151,-0.240997
3818163074,-115.038864,-4.348087,25.943760,1.010045,-0.036493,-0.235616
3818183126,-114.528519,-2.793660,28.712122,1.015580,-0.011660,-0.228048
3818203178,-114.579285,-2.043040,32.203457,1.005989,-0.016418,-0.222517
3818223229,-114.173302,-1.885571,33.870144,0.981600,-0.029618,-0.207814
3818243281,-112.893295,-1.985266,33.589615,0.977413,-0.040739,-0.203353
3818263333,-111.953186,-1.831091,31.792542,0.986622,-0.042256,-0.202816
3818283386,-110.615517,-1.716073,29.396727,0.998169,-0.038547,-0.199323
3818303438,-108.990944,-1.413521,27.545849,0.996129,-0.041987,-0.191754
3818323490,-108.366898,0.120635,24.607286,0.983633,-0.084169,-0.185174
3818343542,-107.875328,0.769401,18.662973,0.994853,-0.071039,-0.177249
3818363594,-109.438805,1.798015,14.878081,0.968946,-0.064562,-0.177780
3818383646,-110.134964,2.529414,14.807595,0.975121,-0.061605,-0.175226
3818403697,-108.670761,2.393358,16.982708,0.987558,-0.043587,-0.175165
3818423749,-109.391479,3.589854,19.646629,0.981549,-0.028412,-0.199649
3818443801,-113.859543,5.382635,22.036970,1.001804,0.014755,-0.208457
3818463853,-118.290497,4.115094,21.860994,1.001622,0.002394,-0.202317
3818483905,-117.923820,1.167441,21.158600,1.017524,-0.068291,-0.204749
3818503956,-113.864700,-1.278051,19.217813,1.012900,-0.125779,-0.195937
3818524008,-108.499077,-2.861003,16.667280,0.978776,-0.141175,-0.168008
3818544060,-105.430389,-4.530849,13.557011,0.953919,-0.149654,-0.153454
3818564119,-102.860733,-6.279540,9.302762,0.958726,-0.136053,-0.156122
3818584162,-100.729080,-7.481086,5.584888,0.964380,-0.099738,-0.158956
3818604214,-98.863548,-8.426541,4.215701,0.971007,-0.090635,-0.158742
3818624266,-96.073349,-8.508824,2.729532,0.972981,-0.096457,-0.165931
3818644318,-93.245735,-8.251887,0.825338,0.975544,-0.090702,-0.170524
3818664369,-90.076004,-7.796726,-1.299448,0.987762,-0.091943,-0.170241
3818684421,-88.777687,-8.091282,-2.397837,0.990157,-0.079741,-0.149553
3818704473,-86.627319,-9.151577,-1.818935,0.995308,-0.085302,-0.138909
3818724525,-82.634804,-9.739095,0.781274,1.009571,-0.098853,-0.154829
3818744577,-77.958664,-8.852738,4.043113,1.011330,-0.103874,-0.156758
3818764629,-72.969383,-7.861995,6.683008,1.013425,-0.097732,-0.159631
3818784680,-69.762093,-5.414795,9.780825,1.013892,-0.088427,-0.150647
3818804733,-66.337685,-0.944029,13.311172,1.017030,-0.083873,-0.143952
3818824785,-63.945381,4.738437,16.238968,1.013734,-0.060570,-0.153152
3818844836,-63.494133,11.180821,17.694508,1.019490,-0.028972,-0.155476
3818864888,-62.504440,14.576156,16.962460,1.021601,-0.021837,-0.146001
3818884940,-60.798431,15.619753,14.563316,1.032959,-0.023885,-0.138444
3818904992,-60.348068,15.720993,10.909752,1.015896,-0.032007,-0.131928
3818925043,-60.369385,14.255139,7.239017,0.997392,-0.042246,-0.127123
3818945096,-59.621265,11.214308,3.421860,1.002067,-0.055661,-0.093671
3818965147,-54.481236,8.329700,-0.639900,0.994788,-0.095098,-0.061002
3818985199,-49.217094,4.157888,-3.098109,0.956698,-0.115661,-0.038041
3819005252,-43.488461,0.018661,-5.685433,0.936784,-0.110014,-0.033976
3819025304,-39.009144,-4.238760,-7.665597,0.937768,-0.081330,-0.029575
3819045356,-35.403278,-7.655523,-9.064772,0.929368,-0.061560,-0.037225
3819065408,-32.656956,-9.913366,-9.990166,0.935590,-0.044370,-0.049740
3819085459,-30.488260,-11.288593,-10.008923,0.950095,-0.025868,-0.060666
3819105511,-29.555773,-12.041848,-10.036970,0.965619,-0.015343,-0.070403
3819125563,-27.717808,-12.563457,-10.384448,0.984262,0.007955,-0.089717
3819145615,-26.769344,-12.377459,-9.566895,1.005178,0.029468,-0.107177
3819165667,-25.686838,-11.178459,-9.563826,1.018268,0.020128,-0.127061
3819185719,-23.957855,-9.801492,-9.698017,1.036933,0.001472,-0.144890
3819205770,-20.432301,-8.203343,-10.326235,1.043592,-0.014529,-0.153019
3819225822,-16.221537,-5.675117,-9.851367,1.046766,-0.015694,-0.165161
3819245874,-13.169279,-3.210726,-8.671030,1.042997,-0.021672,-0.156848
3819265926,-11.125935,-0.367774,-6.612487,1.043707,-0.014766,-0.156923
3819285976,-7.807879,1.889877,-4.787321,1.045512,0.001468,-0.146465
3819306028,-4.183824,3.755824,-2.794175,1.029699,0.017723,-0.131860
3819326080,-2.703937,6.708054,-0.879811,1.019502,0.037593,-0.112986
3819346132,-1.096546,9.455763,2.172057,0.994225,0.055176,-0.086557
3819366184,0.145397,9.880470,6.808481,0.979552,0.075820,-0.051001
3819386236,-0.456046,9.445465,10.660300,0.962330,0.092670,-0.045411
3819406287,-3.404122,10.114385,10.242186,0.974027,0.109190,-0.073875
3819426339,-7.554586,11.149784,8.997122,0.973126,0.116199,-0.079234
3819466443,-13.044204,10.424316,8.001122,0.981047,0.037534,-0.053728
3819486495,-11.479602,8.703373,6.763555,1.013186,0.001671,-0.044179
3819506547,-9.455527,7.702166,6.015979,1.018264,-0.015973,-0.046210
3819526598,-7.157588,6.523145,5.678184,1.006565,-0.008890,-0.044649
3819546650,-4.788068,5.993097,5.845918,1.007313,0.005993,-0.039635
3819586754,-2.361495,6.976215,7.531788,1.016712,0.026238,-0.035804
3819606806,-2.502319,8.712998,8.602064,1.027995,0.012200,-0.040742
3819626858,-1.633698,11.370875,9.024603,1.041925,-0.010717,-0.057191
3819646910,0.372516,14.837665,6.541214,1.035803,0.004549,-0.062501
3819666962,0.565573,17.981497,5.279785,1.033011,0.041900,-0.086947
3819687013,1.459323,22.725880,6.680389,1.015831,0.066913,-0.107898
3819707065,-1.105101,25.972780,8.951365,0.992207,0.126821,-0.089128
3819727118,-6.017686,26.641651,11.747416,1.005070,0.152346,-0.072337
3819747170,-14.048893,26.399956,15.434434,1.030253,0.140738,-0.023582
3819767222,-22.188444,25.670874,17.796850,1.036219,0.111193,-0.000113
3819787274,-27.728373,23.767952,17.934189,1.019482,0.104431,0.012479
3819807325,-32.422058,20.873806,16.520962,0.998353,0.106808,0.023208
3819827377,-38.308914,19.260746,14.838475,0.977581,0.117413,0.031027
3819847429,-46.642693,17.925411,13.981995,0.971111,0.135025,0.037412
3819867481,-55.352505,16.767559,13.966296,0.959320,0.158890,0.030690
3819887533,-64.259102,15.080762,14.543649,0.946818,0.151816,0.020777
3819907585,-73.233719,12.548834,13.608147,0.946428,0.135637,0.033140
3819927637,-83.332077,9.642809,12.302958,0.956244,0.117648,0.031691
3819947689,-93.712341,6.945584,10.693988,0.965346,0.119650,0.017736
3819967740,-102.307266,4.838284,9.286995,0.953999,0.117665,-0.005134
3819987792,-110.208420,1.990347,8.890311,0.952031,0.113110,-0.024817
3820007842,-117.044281,-0.587278,8.120955,0.965757,0.091236,-0.038190
3820027894,-122.632446,-2.472836,6.257406,0.977899,0.050417,-0.067351
3820047946,-126.772629,-3.247288,4.525943,0.984822,0.029435,-0.087144
3820067998,-129.261108,-2.927364,3.669290,0.990436,0.007990,-0.101034
3820088050,-131.363220,-2.375533,3.069386,1.001377,0.004906,-0.115099
3820108102,-135.506332,-0.383447,3.033657,1.012873,-0.003341,-0.128191
3820128154,-138.912949,2.000334,2.950846,1.013808,-0.023732,-0.137491
3820148205,-137.012848,3.249503,1.642296,1.011064,-0.036657,-0.145086
3820168257,-136.255981,4.757241,0.386307,1.037565,-0.048518,-0.165483
3820188309,-139.088104,9.212954,0.811525,1.058745,-0.035280,-0.177028
3820208361,-142.928497,12.875733,4.134989,1.061477,-0.034494,-0.192468
3820228412,-146.139084,14.530476,6.207047,1.064975,-0.035342,-0.182345
3820248464,-147.299377,13.747494,6.043414,1.050838,-0.044429,-0.161074
3820268516,-146.585114,11.172170,2.641506,1.009560,-0.099058,-0.137286
3820288568,-142.816147,7.625000,-2.728650,0.957766,-0.159536,-0.120594
3820308620,-138.798447,4.175364,-7.341333,0.920393,-0.191023,-0.105680
3820328672,-134.214630,1.461006,-11.517170,0.914513,-0.175642,-0.090086
3820348723,-129.805649,-0.486588,-14.316217,0.929892,-0.131745,-0.091576
3820368775,-127.396080,-1.328687,-14.314159,0.946277,-0.089210,-0.093042
3820388827,-126.992752,-1.723309,-13.509571,0.967661,-0.063717,-0.099002
3820408879,-126.710571,-2.412726,-12.378030,0.987624,-0.051077,-0.120456
3820428932,-125.950226,-2.780701,-11.331132,1.005961,-0.054986,-0.136276
3820448984,-124.809204,-3.348902,-9.927466,1.019827,-0.068911,-0.146469
3820469036,-124.606476,-3.640760,-8.274319,1.037263,-0.092875,-0.153975
3820489087,-123.183548,-3.637849,-8.085353,1.038749,-0.106651,-0.151805
3820529191,-119.095108,-3.576005,-8.534156,1.045192,-0.076573,-0.146109
3820549243,-118.393166,-2.709483,-7.893177,1.035851,-0.061157,-0.146717
3820569295,-118.392097,-1.508662,-7.685104,1.022652,-0.047662,-0.141332
3820589354,-118.415306,-0.019471,-7.470438,1.009984,-0.039089,-0.130706
3820609399,-118.301346,1.215242,-6.822942,0.998425,-0.037497,-0.119173
3820629451,-118.007065,2.381901,-5.121799,0.990469,-0.037364,-0.114960
3820649502,-116.842140,3.112208,-3.692301,0.984479,-0.031359,-0.107074
3820669554,-114.601425,3.400875,-2.382921,0.989617,-0.027237,-0.099087
3820689606,-112.828537,3.286483,-1.898094,0.999489,-0.044419,-0.095001
3820709659,-109.576447,3.055630,-2.148543,0.995254,-0.058262,-0.096598
3820729708,-106.586388,1.739970,-2.001056,0.993975,-0.059883,-0.095407
3820749760,-102.885834,1.131080,-1.272674,1.005212,-0.045441,-0.091041
3820769812,-100.481750,0.549803,0.357963,1.015355,-0.028115,-0.088170
3820789864,-97.878906,0.125210,1.351358,1.011588,-0.026520,-0.084035
3820809915,-96.112152,-0.337762,1.943494,1.003386,-0.031866,-0.081759
3820829967,-94.391129,-0.725886,2.414124,0.993689,-0.035455,-0.089875
3820850019,-93.301956,-1.042945,2.771046,0.983918,-0.035348,-0.087219
3820870071,-91.705696,-1.019681,3.596513,0.983289,-0.048000,-0.082351
3820890123,-90.353012,-0.930501,4.292997,0.993366,-0.049500,-0.074355
3820910175,-88.740852,-0.863746,4.777255,1.001546,-0.047257,-0.071233
3820930227,-86.550453,-0.635183,5.040964,1.004982,-0.045287,-0.067414
3820950278,-84.213768,-0.552163,4.948913,1.004074,-0.049267,-0.066011
3820970330,-82.416962,-0.489056,4.667645,1.000548,-0.042451,-0.058935
3820990382,-81.114212,-0.640830,4.531291,1.004471,-0.040826,-0.060290
3821010434,-79.888374,-0.918654,4.948661,1.005286,-0.045771,-0.056773
3821030485,-78.351257,-0.832547,4.970563,0.998402,-0.048203,-0.047796
3821050538,-75.969742,-0.582219,4.877919,0.987114,-0.049618,-0.049768
3821070589,-74.531380,-0.414741,4.664628,0.999422,-0.063435,-0.058519
3821090641,-72.465843,-0.310530,3.405438,0.994764,-0.067845,-0.054865
3821110693,-69.872070,-1.005169,2.527764,0.994003,-0.071019,-0.047927
3821130745,-67.738945,-1.235743,2.277706,0.999415,-0.073033,-0.037050
3821150798,-65.001083,-1.107144,2.973569,0.990295,-0.053159,-0.030892
3821170850,-64.001656,-1.466209,2.784982,0.978251,-0.044859,-0.033163
3821190902,-63.060665,-1.906619,1.800906,0.985656,-0.073170,-0.038145
3821210954,-61.414249,-1.863957,0.845234,0.993270,-0.083009,-0.041249
3821231006,-58.865681,-1.641558,0.964838,1.005975,-0.058755,-0.043530
3821251057,-57.744701,-1.418202,2.706836,1.011583,-0.043301,-0.043760
3821271109,-55.870399,-1.054380,4.273771,1.020769,-0.044800,-0.054766
3821291161,-54.414238,-0.454543,5.180668,1.021059,-0.044117,-0.057862
3821311213,-53.863605,1.372191,6.553552,1.039846,-0.018974,-0.056111
3821331265,-56.459106,3.694444,7.903091,1.022743,-0.019870,-0.046225
3821351317,-59.677383,4.352273,6.014791,1.012642,-0.076643,-0.005468
3821371368,-57.664349,4.589231,4.194320,0.990591,-0.146443,-0.003635
3821391420,-52.930210,6.611806,3.405061,1.024515,-0.130274,-0.060203
3821411472,-51.290581,9.303202,-0.060792,1.017256,-0.062452,-0.068855
3821431525,-51.262367,9.200269,-1.955187,1.028709,-0.071547,-0.058490
3821451574,-50.358170,9.712507,-2.321059,1.013557,-0.101074,-0.056074
3821471626,-49.014927,9.813591,-0.934928,0.970230,-0.088533,-0.042803
3821491678,-47.969788,7.711360,-0.708260,0.976021,-0.067538,-0.030372
3821511730,-44.945145,5.598426,-0.618670,1.006883,-0.067495,-0.038515
3821531782,-42.243755,4.489454,-1.100848,0.986924,-0.074230,-0.036216
3821551833,-37.930450,2.544314,-2.217341,0.978304,-0.095998,-0.032298
3821571885,-32.292301,0.494345,-3.273306,0.976211,-0.111207,-0.040862
3821591937,-25.713566,0.111880,-3.327344,0.978337,-0.101801,-0.050590
3821611989,-19.730036,-0.180829,-2.979798,0.970760,-0.078876,-0.060179
3821632041,-15.593037,0.117828,-2.050064,0.988744,-0.053507,-0.061527
3821652093,-13.764007,0.600368,-0.870050,0.996237,-0.040502,-0.055444
3821672144,-12.567379,1.432790,-0.130600,1.012672,-0.034663,-0.062666
3821692196,-11.562227,2.551815,0.509404,1.020833,-0.033137,-0.071623
3821712248,-9.139359,3.090416,1.537438,1.024726,-0.030084,-0.068359
3821732300,-6.836072,3.322890,2.301305,1.025353,-0.017879,-0.072676
3821752352,-5.782353,3.962714,2.745889,1.032328,-0.015409,-0.066203
3821772403,-4.109975,5.857364,2.897933,1.036862,-0.017456,-0.076690
3821792456,-3.978042,8.746385,2.220984,1.030866,-0.007595,-0.085117
3821812507,-3.845990,11.440140,1.878182,1.039314,-0.022337,-0.088067
3821832559,-2.618453,14.412478,1.238456,1.033600,-0.032706,-0.087988
3821852611,-0.725901,16.242455,1.739278,1.019493,-0.032574,-0.076547
3821872664,1.144790,17.252499,3.455565,1.023173,-0.037749,-0.064010
3821892716,3.172538,17.576866,4.628477,1.026398,-0.033005,-0.056771
3821912769,4.617126,17.522791,5.386053,1.020550,-0.022661,-0.044027
3821932820,5.293061,17.208416,6.591953,1.010754,-0.026913,-0.034867
3821952872,6.458843,16.613178,7.298440,1.001474,-0.048139,-0.011876
3821972924,9.347745,15.782190,7.360923,1.002479,-0.066276,-0.003206
3821992976,12.110223,15.033110,6.104430,0.984887,-0.083965,0.020595
3822013028,15.142012,13.266310,5.700192,0.922001,-0.091143,0.036682
3822033080,20.028284,8.181580,6.921058,0.873901,-0.038840,0.035645
3822053131,19.253515,2.732400,7.986001,0.881338,0.010618,0.017584
3822073183,14.966190,-0.537652,9.128036,0.892970,0.034151,-0.003327
3822093235,6.663226,-1.630136,10.620182,0.900778,0.053729,-0.007770
3822113287,-1.376509,-0.002352,11.026654,0.932631,0.037253,-0.021259
3822133338,-5.984272,3.243441,11.638556,0.982558,-0.008378,-0.024103
3822153389,-7.588321,5.199995,12.958694,1.020757,-0.064902,-0.011636
3822173440,-5.712229,3.887474,11.158767,1.095137,-0.113289,-0.001187
3822193492,-0.049690,1.219271,4.769340,1.131603,-0.192315,0.007257
3822213544,4.857652,-2.252274,0.573261,1.111638,-0.223419,0.084818
3822233596,15.532114,-3.153079,-1.640428,1.082163,-0.158082,0.134930
3822253648,22.925138,-3.518411,-4.620288,1.042292,-0.109258,0.162620
3822273699,28.769773,-1.955129,-7.151514,0.990098,-0.080028,0.156095
3822293751,32.719372,-2.961779,-10.741854,0.912660,-0.063674,0.123365
3822313803,36.364243,-4.562222,-13.079514,0.885200,-0.047345,0.087446
3822333855,36.478146,-6.364187,-12.429132,0.906265,-0.027505,0.061009
3822353907,35.045929,-7.705426,-9.362110,0.955047,0.003114,0.059910
3822373959,32.439659,-8.566261,-3.552750,0.992878,0.035035,0.075350
3822394011,28.164383,-8.960553,2.126745,1.006476,0.061993,0.090585
3822414062,23.152613,-9.326653,7.025767,1.000859,0.066625,0.097762
3822434114,19.116571,-10.353382,9.698511,1.001744,0.039407,0.100355
3822454166,16.372038,-10.806780,9.269033,1.001023,-0.012747,0.093865
3822474218,14.865151,-11.428189,7.407280,0.999048,-0.037491,0.085594
3822494270,14.311538,-11.837821,4.437934,1.008774,-0.030313,0.071311
3822514321,13.805254,-12.603660,1.515272,0.995900,-0.027408,0.073186
3822534373,13.424311,-13.917293,-1.723861,0.996882,-0.029920,0.062497
3822554425,12.799631,-13.751200,-4.816429,1.007956,-0.039964,0.044515
3822574478,11.701697,-12.418996,-6.700217,1.017258,-0.038596,0.043384
3822594530,9.983871,-10.059202,-6.321220,1.018098,-0.057769,0.049519
3822614582,9.716819,-7.689970,-4.752868,1.025560,-0.068004,0.056961
3822634634,10.699821,-5.661779,-3.183778,1.018557,-0.072481,0.056327
3822654686,11.673986,-4.676624,-2.073407,1.009976,-0.060923,0.052588
3822674738,12.431646,-4.760604,-0.534854,1.021268,-0.070831,0.044149
3822694790,12.989305,-4.135840,0.440483,1.021345,-0.043823,0.033021
3822714842,12.116526,-3.304309,0.778977,1.021459,-0.022907,0.034325
3822734893,10.825130,-2.153114,0.479883,1.024845,-0.000428,0.036452
3822754945,9.447438,-0.373776,-0.041135,1.025913,0.020115,0.030587
3822774997,7.650373,1.397103,-0.266398,1.016795,0.039264,0.036844
3822795049,5.388174,3.571907,-0.962785,1.013556,0.032244,0.048445
3822835152,2.972924,6.152993,-8.064736,1.007187,-0.024956,0.090505
3822855221,7.305912,6.948969,-10.319947,0.967119,-0.001154,0.070951
3822875254,7.974613,6.843600,-9.668028,0.965477,0.049185,0.046000
3822895307,5.199546,7.076228,-8.432488,0.974079,-0.006306,0.052610
3822915358,4.751186,4.252162,-9.157759,0.989139,-0.094855,0.078372
3822935410,7.832084,-0.315988,-8.415516,1.002251,-0.064747,0.066028
3822955462,7.751433,-3.278704,-3.850326,1.029195,0.008754,0.036195
3822975514,5.000849,-3.496307,0.585077,1.040540,0.052837,0.022859
3822995566,1.542027,-2.075358,1.960762,0.996156,0.086086,0.003892
3823015617,-4.480743,-1.690028,1.893332,0.978829,0.082234,-0.008728
3823035669,-9.914415,-1.083196,0.233352,0.965389,0.058211,0.009904
3823055721,-15.324922,-1.425498,-2.673893,0.971026,0.035616,0.023747
3823075773,-18.543285,-0.714962,-4.630586,0.979138,0.023368,0.030127
3823095824,-22.354980,-0.766641,-5.258127,0.960797,0.048308,0.036161
3823115876,-26.050917,-1.256383,-5.649251,0.959767,0.063037,0.017897
3823135928,-29.583580,-1.828425,-7.214887,0.966235,0.057198,0.021555
3823155980,-33.611748,-2.716832,-7.877363,1.001530,0.067797,0.013957
3823176032,-38.342110,-2.604179,-6.784725,1.020932,0.079876,0.010593
3823196084,-44.601082,-1.991245,-4.238116,1.035934,0.073922,0.004860
3823216136,-50.078056,-0.438429,-2.733337,1.028160,0.022876,-0.012054
3823236188,-50.585903,1.671393,-4.710958,1.009144,-0.021591,-0.011765
3823256239,-50.305695,1.283166,-6.361931,0.996420,0.001474,-0.029845
3823276291,-51.817406,-0.181408,-4.704142,0.989956,-0.036852,-0.027811
3823296344,-49.935875,1.731815,-3.036444,0.995565,-0.033206,-0.053352
3823316396,-53.986649,5.225106,2.508313,1.010389,-0.006564,-0.060553
3823336448,-57.111023,8.711329,5.983714,1.070548,-0.025275,-0.018376
3823356500,-55.992199,8.287837,3.892989,1.121249,-0.075767,0.020194
3823376552,-49.728027,5.783863,0.034156,1.105980,-0.175912,0.046602
3823396603,-39.577187,2.378880,-3.860828,1.042158,-0.209417,0.064350
3823416655,-29.986168,-1.087079,-6.019825,0.952757,-0.165893,0.052852
3823436707,-24.443050,-4.384606,-6.177141,0.918535,-0.124255,0.053582
3823456759,-20.818985,-6.496503,-5.345026,0.920775,-0.059214,0.058752
3823476811,-20.080019,-7.835566,-2.976036,0.922352,-0.012015,0.061671
3823496863,-20.989588,-8.499711,-0.222267,0.958408,-0.002354,0.064632
3823516915,-21.206659,-8.041550,0.420441,0.979492,-0.019147,0.068793
3823536966,-20.779308,-6.755492,0.461334,0.981835,-0.058128,0.061808
3823557018,-20.484512,-4.810171,0.446949,1.006287,-0.062271,0.060575
3823577070,-21.300524,-4.376731,0.203214,1.022961,-0.040974,0.066991
3823597120,-22.731153,-4.529457,0.340663,1.037153,-0.023461,0.063253
3823617172,-25.192541,-4.268691,0.901469,1.044201,-0.018320,0.040341
3823637224,-27.412533,-3.671068,1.658082,1.044670,-0.016906,0.037420
3823657276,-26.142899,-3.734071,2.385435,0.999068,-0.041407,0.053012
3823677328,-24.176905,-2.425609,1.978553,0.993274,-0.041156,0.045970
3823697380,-25.041126,-0.058997,-1.038145,0.996717,-0.002989,0.046007
3823717431,-27.322063,1.723226,-2.566859,0.993524,0.016125,0.068030
3823737483,-30.593351,2.713591,-2.243230,1.024217,0.038674,0.077257
3823757535,-33.928169,3.507509,-0.509217,1.031009,0.005430,0.070510
3823777587,-32.977058,5.224048,2.228117,1.008376,-0.085112,0.057764
3823797639,-24.982735,6.958223,4.076187,1.005895,-0.110100,0.057945
3823817691,-18.807653,9.261652,7.779777,1.028250,-0.034988,0.001522
3823837742,-17.901867,8.041629,7.200084,1.040935,0.038341,-0.006235
3823857794,-21.962725,4.466601,6.706035,1.043187,0.012302,-0.004009
3823877846,-23.826733,1.745473,5.715642,1.034422,-0.075946,-0.004504
3823897898,-21.552864,1.461712,4.116663,1.010798,-0.098561,-0.006682
3823917950,-19.957066,3.240924,1.707444,0.995644,-0.037208,-0.002591
3823938002,-21.607349,6.398415,0.908930,0.977781,-0.001947,-0.005580
3823958054,-25.503613,8.530160,2.289898,0.967203,-0.024878,0.006334
3823978106,-27.387018,10.239362,3.201721,0.941950,-0.062823,0.025317
3823998157,-25.744650,9.043422,3.265899,0.929976,-0.077299,0.037851
3824018209,-22.764408,6.151095,1.410399,0.936031,-0.090060,0.053219
3824038262,-18.853903,1.982397,-1.555136,0.937770,-0.119481,0.066841
3824058314,-14.002067,-1.023052,-2.827323,0.953137,-0.114340,0.055439
3824078366,-10.353307,-3.694256,-1.629499,0.944246,-0.075953,0.060021
3824098418,-6.531410,-7.675555,-0.093748,0.947764,-0.057180,0.057102
3824118470,-3.022807,-10.763533,0.173348,0.971288,-0.058529,0.041653
3824138521,-0.806935,-13.908010,0.046987,0.965206,-0.061300,0.007469
3824158574,1.147410,-15.311638,0.558929,0.966609,-0.040453,-0.009031
3824178625,1.511220,-15.950404,2.410268,0.974018,-0.020468,-0.023206
3824198677,2.137881,-16.799829,3.095082,0.964330,-0.043229,-0.069726
3824218729,8.971215,-17.256454,1.858893,0.967232,-0.075280,-0.113413
3824238781,12.996363,-14.020938,-0.866932,1.025409,-0.089726,-0.186268
3824258832,11.673418,-7.730659,-4.806465,1.103549,-0.060560,-0.249398
3824278884,13.236681,-1.027429,-10.052012,1.181778,-0.023926,-0.253721
3824298936,15.906689,2.177370,-12.633258,1.322629,-0.072671,-0.182904
3824318997,21.504414,9.183086,-6.664402,1.295761,-0.059924,0.008433
3824339039,23.384922,18.034534,-0.306500,1.248729,-0.010015,0.075231
3824359090,20.166101,24.219574,5.054374,1.035465,0.076573,0.114706
3824379142,13.692398,24.051527,6.777644,0.859150,0.101363,0.102626
3824399194,8.006695,18.922573,4.743410,0.749467,0.054790,0.096571
3824419246,5.542587,12.254224,2.053984,0.729096,0.001542,0.099224
3824439297,5.737721,4.801579,-0.156196,0.778882,-0.026381,0.095810
3824479401,9.900213,-1.575769,-2.098629,0.972202,0.007869,0.116870
3824499453,10.501759,-1.924844,-1.498899,1.017876,0.024426,0.124091
3824519505,11.856774,-2.096310,-1.203203,1.055791,0.023539,0.126188
3824539557,14.784822,-2.824703,-1.762561,1.061139,0.012581,0.121445
3824559609,17.138300,-4.331336,-2.341773,1.047578,0.001722,0.107478
3824579660,17.560886,-5.268103,-2.050693,1.047214,0.003535,0.075282
3824619764,19.202930,-6.988197,-0.840286,1.018214,0.029400,0.032970
3824639816,18.008064,-4.911971,0.971927,1.016163,0.050616,0.030165
3824659868,14.768696,-2.290500,3.480242,1.008240,0.085788,0.057694
3824679919,8.875995,-0.777498,3.924251,0.979674,0.063880,0.074104
3824699971,6.050498,0.482728,2.048895,0.985305,0.035846,0.076105
3824720023,3.862597,2.632458,2.110464,0.992618,0.035403,0.088522
3824740075,3.601251,4.387864,2.650191,0.987720,0.035370,0.099757
3824780180,1.085842,4.923966,-0.003410,1.001987,0.000780,0.124888
3824800232,3.582356,4.295629,1.293883,1.003852,-0.053242,0.082538
3824820284,10.344903,6.059622,5.522073,1.028683,-0.134698,0.024128
3824840336,18.486683,6.610797,2.637320,1.045097,-0.061390,0.033484
3824860387,20.494427,1.195839,-0.952308,1.033775,0.025571,0.055209
3824880439,19.840965,-4.742402,-1.712250,0.996838,-0.027046,0.021838
3824900491,20.423868,-6.417775,-3.131525,0.964043,-0.053417,-0.000265
3824920543,21.905249,-5.726101,-3.331480,0.943687,-0.007038,0.012232
3824940600,21.964302,-5.473751,-3.105002,0.922451,0.038178,0.019738
3824960647,20.257767,-7.397064,-1.756301,0.909128,0.041970,0.020145
3824980698,18.689699,-9.712984,-0.209243,0.914559,0.024173,0.020026
3825000750,18.669878,-12.566243,1.202703,0.900270,0.011325,0.006895
3825020802,19.493843,-15.422356,0.098149,0.897501,-0.005148,0.005339
3825040854,19.405636,-17.852482,-2.326291,0.911398,0.009800,0.006537
3825060905,17.467215,-20.045815,-5.008585,0.931398,0.007686,0.001705
3825080956,16.119205,-21.417322,-7.997075,0.952849,-0.005363,-0.011988
3825101008,15.332000,-20.675814,-11.167358,0.995241,0.003401,-0.047507
3825121060,15.447183,-18.735231,-15.334933,1.020357,0.038904,-0.103997
3825141112,14.842699,-15.255767,-17.915979,1.066366,0.044703,-0.195259
3825161164,12.540000,-6.154527,-13.346106,1.174734,0.035260,-0.294627
3825181215,9.862046,5.742778,-4.435416,1.273434,0.042550,-0.308371
3825201267,3.393219,13.960263,8.725920,1.301406,0.135523,-0.227725
3825221319,-2.117431,14.594442,16.243988,1.235728,0.183486,-0.058520
3825241371,-5.291485,14.494763,19.360394,1.213953,0.090563,0.016745
3825261423,-3.431562,12.794489,18.683495,1.013452,-0.029108,0.065877
3825281475,1.969895,11.989617,15.486057,0.882546,-0.079070,0.073980
3825301527,7.299175,9.963706,10.163166,0.782222,-0.069805,0.076524
3825321579,10.932822,5.819044,5.287749,0.751243,-0.050567,0.079626
3825341630,12.474993,1.427591,3.157496,0.796702,-0.036897,0.062795
3825361682,13.606255,-2.220840,2.495145,0.897424,0.015273,0.054907
3825381734,13.037828,-4.273894,2.563050,0.980071,0.036659,0.050974
3825401786,13.136021,-3.851442,2.038612,1.044775,0.040373,0.053026
3825421838,12.270931,-3.410007,3.106027,1.061947,0.023915,0.055792
3825441889,12.311280,-3.126784,4.628407,1.056881,-0.012047,0.051446
3825461941,10.211337,-2.351655,5.717842,1.038187,-0.023030,0.042261
3825481993,7.476654,-2.019452,5.854075,1.036303,-0.015349,0.033252
3825502046,5.420521,-1.835510,5.854162,1.039941,0.002361,0.025802
3825522098,4.301669,-2.015458,6.165911,1.032359,0.001801,0.013122
3825542150,4.458042,-1.556010,6.626589,1.026441,-0.018566,0.006591
3825562202,4.713130,-0.322925,5.674881,0.989430,-0.034712,0.014149
3825582254,5.020857,1.422020,3.978653,0.970317,-0.025550,0.035266
3825622357,4.670229,4.761643,0.632527,0.995083,-0.018756,0.068354
3825642409,4.641371,5.751050,1.053549,0.992373,-0.010844,0.075695
3825662461,3.895278,6.807508,2.012697,0.999349,-0.005170,0.064682
3825682513,3.912437,7.766370,2.358019,1.003625,-0.002833,0.049508
3825702565,3.276993,8.476111,2.401270,1.010443,-0.005027,0.053853
3825722617,2.643805,8.947886,2.028497,1.017662,-0.017462,0.072770
3825742668,2.723912,8.323738,1.689567,1.014450,-0.022793,0.094531
3825762720,5.125540,8.307285,0.210886,1.015011,-0.032427,0.081468
3825782792,6.309143,8.080787,-0.811907,1.029966,-0.032030,0.049578
3825802823,5.960826,8.501518,-2.344185,1.037526,-0.032709,0.019829
3825822874,5.693128,8.289362,-4.397257,1.028025,-0.061459,0.037635
3825842926,8.284272,4.654270,-4.461428,1.003078,-0.079042,0.025393
3825862978,10.326777,0.484620,-3.257879,0.953989,-0.040435,0.013328
3825883030,9.530260,-3.092892,-0.327374,0.937674,0.007863,0.019561
3825903082,7.603653,-3.920804,1.593630,0.951567,0.018582,0.023716
3825943185,4.002282,-5.748741,-0.414813,0.957790,-0.028141,0.027482
3825963237,3.824775,-7.295946,-2.387528,0.960180,-0.038418,0.013621
3825983289,3.063952,-9.693662,-3.796264,0.957544,-0.033841,0.010096
3826003341,3.253160,-11.939197,-4.933015,0.961063,-0.030860,0.014722
3826023393,1.875829,-13.805011,-4.433472,0.972193,-0.037530,0.016695
3826043445,0.623566,-15.081994,-3.390316,0.961721,-0.031587,0.027368
3826063496,0.115658,-17.238724,-2.973443,0.930839,0.024030,0.026687
3826083548,-4.328259,-20.202778,-3.696832,0.931914,0.068013,0.007917
3826103600,-6.894501,-19.009472,-5.617521,0.964849,0.045047,-0.046841
3826123652,-4.053382,-16.149933,-8.947952,1.017961,0.013441,-0.118079
3826143704,-4.079233,-7.853236,-9.090217,1.104310,-0.082776,-0.259224
3826163756,5.071677,7.139150,-9.152661,1.189130,-0.154828,-0.291689
3826183808,9.049389,14.191164,-3.789716,1.315698,-0.045626,-0.164817
3826203860,6.145757,17.078543,6.781576,1.248120,0.071173,-0.016779
3826223912,1.967987,10.948627,9.358270,1.096801,0.069879,0.043419
3826243964,0.266597,3.876521,6.859443,0.954640,0.029106,0.054062
3826264016,0.431649,-0.802850,5.041401,0.846920,0.004293,0.044497
3826284068,1.448408,-3.933787,3.498148,0.799519,-0.031857,0.046215
3826304120,4.465621,-5.237310,1.940318,0.811512,-0.065151,0.054229
3826324171,6.823096,-5.542722,0.432332,0.856892,-0.050982,0.066111
3826344223,6.569098,-5.683582,-1.166253,0.919013,-0.014320,0.072580
3826364275,6.706606,-6.969841,-1.821239,0.971612,0.000869,0.065597
3826384327,7.137981,-8.224386,-1.369908,1.018559,0.010501,0.045642
3826404379,6.696180,-9.043892,0.345915,1.033375,-0.008111,0.031512
3826424431,6.135617,-10.486490,2.094242,1.041086,-0.005517,0.021085
3826444483,3.664597,-12.069238,4.063511,1.055954,-0.020918,-0.003625
3826464534,2.328640,-12.686930,3.808423,1.062693,-0.036753,-0.025660
3826484586,2.381187,-11.852383,2.471632,1.066276,-0.048397,-0.040042
3826504640,2.976539,-9.539169,0.303450,1.059234,-0.047767,-0.052096
3826524689,3.099979,-7.266567,-1.796216,1.048187,-0.039362,-0.053544
3826544740,2.709906,-3.425285,-2.612686,1.046528,-0.039144,-0.050741
3826564792,2.984414,1.265553,-3.030631,1.038570,-0.040139,-0.030064
3826584844,3.966867,5.195955,-1.983464,1.027333,-0.019588,-0.020657
3826604896,3.511602,8.349879,0.211304,1.017910,0.000718,-0.009689
3826624948,1.983218,11.631467,2.095271,0.993010,-0.003239,0.009811
3826644999,0.517055,13.826756,2.611168,0.969621,-0.007227,0.020507
3826665051,0.123415,15.232323,1.992567,0.964340,-0.009780,0.020681
3826685103,-0.416125,16.355087,2.420887,0.957106,-0.011705,0.027014
3826705155,-0.187584,17.544569,3.000288,0.964208,-0.001525,0.038943
3826725207,-1.493346,17.778679,4.151940,0.985571,-0.001112,0.064719
3826745258,-3.195931,17.214184,4.283324,1.007724,-0.004362,0.081909
3826765310,-4.590797,16.943729,2.579479,1.025905,-0.023723,0.084898
3826785362,-3.040022,16.535219,1.208552,1.001271,-0.026345,0.089571
3826805414,-1.916878,16.183361,3.225374,1.015100,-0.020990,0.029532
3826825466,-2.005078,16.381178,4.581357,1.069689,-0.031629,-0.024216
3826845518,-2.951431,16.482517,2.383441,1.089451,-0.055184,0.022184
3826865570,-1.646327,12.654652,-0.415619,1.059610,-0.110648,0.023887
3826905673,6.623356,3.792348,-2.191768,0.941253,-0.054061,0.015486
3826925725,6.832128,2.090949,-0.147239,0.933083,-0.010020,0.034186
3826945777,5.261875,1.681220,1.506935,0.922766,-0.001526,0.032469
3826965830,3.256339,0.721088,1.814104,0.905956,-0.005265,0.040482
3826985882,1.476788,-0.977795,1.517423,0.905291,-0.011970,0.048280
3827005933,-0.431149,-2.252537,-0.000887,0.920363,-0.030193,0.067865
3827025985,-1.973745,-5.028263,-1.552047,0.941287,-0.037168,0.078910
3827046037,-2.828825,-8.555431,-2.593069,0.958151,-0.035814,0.062927
3827066089,-5.114315,-12.513329,-3.040947,0.953920,-0.014261,0.058558
3827086141,-7.843277,-16.116791,-3.406522,0.952809,-0.028104,0.037261
3827106192,-8.327159,-18.294849,-6.377378,0.960238,-0.053443,0.011251
3827126244,-6.409529,-19.904144,-11.920301,0.955762,-0.046113,-0.022039
3827146296,-4.670890,-19.926617,-16.058945,0.984834,-0.072782,-0.100230
3827166348,0.202512,-9.769106,-18.725552,1.045421,-0.091817,-0.208641
3827186400,4.149641,1.077290,-14.762616,1.159534,-0.018804,-0.209586
3827206452,0.282783,8.771239,-3.040390,1.276494,0.121184,-0.107769
3827226504,-6.623366,9.470051,5.334368,1.263587,0.127022,-0.008318
3827246557,-9.848267,6.132280,7.870792,1.146160,0.043061,0.034718
3827266606,-9.223211,1.871389,6.922728,0.988350,-0.016445,0.033834
3827286658,-7.388131,-1.488628,4.326502,0.873657,-0.051399,0.021429
3827306710,-4.428951,-2.964497,1.988653,0.810372,-0.070353,0.033650
3827326761,-0.772358,-3.491428,-1.072710,0.831593,-0.064535,0.049729
3827346813,1.505452,-3.136269,-2.484418,0.914110,-0.042836,0.067876
3827366865,1.977809,-2.200761,-1.502542,0.993098,-0.011826,0.076802
3827386917,1.276052,-2.078154,1.794127,1.034222,0.008361,0.065227
3827406969,0.644649,-2.544539,5.517224,1.033513,0.004935,0.048085
3827427021,1.142859,-4.349511,7.690851,1.030641,-0.031668,0.042944
3827447073,3.121634,-5.561898,7.209283,1.037656,-0.053964,0.039344
3827467124,3.695101,-5.601972,6.284587,1.046318,-0.041767,0.033175
3827487176,2.653567,-5.206911,5.010325,1.042959,-0.014795,0.032839
3827507228,-0.515807,-4.388086,4.515982,1.041376,0.003685,0.029251
3827527280,-4.969520,-2.341672,3.790488,1.021050,0.001286,0.029771
3827547332,-6.585127,-1.020157,1.952392,0.994227,-0.010090,0.038982
3827567383,-9.045732,0.558560,-0.356189,0.984144,-0.002043,0.044180
3827587435,-8.822297,1.033383,-2.328432,0.971547,-0.004377,0.048117
3827607487,-7.361181,1.381188,-2.860669,0.960963,-0.010964,0.052935
3827627539,-5.269140,1.375212,-2.368749,0.960744,-0.032838,0.054550
3827647591,-4.176811,0.608011,-2.366488,0.961228,-0.043459,0.055130
3827667643,-2.837811,-0.517602,-2.870868,0.971713,-0.051687,0.043485
3827687696,-1.296467,-1.446671,-2.519575,0.985387,-0.056348,0.045908
3827707748,2.592605,-2.720997,-2.766651,1.000089,-0.057005,0.042112
3827727800,6.675852,-3.729980,-2.074919,1.007425,-0.063046,0.037871
3827747851,9.497971,-3.789609,-1.219279,1.009266,-0.052801,0.029677
3827767903,10.258953,-3.529214,-1.644864,1.011590,-0.027784,0.025132
3827787955,10.344911,-3.129138,-3.290907,1.006250,-0.014717,0.012038
3827808007,9.404014,-2.677542,-5.330873,1.008520,-0.005037,0.008761
3827828059,8.040655,-2.031899,-6.264832,1.010173,0.020867,0.009200
3827848118,5.427533,-1.743345,-5.954175,1.003448,0.038162,0.012496
3827868162,2.860075,-1.289497,-5.962418,1.000062,0.040713,0.013533
3827888214,0.012372,-1.275820,-5.658309,1.002729,0.036513,0.011692
3827908266,-1.756471,-1.580180,-3.943797,1.002535,0.004203,0.014155
3827928318,-1.998139,-1.260362,-2.345655,1.009796,-0.018296,0.015376
3827948370,-1.803473,-1.288684,-1.026887,1.014665,-0.019638,0.009700
3827968420,0.112922,-1.136914,-0.618817,1.013894,-0.009474,-0.003783
3827988472,1.787785,-1.509147,0.010933,1.012019,-0.003941,0.002229
3828008524,2.297086,-1.556652,0.374708,1.014530,-0.000318,0.007476
3828048628,2.691466,-1.498097,0.821527,1.005469,0.015628,0.005683
3828068680,2.735547,-1.366444,1.184847,0.992277,0.022249,0.013328
3828088732,1.913934,-1.500391,1.261386,0.983288,0.027053,0.020298
3828108783,0.513956,-1.713408,1.436927,0.984029,0.022065,0.020816
3828128835,-0.636272,-1.913788,2.150442,0.975340,0.011159,0.015518
3828148887,-1.922979,-2.018869,2.469570,0.975814,0.011836,0.011969
3828168939,-1.958284,-2.430776,2.198160,0.986219,0.004792,0.013397
3828188991,-1.519580,-3.137145,1.692650,0.996547,-0.003367,0.013019
3828209043,0.052369,-3.578956,1.034253,1.004029,-0.030109,0.009746
3828229094,2.591284,-3.782665,-0.186146,1.011644,-0.037696,0.005344
3828249146,3.930263,-3.412306,-0.627471,1.016211,-0.030761,0.000388
3828269198,4.452921,-3.050211,-0.333322,1.013631,-0.021319,0.000261
3828289250,4.580814,-2.895717,-0.045899,1.014684,-0.010392,0.001777
3828309302,4.824333,-2.774006,-0.258615,1.010513,-0.015959,0.000722
3828329353,5.252226,-3.037683,-0.379119,1.002786,-0.016027,-0.002877
3828349405,4.724886,-2.690957,-0.228550,1.001683,-0.011317,-0.003757
3828369457,3.524901,-2.161765,0.656785,1.007851,-0.018266,0.005001
3828389509,2.820767,-1.587004,1.033998,1.002408,-0.024478,0.003489
3828409562,2.461197,-1.344934,1.268238,0.999007,-0.024005,-0.007446
3828429614,2.590966,-1.457479,1.344370,0.995192,-0.025039,-0.009279
3828449666,3.376546,-1.441199,0.707406,0.994896,-0.031391,-0.002301
3828469718,4.298072,-1.233953,0.115211,0.997541,-0.020473,-0.008043
3828489769,4.747258,-1.141264,-0.097477,1.001710,-0.016795,-0.005602
3828509821,4.535189,-1.362710,-0.081481,1.001914,-0.025779,-0.004860
3828529873,5.449670,-1.464361,-0.293662,1.002087,-0.026930,-0.002756
3828549925,6.152703,-1.743971,-0.815893,0.997992,-0.024429,-0.005177
3828569978,6.814313,-2.641653,-1.790717,0.998406,-0.019817,-0.000410
3828590029,6.825837,-3.161073,-2.304300,0.996519,-0.010955,-0.009433
3828610080,7.027867,-3.499791,-3.250574,0.997694,-0.000014,-0.013277
3828630132,6.428867,-3.711851,-3.749844,1.002040,-0.000201,-0.007973
3828650184,6.026437,-3.791888,-3.984375,1.002199,0.001749,-0.004995
3828670236,5.716637,-4.024447,-4.423045,0.997931,0.007835,-0.010822
3828690286,5.484606,-4.553003,-4.928933,0.993653,0.010785,-0.013613
3828710338,5.305828,-5.028646,-5.525968,0.997201,0.013698,-0.013712
3828730390,5.175535,-4.592360,-6.027638,1.006407,0.017871,-0.015604
3828750442,4.077816,-4.325565,-5.922067,1.008540,0.022211,-0.023818
3828770494,3.741918,-4.137876,-5.907439,1.006708,0.018618,-0.020609
3828790546,3.178074,-4.185139,-5.596341,1.004621,0.013448,-0.019655
3828810597,3.022686,-3.810995,-5.097364,1.005181,0.010621,-0.020527
3828830649,2.485053,-3.187818,-4.439953,1.007709,0.017633,-0.019772
3828850701,2.703404,-2.910595,-4.046880,1.002625,0.024428,-0.026703
3828870753,2.495848,-2.584504,-3.888773,1.008158,0.029558,-0.024633
3828890804,2.153669,-1.414129,-3.339422,1.005871,0.027497,-0.022263
3828910857,2.146635,-0.647086,-2.091535,0.996219,0.019601,-0.020149
3828930908,2.825015,0.558499,-1.830663,0.993735,0.021633,-0.017464
3828950960,3.364872,1.328340,-3.099191,0.983885,0.038531,-0.009641
3828971012,1.648453,1.585270,-5.107898,0.985584,0.060396,0.000661
3828991064,-0.703420,1.281026,-7.561609,1.002006,0.087816,0.016001
3829011116,-0.794540,1.587359,-8.244739,1.021806,0.038030,0.006811
3829031168,1.963437,4.103541,-8.171006,1.040066,0.008364,0.032641
3829051220,1.917851,7.585907,-6.083619,1.084436,0.013578,0.034622
3829071271,-1.396774,14.212597,-2.808446,1.117121,0.055925,0.036545
3829091323,-11.457281,22.067307,-1.247988,1.112476,0.176497,0.037661
3829111375,-25.122208,26.230618,0.152137,1.048715,0.262450,0.047757
3829131428,-40.179222,23.593111,-0.386766,1.004209,0.280025,0.057417
3829151480,-49.241898,18.176823,0.044334,0.997102,0.203780,0.063702
3829171532,-57.031006,14.967389,1.187386,0.981353,0.103114,0.079115
3829191584,-63.660694,14.252871,-0.497939,0.968814,0.043984,0.101432
3829211635,-67.079857,14.103189,-2.618334,0.961941,0.067188,0.111385
3829231687,-70.941284,14.353555,-2.254055,0.953236,0.088425,0.123892
3829251739,-79.331482,14.907442,0.361715,0.955338,0.113408,0.110621
3829271791,-87.512077,13.716875,1.823842,0.972292,0.107818,0.098264
3829291843,-92.168221,9.879318,2.445012,0.954637,0.127411,0.098730
3829311895,-98.067497,5.128606,2.812080,0.931374,0.076801,0.095697
3829331946,-103.389809,0.962802,2.638824,0.930742,0.041431,0.081106
3829351998,-106.556816,-3.064377,1.751915,0.936096,0.011834,0.069036
3829372050,-108.458633,-6.832288,-0.258018,0.933622,-0.002434,0.062821
3829392102,-110.208923,-10.312555,-2.556994,0.946935,0.006519,0.057813
3829412166,-112.585526,-12.520712,-3.533818,0.965416,0.019843,0.039977
3829432204,-116.600410,-13.036851,-4.167266,0.986582,0.019002,0.022232
3829452256,-120.870041,-13.148505,-4.203280,0.999132,0.039723,0.001542
3829472308,-124.738441,-13.267193,-3.367832,1.013380,0.048493,-0.022816
3829492359,-128.174530,-13.334283,-2.024922,1.015308,0.032186,-0.032611
3829512411,-131.172333,-13.994210,-1.240966,1.017933,0.006989,-0.047842
3829532463,-134.233093,-14.109589,-0.716549,1.022956,0.001616,-0.062286
3829552515,-138.749298,-14.170527,0.315981,1.038413,0.007033,-0.073508
3829572567,-143.421204,-13.286614,0.860256,1.059487,0.011334,-0.093767
3829592619,-147.146469,-11.529872,1.590666,1.049219,0.026027,-0.106734
3829612671,-150.737686,-9.570065,3.078224,1.040501,0.041713,-0.120428
3829632723,-154.498383,-7.838870,5.802001,1.018786,0.049647,-0.121401
3829652774,-158.118744,-6.827283,8.634313,1.009131,0.039463,-0.133257
3829672826,-161.407867,-6.018075,10.337941,0.993759,0.028299,-0.149233
3829692878,-164.932251,-5.613295,9.564726,0.978753,0.009826,-0.161758
3829712930,-165.333038,-4.932343,7.220623,0.967884,-0.020267,-0.174211
3829732982,-164.268539,-4.888733,4.620517,0.970091,-0.045208,-0.165091
3829753034,-162.367111,-4.936276,2.346328,0.986082,-0.053381,-0.167246
3829773085,-161.218796,-4.101245,1.153153,1.001284,-0.036064,-0.172155
3829793137,-161.824020,-3.480769,1.454385,1.009296,-0.020323,-0.178188
3829813189,-163.889572,-3.659934,2.865411,1.021442,-0.024045,-0.179877
3829833241,-166.612167,-4.673424,3.877858,1.008305,-0.028203,-0.176286
3829853294,-169.739120,-7.183220,5.191182,0.995746,-0.012817,-0.172191
3829873346,-170.798782,-9.049501,6.486407,0.990281,-0.021489,-0.199758
3829893398,-169.260498,-9.506183,7.108917,0.986813,-0.065539,-0.223721
3829913450,-166.536942,-9.304981,7.296744,0.970838,-0.094070,-0.221413
3829933501,-163.030991,-10.125645,7.154344,0.986981,-0.112366,-0.213453
3829953553,-159.295059,-11.076264,6.633363,0.993328,-0.112810,-0.207314
3829973605,-155.503677,-11.746888,4.716870,0.987932,-0.094970,-0.197834
3829993657,-150.792145,-11.498436,4.320259,0.990084,-0.099827,-0.220302
3830013709,-146.216888,-10.735133,2.648656,0.965451,-0.119181,-0.222979
3830033761,-142.760696,-10.642356,-0.649721,0.955511,-0.094761,-0.203701
3830053813,-141.407074,-9.573095,-2.230303,0.978230,-0.055021,-0.211089
3830073865,-141.254318,-8.737357,-1.088813,1.005775,-0.028972,-0.210831
3830093916,-140.772278,-8.834235,1.094092,1.008089,-0.027608,-0.217465
3830113968,-139.980133,-10.648681,1.471436,1.003469,-0.047303,-0.228085
3830134040,-138.248093,-11.427555,1.367408,1.008697,-0.071767,-0.236944
3830154070,-135.857086,-10.791778,-0.204465,1.007762,-0.069819,-0.233974
3830174122,-133.675232,-10.208532,-0.267870,1.026605,-0.043506,-0.226602
3830194174,-133.125137,-8.935407,2.395343,1.036207,-0.025566,-0.225196
3830214226,-132.998962,-7.963239,4.726268,1.031952,-0.033766,-0.226131
3830234278,-131.112900,-6.623488,5.744151,1.024923,-0.058788,-0.227619
3830254330,-127.887062,-4.660355,5.516467,1.011121,-0.068565,-0.216606
3830274397,-124.712135,-3.123308,5.191742,0.995206,-0.074879,-0.204558
3830294433,-122.057251,-2.569598,4.772062,0.985492,-0.075951,-0.195345
3830314485,-119.614853,-2.303833,4.656607,0.986791,-0.072987,-0.185191
3830334537,-116.788353,-3.056575,5.150844,0.981467,-0.064482,-0.167695
3830354588,-114.510399,-3.571702,5.371611,0.986591,-0.057659,-0.174282
3830374640,-111.690590,-3.966726,4.818720,0.987500,-0.056658,-0.174287
3830394692,-109.685539,-4.786289,5.199790,0.993429,-0.069104,-0.168738
3830414744,-107.453209,-5.489293,5.769853,0.996080,-0.086486,-0.145616
3830434796,-105.198090,-5.989530,5.967840,0.996532,-0.066771,-0.139297
3830474900,-100.273590,-8.491153,5.057682,0.957390,-0.060503,-0.152552
3830494951,-98.385483,-9.218324,3.369419,0.989498,-0.102013,-0.150299
3830515004,-94.218567,-8.382144,6.426977,1.044767,-0.172303,-0.150185
3830535055,-88.583237,-2.912408,15.561536,1.037883,-0.216041,-0.151636
3830555107,-84.868149,5.320694,23.080505,0.985320,-0.187895,-0.125705
3830575160,-82.892639,12.795732,21.795948,1.009059,-0.046314,-0.140263
3830595212,-85.217827,19.901533,24.182388,1.073735,0.040804,-0.112820
3830615264,-86.219093,23.676842,24.366779,1.098501,-0.038820,-0.067917
3830635316,-79.069130,24.096077,19.656301,1.134383,-0.178114,-0.023153
3830655368,-65.843208,23.429544,13.446802,1.117643,-0.309626,0.021058
3830675420,-48.028854,23.482450,9.408378,1.072395,-0.383216,0.047491
3830695472,-29.524628,24.064114,5.436099,1.027707,-0.368799,0.058731
3830715523,-19.017990,26.312426,3.166143,0.963720,-0.229748,0.065120
3830735575,-16.048952,25.989262,6.607064,0.940454,-0.069708,0.097276
3830755627,-14.642642,22.141220,8.901096,0.929901,-0.015768,0.128840
3830775679,-9.685992,15.938915,8.602417,0.912464,-0.072984,0.145920
3830795731,1.261912,10.932095,8.676468,0.899901,-0.178904,0.149147
3830815783,12.100106,7.199601,7.495639,0.896132,-0.223752,0.145822
3830835834,22.089245,4.409111,6.092071,0.912932,-0.218906,0.138978
3830855902,29.322311,1.707177,4.734636,0.930566,-0.161867,0.134899
3830875937,31.259224,-1.288160,3.273962,0.947995,-0.092055,0.128307
3830895988,29.401468,-3.615976,2.047263,0.960843,-0.027507,0.097204
3830916040,25.084478,-6.040730,1.238603,0.966020,0.017299,0.078182
3830936092,22.478542,-8.157988,0.466178,0.978747,0.019952,0.051976
3830956144,20.945612,-9.967694,-0.800314,0.985649,0.013857,0.043916
3830976196,20.374800,-12.011017,-2.786339,0.992065,0.004007,0.027534
3830996248,19.419670,-12.109373,-4.142299,1.006510,-0.020318,0.001471
3831016300,18.267038,-10.571593,-5.875196,1.026377,-0.009019,-0.018423
3831036351,16.334888,-9.023771,-6.417960,1.066073,0.029302,-0.013223
3831056403,13.843407,-7.373127,-5.733090,1.080958,0.041584,-0.007988
3831076455,11.197586,-5.793351,-4.092973,1.062771,0.031508,-0.010909
3831096507,9.187646,-3.210984,-3.032535,1.023217,0.013133,-0.019156
3831116559,7.111570,-0.994790,-2.183023,1.009759,0.022983,-0.014458
3831136610,5.069839,0.634673,-1.710448,1.014494,0.034772,-0.003927
3831156663,3.673965,3.171030,-2.552385,1.017587,0.011880,0.008629
3831176714,2.497794,6.333779,-4.207505,1.033586,-0.003762,0.024283
3831196766,1.688698,9.753299,-4.059846,1.045109,0.005728,0.044522
3831216818,1.349955,12.088759,-4.151144,1.025674,0.014786,0.058367
3831236870,0.061727,13.370815,-2.972794,1.012757,0.040029,0.072070
3831256922,-5.191016,13.956692,-0.941812,0.980904,0.023448,0.086578
3831276973,-7.466195,13.662616,-0.674739,0.977610,-0.066221,0.055601
3831297027,-1.040194,15.788690,-2.450212,1.021886,-0.101159,0.000607
3831317079,3.145774,17.538036,-2.662338,1.014769,-0.042353,0.003239
3831337131,3.694943,15.870472,-2.815942,1.000510,-0.016801,-0.018607
3831357182,2.082437,12.036753,-4.727222,1.009340,-0.004623,-0.006961
3831377234,0.606923,7.544044,-5.347857,1.020715,-0.018363,0.034540
3831397286,1.736063,5.141726,-4.642710,1.015473,-0.001035,0.033575
3831417338,2.836145,3.819290,-3.615379,0.971807,0.022412,0.021543
3831437390,4.176375,1.385827,-2.053777,0.939538,0.034474,-0.000547
3831457441,3.776214,-1.245536,-1.172989,0.915569,0.053491,-0.026839
3831477493,0.882283,-4.185139,-0.835951,0.950012,0.051854,-0.038664
3831497545,-1.852753,-4.868049,-1.552642,0.968870,0.045483,-0.048726
3831517597,-3.056429,-4.048487,-2.760098,0.984348,0.031451,-0.053907
3831537649,-3.161960,-2.218313,-3.759212,1.008411,0.022894,-0.033279
3831557701,-1.946471,-0.093714,-3.986748,1.019150,0.023002,-0.014573
3831577752,-1.817459,1.448987,-3.870845,1.030949,0.033166,-0.010790
3831597803,-2.209161,1.927436,-3.440356,1.040249,0.048469,-0.003085
3831617855,-3.699986,1.135187,-2.330577,1.036220,0.040835,0.003791
3831637906,-4.515278,0.471991,-0.721267,1.027237,0.040663,0.012182
3831657958,-5.707783,-0.471871,0.116088,1.017457,0.039709,0.016940
3831678010,-6.904677,-1.753588,0.355872,0.995806,0.033416,0.012224
3831698062,-7.345194,-3.577194,0.559363,0.974922,0.021440,0.003854
3831718114,-7.095234,-4.903509,0.654793,0.974135,0.021539,-0.001879
3831738166,-7.645262,-6.113203,0.810733,0.960344,0.025680,-0.015203
3831758218,-8.340158,-6.895786,0.230093,0.964607,0.018305,-0.023358
3831778270,-8.474277,-7.308675,-0.094332,0.977955,0.015355,-0.028409
3831798321,-8.822235,-7.736221,-0.115474,0.989736,0.023813,-0.036058
3831818373,-9.703036,-8.009703,-0.432539,1.005856,0.014464,-0.044288
3831838425,-10.585693,-8.008697,-0.561076,1.016216,0.003341,-0.048539
3831858477,-10.805467,-6.891529,-0.148006,1.026645,0.004397,-0.039843
3831878529,-11.438818,-5.133414,0.005316,1.033573,0.011542,-0.043149
3831898580,-12.760408,-2.599596,-0.116637,1.027164,0.017277,-0.041443
3831918632,-14.696445,-0.592364,-0.039507,1.028886,0.019650,-0.040913
3831938684,-14.477649,2.840601,-0.028676,1.021313,0.013025,-0.051978
3831958736,-13.878522,5.373180,-1.128983,1.008293,-0.042786,-0.058149
3831978788,-10.818365,6.119949,-2.648419,0.997434,-0.075533,-0.040034
3831998840,-6.286057,5.661405,-3.012216,1.002094,-0.074066,-0.027021
3832018891,-2.890625,4.999640,-1.927334,1.005947,-0.028749,-0.022702
3832038945,-0.557809,3.866111,-1.113296,1.019858,-0.003599,-0.013260
3832058997,0.716280,2.554903,0.308041,1.019407,-0.006549,0.002948
3832079049,1.885611,0.818651,1.852143,1.002845,-0.009868,0.014957
3832099101,2.498228,-0.813659,3.600713,0.973669,0.003197,0.024505
3832119153,3.265257,-3.065210,5.707574,0.940640,0.010318,0.025642
3832139204,5.545434,-4.620605,7.091506,0.912116,0.021017,0.002959
3832159256,11.168447,-6.172362,7.996780,0.881499,0.012537,-0.026425
3832179308,16.097113,-7.409571,8.939108,0.885817,-0.011779,-0.082189
3832199360,14.827112,-3.423943,6.652133,0.920198,-0.022353,-0.141079
3832219412,16.117085,-1.609501,1.734263,1.026056,-0.062203,-0.154863
3832239464,22.302439,-0.706681,-4.735864,1.196231,-0.155249,-0.149853
3832259515,33.296089,0.945545,-11.718047,1.291478,-0.146290,-0.135195
3832279568,38.706455,3.605107,-7.333311,1.229764,-0.016029,0.032178
3832299619,40.327541,9.494211,5.029845,1.226647,0.040816,0.068851
3832339721,32.340633,20.211107,11.650038,0.982652,0.100060,0.138871
3832359773,26.720413,17.062244,6.941165,0.833206,0.108096,0.139263
3832379825,20.013245,10.786824,4.744503,0.765108,0.107131,0.139428
3832399877,14.471030,2.212289,3.927148,0.761340,0.077166,0.128478
3832419929,10.887442,-6.617842,2.685564,0.808115,0.050107,0.109583
3832439980,8.369993,-12.637888,1.721925,0.884570,0.037012,0.090555
3832460032,6.820019,-14.600735,1.463968,0.950447,0.038635,0.111452
3832480084,6.136367,-15.186052,2.049804,1.015065,0.028533,0.119479
3832500136,6.266270,-14.743984,0.994760,1.078265,0.002957,0.112862
3832520188,8.229011,-13.506179,-0.973142,1.103314,-0.029583,0.101692
3832540239,11.669811,-12.742074,-2.545825,1.075051,-0.042349,0.077282
3832560291,14.371425,-12.325668,-3.116627,1.055646,-0.040966,0.043320
3832580343,14.423579,-11.962615,-3.383160,1.057042,-0.021856,0.013298
3832600395,13.195039,-9.732331,-3.579889,1.040546,-0.020319,-0.003832
3832620447,11.753957,-6.608879,-2.779199,1.021857,-0.010667,0.006921
3832640499,12.179706,-2.912022,-0.874610,1.012010,0.001712,0.016433
3832660551,12.640583,1.197173,1.369598,1.007703,0.019388,0.027013
3832680602,11.815599,4.063273,2.853066,1.004888,0.039101,0.046396
3832700654,10.763013,7.218526,3.479194,1.001536,0.039803,0.057906
3832720706,10.149205,8.906229,2.086644,1.002962,0.038119,0.079839
3832740758,9.433061,9.042030,-0.899682,0.994023,0.025122,0.087288
3832760810,10.120626,8.376872,-3.542687,1.005905,0.007262,0.075400
3832780863,13.069852,8.871103,-2.870895,0.969858,0.029012,0.070712
3832800915,13.669984,8.540473,-1.755859,0.986499,0.076604,0.054193
3832820967,10.005255,8.465113,-0.283999,1.000768,0.105521,0.047325
3832841018,4.957056,7.360216,-0.513372,1.045222,0.077335,0.051783
3832861070,1.663928,2.878198,-4.756148,1.041819,0.038888,0.044842
3832881122,-0.423359,-1.349104,-4.793904,1.006879,-0.007528,0.025501
3832901174,0.023315,-1.880231,-2.814122,0.991064,-0.002806,0.014973
3832921226,0.723893,-0.549375,0.417262,0.970176,0.038895,0.011707
3832941278,-0.563592,1.154407,3.451004,0.952285,0.059787,0.020517
3832961330,-3.497421,2.316832,5.418554,0.966305,0.050663,0.028448
3832981381,-6.810276,2.644487,5.433743,0.973676,0.042953,0.034587
3833001433,-10.756979,1.541065,3.104608,0.976423,0.037427,0.035307
3833021485,-12.874583,0.024037,0.708048,0.961665,0.038992,0.032640
3833041537,-14.506112,-1.412215,-1.423698,0.964337,0.031713,0.031470
3833061587,-14.940286,-2.415269,-2.321986,0.981273,0.030319,0.020246
3833081639,-16.639660,-3.565016,-2.302271,0.994581,0.030713,0.020336
3833101691,-18.330645,-3.445666,-2.089879,1.009666,0.021440,0.017642
3833121742,-19.403704,-3.318146,-2.423417,1.018593,0.003576,0.012277
3833141794,-20.112354,-2.825964,-3.091813,1.018902,-0.019463,0.002185
3833161846,-19.238415,-2.156905,-3.837162,1.011545,-0.037627,-0.008927
3833181898,-18.244019,-1.633794,-3.778682,1.002951,-0.033797,-0.006669
3833201950,-17.952599,-1.243658,-2.415915,0.989481,-0.025904,0.001051
3833222002,-16.700607,-1.300863,-0.756365,0.984399,-0.005491,-0.013036
3833242054,-17.013515,-0.277417,0.536220,0.970857,0.035196,-0.024872
3833262105,-20.363926,-1.248592,2.882637,0.962123,0.062958,-0.026346
3833282157,-22.680477,-2.352249,6.017361,0.973076,0.057988,-0.026120
3833302209,-24.092764,-2.883849,8.642006,0.971453,-0.006690,-0.012295
3833322261,-19.191769,-1.308659,8.960757,1.006921,-0.067689,-0.013792
3833342313,-16.846159,2.655436,6.733222,1.049436,-0.069749,-0.018284
3833362365,-13.939681,5.099543,2.471986,1.102246,-0.099866,-0.023104
3833382417,-4.692997,5.546411,-3.633852,1.119498,-0.157527,0.002042
3833402468,6.423820,4.252814,-8.385293,1.109689,-0.191740,0.012730
3833422520,15.326717,3.616710,-8.931904,1.087822,-0.156375,0.024071
3833442572,18.588158,3.666293,-4.476789,1.028360,-0.026615,0.040870
3833462624,15.957459,2.483132,-0.386733,0.955013,0.065483,0.050099
3833482677,10.399491,1.227982,2.552594,0.914657,0.102751,0.057470
3833502729,4.599287,0.237959,4.452776,0.897128,0.076520,0.074827
3833522781,0.855774,-0.517411,5.320691,0.913557,0.030499,0.094471
3833542832,-0.612556,-1.777218,4.507019,0.942469,0.014112,0.100500
3833562884,-1.011151,-3.789959,3.574303,0.965172,-0.009249,0.096206
3833582936,-0.092691,-5.592196,2.155348,0.996682,-0.026591,0.079362
3833602988,1.033933,-6.421062,0.778439,1.029267,-0.019217,0.068965
3833623040,2.198064,-6.963367,-0.940523,1.028147,-0.015858,0.056194
3833643092,2.013853,-7.384371,-2.492694,1.037251,-0.007327,0.054161
3833663144,0.008570,-7.044179,-1.848953,1.045923,0.009083,0.043944
3833683195,-1.992982,-4.906103,-0.226144,1.051906,-0.023648,0.035004
3833703247,-1.126431,-2.543154,1.576781,1.029221,-0.038801,0.039926
3833723299,0.055270,-1.250525,4.270022,1.021973,-0.027840,0.057925
3833743351,3.014410,0.539095,4.490188,1.016714,-0.019852,0.064612
3833763424,4.767615,2.891306,4.883154,1.005381,-0.015568,0.067299
3833783453,5.021221,5.218966,5.344940,0.981918,-0.018787,0.074623
3833803506,4.476881,6.668382,7.007506,0.957164,-0.013091,0.095648
3833823557,3.614194,6.916486,7.514743,0.968758,-0.024382,0.098497
3833843609,3.453845,7.370537,3.860178,1.010343,0.002031,0.051862
3833863661,0.921670,7.426766,-0.224188,1.026452,0.074924,0.051223
3833883713,-4.108609,5.764380,-3.384702,1.033397,0.097982,0.068001
3833903764,-13.721400,3.525310,-5.366887,1.037905,0.078368,0.055264
3833923816,-23.579044,2.416219,-6.087193,1.034867,0.046741,0.029524
3833943868,-27.662882,3.782682,-4.279101,1.046482,0.005729,0.012450
3833963920,-25.785862,6.347896,0.842357,1.033013,-0.055239,0.007880
3833983972,-20.265617,8.460140,5.001572,0.986950,-0.052303,0.010609
3834004023,-15.334397,7.194213,5.004207,0.959333,-0.033213,0.015645
3834024075,-11.783571,4.913755,2.077766,0.952263,-0.038340,0.026742
3834044127,-9.808455,2.735717,-1.030372,0.937220,-0.052445,0.033888
3834064179,-8.256215,1.427658,-4.186834,0.916852,-0.044729,0.036563
3834084231,-7.959375,-0.407329,-6.537671,0.919227,-0.031796,0.044791
3834104283,-8.116220,-1.979092,-7.615990,0.941962,-0.004095,0.040542
3834124335,-9.675060,-2.405519,-7.409343,0.964500,0.024723,0.038278
3834144386,-12.874887,-2.471787,-6.180204,0.990105,0.034101,0.035715
3834164438,-15.380311,-2.061729,-3.581157,0.999290,0.010592,0.035871
3834184490,-16.632847,-2.397068,-1.298296,1.003777,0.007034,0.034126
3834204542,-17.389771,-2.881238,0.947008,0.990567,0.010013,0.015639
3834224595,-14.779153,-3.853619,2.942711,0.986877,-0.009224,-0.013974
3834244647,-9.394785,-3.836967,4.805192,1.001035,-0.016386,-0.015064
3834264699,-5.868865,-2.506097,7.520217,1.009979,-0.055672,-0.012637
3834284751,0.050839,-0.696213,7.883276,1.038274,-0.078375,-0.022625
3834304803,3.182791,1.943867,4.364025,1.075989,-0.033443,-0.024968
3834324854,1.985057,3.393894,-0.384979,1.092515,-0.001955,0.001686
3834344906,3.416372,3.597776,-6.820718,1.091104,-0.095034,0.024475
3834364958,10.011897,4.250403,-12.464021,1.067200,-0.170629,0.034360
3834385010,16.580687,4.034977,-14.898423,1.021785,-0.145031,0.039740
3834405062,19.834621,3.705694,-12.715689,0.998461,-0.072468,0.047550
3834425114,19.260025,3.182173,-7.287149,0.975554,0.017102,0.069254
3834445165,15.529068,1.979525,-1.544429,0.949767,0.073697,0.085412
3834465217,10.541047,0.332909,2.525313,0.928747,0.092491,0.100496
3834485269,5.604078,-1.686469,5.224530,0.926299,0.055517,0.101179
3834505319,3.490522,-4.049681,5.862467,0.932791,0.028561,0.095811
3834525372,3.486552,-6.049463,5.369148,0.958911,0.015564,0.078697
3834545423,3.919446,-7.007739,4.652297,0.981251,-0.002931,0.071617
3834565475,4.257090,-7.042195,3.659455,1.015913,-0.009397,0.071574
3834585527,4.615726,-6.652060,2.559036,1.046521,0.005701,0.067981
3834605579,3.252971,-7.158845,0.666520,1.051991,0.018436,0.061783
3834625631,1.606476,-7.189889,-1.333641,1.043087,0.008328,0.061564
3834645682,-0.202877,-7.312131,-1.984377,1.054848,0.009164,0.061002
3834665734,-1.203926,-5.715695,-0.610157,1.057141,0.022940,0.051861
3834685786,-2.248992,-3.775038,2.415104,1.028634,0.020193,0.048419
3834705838,-1.647745,-1.701486,4.347962,1.006762,0.006866,0.053780
3834725890,-0.343158,0.346678,5.143817,0.993483,-0.013446,0.058647
3834745942,0.792803,1.620597,4.934398,0.978094,-0.009425,0.069034
3834765994,0.679525,2.150109,3.553243,0.966192,-0.008065,0.077114
3834786045,0.580696,3.424023,1.025095,0.975792,0.009249,0.079253
3834806097,-1.903354,4.621618,-0.304480,0.975296,0.032389,0.090070
3834826149,-4.908348,5.816484,-0.330282,0.985448,0.035891,0.098372
3834846201,-6.742270,7.104242,-0.083972,0.991806,0.040020,0.100278
3834866253,-8.837804,7.658664,-0.282201,1.014667,0.036422,0.105662
3834886304,-10.015482,7.855743,-1.510259,1.006845,0.013034,0.129780
3834906356,-10.042333,7.614316,-2.441629,1.011455,-0.014764,0.103778
3834926408,-8.051799,9.334808,-1.349306,1.026869,-0.043089,0.039050
3834946461,-5.083529,11.964272,-0.389300,1.055671,-0.074293,-0.006553
3834966513,-0.552682,12.829144,-2.758501,1.052459,-0.072366,0.027210
3834986565,2.566113,9.337934,-7.014515,1.067356,-0.020381,0.025987
3835006617,1.770006,5.958322,-7.593750,1.017340,0.004819,0.023251
3835026669,-0.052019,3.767495,-5.213349,0.974636,0.042607,0.042051
3835046720,-3.870352,3.829462,-3.476645,0.971328,0.065526,0.050578
3835066772,-8.673623,4.657313,-2.060550,0.929461,0.045873,0.048691
3835086824,-10.820065,3.810762,-0.457722,0.904233,0.016852,0.043486
3835106876,-11.995725,1.202149,0.021574,0.905668,-0.006042,0.043397
3835126928,-11.551484,-1.876024,-0.991134,0.924295,-0.017622,0.044027
3835146979,-11.104973,-5.312187,-2.192083,0.949137,-0.014298,0.050345
3835187083,-8.818979,-10.533507,-1.871733,1.004330,-0.016435,0.044853
3835207135,-7.821346,-11.330632,-0.505123,1.013686,-0.007079,0.030452
3835227186,-7.472676,-11.849717,1.080545,1.021748,-0.004220,0.006664
3835247237,-6.001541,-11.804108,3.164086,1.039299,0.000447,-0.019259
3835267289,-3.482334,-9.822571,5.369432,1.054463,0.017228,-0.017164
3835287341,-2.804108,-5.816166,9.137289,1.047199,0.007694,0.029155
3835307393,-2.649796,-1.632442,9.084923,1.032195,-0.010846,0.062981
3835327445,-2.175380,0.505422,6.924967,1.018854,-0.025145,0.075412
3835347497,-3.887605,3.181544,4.506236,1.004217,-0.030276,0.055464
3835367548,-5.840697,5.796989,1.148008,0.986446,-0.029055,0.022697
3835387600,-4.635394,6.383309,-1.014437,0.990570,-0.054346,0.000570
3835407652,-3.025973,6.153154,-1.855472,1.024861,-0.103507,0.007472
3835427704,0.161990,5.416224,-2.831734,1.030383,-0.099356,0.042998
3835447756,2.930364,2.388035,-1.950689,1.014821,-0.048416,0.075199
3835467808,3.512636,-0.928121,0.068958,0.982051,-0.003202,0.090802
3835487859,2.945003,-4.025487,1.860885,0.936702,0.005999,0.093101
3835507911,1.904640,-6.441552,2.635049,0.900244,0.003193,0.093057
3835527963,0.551485,-8.497958,2.983662,0.897867,-0.002479,0.097104
3835548015,-0.586931,-10.856863,3.295347,0.907986,-0.011478,0.101643
3835568067,-1.702286,-12.878707,2.863125,0.929964,-0.016178,0.087221
3835588118,-2.145877,-15.155862,2.181442,0.955063,-0.020292,0.068724
3835608171,-1.464239,-17.220015,1.604737,0.995010,-0.021095,0.050839
3835628223,-0.063596,-17.957096,0.053100,1.017224,-0.025704,0.042780
3835648276,0.720138,-18.457348,-1.825032,1.038385,-0.014857,0.035534
3835668328,0.978458,-18.087036,-2.356926,1.058543,-0.020743,0.021021
3835688379,1.255268,-17.098564,-2.398324,1.073336,-0.023334,0.002707
3835708431,2.908363,-15.947629,-2.183079,1.064165,-0.019382,-0.005493
3835728483,3.468357,-14.335084,-1.074724,1.069487,-0.004027,-0.019084
3835768587,3.020534,-6.430468,0.838408,1.042430,-0.009545,-0.019575
3835788639,1.957124,-2.510028,1.226955,1.019721,0.006886,-0.010656
3835808690,0.341136,0.731872,1.731719,1.011558,0.008611,-0.003100
3835828742,0.148017,4.269291,1.878756,1.019204,0.017266,0.010123
3835848794,-2.325725,7.702289,1.079581,1.011308,0.014224,0.021100
3835868846,-5.868532,11.043104,-1.181641,1.008535,0.018228,0.041119
3835888898,-8.433857,13.227649,-2.423640,0.993861,-0.009919,0.070242
3835908949,-8.343561,13.800728,-3.130490,1.005299,-0.037744,0.092367
3835929002,-7.125008,13.889508,-3.555644,1.003243,-0.043852,0.104056
3835949052,-4.041234,13.805696,-0.797695,0.989851,-0.060092,0.094970
3835969104,-0.284920,12.771178,-0.204286,1.034167,-0.081285,0.041726
3835989156,3.790793,12.178327,-3.318622,1.075684,-0.069403,-0.017193
3836009207,6.426298,12.558453,-4.753277,1.048869,-0.043589,-0.012319
3836029260,5.345096,9.972844,-5.532201,1.037280,-0.014772,-0.009372
3836049311,3.460150,7.438011,-4.658805,0.999654,0.031175,-0.005445
3836069363,1.130316,4.983588,-2.618371,0.967307,0.049547,0.013653
3836089415,-0.033325,4.388743,-1.842861,0.954907,0.022910,0.027234
3836109467,0.722081,4.966599,-3.679224,0.938201,0.003493,0.025250
3836129519,1.758561,4.299206,-5.837290,0.913781,-0.004802,0.027172
3836149571,3.156306,2.335731,-6.839015,0.907700,-0.011375,0.025842
3836169622,4.549494,0.728313,-6.758174,0.915445,0.019997,0.026533
3836189674,4.327718,-1.418952,-5.143959,0.938985,0.058061,0.035348
3836209726,3.303595,-4.452324,-3.564303,0.956658,0.056325,0.038311
3836229778,2.415793,-7.288145,-2.099061,0.978337,0.039598,0.034296
3836249830,1.950098,-10.324645,-1.588223,0.997613,0.022994,0.020174
3836269881,2.121096,-12.143057,-2.392966,1.004241,-0.011377,0.010803
3836289933,3.195267,-14.219151,-1.666187,0.999474,0.005598,-0.008695
3836309985,1.458960,-15.161912,-2.488437,1.014307,0.042194,-0.037823
3836330037,1.570606,-12.534213,-3.649532,1.029103,0.053915,-0.001773
3836350089,0.860135,-10.125643,-1.406632,1.020004,0.014559,0.030519
3836370142,1.861647,-4.974614,-4.228947,1.031300,-0.039489,-0.034304
3836390194,7.164533,2.032086,-4.982527,1.053889,-0.019752,-0.087448
3836410246,8.381472,7.486037,-3.357114,1.114645,0.014294,-0.111314
3836430298,9.606563,8.638452,-2.467196,1.133860,-0.013861,-0.062502
3836450349,11.520910,6.178324,-2.110758,1.118050,0.000426,-0.000978
3836470401,11.723055,2.420038,-2.378299,1.041846,0.046582,0.036483
3836490453,8.652428,-1.315243,-2.826670,0.944960,0.076487,0.033178
3836510505,6.007396,-3.775191,-2.529266,0.882072,0.074236,0.031576
3836530557,4.296560,-4.765634,-1.320200,0.860066,0.052711,0.048301
3836550609,4.975715,-4.296855,0.072475,0.878973,0.038002,0.065238
3836570661,4.681066,-3.858130,1.321595,0.943584,0.034323,0.071282
3836590712,6.147379,-4.775342,1.225715,0.980595,0.032024,0.057211
3836610764,7.634907,-6.741929,0.837865,1.010665,0.038672,0.040898
3836630816,7.180964,-8.262541,-0.248106,1.029728,0.040906,0.022557
3836650885,6.237494,-9.090620,-1.760714,1.038555,0.033799,0.013341
3836670918,4.480540,-9.187870,-2.115974,1.054715,0.044783,0.003786
3836690970,2.789649,-7.872797,-1.301387,1.076966,0.058076,-0.004026
3836711022,1.642265,-6.085652,0.367807,1.072726,0.056556,0.004686
3836731074,0.191595,-4.685835,2.326441,1.061309,0.040343,0.016426
3836751126,1.000145,-2.345323,3.045673,1.037322,0.033550,0.021606
3836771177,0.440187,-0.227617,3.561520,0.995023,0.040079,0.033591
3836791229,-0.622596,1.531866,1.979406,0.958582,0.044217,0.042736
3836811281,-1.516900,2.892500,0.777555,0.964310,0.046253,0.044480
3836831333,-2.393485,4.670693,0.756577,0.969957,0.043569,0.046551
3836851385,-4.216673,6.351941,1.986792,0.963780,0.047062,0.056736
3836871437,-4.413988,7.623740,5.211114,0.998749,0.044975,0.064279
3836891488,-3.159940,8.345022,7.519772,1.043845,0.026833,0.078533
3836911540,-0.037663,9.272768,8.136956,1.017720,0.001781,0.084272
3836931592,2.840997,9.640504,6.891733,1.038340,-0.000367,0.051452
3836951644,2.467258,9.966313,3.586315,1.047444,0.040151,0.017784
3836971696,-0.878427,9.366094,3.369765,1.051088,-0.002043,0.008301
3836991748,-0.572834,7.014515,4.544920,1.065779,-0.095483,-0.009599
3837011800,3.619586,7.173329,4.914274,1.015831,-0.080320,-0.034486
3837031851,5.871743,5.439348,5.700093,0.967976,0.017109,-0.037680
3837051903,4.584095,3.368191,7.246209,0.945284,0.081252,-0.008773
3837071955,0.646292,2.718798,9.462881,0.939692,0.078787,-0.002331
3837092007,-3.933176,2.284686,9.177980,0.921520,0.034123,0.009508
3837112060,-6.237146,1.825318,6.156366,0.916020,0.003291,0.014461
3837132112,-7.750826,0.905816,1.589953,0.925845,-0.016936,0.028125
3837152164,-8.044186,-0.431656,-3.104289,0.941285,-0.009455,0.034328
3837172215,-9.030288,-1.724879,-4.895700,0.960743,-0.006040,0.041425
3837192267,-9.750854,-2.695685,-4.005365,0.963510,-0.006563,0.036179
3837212319,-10.154233,-4.130766,-1.233959,0.959673,0.001890,0.017877
3837232371,-10.925849,-6.704682,1.905290,0.971453,0.009175,0.010787
3837252423,-11.201531,-8.187262,5.434711,0.997651,0.039554,-0.010100
3837272474,-14.627901,-7.843379,8.125255,1.012453,0.072435,-0.032188
3837292527,-22.400320,-6.201068,8.152632,1.047163,0.052293,-0.080241
3837312578,-27.714724,0.490270,4.531432,1.068366,0.037931,-0.128730
3837332630,-28.438908,6.127214,-0.095745,1.121063,-0.025681,-0.144161
3837352682,-24.763603,10.188217,-1.581343,1.191974,-0.154124,-0.108453
3837372734,-13.241478,11.565620,-3.363600,1.186017,-0.240140,-0.029158
3837392784,-2.181655,9.916834,-3.013159,1.123219,-0.156680,0.035504
3837412836,1.139049,7.473884,0.995786,1.000054,-0.047461,0.074356
3837432888,-0.114860,3.970067,4.047461,0.896458,-0.022220,0.082781
3837452940,-0.787235,1.017550,4.846082,0.843189,-0.024831,0.073527
3837472991,-1.065953,-1.559685,5.756956,0.831272,-0.027717,0.070477
3837493043,-1.171486,-3.426267,6.021109,0.862106,-0.026305,0.081949
3837513095,-1.333881,-4.587060,6.305587,0.916829,-0.023316,0.092027
3837533147,-0.169721,-5.946848,6.165866,0.968415,-0.033496,0.083786
3837553199,2.015700,-6.448221,3.862824,1.000908,-0.038787,0.064446
3837573251,2.335490,-6.884912,1.711793,1.015053,-0.039644,0.046743
3837613354,2.214221,-8.626441,-1.033325,1.034591,-0.036243,0.040117
3837633406,0.683955,-8.916714,-3.328213,1.055084,-0.031588,0.025667
3837653458,-2.349957,-7.380804,-4.613286,1.073156,-0.021807,0.001506
3837673510,-3.599046,-6.401098,-3.267171,1.071544,-0.018632,-0.004995
3837693562,-3.580850,-4.361294,-2.463258,1.074931,-0.015230,-0.009100
3837713613,-4.477367,-1.814319,-2.145825,1.062364,-0.029906,-0.004111
3837733665,-3.910539,0.137636,-1.394854,1.036212,-0.038704,0.013709
3837773769,-2.668629,4.566651,1.393664,0.996979,-0.015991,0.038888
3837793821,-3.480933,6.790528,2.151760,0.986289,-0.010363,0.040202
3837813873,-4.847111,8.833966,2.562039,0.983230,-0.003663,0.045374
3837833926,-5.609006,10.626651,2.313602,0.960730,-0.001279,0.056820
3837853978,-5.875075,12.060007,2.354230,0.965555,0.007809,0.069018
3837874030,-5.926524,12.988679,2.798207,0.948358,0.012422,0.076568
3837914133,-7.738217,11.578691,2.599067,0.994962,-0.002328,0.111878
3837934185,-9.310072,10.584348,3.050203,1.030129,-0.033142,0.131025
3837954237,-8.323763,10.070097,2.346786,1.028866,-0.079715,0.121012
3837974289,-4.737199,10.052457,1.852960,1.014035,-0.133561,0.080814
3837994341,1.374748,11.003926,3.128384,1.056396,-0.161957,0.006917
3838014393,7.913276,13.198669,-1.102947,1.097792,-0.072712,-0.023269
3838034445,8.098373,11.506994,-4.682029,1.087392,0.047141,0.011261
3838054496,3.383591,6.913648,-3.467075,0.995329,0.016867,0.024137
3838074548,2.417025,3.210286,-2.248921,0.966697,-0.042080,0.023434
3838094600,3.199167,2.151473,-2.419863,0.955288,-0.058041,0.033717
3838114674,5.273004,3.457514,-3.319407,0.942193,-0.054501,0.041854
3838134702,7.087664,5.122747,-4.773360,0.909387,-0.055286,0.055627
3838154755,9.035296,5.482767,-5.078442,0.898539,-0.034844,0.076398
3838174806,9.779460,3.951060,-4.361001,0.912584,-0.029287,0.088067
3838194858,10.264452,1.192628,-4.078824,0.913902,-0.027128,0.079963
3838214910,10.509322,-3.244201,-4.844254,0.921624,-0.013063,0.077492
3838234962,10.763848,-7.805941,-6.162521,0.952962,0.000143,0.074925
3838255014,11.038897,-12.301912,-6.707968,0.978025,0.000717,0.060282
3838275065,10.728237,-15.306747,-7.349296,0.987859,0.016103,0.054630
3838295117,9.436201,-16.935850,-7.919230,0.977936,0.032236,0.059735
3838315169,5.803756,-17.828972,-8.536354,0.970141,0.044960,0.061259
3838335221,1.581354,-17.254198,-10.514965,0.981565,0.022824,0.036240
3838355273,3.917318,-14.597225,-15.337576,1.022956,-0.027535,-0.016597
3838375325,8.443427,-7.328272,-19.426533,1.062503,-0.030746,-0.120706
3838395376,10.745820,2.837869,-16.885523,1.100195,0.022247,-0.169584
3838415428,8.178591,10.976482,-8.212024,1.147816,0.096573,-0.119030
3838435480,1.827994,11.874146,-0.179198,1.228953,0.184301,-0.038492
3838455532,-3.501380,8.666525,3.501936,1.187400,0.116041,0.023533
3838475584,-4.095163,3.980086,3.745662,1.045847,0.015490,0.053685
3838495636,-1.168075,0.757133,2.482477,0.931689,-0.043791,0.055470
3838515688,2.842206,-0.162529,1.771820,0.847401,-0.049715,0.067210
3838535739,6.832615,-1.621996,0.956925,0.811921,-0.019052,0.101413
3838555792,9.596120,-4.334452,0.154355,0.851216,0.023186,0.126559
3838575844,11.087659,-7.015725,-0.405350,0.897888,0.039396,0.134791
3838595896,11.308844,-9.482264,-1.708087,0.948121,0.044425,0.116458
3838615948,10.469342,-11.694259,-2.480804,0.976020,0.043499,0.085402
3838636000,9.892103,-13.361980,-2.694645,1.000161,0.040270,0.059072
3838656051,9.230436,-14.155056,-1.372942,1.016879,0.045635,0.050404
3838676103,8.486428,-15.102039,-0.293206,1.046070,0.046249,0.031518
3838696155,7.171082,-15.429193,-0.246144,1.070948,0.053866,0.013884
3838716207,4.538292,-14.522487,0.592917,1.085674,0.043407,0.010837
3838736259,3.483721,-12.843325,1.898660,1.085429,0.039366,0.007883
3838756311,1.568582,-9.755256,3.593955,1.064294,0.065074,0.023613
3838776363,-1.160002,-7.057415,5.647091,1.064904,0.046119,0.006751
3838796415,-2.926463,-3.588323,5.021860,1.029486,0.046746,-0.001233
3838816466,-3.640039,-0.343366,3.881663,1.005309,0.040020,-0.010415
3838836538,-4.262161,1.668462,2.131788,0.985875,0.015620,-0.010997
3838856569,-3.294093,4.082223,-0.127818,0.987055,-0.000154,-0.002354
3838876620,-1.811142,6.828432,-1.971908,1.001695,0.016247,0.011465
3838896672,-0.979373,9.700597,-2.436834,1.001413,0.040252,0.031998
3838916724,-1.412763,11.020044,-2.229018,0.976422,0.042018,0.064246
3838936776,-0.554121,10.744291,-1.106683,1.006635,0.014079,0.056331
3838956828,2.133245,11.281788,0.671579,1.004845,0.026923,0.090888
3838976880,2.912177,11.254261,2.710141,1.011703,0.028410,0.117730
3838996932,3.696745,11.876522,4.253829,0.999242,0.050817,0.117201
3839016984,2.317979,12.297538,3.828440,1.026464,0.059467,0.056856
3839037035,-0.184678,12.884752,2.038659,1.056423,0.021801,0.003882
3839057087,-1.291871,12.552519,1.070085,1.053887,-0.050766,0.006158
3839077139,2.396177,9.762497,-0.945174,1.051033,-0.071545,0.021283
3839097191,6.624993,5.947792,-1.092668,1.020946,-0.006881,0.004962
3839117243,6.140172,3.288154,0.205089,0.991648,0.042976,0.001451
3839137295,3.723815,3.123321,1.843557,0.972223,0.041634,0.018688
3839157347,0.976824,3.901860,2.940786,0.952752,0.026613,0.019632
3839177398,0.527826,4.341156,2.045112,0.946267,0.014862,0.012088
3839197450,-0.774797,4.249079,-0.356644,0.937055,0.031311,0.020194
3839217502,-2.327122,3.896776,-2.833206,0.927340,0.030873,0.029218
3839237554,-3.059401,3.142295,-3.732245,0.924038,0.023464,0.051820
3839257606,-2.573134,1.576710,-3.302599,0.924396,0.001780,0.079430
3839277659,-0.775473,-0.555581,-2.606196,0.916978,0.003016,0.084452
3839297711,0.464687,-3.702973,-2.186521,0.904150,0.032466,0.080931
3839317762,-0.228096,-6.924020,-1.811389,0.912075,0.071742,0.062355
3839337814,-2.850327,-10.028666,-0.246087,0.945784,0.096276,0.038226
3839357866,-1.799278,-12.929121,2.196385,0.980718,0.078138,0.028777
3839377918,-2.851728,-15.071869,4.182245,1.022329,0.059870,0.015560
3839397970,-4.125163,-11.790300,4.603384,1.097875,0.012973,-0.080245
3839418022,-0.504576,-3.451953,1.284116,1.151252,-0.054324,-0.163246
3839438074,3.791398,2.694978,0.071534,1.218504,-0.092902,-0.139147
3839458126,8.006489,5.163753,1.941132,1.225045,-0.081593,-0.047711
3839478178,10.925396,4.255132,5.293141,1.155238,-0.011165,0.021596
3839498229,10.556334,2.368382,7.437037,1.024430,0.042081,0.054861
3839518281,8.124116,-0.171903,8.015063,0.904639,0.053768,0.064601
3839538333,5.663763,-2.875497,8.010084,0.829933,0.050276,0.073382
3839558391,4.366426,-5.147707,7.790999,0.815601,0.027828,0.087900
3839578435,3.165417,-6.662967,7.122114,0.844808,0.016029,0.103421
3839598487,1.247315,-7.901545,6.528316,0.889306,0.000677,0.109549
3839618539,1.025905,-8.744843,5.462666,0.954629,-0.001464,0.102221
3839638591,1.076913,-8.945018,3.773230,1.002524,-0.000794,0.065290
3839658642,0.492683,-8.675929,2.514400,1.024114,-0.007282,0.040162
3839678694,-1.106133,-8.550499,2.393265,1.042333,-0.006346,0.026465
3839698746,-1.808993,-9.512257,2.298299,1.062362,0.004318,0.025757
3839718798,-3.239079,-11.312205,2.464160,1.080698,-0.007616,0.014301
3839738850,-3.555734,-11.981612,2.580262,1.094751,-0.024387,-0.010762
3839758902,-3.404686,-10.969258,4.039459,1.075321,-0.036980,-0.018025
3839778954,-2.407356,-8.503837,5.106827,1.034469,-0.049045,-0.010359
3839799005,-1.295627,-5.618258,5.270811,1.020042,-0.041622,-0.010093
3839819057,-1.460643,-1.594987,5.385847,1.009694,-0.028000,-0.008960
3839839109,-2.034621,2.330571,4.879889,0.981494,-0.006840,0.001137
3839859161,-3.266700,5.266894,4.688307,0.984489,-0.002975,0.016928
3839879213,-4.541907,7.919259,4.058140,0.990711,-0.020698,0.021903
3839899265,-4.868642,9.779122,3.180264,0.983283,-0.022683,0.030417
3839919317,-5.126991,10.331279,1.927925,0.996634,-0.023255,0.039243
3839939369,-4.359760,11.247471,0.757340,1.010298,-0.032853,0.045813
3839959420,-2.909190,12.277296,0.040861,1.014432,-0.034813,0.041502
3839979472,-2.030994,12.658524,-1.802447,1.006161,-0.020960,0.045827
3839999525,-2.118268,12.693023,-3.454748,0.998165,0.003484,0.060120
3840019577,-4.163994,12.772718,-4.341044,1.003208,-0.001948,0.073488
3840039629,-3.314436,12.174450,-4.983491,0.988377,-0.011664,0.088946
3840059681,-1.223785,11.436941,-2.526100,0.986450,-0.021070,0.111398
3840079733,2.220362,10.224200,1.410352,1.039702,-0.040598,0.103641
3840099785,5.604085,10.142298,2.963136,1.058328,-0.079794,0.040607
3840119836,9.441721,12.139936,1.560380,1.079867,-0.113883,-0.008650
3840139888,12.413589,14.674564,-1.662872,1.084335,-0.081280,0.021541
3840159940,13.528726,13.701525,-4.214018,1.048382,-0.050566,0.027475
3840179992,14.899382,12.130713,-4.322770,0.998891,-0.048485,0.008923
3840200044,15.622822,11.452205,-3.123210,0.967364,-0.003767,0.014998
3840220096,14.352167,11.352703,-3.137580,0.947317,0.033956,0.025689
3840240148,11.347651,10.611956,-5.513768,0.938082,0.038100,0.043843
3840260200,8.804601,9.000183,-8.046274,0.927593,0.032946,0.047191
3840280252,5.760019,6.955635,-10.069324,0.918920,0.024837,0.053313
3840300302,3.961300,4.407763,-10.143283,0.911584,0.012115,0.067041
3840320354,2.095697,1.308060,-9.775738,0.910551,0.037162,0.090737
3840340405,-0.584340,-3.240424,-9.569652,0.903621,0.048376,0.100919
3840360457,-2.463071,-8.486178,-8.808180,0.902649,0.046135,0.096757
3840380509,-4.213440,-13.503585,-8.085435,0.900536,0.049867,0.097608
3840400561,-6.543915,-17.965891,-7.819138,0.904200,0.041534,0.098821
3840420613,-7.049039,-20.001911,-8.721419,0.925916,0.030402,0.085744
3840440664,-7.598323,-19.245049,-9.716679,0.943108,0.023455,0.080130
3840460716,-4.183797,-18.645195,-9.628995,0.971868,-0.008769,0.026721
3840480768,0.930546,-14.797238,-7.885725,1.067278,-0.027632,-0.081355
3840500820,3.455257,-5.668388,-3.939114,1.166628,0.031194,-0.138498
3840520872,-0.048144,1.170511,4.261716,1.253782,0.073863,-0.128740
3840540924,-3.582111,3.615650,9.196008,1.265445,0.061882,-0.059446
3840560975,-4.814401,1.194825,10.614467,1.189844,0.050206,0.012861
3840581027,-4.848513,-3.775237,9.850972,1.065623,0.061149,0.047662
3840601079,-4.753427,-8.189025,8.085093,0.949907,0.041438,0.046706
3840621131,-4.620587,-10.843435,5.979665,0.860453,0.016134,0.031732
3840641183,-3.217846,-11.053184,2.584523,0.822710,0.008746,0.035549
3840661235,-3.210420,-9.357870,-0.642378,0.843686,0.002947,0.052578
3840681286,-1.425888,-5.695244,-3.141522,0.903745,0.001088,0.072293
3840701338,-0.628049,-3.155842,-4.567816,0.951787,0.021084,0.078219
3840721392,-0.298052,-2.436760,-4.047462,0.994200,0.029786,0.070239
3840741443,-0.307490,-2.889813,-2.454316,1.027182,0.031310,0.057277
3840761495,-0.643210,-4.873404,-1.249888,1.054597,0.039784,0.042014
3840781547,-2.082103,-7.120444,0.251413,1.100504,0.042646,0.031764
3840801599,-4.578603,-8.254446,2.378303,1.118848,0.023746,0.022388
3840821651,-5.375147,-8.480088,4.728836,1.106320,0.001449,0.008925
3840841703,-4.714056,-7.359562,5.960114,1.079919,-0.023726,-0.000332
3840861755,-4.328916,-4.983768,5.497055,1.055899,-0.047801,0.003502
3840881806,-2.198913,-1.105018,4.399153,1.011946,-0.051709,0.022958
3840901858,-0.295746,2.468586,3.302381,0.967419,-0.034986,0.036627
3840921910,1.360064,6.229790,3.311578,0.959792,0.000998,0.044517
3840941962,0.581979,9.138188,4.234040,0.954301,0.045592,0.057050
3840962014,-3.352928,11.398593,5.591841,0.964184,0.051788,0.063137
3840982066,-4.711995,12.284842,5.483158,0.989708,0.040843,0.068989
3841002118,-5.374380,12.505905,5.111259,1.001007,0.037762,0.087009
3841022168,-7.275558,11.975706,2.476274,0.997867,0.012051,0.106734
3841042220,-5.161431,10.779670,-0.354875,1.001036,-0.021308,0.111596
3841062271,-1.911647,10.048380,-1.702547,0.996909,-0.012960,0.111470
3841082323,-2.900433,9.762663,-1.443532,1.016382,0.017163,0.118348
3841102375,-3.701976,9.215641,0.514005,1.042567,0.017051,0.068094
3841122427,-5.515049,10.035939,2.444448,1.096118,-0.029525,-0.008148
3841142479,-6.025646,13.888348,1.112613,1.128960,-0.080699,-0.001961
3841162531,-2.849827,13.563774,-1.865911,1.073148,-0.095482,0.008539
3841182582,-0.546979,11.240431,-1.889027,1.000261,-0.047083,-0.007716
3841202635,0.682695,10.536888,0.826233,0.951496,0.023276,0.002394
3841222686,-0.703629,10.706334,3.834981,0.932383,0.050972,0.029839
3841242738,-3.564221,10.571744,3.518130,0.922810,0.016309,0.047168
3841262790,-4.394601,9.286020,0.354847,0.899443,-0.012270,0.066419
3841282842,-4.581694,7.080062,-2.532648,0.888415,-0.029083,0.074170
3841302894,-3.328217,5.204772,-3.845364,0.888741,-0.028770,0.096162
3841322945,-2.083461,2.627211,-3.359443,0.906369,-0.003432,0.124623
3841342997,-1.254159,-1.415688,-1.269168,0.913473,0.012877,0.133118
3841363049,-0.910804,-7.073100,0.523682,0.911857,0.036359,0.117112
3841383101,-1.801144,-12.804592,2.681010,0.920141,0.036819,0.103442
3841403153,-4.226558,-16.951265,3.734465,0.921143,0.019604,0.081109
3841423205,-2.033706,-19.068054,1.679515,0.934642,0.025133,0.046150
3841443256,2.669266,-18.685905,-1.567243,0.984133,0.031106,-0.001464
3841463310,3.375531,-10.653882,-4.694960,1.131099,-0.020652,-0.194589
3841483362,5.684794,3.615831,-3.918834,1.239972,-0.084678,-0.228612
3841503414,6.348847,9.475124,4.731071,1.317703,-0.055260,-0.082259
3841523465,3.049300,10.107174,10.831110,1.260563,0.023937,0.045839
3841543517,-2.808783,5.727615,12.220044,1.130505,0.016816,0.121070
3841563569,-5.609904,0.220645,11.050104,0.984623,-0.023282,0.128679
3841583621,-5.783014,-3.875569,9.359014,0.851161,-0.040169,0.105389
3841603673,-4.727682,-7.284978,8.157759,0.772264,-0.056745,0.089208
3841623724,-2.215070,-9.542334,6.353287,0.766284,-0.059194,0.084013
3841643776,-0.371544,-10.688492,2.089638,0.817959,-0.033021,0.089257
3841663828,0.152045,-9.784810,-1.998718,0.876139,-0.011024,0.106501
3841683880,-0.714248,-9.572586,-5.947783,0.943838,0.012888,0.116429
3841703932,-1.871944,-9.709456,-8.379750,1.021739,0.034637,0.113185
3841723984,-3.020955,-9.927799,-8.105753,1.053703,0.039534,0.101267
3841744034,-5.505467,-11.724835,-6.393425,1.076717,0.014830,0.060001
3841764086,-6.146403,-14.098548,-4.141651,1.096131,-0.015185,0.029130
3841784138,-6.628091,-16.117302,-2.345892,1.097587,-0.022431,0.017682
3841804190,-6.053931,-15.975502,-0.929316,1.093120,-0.029337,0.005552
3841824241,-4.570978,-14.661643,0.013007,1.072872,-0.034090,-0.006079
3841844293,-3.071350,-11.870296,0.480337,1.046037,-0.036365,-0.014968
3841864345,-1.398260,-8.458961,0.369470,1.018720,-0.031140,-0.007497
3841884397,0.107942,-4.960118,-0.135746,0.999631,-0.015540,0.006275
3841904449,0.843341,-0.966423,-0.824292,0.989871,-0.008294,0.019027
3841924501,0.552569,2.754668,-1.541856,0.971424,-0.000678,0.020717
3841944553,-1.006844,5.726424,-1.794076,0.973100,-0.007796,0.018266
3841964604,-0.962903,7.639308,-1.876473,0.981514,-0.013577,0.032116
3841984657,-0.201693,8.787633,-1.153116,1.014483,-0.014330,0.037994
3842004708,0.083486,9.436848,-0.829558,1.028616,-0.013723,0.052901
3842024760,0.512100,8.841453,-0.585130,1.007190,-0.005296,0.080190
3842044812,0.404261,8.191434,1.175466,0.999348,0.007580,0.105160
3842064864,0.113356,7.676147,2.821977,1.009812,-0.001462,0.112973
3842084916,1.154209,8.092653,2.782282,0.989821,-0.015556,0.108905
3842104968,3.994087,8.547976,4.613827,0.999917,-0.047480,0.066630
3842125019,8.325594,10.322117,6.963253,1.048853,-0.071699,0.004365
3842145071,11.437082,13.537296,4.366660,1.071627,-0.041694,-0.023086
3842165123,10.158883,13.347927,-1.430143,1.036332,0.011233,0.030491
3842185176,7.995113,9.199924,-4.446674,1.018698,-0.008674,0.000605
3842205228,7.744081,7.574504,-4.312143,0.993654,0.006222,0.004163
3842225280,5.911669,6.740238,-3.490100,0.964090,0.046613,0.050655
3842245332,2.812299,5.482505,-3.492260,0.935509,0.059062,0.067939
3842265384,-0.296702,2.966192,-3.224816,0.909259,0.018986,0.071398
3842285436,-1.284812,-0.687967,-2.605561,0.883343,0.002261,0.068500
3842305487,-1.845627,-6.340239,-1.464203,0.858220,0.001791,0.077688
3842325539,-2.569891,-14.324192,-0.314752,0.845409,0.016224,0.078703
3842345593,-3.262155,-22.709181,1.010386,0.839314,0.025883,0.056099
3842365643,-4.175625,-30.592033,1.538080,0.856804,0.049821,0.030862
3842385695,-6.433244,-35.544437,1.063303,0.912118,0.047174,-0.010522
3842405747,-7.250703,-35.216042,-1.377967,0.997387,0.018765,-0.079115
3842425798,-5.482760,-27.508472,-5.285571,1.132929,-0.034496,-0.235586
3842445850,-3.112800,-11.595566,-7.630079,1.279988,-0.050839,-0.353322
3842465901,-2.940758,-2.742942,-2.916217,1.231383,-0.044760,-0.167515
3842485953,-1.029060,-0.131755,3.432861,1.415325,-0.014964,-0.068491
3842506004,-3.880376,3.077202,10.789549,1.250258,0.033936,0.041379
3842526056,-3.999447,3.028382,12.790605,1.060900,-0.011605,0.049924
3842546108,-4.202067,0.778070,10.107899,0.893388,-0.019165,0.029739
3842566160,-4.758517,-2.256534,7.420442,0.777843,-0.021930,0.006503
3842586212,-4.213384,-5.188802,5.368879,0.757048,-0.030382,-0.003271
3842606263,-4.105553,-7.013158,2.495123,0.809101,-0.022826,0.008916
3842626315,-4.247184,-7.774883,-0.154838,0.873767,-0.003333,0.040777
3842646367,-3.205114,-6.798903,-1.757726,0.967243,-0.011595,0.039536
3842666419,-2.266013,-3.927909,-2.518264,1.043591,-0.016854,0.034866
3842686471,-0.547754,-1.868492,-2.768489,1.073874,-0.032295,0.024172
3842706523,0.378856,-1.782530,-2.140056,1.082284,-0.041623,0.024976
3842726575,1.542337,-3.575614,-1.171757,1.069703,-0.044846,0.011109
3842746626,1.424484,-5.884318,-1.178918,1.060693,-0.029875,-0.014485
3842766678,1.069808,-6.756544,-0.683156,1.063398,-0.033034,-0.038968
3842786730,1.428988,-5.764215,-0.201648,1.073343,-0.034332,-0.055150
3842806782,1.492137,-3.662375,0.761194,1.055155,-0.022984,-0.052957
3842826834,0.830521,-0.170294,2.621395,1.030521,-0.002111,-0.044466
3842846886,0.280231,3.651932,4.950315,1.001925,0.000718,-0.019981
3842866938,-0.135884,7.230900,5.893076,0.982788,0.014178,0.003085
3842886989,-1.694617,10.058517,5.656509,0.985533,0.013837,0.017013
3842907043,-3.247426,12.279278,4.292768,1.003964,-0.002938,0.022882
3842927094,-4.100001,14.407221,3.133732,0.998986,-0.030192,0.030251
3842947146,-2.798574,15.233547,1.607059,0.984255,-0.032481,0.024902
3842967198,-2.494353,15.476110,1.234747,0.978023,-0.019243,0.023978
3842987250,-3.319670,14.800159,0.843260,0.972294,-0.020966,0.037862
3843007302,-3.656135,13.508305,0.991829,0.996292,-0.029446,0.038403
3843027354,-4.155251,12.559701,1.563695,1.005259,-0.053141,0.044739
3843047406,-2.666940,10.853682,0.363998,0.987029,-0.062572,0.048809
3843067457,0.016264,9.155808,-0.783092,0.971316,-0.063789,0.055074
3843087509,2.302074,7.594199,-1.581881,0.979997,-0.057324,0.048335
3843107561,3.422279,6.878449,-0.677911,0.987556,-0.024592,0.048828
3843127613,2.338585,6.293357,1.552698,0.986200,0.013526,0.058919
3843147665,-0.755736,6.342854,2.970876,0.980226,0.028335,0.059796
3843167717,-4.366446,6.596012,3.516953,0.962577,0.031946,0.067264
3843187780,-6.079608,5.630147,2.618985,0.966117,0.014037,0.078766
3843207819,-8.096012,4.389341,1.775123,0.991306,-0.008348,0.085293
3843227871,-9.051619,3.017289,3.083766,1.033721,-0.042000,0.082620
3843247923,-5.810378,2.321797,4.994925,1.037877,-0.112875,0.062294
3843267974,2.271927,4.151147,5.000950,1.049321,-0.166544,0.049636
3843288037,11.772871,5.765288,4.325113,1.035301,-0.109656,0.033519
3843308078,17.223949,5.457126,1.588262,0.997001,-0.021984,0.007148
3843328130,14.462346,2.327674,-1.810518,0.980535,0.005167,0.034255
3843348181,12.529123,-2.090573,-2.188723,0.946662,-0.060669,0.029142
3843368233,12.628028,-3.053291,-3.261652,0.976958,-0.045016,0.000729
3843388285,10.284018,-2.837070,-3.860314,0.980220,0.018451,0.003653
3843408337,5.684630,-3.304844,-2.250353,0.986180,0.045072,0.015566
3843428389,0.616035,-3.628749,0.981174,0.978229,0.021066,0.015333
3843448441,-1.463436,-4.358633,2.954947,0.948652,-0.021744,0.012347
3843468493,-2.085089,-6.344674,2.871060,0.933828,-0.040138,0.030904
3843488544,-0.864463,-9.147793,1.334185,0.942890,-0.058248,0.033814
3843508596,1.249930,-11.705412,-1.916694,0.951943,-0.066595,0.033247
3843528648,1.684031,-13.082665,-5.254421,0.951011,-0.044176,0.025438
3843548700,4.820748,-14.240934,-9.169848,0.960253,-0.056096,0.010009
3843568752,10.491570,-12.760432,-14.997576,1.008119,-0.116550,-0.038211
3843588804,17.877844,-6.356822,-19.622658,1.045157,-0.157323,-0.099914
3843608856,24.527180,2.205160,-17.138273,1.062981,-0.113152,-0.114386
3843628909,24.502995,9.140119,-9.348255,1.155092,0.048637,-0.092067
3843648961,13.542113,13.720754,2.394762,1.210832,0.248343,-0.042906
3843669012,-3.137277,12.566960,11.234063,1.153923,0.237614,-0.002741
3843689065,-13.469089,8.801958,13.584972,1.069662,0.101958,0.022497
3843709116,-16.200375,3.914633,10.692451,0.982199,-0.019874,0.042828
3843729168,-13.216615,0.830173,4.873816,0.904994,-0.086820,0.043055
3843749220,-9.024662,-0.422970,-0.724183,0.865014,-0.089674,0.052984
3843769271,-4.326961,-1.467496,-5.072550,0.861010,-0.057414,0.066760
3843789323,-0.872676,-2.693501,-8.025329,0.896104,-0.009344,0.074632
3843809375,0.818171,-4.218446,-8.414771,0.932076,0.012518,0.085813
3843829427,1.331841,-5.543946,-7.265962,0.965592,-0.003698,0.083966
3843849479,3.174128,-6.357460,-5.763170,0.989462,-0.020287,0.063787
3843869531,4.145717,-6.569483,-4.284883,1.003832,-0.012366,0.049983
3843889583,4.509159,-7.184854,-2.335098,1.021130,-0.011949,0.038286
3843909637,3.861719,-7.930411,-0.717984,1.036042,-0.007621,0.027254
3843929685,2.240810,-8.699344,0.611551,1.042592,-0.001710,0.026595
3843949737,0.593188,-9.620044,0.782038,1.053987,-0.010923,0.015877
3843969789,0.443369,-10.046872,0.669876,1.050403,-0.014240,0.006801
3843989840,0.463561,-9.290371,0.227683,1.045794,0.007162,0.004703
3844009892,0.071465,-7.948555,-0.868173,1.031114,0.028015,0.010265
3844029944,-0.100708,-6.738298,-1.387652,1.005925,0.034072,0.012016
3844049996,-1.609113,-5.024101,-1.271768,0.999701,0.026809,0.019781
3844070048,-1.906874,-3.130462,-1.641979,0.982900,0.020882,0.027274
3844090100,-2.890343,-1.187202,-1.860541,0.975590,0.016667,0.032270
3844110152,-3.040164,0.264353,-2.661281,0.983686,0.020606,0.033281
3844130203,-3.211979,0.626332,-1.669625,0.990777,0.035735,0.029067
3844150255,-4.402086,0.970073,-1.306602,0.996171,0.033546,0.027676
3844170307,-4.160745,0.201104,-1.902775,0.999579,0.024900,0.026073
3844190359,-2.430910,-1.115878,-3.058423,1.008475,0.012612,0.023189
3844210411,-0.993821,-2.126256,-3.449551,1.019972,0.010897,0.022199
3844230462,-0.196755,-2.078281,-2.692100,1.028045,0.008989,0.014553
3844250515,-0.650746,-1.874301,-1.184431,1.027705,0.016417,0.006649
3844270567,-0.991517,-1.622254,0.603454,1.025638,0.007771,0.005916
3844290618,-0.577592,-1.270572,1.761678,1.011045,0.003605,0.009133
3844310670,-0.474777,-1.005778,2.708099,0.993445,0.000150,0.011684
3844330722,-0.015725,-0.420002,3.622974,0.990326,-0.009102,0.019585
3844350774,0.749925,0.087585,3.863483,0.988140,-0.016057,0.022831
3844370827,1.456474,0.395433,3.793965,0.978299,-0.010498,0.019152
3844390879,2.379252,0.277163,3.346891,0.980376,-0.007109,0.020764
3844410931,2.991197,-0.311124,3.325966,0.987282,-0.013263,0.027791
3844430983,4.158453,-0.632480,2.924980,0.996833,-0.023965,0.021257
3844451035,5.148421,-0.829588,3.145103,1.003868,-0.019475,0.016438
3844471086,4.690321,-0.836664,3.698551,1.007500,-0.007614,0.012964
3844491138,4.707851,-1.404620,3.905134,1.010192,-0.009439,0.005643
3844511190,5.007951,-2.010513,3.823748,1.015608,-0.010960,0.000064
3844531242,5.550714,-2.440118,3.756828,1.024297,-0.016965,-0.001895
3844551294,5.751337,-2.535433,2.885506,1.022014,-0.014253,-0.002488
3844571345,5.500438,-2.387790,2.483400,1.015628,-0.016601,-0.000507
3844591397,4.934378,-1.904716,2.625934,1.004663,-0.010883,0.000803
3844611449,3.780964,-1.399917,3.208178,0.994512,-0.008030,0.004879
3844631501,2.779743,-0.804035,3.630897,0.993126,-0.012411,0.010100
3844651551,1.878670,-0.330406,3.826634,0.988040,-0.023925,0.012651
3844671603,2.015146,-0.050741,3.492148,0.993118,-0.023216,0.016951
3844691655,1.984417,0.204720,3.104752,1.001050,-0.023202,0.016734
3844711707,1.780706,0.064000,2.673307,1.002711,-0.020991,0.012267
3844731759,1.715310,-0.243984,2.060496,1.002005,-0.019964,0.007888
3844751811,1.580911,-0.483710,1.508105,1.009320,-0.023520,0.005890
3844771862,0.949769,-0.406876,1.106377,1.014703,-0.022346,0.004552
3844791914,0.546394,-0.199640,0.681382,1.012868,-0.016368,0.003561
3844811966,-0.270077,0.212415,0.657511,1.014600,-0.019881,0.005431
3844832018,-0.378779,0.636881,0.663666,1.009136,-0.024599,0.006719
3844852070,-0.230260,1.359339,0.706598,1.001681,-0.031341,0.006563
3844872122,-0.005253,1.968905,0.825682,0.998335,-0.032406,0.002462
3844892174,0.389158,2.177369,0.968826,0.993466,-0.030162,0.007672
3844912225,0.701486,2.051315,1.120730,0.991262,-0.029766,0.010288
3844932277,1.008378,1.777428,0.712303,0.993425,-0.030424,0.014764
3844952329,1.214993,1.663607,0.507991,0.994892,-0.031433,0.013877
3844972381,1.399723,1.382340,0.258789,0.991706,-0.031721,0.013313
3844992433,1.143331,1.097324,-0.126665,0.992989,-0.030562,0.011582
3845012485,0.789117,0.456452,-0.260754,0.994786,-0.024902,0.013165
3845032536,1.218068,0.167699,-0.744963,0.993027,-0.018706,0.014717
3845052588,0.957604,-0.920896,-0.945752,0.994477,-0.013180,0.013300
3845072640,1.105540,-1.377971,-1.345914,0.995153,-0.017959,0.009361
3845092693,0.901426,-1.562705,-1.534680,0.994907,-0.025515,0.008356
3845112745,0.480949,-1.388491,-1.163764,1.005123,-0.027220,0.008266
3845132797,0.249920,-1.098493,-0.687208,1.007244,-0.034400,0.007819
3845152849,0.697064,-0.873348,-0.362245,1.009191,-0.039256,0.004617
3845172901,1.320377,-0.852216,-0.066957,1.004686,-0.032227,0.007685
3845192952,2.135728,-0.961577,-0.195708,1.003889,-0.027685,0.001356
3845213004,2.449492,-1.286108,-0.217436,1.004988,-0.025440,-0.000662
3845233056,2.662644,-1.067300,-0.650266,1.002675,-0.021032,0.002997
3845253110,2.542519,-1.132134,-1.172948,1.002941,-0.015871,0.001667
3845273160,2.429285,-1.060179,-1.680947,0.996101,-0.013085,0.000586
3845293212,1.964479,-0.784541,-2.030366,0.992450,-0.009923,-0.000112
3845313263,1.607099,-0.525306,-2.682924,0.991080,-0.009289,-0.000039
3845333315,1.394888,-0.288954,-3.502192,0.990230,-0.001913,0.001233
3845353367,0.764865,-0.432316,-3.910741,0.994682,0.001743,0.002131
3845373418,-0.028401,-0.230990,-3.668630,0.998811,-0.002642,-0.000242
3845393469,-0.783205,-0.180379,-3.289593,1.003903,-0.004044,0.002627
3845413521,-0.786262,-0.000457,-2.448947,1.011483,-0.001261,-0.000896
3845433573,-0.682525,0.149605,-1.638552,1.009051,0.009076,0.004420
3845453625,-2.087783,-0.706568,-1.119740,0.997975,0.015384,0.008904
3845473677,-3.920284,-1.203156,-0.920335,1.000165,0.015566,0.008554
3845493728,-4.716747,-1.672553,-1.092754,0.999380,0.001856,0.009343
3845513780,-5.165030,-1.692445,-1.372951,1.007921,-0.015780,0.007336
3845533832,-4.792384,-1.351753,-1.904782,1.006671,-0.024145,0.007060
3845553884,-3.637232,-0.904805,-2.050727,1.009358,-0.028303,0.001765
3845573936,-2.223165,-0.741424,-1.687995,1.012468,-0.027239,-0.000588
3845593988,-1.182124,-0.467857,-1.522565,1.013132,-0.022969,-0.007086
3845614040,-1.031698,0.039983,-1.804789,1.011487,-0.023052,-0.006278
3845634092,-0.211218,0.604141,-2.276916,1.017859,-0.023378,-0.004593
3845654143,0.350096,1.190006,-2.650500,1.017959,-0.024570,-0.005397
3845674195,0.711911,1.875948,-2.599938,1.011641,-0.021181,-0.002482
3845694247,0.821356,2.638129,-2.238812,1.008608,-0.020857,0.001583
3845714299,1.204929,3.544321,-2.196595,1.006935,-0.015642,0.004419
3845734351,1.599735,3.856810,-2.410021,1.001356,-0.019761,0.009517
3845754403,2.559074,4.019907,-2.820183,0.994857,-0.011863,0.010015
3845774455,2.414948,3.747784,-2.485721,0.988353,-0.011440,0.015236
3845794506,2.249735,3.351270,-2.590402,0.986244,-0.013131,0.018058
3845814560,2.252800,2.728877,-2.573100,0.988869,-0.010010,0.019858
3845834612,2.293227,2.273406,-2.609440,0.990660,-0.004067,0.022256
3845854663,2.403306,1.545623,-2.561497,0.991568,-0.003693,0.022803
3845874715,2.880553,0.703338,-2.990762,0.993140,-0.003023,0.018626
3845894767,3.205144,0.011069,-3.549333,0.992964,0.002917,0.014648
3845914819,3.553713,-0.781320,-4.357673,0.997825,0.006015,0.008103
3845934871,3.845439,-1.062945,-4.773648,1.001293,0.009711,0.005540
3845954922,3.649043,-1.307880,-4.886419,1.003468,0.012364,0.006524
3845974974,3.313529,-1.256115,-4.757638,1.003998,0.015202,0.007949
3845995026,3.241598,-0.768273,-4.372766,1.000017,0.013588,0.003668
3846015078,3.215502,-0.340527,-3.934652,1.002843,0.015217,0.002760
3846035130,3.195755,0.375307,-3.565743,1.001279,0.017775,0.003992
3846055182,3.178921,0.491619,-3.164453,0.997356,0.013172,0.006744
3846075234,3.725624,0.700933,-3.044103,0.998458,0.009456,0.007249
3846095284,4.059786,0.787442,-2.915675,0.998792,0.017651,0.008429
3846115336,4.006591,0.539409,-2.467643,0.996674,0.021124,0.010192
3846135388,4.007204,0.260447,-2.163524,0.999143,0.022195,0.008470
3846155439,3.718233,0.242895,-2.239152,1.000041,0.022228,0.010657
3846175491,3.696345,0.052962,-2.238490,1.002125,0.025333,0.011454
3846195543,3.477668,-0.365955,-2.229391,1.002033,0.026867,0.010709
3846215595,3.563147,-0.669636,-2.319322,0.999763,0.026119,0.009610
3846235647,2.933464,-0.978809,-2.537826,0.997109,0.031190,0.008806
3846255698,2.394605,-1.301129,-2.528948,1.002401,0.029748,0.008769
3846275751,2.523074,-1.223027,-2.317051,1.003360,0.022058,0.004593
3846295803,2.604702,-0.894903,-2.136315,1.008046,0.009529,0.004499
3846315855,3.241074,-0.380954,-1.956414,1.007674,0.011893,0.004651
3846335906,4.328921,-0.229844,-1.995210,1.007564,0.018703,0.004389
3846355958,5.475094,0.272878,-1.716922,1.010288,0.020631,0.005386
3846376010,5.547763,0.754218,-1.309343,1.006739,0.017720,0.005667
3846396062,5.393012,1.351787,-1.493243,1.006640,0.018640,0.006474
3846416114,5.307964,1.834399,-1.919297,1.008062,0.030822,0.006797
3846436166,5.269450,2.112729,-2.284033,1.004928,0.040731,0.007660
3846456217,5.278956,1.935685,-2.677532,1.005573,0.039994,0.006855
3846476269,5.684397,1.805913,-3.207754,0.998661,0.034977,0.006501
3846496321,6.400206,1.794832,-3.298914,0.995804,0.037211,0.010726
3846516374,7.033398,1.728002,-3.715748,0.994108,0.041579,0.017844
3846536426,7.073999,1.347103,-3.964555,0.995743,0.043131,0.018110
3846556478,6.457346,1.298340,-3.835329,0.992220,0.037001,0.015702
3846576530,6.069587,0.927280,-3.288230,0.984287,0.037799,0.015546
3846596581,6.209871,0.177785,-3.103801,0.993118,0.043531,0.014724
3846616633,5.878929,-0.733973,-2.880754,0.999225,0.046524,0.013369
3846636685,5.576909,-1.394347,-2.552478,1.002808,0.040782,0.011553
3846656737,6.012809,-1.748927,-2.649935,1.004907,0.041143,0.011109
3846676789,6.728441,-1.752081,-2.688069,1.004823,0.043379,0.008629
3846696841,6.933613,-1.599918,-2.847823,1.000967,0.048851,0.010628
3846716892,6.178972,-1.332227,-2.954587,0.999328,0.054344,0.007463
3846756996,4.571366,-0.896514,-3.220789,0.996629,0.065206,0.011408
3846777048,3.644572,-1.394486,-2.976222,0.990698,0.071523,0.009293
3846797102,2.830800,-1.753916,-2.550277,0.990039,0.070667,0.013116
3846817150,2.083278,-1.964925,-1.533708,0.993652,0.062329,0.007603
3846837202,2.110408,-1.806667,-0.548998,0.998062,0.054768,0.005541
3846857254,1.918017,-1.570326,-0.193534,1.005915,0.052679,0.004348
3846877306,2.023796,-1.650210,0.269021,1.009971,0.057400,0.009866
3846897358,2.852252,-1.709321,0.867672,1.008702,0.055396,0.009699
3846917410,3.071089,-1.470774,1.147195,1.000967,0.045692,0.012119
3846937461,2.690825,-1.354053,0.790715,0.997902,0.043075,0.007492
3846957513,2.972571,-1.374986,0.790688,0.995520,0.052122,0.005099
3846977565,2.737283,-1.550650,0.867165,0.993477,0.063393,0.005772
3846997617,2.325914,-1.567512,1.026526,0.994572,0.061227,0.006623
3847017669,1.966806,-1.476549,1.374970,1.006523,0.054829,0.008508
3847037721,1.768770,-1.260044,1.002924,1.011810,0.054661,0.008638
3847057772,1.608974,-0.931241,0.342478,1.010626,0.062955,0.004263
3847077824,1.379188,-0.149324,-0.622663,1.018169,0.064653,0.007477
3847097876,0.956620,1.169853,-1.665378,1.014709,0.059943,0.009052
3847117928,1.513748,3.055768,-2.937758,1.012854,0.055866,0.016539
3847137980,0.881195,5.246892,-3.937930,1.017240,0.065904,0.025360
3847158032,-0.834300,7.638507,-4.529150,1.018517,0.075778,0.035889
3847178083,-3.938593,8.961059,-4.669042,1.017072,0.076953,0.048407
3847198135,-6.749689,10.219467,-3.255129,1.031183,0.069724,0.055407
3847218189,-8.407385,12.577599,0.390383,1.038653,0.061726,0.060460
3847238240,-11.207613,15.717589,2.805810,1.031564,0.094264,0.055944
3847258292,-14.571465,16.687843,3.644909,1.011170,0.141865,0.058611
3847278344,-20.946867,14.857539,2.925869,1.009050,0.186834,0.071345
3847298396,-31.821495,12.887127,2.709097,1.016192,0.200204,0.090417
3847318448,-43.445480,11.370098,2.930605,1.000352,0.196454,0.103890
3847338500,-54.111877,9.476911,1.508441,0.971907,0.209478,0.097721
3847358551,-64.915970,7.329516,0.845096,0.946660,0.210580,0.096075
3847378603,-74.645790,5.932642,1.300475,0.944490,0.185144,0.090265
3847398655,-83.671440,5.066878,2.178199,0.938558,0.173920,0.081355
3847418707,-91.094833,4.415843,4.138412,0.948207,0.166719,0.071873
3847438759,-98.102364,3.751819,7.212632,0.958844,0.162713,0.063270
3847458811,-105.389778,2.376779,10.986664,0.950397,0.179310,0.049658
3847478862,-110.270782,0.617277,15.102230,0.944612,0.159614,0.020035
3847498914,-114.741447,-0.267957,17.789795,0.980209,0.123875,-0.000566
3847518965,-121.788498,1.759591,19.157068,1.018247,0.091762,-0.034825
3847539017,-128.357681,5.001738,18.822300,1.026946,0.136062,-0.032458
3847559069,-140.384521,6.052595,19.755102,1.055923,0.184771,-0.023455
3847579120,-153.709076,4.026145,19.213486,1.058345,0.132829,-0.021837
3847599172,-162.628433,1.718659,14.108766,1.050742,0.013582,-0.049321
3847619224,-164.065796,3.131359,4.918706,1.026120,-0.124049,-0.057173
3847639276,-159.648300,4.158833,-4.014393,0.997999,-0.188552,-0.033360
3847659327,-153.789658,3.565764,-7.803880,0.956850,-0.153157,-0.029699
3847679379,-149.642685,1.264320,-8.668982,0.937778,-0.073907,-0.050655
3847699431,-148.955963,-0.478695,-8.890584,0.941271,-0.041310,-0.071820
3847719483,-151.021637,-1.261061,-9.220639,0.962599,-0.036250,-0.057913
3847739535,-155.031937,-1.792254,-8.641404,0.983985,-0.016988,-0.061165
3847759587,-158.832260,-2.029462,-7.411465,1.021922,-0.027929,-0.088853
3847779639,-161.502808,-1.123721,-6.686071,1.032578,-0.056195,-0.103991
3847799690,-163.893860,-0.971951,-6.625125,1.001986,-0.062814,-0.091953
3847819742,-165.952850,-2.955519,-7.231465,1.008103,-0.035397,-0.107132
3847839794,-167.189621,-3.873053,-6.985343,1.035620,-0.040470,-0.148685
3847859846,-167.225998,-4.192378,-7.022125,1.012477,-0.058453,-0.157457
3847879898,-167.630249,-6.104931,-8.910132,0.994542,-0.038447,-0.140638
3847899949,-167.496399,-8.023333,-9.881253,1.006672,-0.024849,-0.163795
3847920001,-166.082565,-8.084335,-8.987223,1.015586,-0.053045,-0.192942
3847940055,-164.174072,-7.384489,-9.535988,1.000098,-0.085902,-0.162680
3847960106,-162.745102,-7.433774,-11.597795,0.976663,-0.058667,-0.128625
3847980158,-160.744263,-7.403158,-11.227231,0.982487,-0.015495,-0.179525
3848000210,-161.027878,-5.746780,-10.717470,0.977991,-0.042165,-0.207876
3848020262,-161.340836,-5.641726,-10.588880,0.952912,-0.054520,-0.184736
