Timestamp (us),Gyroscope X (deg/s),Gyroscope Y (deg/s),Gyroscope Z (deg/s),Accelerometer X (g),Accelerometer Y (g),Accelerometer Z (g)
330559183,0.744447,-0.714428,0.584619,0.930461,0.059271,0.329456
330569204,0.897499,-0.547263,0.766127,0.941441,0.061828,0.327512
330579225,0.610089,0.045888,0.874426,0.946060,0.066133,0.327328
330589245,-0.148938,0.943380,0.772740,0.948598,0.066691,0.334079
330599266,-0.848155,1.445549,0.594788,0.948830,0.069774,0.332234
330609287,-1.122621,1.658469,0.291959,0.946895,0.075481,0.335815
330619308,-1.473323,1.628261,0.050891,0.938699,0.076722,0.339022
330629328,-1.960783,1.263823,-0.005974,0.937935,0.074931,0.341945
330639349,-2.432301,0.793071,0.180926,0.939682,0.069807,0.342911
330649370,-3.252109,0.596356,0.614022,0.942682,0.062265,0.340081
330659390,-4.011133,1.144292,0.680270,0.945681,0.066926,0.335330
330669411,-4.526974,2.117552,0.515702,0.946524,0.075691,0.338724
330679432,-5.347800,2.923793,0.201265,0.938126,0.076038,0.344122
330689452,-5.730014,2.543925,-0.161124,0.927435,0.068378,0.346839
330699473,-5.382758,1.160304,-0.147241,0.927090,0.055200,0.339297
330709494,-4.990142,0.019784,-0.316776,0.931723,0.048216,0.341210
330719515,-4.746916,0.308331,-0.471279,0.939099,0.055066,0.345577
330729537,-5.142109,0.703841,-0.620989,0.948339,0.063295,0.342845
330739557,-5.841141,1.084447,-0.692173,0.950215,0.065592,0.336649
330749578,-6.082689,1.844767,-0.599620,0.948294,0.058314,0.334874
330759599,-5.717604,2.285216,-0.770438,0.951110,0.052478,0.340406
330769620,-5.216151,2.239149,-0.835185,0.944226,0.056627,0.345238
330779640,-4.715414,1.737055,-0.869023,0.932944,0.060524,0.356413
330789661,-4.443868,0.718293,-0.946325,0.928533,0.057285,0.353129
330799682,-4.322945,-0.345765,-0.626278,0.931781,0.054485,0.350991
330809702,-4.536407,-0.892781,-0.517468,0.939984,0.053793,0.347961
330819723,-4.504737,-0.679886,-0.289363,0.942332,0.050795,0.341630
330829744,-4.046686,-0.148125,-0.049592,0.946806,0.058405,0.344331
330839765,-3.817476,-0.163388,0.253397,0.945730,0.059324,0.343041
330849784,-3.938784,-0.300026,0.406822,0.941522,0.057918,0.341565
330859805,-3.802108,-0.360957,0.390595,0.939634,0.053766,0.343407
330869825,-3.361275,-1.030070,0.677343,0.939541,0.047955,0.346550
330879846,-2.707158,-1.440951,0.946975,0.941379,0.047891,0.341465
330889867,-2.112347,-0.924516,1.170475,0.942625,0.058632,0.341750
330899888,-1.956114,0.382881,1.640376,0.940733,0.066687,0.342398
330909908,-2.563558,0.991422,1.553038,0.935468,0.068038,0.341802
330919929,-3.415624,0.672932,1.559872,0.935598,0.064766,0.343469
330929950,-3.766955,-0.117257,1.517603,0.942274,0.058606,0.337559
330939971,-3.660497,-0.041356,1.486242,0.948490,0.058844,0.332868
330949991,-3.886680,0.870951,1.548060,0.955074,0.060011,0.331450
330960012,-3.975111,2.056811,1.715219,0.952943,0.065186,0.336672
330970033,-3.913031,2.908001,1.637756,0.944891,0.064630,0.343902
330980053,-4.216748,3.151479,1.624617,0.934637,0.062259,0.347670
330990074,-4.841070,2.650375,1.629878,0.923243,0.055680,0.347277
331000095,-4.965011,1.738324,1.464088,0.920868,0.054599,0.344173
331010116,-5.240789,1.039203,1.253551,0.925613,0.054511,0.341841
331020136,-5.851131,0.917894,0.755538,0.935146,0.057817,0.339699
331030158,-6.687830,1.389711,0.426302,0.947152,0.055618,0.337802
331040179,-6.594856,2.028158,0.577351,0.953098,0.050602,0.337340
331050200,-6.153100,3.046144,0.298743,0.949796,0.048441,0.334238
331060221,-6.242367,4.475076,0.130474,0.947829,0.051772,0.336928
331070241,-7.001563,5.311755,0.013611,0.941512,0.059448,0.351386
331080262,-8.217936,5.586380,-0.099215,0.938400,0.060093,0.358459
331090283,-8.615994,4.568129,-0.323749,0.931225,0.054705,0.354991
331100311,-8.329561,3.534118,-0.477334,0.932762,0.046256,0.349610
331110324,-7.995155,3.093070,-0.296642,0.933911,0.047805,0.339408
331120345,-8.480649,3.807929,-0.354541,0.935334,0.046358,0.343983
331130366,-9.043451,4.583495,-0.777584,0.938054,0.045972,0.346555
331140386,-9.409757,5.100384,-1.384728,0.940538,0.042138,0.350975
331150408,-9.289854,5.039282,-1.812214,0.937350,0.035611,0.349549
331160426,-8.790586,4.749789,-2.333813,0.939729,0.035553,0.346471
331170447,-8.213505,4.901186,-2.597403,0.943913,0.035509,0.349051
331180468,-8.807219,5.433549,-3.035215,0.944170,0.041360,0.351736
331190488,-9.656181,6.787216,-3.014749,0.945777,0.040095,0.356675
331200509,-10.232792,7.851724,-3.209410,0.934774,0.036650,0.361721
331210530,-10.035792,8.155436,-3.531176,0.923511,0.040313,0.365797
331220551,-9.702903,7.455842,-3.624487,0.922521,0.047811,0.366820
331230571,-10.237071,6.012250,-3.451424,0.928689,0.057343,0.361506
331240592,-11.743004,5.253575,-3.241084,0.941450,0.057898,0.363780
331250613,-12.899152,5.360898,-3.430397,0.947122,0.045187,0.357553
331260633,-12.320360,6.226806,-3.588019,0.943770,0.039375,0.353753
331270654,-11.422508,7.213995,-3.870095,0.936687,0.040932,0.352778
331280675,-10.585957,7.426075,-3.907183,0.936848,0.040978,0.359334
331290696,-10.023867,7.151963,-3.911234,0.936450,0.039366,0.362622
331300716,-10.253260,7.258392,-4.305727,0.940444,0.038213,0.362660
331310737,-10.905348,8.049463,-4.225291,0.938407,0.033610,0.352304
331320758,-10.677135,8.793989,-4.547714,0.926175,0.031016,0.346592
331330779,-10.494256,9.310616,-4.686734,0.918919,0.035567,0.355606
331340801,-10.890882,9.143629,-4.942557,0.918549,0.037845,0.367238
331350821,-10.468238,8.398189,-5.402191,0.917821,0.038985,0.372140
331360842,-9.801539,8.078174,-5.864098,0.931153,0.039661,0.367133
331370863,-9.571158,9.598058,-5.989194,0.935597,0.043011,0.360582
331380883,-9.172941,10.798704,-5.810543,0.928260,0.040782,0.364917
331390904,-9.173314,10.403510,-5.718747,0.925045,0.048026,0.376488
331400925,-9.722905,9.127084,-5.682853,0.919389,0.049632,0.385173
331410946,-10.133432,8.367536,-5.313309,0.909148,0.048925,0.392206
331420966,-10.164181,8.245937,-5.343432,0.912736,0.047684,0.404442
331430987,-10.270115,8.489258,-5.327613,0.923757,0.041903,0.409487
331441008,-8.552353,8.229352,-5.325301,0.915113,0.034680,0.401290
331451028,-6.454391,7.467587,-5.066408,0.914628,0.036803,0.391436
331461048,-6.999988,6.662772,-4.208214,0.919599,0.038495,0.383628
331471069,-8.095158,6.314117,-4.138541,0.934992,0.043534,0.381150
331481089,-9.507334,7.516217,-4.205033,0.946293,0.055935,0.379673
331491110,-11.447397,9.798348,-3.659036,0.947725,0.078674,0.375308
331501131,-13.084835,9.739533,-2.381788,0.919295,0.092046,0.375354
331511151,-13.929870,6.304457,-3.027235,0.865996,0.074058,0.374567
331521172,-12.259594,1.771902,-5.458375,0.858835,0.044053,0.370756
331531193,-8.909473,-2.046935,-6.333699,0.897250,0.023649,0.352086
331541214,-7.535803,-0.907651,-5.522532,0.934826,0.024896,0.350165
331551234,-6.858162,4.396921,-5.807002,0.953177,0.038456,0.372220
331561255,-5.820690,8.469532,-6.839658,0.945164,0.057165,0.396043
331571276,-6.046438,9.397087,-6.671202,0.919717,0.067184,0.417443
331581297,-6.124912,7.223536,-6.272393,0.902433,0.058190,0.423764
331591317,-5.704343,3.362240,-5.784397,0.899331,0.046425,0.429301
331601338,-4.748529,0.291144,-4.874626,0.917812,0.040184,0.436589
331611359,-1.628363,-0.547088,-3.678829,0.938047,0.027106,0.435024
331621379,1.587282,1.137987,-2.577569,0.931134,0.015549,0.436161
331631400,2.397881,4.435833,-2.922107,0.911075,0.014182,0.432566
331641422,2.929312,6.289453,-4.009732,0.896756,0.016849,0.418783
331651443,3.946143,5.877996,-4.321871,0.893760,0.004835,0.390272
331661464,5.374002,3.885638,-3.751945,0.925051,-0.002286,0.378178
331671484,8.489928,2.059031,-3.195117,0.959662,0.009245,0.380338
331681505,12.072287,4.823065,-2.143399,0.970375,0.025141,0.406870
331691526,14.049910,10.157801,-0.472344,0.947805,0.035396,0.441764
331701547,14.621452,11.693374,1.136901,0.911670,0.051265,0.468318
331711568,14.334753,9.550949,2.740967,0.892407,0.067201,0.463858
331721588,14.733107,7.286442,4.614155,0.884783,0.077369,0.442232
331731609,15.070513,6.101040,5.938272,0.886790,0.085197,0.419603
331741630,13.399395,6.543405,6.118269,0.897554,0.110910,0.417284
331751650,10.969148,8.399986,5.921834,0.902457,0.109559,0.417149
331761677,11.507760,9.190582,7.227304,0.883485,0.069528,0.414428
331771691,14.686678,7.470564,8.301592,0.882638,0.024179,0.419894
331781711,18.581154,6.160383,9.415716,0.890792,0.008769,0.423723
331791732,21.949804,6.903155,11.217577,0.886761,0.009069,0.431521
331801753,24.555855,7.600717,12.431101,0.885318,0.022948,0.431578
331811773,26.000793,6.383669,13.122056,0.896805,0.035713,0.430464
331821794,26.353199,4.924664,14.522500,0.919858,0.039681,0.421859
331831815,27.409554,5.274156,16.235804,0.933518,0.036295,0.410515
331841836,30.475376,7.354775,17.733990,0.927481,0.021227,0.407136
331851856,35.638725,9.007936,19.216497,0.907047,0.007126,0.406739
331861877,40.039963,9.673663,20.690546,0.888789,0.006910,0.414619
331871898,42.885216,8.577156,21.690620,0.880226,0.022620,0.426080
331881918,44.679234,6.660618,22.547163,0.886712,0.043136,0.427415
331891939,46.108139,4.698778,23.376074,0.905574,0.061246,0.424308
331901960,47.692734,3.907489,24.598835,0.932223,0.062070,0.417030
331911980,49.449829,5.229208,26.183958,0.950119,0.048581,0.404162
331922001,52.241856,8.176344,27.241564,0.944633,0.033873,0.401330
331932022,55.718330,10.955733,28.431208,0.920824,0.026777,0.404492
331942043,59.373398,11.166031,29.835224,0.905572,0.007000,0.411463
331952065,62.964378,9.871383,31.104025,0.903317,-0.008209,0.421587
331962085,67.695099,9.274784,31.860620,0.903262,-0.010151,0.430161
331972106,72.793716,9.544512,32.979256,0.895135,-0.004740,0.430421
331982127,76.964493,9.283070,34.273106,0.891493,0.006186,0.421018
331992148,79.324867,8.156787,35.734024,0.899226,0.008901,0.409034
332002168,80.350006,8.445419,37.264786,0.915149,0.012463,0.405115
332012189,81.680946,10.056224,38.609116,0.920935,0.021854,0.404716
332022210,84.593430,12.349596,39.666416,0.917378,0.029237,0.409727
332032231,87.776741,13.745707,40.402519,0.905116,0.040796,0.419375
332042251,90.441223,13.774219,41.311497,0.892318,0.053279,0.429740
332052272,92.009613,13.195599,42.168503,0.875424,0.058490,0.434490
332062293,93.303436,11.918000,43.134933,0.867160,0.054239,0.434646
332072312,95.034836,9.742934,43.641762,0.870500,0.044492,0.430017
332082333,96.765640,7.689384,43.935165,0.894849,0.039585,0.432238
332092354,98.424042,7.216930,44.425701,0.917188,0.034724,0.436630
332102374,100.373383,7.823528,44.928226,0.928809,0.030127,0.430197
332112395,102.339333,8.886224,45.582558,0.931724,0.028956,0.425676
332122416,103.862808,9.523574,46.042610,0.925179,0.030523,0.427072
332132437,106.220222,9.354424,46.268482,0.914339,0.024483,0.426678
332142457,108.774590,8.926653,46.432140,0.907915,0.020542,0.423022
332152478,110.678421,8.955777,47.240288,0.897017,0.021749,0.416195
332162499,112.307281,8.605036,47.898544,0.889787,0.024354,0.408473
332172519,114.846367,7.554144,48.337166,0.890220,0.029087,0.408255
332182540,116.654968,6.822971,48.461121,0.900797,0.027971,0.401969
332192561,117.780617,6.442098,48.757584,0.910663,0.026823,0.389850
332202582,119.272385,6.790561,49.020073,0.922341,0.024733,0.377207
332212602,120.887138,7.929374,49.250401,0.935822,0.022658,0.370403
332222623,122.441635,10.177770,49.099228,0.945437,0.030860,0.364761
332232643,123.556961,12.928295,49.179497,0.938641,0.050579,0.354533
332242664,124.111328,15.041178,49.996025,0.931935,0.078190,0.351525
332252685,123.281128,16.304058,50.991577,0.924269,0.092979,0.363547
332262707,121.794510,17.324032,51.428631,0.923422,0.101131,0.379497
332272728,121.190018,18.024109,52.072540,0.929145,0.108410,0.389312
332282749,120.557053,18.891619,53.143135,0.934315,0.113074,0.389493
332292769,120.260414,19.576674,54.775078,0.934066,0.110972,0.400798
332302790,119.184967,19.380518,55.956726,0.922296,0.109324,0.425672
332312811,117.419540,17.299713,56.535984,0.906043,0.101402,0.456210
332322832,114.056709,13.472412,57.738602,0.893597,0.075059,0.468718
332332852,110.887077,8.854110,58.148190,0.883958,0.033477,0.447505
332342873,110.267723,5.920092,56.632050,0.892041,0.017995,0.416190
332352894,112.302124,6.617075,55.473053,0.913403,0.013063,0.383793
332362915,116.546707,7.783929,55.500347,0.920475,0.009274,0.378777
332372935,120.923950,6.776843,55.467743,0.917612,0.012773,0.377635
332382954,123.838074,4.114025,55.341259,0.942549,0.021841,0.372280
332392975,125.068680,2.547436,55.820873,0.982562,0.026662,0.365431
332402996,126.092636,4.355739,56.314125,0.999623,0.029913,0.346227
332413017,127.771896,7.364302,56.618374,1.009628,0.050432,0.330107
332423037,128.748993,9.506857,56.624092,1.010435,0.106752,0.328919
332433058,127.534103,11.620628,56.021946,1.008995,0.162678,0.344107
332443079,125.803757,14.783693,55.316101,0.980974,0.198313,0.372560
332453099,123.996536,17.034836,54.825020,0.927853,0.211507,0.397556
332463120,120.343254,15.700092,54.427670,0.864510,0.210247,0.419683
332473141,115.147621,11.235087,53.801315,0.826807,0.205909,0.447485
332483162,108.805016,4.779345,52.408569,0.823058,0.203758,0.469872
332493182,100.439911,-1.127539,50.710846,0.840501,0.200416,0.472576
332503203,92.366287,-3.994748,48.230949,0.862240,0.187774,0.458819
332513224,86.581276,-4.081758,46.462231,0.885212,0.169751,0.434735
332523244,82.654251,-3.881265,45.318932,0.881280,0.145988,0.418515
332533265,79.898865,-3.727281,44.410480,0.881307,0.120777,0.411804
332543286,78.273438,-2.829004,44.391621,0.880818,0.100775,0.418338
332553307,77.257782,-2.250230,44.932144,0.874837,0.091039,0.421106
332563327,75.436745,-0.606832,45.096916,0.875589,0.093048,0.423098
332573349,73.068039,0.976214,45.220238,0.876838,0.103969,0.423017
332583370,70.652855,1.480132,45.634430,0.880077,0.113202,0.420597
332593391,68.749573,1.466272,44.963387,0.877349,0.113040,0.417847
332603412,66.980484,1.330395,43.651497,0.882944,0.109128,0.417921
332613432,66.125412,1.148335,42.804977,0.902165,0.104923,0.430842
332623453,64.863144,1.331777,42.662117,0.903350,0.124989,0.434691
332633474,61.851486,1.395057,42.380413,0.891288,0.171589,0.424203
332643494,56.861580,1.064712,41.885704,0.888024,0.221706,0.414115
332653515,49.526531,-0.130311,40.891747,0.906390,0.255292,0.406870
332663536,40.049877,-0.502507,40.126747,0.913612,0.243850,0.377883
332673557,33.530590,1.722507,40.083206,0.909649,0.190868,0.355166
332683577,33.511246,4.672266,41.573753,0.900400,0.118282,0.358794
332693597,37.701248,6.523821,42.911171,0.885602,0.071118,0.386752
332703617,41.166004,6.474986,42.381847,0.864997,0.051013,0.412807
332713638,41.217030,4.953971,40.539265,0.859378,0.042031,0.419759
332723659,39.956497,1.473073,38.617172,0.866261,0.033360,0.394935
332733679,37.463226,-2.812387,36.796711,0.880521,0.031913,0.375749
332743700,33.823544,-4.329714,36.064224,0.909220,0.038818,0.381547
332753721,29.388754,-2.516690,36.568848,0.937788,0.053331,0.405125
332763742,25.392109,-1.829039,36.873100,0.950990,0.062932,0.423715
332773762,21.585951,-2.084684,35.744541,0.927451,0.060149,0.418832
332783783,19.734425,-3.953833,33.581669,0.903329,0.054256,0.411239
332793804,21.013964,-7.269655,31.777077,0.894869,0.036713,0.413507
332803825,25.007065,-9.264761,31.169357,0.877706,0.020325,0.406233
332813845,29.285885,-10.804546,29.507692,0.864232,-0.000882,0.420877
332823866,34.790829,-14.336997,27.350937,0.871902,-0.033670,0.441051
332833887,41.116394,-20.575480,26.363667,0.910259,-0.053559,0.442770
332843907,42.666466,-25.244541,24.375441,0.944126,-0.038830,0.406843
332853928,39.371231,-25.091000,21.459896,0.964281,-0.019511,0.346923
332863949,39.033295,-22.218668,19.189520,0.960078,-0.030914,0.299825
332873971,44.951649,-18.727810,18.409487,0.934535,-0.061078,0.286413
332883992,52.604301,-14.098490,17.310349,0.916718,-0.080031,0.301189
332894012,56.209564,-10.575459,16.029974,0.917804,-0.061616,0.328358
332904033,54.014393,-10.802195,14.675728,0.922798,-0.026729,0.347044
332914054,49.529964,-14.857874,12.946500,0.941683,0.021184,0.355344
332924074,43.375668,-19.094166,12.022550,0.965236,0.056946,0.332096
332934095,36.877403,-21.703276,11.831055,0.988254,0.051765,0.293886
332944116,35.571171,-22.781046,12.725810,1.008650,0.003601,0.256922
332954137,41.338120,-22.314404,13.564875,1.020614,-0.068529,0.241581
332964157,46.623795,-17.834419,13.870556,1.024270,-0.107837,0.234467
332974178,46.176380,-9.472239,16.151567,1.022690,-0.116762,0.232526
332984199,44.817932,-2.385757,19.385441,1.033773,-0.117599,0.240443
332994220,46.459255,1.201275,21.426403,1.044165,-0.114938,0.251787
333004239,53.484295,4.920554,23.654514,1.037985,-0.122373,0.269648
333014260,66.059784,9.790148,25.442829,1.011065,-0.127695,0.284609
333024280,78.800064,14.932872,26.452559,0.966716,-0.120907,0.274214
333044322,102.937828,14.517655,28.370533,0.866996,-0.112422,0.257756
333054343,115.228661,8.077003,28.709009,0.886668,-0.119614,0.287093
333064363,125.362221,1.349679,29.689001,0.922753,-0.136823,0.326830
333074384,132.559616,-1.817129,32.562233,0.951173,-0.160863,0.339072
333084405,138.924454,-3.326183,35.623123,0.957455,-0.159461,0.319076
333094425,144.205719,-5.184327,37.808933,0.971572,-0.109007,0.290903
333104446,146.322968,-6.097607,39.210567,0.999102,-0.007344,0.286623
333114467,146.796890,-6.796828,40.213211,1.015006,0.112441,0.293216
333124488,145.779419,-8.102831,41.182152,1.017316,0.195477,0.283079
333134508,143.686554,-10.197714,43.622795,1.024647,0.204452,0.253742
333144529,143.508545,-13.039077,46.156120,1.045030,0.170401,0.226677
333154550,147.130814,-13.406564,47.210499,1.064561,0.119365,0.219229
333164570,150.290390,-6.751096,47.179977,1.052150,0.083945,0.237275
333174591,149.173584,4.940006,47.771713,1.000934,0.076668,0.259358
333184613,145.403687,11.085226,49.105156,0.949055,0.070752,0.266676
333194634,142.372223,6.892506,49.650406,0.923076,0.077919,0.270979
333204655,139.890350,-1.648885,48.869972,0.931809,0.103537,0.276476
333214675,137.699570,-6.375546,46.834297,0.951329,0.140357,0.265025
333224696,135.394501,-5.189172,43.894951,0.973578,0.174885,0.244873
333234717,131.863998,0.193674,40.580116,0.988763,0.174522,0.226232
333244738,127.000549,6.946110,37.959854,0.979531,0.123465,0.206738
333254758,123.889946,12.177719,37.171219,0.939620,0.059682,0.204242
333264779,125.353790,14.137497,37.310509,0.925010,0.010616,0.221839
333274800,130.488266,12.567068,36.754581,0.935920,0.001141,0.245122
333284821,135.634338,10.145105,35.650852,0.962468,0.036533,0.252307
333294841,136.405701,10.007170,34.639454,0.994803,0.103826,0.245433
333304877,132.061584,13.583029,34.151337,1.020755,0.159027,0.242435
333314881,126.753181,19.911627,34.673622,1.029366,0.178525,0.258543
333324902,125.492577,25.370808,36.430336,1.007304,0.158065,0.282951
333334923,127.264992,27.422037,37.694679,0.979708,0.134827,0.315171
333344943,128.114899,25.855707,38.024853,0.953095,0.127749,0.339981
333354964,127.371315,23.120865,39.724400,0.934482,0.114001,0.341779
333364985,128.119980,20.005032,42.159462,0.912015,0.071079,0.335596
333375006,131.662338,17.311846,43.308064,0.914403,0.030642,0.321016
333385026,136.415619,14.768942,42.938820,0.933740,0.014157,0.300353
333395047,141.231812,13.776435,42.369553,0.959486,0.024534,0.276056
333405068,144.718094,15.673688,42.569572,0.982596,0.042450,0.254955
333415089,146.642151,19.153357,43.039108,0.991627,0.063132,0.259220
333425109,147.500809,22.360264,43.379929,0.985087,0.080652,0.273048
333435130,147.263672,24.260956,44.080837,0.962319,0.098623,0.290396
333445151,146.189087,24.672829,45.200958,0.931380,0.103693,0.297048
333455172,145.644287,22.424288,46.959469,0.906555,0.087816,0.294084
333465192,146.220688,16.937105,49.215252,0.909077,0.086715,0.298300
333475213,146.904449,13.212923,50.874321,0.928976,0.100232,0.292507
333485234,145.765915,14.065223,50.958427,0.944937,0.117408,0.280282
333495256,145.160995,15.707532,51.037693,0.968024,0.112489,0.278306
333505276,147.189316,13.472366,53.675423,0.994010,0.067020,0.272316
333515297,150.185974,11.539755,54.903671,0.999611,0.033422,0.252058
333525318,153.452667,14.789036,52.696724,1.006297,0.024038,0.229059
333535338,158.287766,18.417173,50.888779,1.011301,0.026405,0.213962
333545359,162.913147,19.568581,51.096012,1.003185,0.032546,0.214217
333555380,166.367737,19.094803,52.090824,0.987659,0.043924,0.217469
333565401,168.398148,19.124401,54.193115,0.989540,0.061044,0.218616
333575422,169.940979,20.096584,55.582134,0.991620,0.089754,0.209290
333605484,175.852936,26.795288,55.576183,0.981930,0.223434,0.243623
333615526,173.317352,28.180952,55.899044,0.959656,0.239825,0.270274
333625524,169.012222,26.740616,56.070545,0.939646,0.258262,0.282176
333635544,163.512268,22.473425,55.293972,0.932860,0.267836,0.280955
333645565,156.544342,17.416222,52.731483,0.929354,0.288050,0.270201
333655586,147.922043,15.506819,49.462585,0.931802,0.317877,0.264874
333665607,139.143250,16.638445,47.563301,0.930529,0.344167,0.267015
333675627,131.134232,18.743206,47.683662,0.927045,0.343892,0.272090
333685648,125.073860,19.326754,49.146580,0.927176,0.313209,0.265425
333695669,120.847916,16.853252,50.644035,0.928104,0.274494,0.259014
333705690,117.014755,14.546291,51.391724,0.947829,0.239205,0.260906
333715710,112.835182,15.933158,51.239620,0.984494,0.202741,0.261657
333725731,109.604080,20.830647,50.909321,1.008736,0.163143,0.257063
333735752,109.951759,26.531195,51.632622,1.009853,0.138865,0.255632
333745773,112.111343,31.014618,53.577343,0.972231,0.149169,0.266198
333755793,111.467644,32.490593,55.531170,0.926849,0.181972,0.295640
333765814,106.800621,31.157314,56.451935,0.875994,0.213551,0.321047
333775835,101.200722,29.307480,56.222359,0.854698,0.248562,0.352832
333785855,96.343719,26.210497,56.018742,0.871081,0.289100,0.369734
333795876,89.212524,19.041370,55.516441,0.898197,0.310730,0.366111
333805898,79.540482,10.871187,55.095512,0.924244,0.289887,0.336793
333815919,72.996033,8.778782,54.507732,0.938292,0.241748,0.290132
333825940,72.605347,12.472811,53.958717,0.938468,0.187884,0.280017
333835960,76.075630,15.904991,53.212746,0.946827,0.154804,0.311670
333845981,79.840454,14.852343,52.103077,0.944943,0.145039,0.343967
333856002,80.863297,11.977699,50.559059,0.944991,0.150955,0.355208
333866022,78.181725,9.927631,50.124462,0.953143,0.159944,0.354465
333876052,73.849533,10.205101,50.355492,0.941405,0.154073,0.350422
333886064,70.078354,10.831457,50.002895,0.927869,0.137109,0.346639
333896085,68.372551,10.619828,49.376236,0.922497,0.118788,0.348572
333906105,68.731911,9.190235,48.597763,0.921713,0.116480,0.355504
333916126,68.514122,7.989191,47.884453,0.927445,0.124869,0.367495
333926155,65.027283,8.341192,46.463379,0.929584,0.149155,0.376779
333936166,60.203037,9.180773,44.991150,0.930127,0.174867,0.378391
333946187,55.818802,8.256876,44.111443,0.921950,0.189391,0.378030
333956208,52.258530,7.484590,43.910919,0.911047,0.189669,0.368661
333966228,49.866833,6.452659,43.244587,0.904432,0.182546,0.353376
333976249,47.472778,4.827726,42.243626,0.899048,0.174190,0.346669
333986270,43.103558,5.362813,40.615833,0.896858,0.151909,0.362132
333996290,38.784424,7.813349,39.244865,0.890668,0.118786,0.382936
334006311,37.699165,8.543124,37.408867,0.871472,0.093311,0.400669
334016332,38.292721,6.625916,34.480705,0.857896,0.077381,0.413630
334026353,38.029984,3.341048,30.950933,0.854467,0.079804,0.413767
334036373,36.068169,-0.002676,28.485575,0.863979,0.079955,0.404002
334046394,32.862598,-4.059272,27.173164,0.896395,0.076514,0.398805
334056415,30.543575,-8.845593,27.424021,0.920684,0.050510,0.383173
334066435,31.759716,-11.384764,28.559841,0.922320,0.020637,0.365587
334076456,37.770649,-9.930375,29.106606,0.915091,-0.003603,0.352077
334086477,45.361580,-6.653740,28.420609,0.904149,-0.005308,0.345820
334096498,48.702034,-4.818218,26.290611,0.913794,0.008098,0.353792
334106518,47.269394,-7.038096,22.494545,0.941669,0.021405,0.360623
334116540,44.659103,-12.160605,18.298864,0.970664,0.031244,0.344184
334126561,41.397446,-14.924752,17.610367,0.997449,0.023132,0.311852
334136582,39.718258,-13.691234,19.282864,1.023670,-0.014034,0.269742
334146603,42.452541,-9.436646,20.522512,1.036729,-0.048463,0.251002
334156624,50.981434,-2.496844,20.816238,1.031170,-0.076704,0.267400
334166644,63.086044,4.804911,21.569775,1.001042,-0.070847,0.308648
334176665,70.331268,9.923092,25.044275,0.942384,-0.035273,0.340884
334186686,73.795120,8.766488,28.797489,0.903404,-0.012370,0.376100
334196706,79.844437,1.557065,31.591927,0.904313,-0.008610,0.393556
334216748,89.370140,-8.116326,38.064537,0.950874,-0.017800,0.328966
334226769,94.712456,-9.047410,39.868084,0.970391,-0.039748,0.284678
334236806,101.803635,-7.533084,40.558876,0.995126,-0.065195,0.246284
334246809,111.211105,-3.527670,41.381920,1.015751,-0.091476,0.235180
334256830,122.612305,2.634365,41.639122,1.020332,-0.087648,0.244468
334266850,131.732452,9.451865,41.532276,1.003433,-0.052754,0.269185
334276871,136.105286,14.282135,41.539894,0.972013,-0.000311,0.295290
334286892,136.656494,15.011620,42.190147,0.939478,0.048056,0.310130
334296912,137.994034,11.469237,43.737377,0.914865,0.070012,0.295020
334306933,142.433334,5.720433,46.299000,0.917059,0.065443,0.273041
334316954,149.176712,2.706252,49.663139,0.923330,0.056368,0.266607
334326975,156.185715,4.024146,52.823074,0.928958,0.083180,0.279355
334336995,162.740356,4.765118,56.733635,0.931584,0.129353,0.290647
334347016,168.000565,0.354817,62.594036,0.948436,0.162152,0.297418
334357036,169.836136,-7.502900,69.215309,0.998825,0.168163,0.300104
334367057,167.120789,-12.180811,73.141121,1.040892,0.181878,0.317050
334377078,160.247314,-8.421011,71.194267,1.060045,0.213105,0.338055
334387099,151.759857,1.692733,65.627480,1.054272,0.230526,0.339872
334397120,144.628815,10.939385,61.300510,1.023125,0.205050,0.332753
334407141,139.489227,14.272196,59.675976,0.988915,0.134893,0.343097
334417161,135.392029,12.831094,58.550770,0.944165,0.052250,0.344909
334427183,133.323486,10.064957,55.735241,0.902357,-0.005917,0.333612
334437204,134.593887,7.021625,51.401188,0.892832,-0.028410,0.304958
334447225,137.401550,3.809965,47.543072,0.905403,0.015867,0.276643
334457245,137.755188,2.881239,45.027199,0.929236,0.074145,0.266139
334467266,133.649155,5.741965,43.517082,0.954678,0.118014,0.258315
334477287,128.651672,10.397511,42.636803,0.965982,0.130032,0.254292
334487308,127.091278,14.822192,42.035118,0.955634,0.121473,0.259568
334497337,128.510086,17.648369,41.914909,0.950573,0.103274,0.278983
334507349,131.003082,18.284452,41.422863,0.952523,0.092495,0.305125
334517370,131.427765,18.527128,41.023224,0.952111,0.093554,0.324414
334527390,129.366760,20.307911,41.997246,0.929940,0.103158,0.345842
334537411,125.678909,21.968529,43.060043,0.914172,0.114116,0.365848
334547434,122.638626,20.876987,43.800507,0.901707,0.112209,0.378883
334557451,119.635902,16.380085,44.056328,0.889253,0.098646,0.393653
334567472,118.412384,10.149079,45.183872,0.888193,0.080406,0.415647
334577493,118.387413,2.807258,46.135674,0.898152,0.061052,0.407321
334587513,119.283813,-3.563409,45.007317,0.908107,0.043918,0.353455
334597534,121.267960,-4.903477,43.606838,0.934315,0.031553,0.311868
334607555,123.478203,-1.880318,43.587036,0.963331,0.028768,0.289524
334617576,127.161575,1.095761,43.114117,0.984124,0.038356,0.271752
334627597,130.974686,1.958349,41.788956,0.995690,0.070480,0.275213
334637617,133.165573,2.442948,41.893593,1.011631,0.101032,0.271981
334647638,134.070816,3.431003,43.546505,1.030560,0.122375,0.262111
334657658,135.586533,5.133111,45.453087,1.033549,0.121406,0.235374
334667679,137.604660,9.190563,46.393684,1.009437,0.113606,0.216325
334677700,140.310516,14.190121,47.800453,0.972667,0.107319,0.228854
334687721,142.101059,17.077572,49.429543,0.932052,0.116908,0.260162
334697741,140.428085,16.820606,49.457851,0.913141,0.150717,0.281959
334707762,137.456894,14.086790,49.163250,0.911635,0.201712,0.295913
334717783,133.742920,11.931414,49.193764,0.919172,0.247083,0.307429
334727804,129.168762,11.525334,50.097702,0.936068,0.260845,0.329107
334737826,123.668976,11.940981,51.114616,0.963665,0.242452,0.338929
334747847,118.835922,12.553350,51.425354,0.977976,0.212770,0.348565
334757867,116.221291,13.741148,51.048122,0.967621,0.178518,0.355874
334767888,114.878349,14.182478,49.564823,0.932245,0.165765,0.359727
334777909,113.088791,12.693366,47.523006,0.912252,0.181338,0.353807
334787929,110.174988,10.308649,46.161072,0.892194,0.203420,0.340368
334797950,106.929825,8.441326,45.380180,0.875793,0.213409,0.326145
334807971,103.869949,8.443547,44.443733,0.881439,0.215029,0.334913
334817992,101.099442,8.931913,43.397953,0.889904,0.208922,0.339942
334828012,98.848808,9.131407,43.247417,0.881779,0.188237,0.337140
334838033,97.191788,8.585752,43.611076,0.880527,0.151609,0.337433
334848054,97.921783,8.022805,43.910748,0.891536,0.117507,0.334335
334858073,100.565613,7.229992,43.784569,0.909702,0.112475,0.331596
334868094,101.991257,6.225252,43.302254,0.927355,0.125220,0.340360
334878115,100.547630,7.366463,42.992271,0.935451,0.132642,0.349645
334888135,98.892242,9.085518,42.698608,0.939639,0.134096,0.357675
334898156,98.922356,8.249560,43.019138,0.943107,0.137423,0.370965
334908177,99.451416,4.753167,43.871635,0.945221,0.133606,0.377021
334918198,99.920670,2.351210,44.464535,0.945741,0.127443,0.357957
334928218,101.396767,2.532449,44.681595,0.951852,0.129763,0.338681
334948260,103.212692,2.060505,46.603172,0.947565,0.171868,0.327923
334958280,100.279968,2.063268,47.113220,0.941492,0.194607,0.333153
334968301,97.439713,2.294068,47.835663,0.933517,0.184686,0.331538
334978322,96.210381,1.763471,48.698837,0.920444,0.147798,0.321914
334988342,95.782181,-0.409777,49.100327,0.925471,0.111826,0.300033
335008384,95.943436,-2.112816,48.338871,0.980973,0.116983,0.296026
335018405,94.322624,2.433549,47.783249,0.970832,0.134645,0.296899
335028426,93.124367,5.778522,46.966496,0.940691,0.157581,0.304865
335038447,92.236763,6.052180,45.342728,0.919244,0.163040,0.309216
335048468,90.177467,5.293277,43.987938,0.927409,0.150051,0.320126
335058489,87.560608,5.356153,43.566082,0.943395,0.121960,0.326301
335068510,86.892708,5.493648,43.799622,0.946269,0.107746,0.333359
335078530,87.454178,4.626737,43.918030,0.945319,0.119482,0.340539
335088551,87.678726,2.619973,43.948677,0.943573,0.137744,0.340921
335098572,88.073051,0.856532,44.526314,0.937639,0.169764,0.344074
335108593,86.703445,-0.312670,44.796944,0.944369,0.196537,0.353734
335118613,81.651497,-0.582314,43.952209,0.947847,0.200219,0.365747
335128634,75.811180,0.380046,43.127590,0.932581,0.181228,0.380542
335138655,74.011841,-1.579558,42.731850,0.918204,0.134113,0.391023
335148676,75.931549,-7.069081,42.371880,0.907148,0.070511,0.372712
335158709,79.398720,-12.134809,40.887375,0.933376,0.050990,0.349939
335168716,80.195488,-13.078859,38.947113,0.970922,0.075192,0.345461
335178736,77.278275,-9.945264,38.037083,0.965545,0.109817,0.356972
335188757,74.557152,-4.044168,39.377953,0.923709,0.105968,0.368352
335198778,74.478401,-1.884493,41.616295,0.857111,0.089861,0.373097
335208799,75.944794,-8.558739,42.571266,0.804395,0.086989,0.370915
335218819,76.603790,-19.702511,41.281639,0.818344,0.071577,0.386439
335228840,75.832756,-27.243183,38.079758,0.889806,0.048893,0.398074
335238861,72.787254,-27.972380,33.289032,0.944792,0.015321,0.382911
335248881,70.315140,-24.430126,29.282179,0.927814,-0.030746,0.356582
335258902,71.481506,-21.437637,26.680187,0.868764,-0.025386,0.320235
335268923,75.906616,-25.151562,24.547119,0.864190,0.031378,0.293694
335278944,78.709923,-34.807732,22.630180,0.915574,0.079609,0.287298
335288964,76.371429,-40.947170,22.410130,0.976552,0.107739,0.269485
335298985,71.263634,-39.407600,22.005976,1.026125,0.124985,0.235836
335309006,67.789886,-33.552345,21.387136,1.047735,0.123852,0.199767
335319027,65.034431,-25.949499,20.883030,1.038417,0.119334,0.186262
335329047,60.817509,-18.269602,19.887249,1.022104,0.115274,0.196009
335339068,54.889778,-13.233622,18.114784,1.007096,0.131048,0.227999
335349090,47.645515,-11.708315,15.700557,0.994924,0.159727,0.285396
335359111,40.304512,-13.496766,13.427334,0.987454,0.170949,0.333866
335369132,37.554619,-15.547661,11.027739,0.987841,0.148570,0.341155
335379152,40.970718,-13.727448,8.805757,0.987371,0.123624,0.319871
335389173,43.654655,-13.244307,6.621125,0.975438,0.123394,0.288649
335399194,38.102985,-16.174744,3.603906,0.966754,0.136136,0.267904
335409214,25.926416,-17.351118,0.986264,0.987147,0.133990,0.265522
335419235,14.310568,-13.663004,-0.467058,1.014361,0.123133,0.257798
335429256,8.215149,-8.672523,-2.329616,1.019035,0.119257,0.260960
335439276,6.717447,-5.191758,-5.978206,0.998468,0.140742,0.289584
335449297,4.621817,-3.747604,-9.940253,0.960609,0.162245,0.310253
335459318,-0.707512,-3.455112,-12.017555,0.941228,0.174691,0.326943
335469337,-7.080693,-4.240155,-12.181262,0.923135,0.183697,0.324551
335479358,-12.601757,-5.952945,-11.741159,0.907292,0.184281,0.322063
335489379,-17.436789,-7.346957,-10.986650,0.916037,0.173656,0.333322
335499399,-21.682457,-8.726711,-11.196579,0.939032,0.137776,0.335972
335509420,-25.276548,-9.043428,-12.509544,0.960164,0.095991,0.325181
335519441,-28.152311,-8.098889,-13.463530,0.960470,0.076766,0.314781
335529462,-30.434946,-6.668510,-14.620600,0.952368,0.082309,0.308121
335539482,-31.790281,-5.770893,-15.586199,0.948617,0.113364,0.308384
335549503,-33.450275,-5.784965,-16.259104,0.945729,0.128551,0.309876
335559524,-36.414940,-5.250421,-16.404482,0.957952,0.114825,0.302977
335569544,-39.774876,-4.365972,-16.699526,0.964255,0.080152,0.286739
335579565,-40.595654,-2.480659,-17.517790,0.963985,0.060626,0.283985
335589586,-39.436523,-0.535887,-17.528515,0.953292,0.058058,0.309967
335599607,-37.912636,-0.627997,-16.610680,0.930908,0.042024,0.340527
335609627,-36.862251,-1.799016,-15.733905,0.904651,0.029121,0.342444
335619648,-36.008240,-3.729617,-14.154022,0.909869,0.022228,0.333071
335629669,-35.109829,-6.678674,-12.405914,0.939834,0.023298,0.316346
335639689,-35.261017,-8.183053,-11.458662,0.971327,0.030964,0.307044
335649710,-36.625843,-6.600838,-11.251619,0.981426,0.046977,0.298428
335659732,-37.089420,-3.924647,-10.488765,0.984470,0.066557,0.289184
335669753,-36.186455,-3.575180,-9.124725,0.974112,0.071538,0.300903
335679774,-34.711178,-4.290725,-8.693500,0.953216,0.056164,0.325095
335689795,-33.662708,-4.474092,-8.792784,0.933639,0.028852,0.340109
335699815,-31.750893,-5.920046,-9.171753,0.939556,-0.014763,0.347249
335709836,-28.841469,-8.674603,-10.486567,0.960070,-0.071771,0.347870
335719857,-26.053455,-10.091596,-12.380704,0.977602,-0.110969,0.334301
335729877,-23.654470,-9.197392,-13.725527,0.986669,-0.105961,0.314660
335739898,-20.714798,-6.722047,-13.598040,0.967691,-0.059282,0.300843
335749919,-19.048847,-4.108400,-12.607669,0.934671,-0.009545,0.302559
335759939,-19.560326,-3.195419,-11.598995,0.916813,0.031453,0.312105
335769960,-20.123648,-4.714828,-11.059958,0.907337,0.070632,0.314626
335779980,-19.638613,-6.478410,-10.620149,0.912123,0.098235,0.309152
335790000,-19.534294,-7.162667,-10.848851,0.926466,0.104507,0.298462
335800021,-19.963591,-6.721970,-11.988721,0.928643,0.088719,0.288229
335810042,-19.237255,-6.130289,-13.198539,0.936664,0.074325,0.281123
335820063,-18.462839,-5.523160,-13.768806,0.947735,0.072006,0.285957
335830083,-18.595007,-3.911491,-13.312219,0.959847,0.064143,0.282651
335840104,-19.164108,-2.359762,-11.770426,0.973369,0.050529,0.268841
335850125,-18.958076,-2.009394,-9.745870,0.973861,0.043679,0.255609
335860146,-17.365879,-1.112800,-7.336308,0.973051,0.048541,0.245548
335870166,-15.526040,1.091133,-4.411835,0.968596,0.083317,0.254515
335880187,-13.928604,3.523352,-1.363827,0.953560,0.119405,0.271770
335890208,-13.021610,3.660519,1.158364,0.946788,0.131206,0.275993
335900229,-10.433915,1.576470,2.877465,0.943063,0.121842,0.259291
335910249,-7.899579,-1.633110,3.104854,0.966794,0.096246,0.248568
335920270,-10.007825,-4.444109,1.859039,1.014742,0.070720,0.247126
335930291,-14.534891,-5.718145,-0.421009,1.059078,0.036175,0.251741
335940311,-17.698946,-3.071096,-2.029568,1.075590,0.001343,0.234669
335950332,-16.296642,1.046782,-3.110774,1.070322,-0.014584,0.215096
335960354,-10.793698,3.807912,-4.816365,1.045154,0.000103,0.227173
335970375,-5.623750,5.551238,-5.634719,1.010882,0.034452,0.266517
335980396,-4.877245,5.839527,-5.396929,0.977644,0.064026,0.303176
335990416,-5.605690,4.183731,-4.231797,0.942350,0.084517,0.315313
336000437,-5.012918,1.508323,-3.014885,0.920409,0.090426,0.305453
336010458,-3.602153,-1.776083,-2.321714,0.926726,0.080302,0.280273
336020479,-2.525553,-4.072282,-2.007829,0.949962,0.067923,0.255598
336030499,-1.566053,-4.194511,-1.542735,0.972606,0.039693,0.231415
336040520,0.234952,-2.341099,-0.659337,0.988096,0.011680,0.222291
336050541,2.433983,0.895316,0.265411,1.001063,-0.013726,0.215493
336060562,5.775965,4.966939,1.454866,0.990187,-0.013137,0.198839
336070583,9.327609,8.521267,2.048975,0.966179,0.014707,0.192243
336090623,8.710578,10.300735,2.874799,0.959588,0.082832,0.219492
336100643,6.998977,10.211809,4.655451,0.967330,0.089293,0.221316
336110664,7.007201,11.474218,6.208327,0.970188,0.086937,0.229186
336120685,8.319438,13.297398,6.531747,0.971054,0.086842,0.242850
336130705,8.383007,14.072771,6.880968,0.964402,0.084703,0.261028
336140726,6.313981,12.812988,7.202754,0.960217,0.072932,0.263462
336150747,4.409668,10.732062,7.249796,0.969362,0.059391,0.250530
336160768,4.528676,9.637384,7.082316,0.987148,0.051007,0.237619
336170789,5.228712,11.019876,6.572834,0.999029,0.052068,0.232416
336180809,5.978092,13.907380,6.320573,0.991605,0.056588,0.236877
336190830,5.903065,15.093016,6.015296,0.977769,0.060340,0.248034
336200851,5.337158,14.196425,5.578620,0.974588,0.055683,0.252966
336210871,4.816051,13.330096,4.913025,0.982998,0.044052,0.250392
336220892,4.509113,13.846762,3.924511,0.995206,0.043309,0.248666
336230913,5.103343,15.351005,3.522382,0.991075,0.032917,0.240346
336240933,6.216608,16.839844,3.664805,0.975894,0.027806,0.233358
336250954,6.580025,16.778557,3.296398,0.962610,0.039780,0.222783
336260975,5.784577,15.684418,2.572175,0.966422,0.064152,0.222245
336270997,3.849528,14.667349,2.024219,0.988113,0.078276,0.228478
336281018,1.507006,15.748335,1.279328,0.986426,0.076527,0.235218
336291038,-0.512140,18.744480,0.682512,0.977192,0.057593,0.245139
336301059,-1.026164,20.204294,0.761256,0.968607,0.030546,0.244025
336311080,-0.483714,18.197090,0.423790,0.972259,0.014699,0.228705
336321100,0.391827,17.131712,-0.739897,0.998315,0.021997,0.207895
336331121,1.124424,19.791071,-1.296545,1.013450,0.034891,0.206807
336341142,0.642344,24.229868,-2.241714,1.001891,0.058696,0.222003
336351163,-0.769212,27.271011,-3.026070,0.992950,0.075198,0.241285
336361183,-2.350654,27.241974,-3.029154,0.986614,0.067517,0.250225
336371204,-3.508460,26.406818,-3.202326,0.998833,0.039907,0.239617
336381225,-2.961599,27.682922,-3.954319,1.013821,0.026628,0.224722
336391244,-2.029150,31.573416,-4.528900,1.017127,0.028592,0.225823
336401265,-1.550270,36.118126,-4.734944,1.010334,0.026548,0.231617
336411286,-1.241344,39.659584,-5.167285,0.994760,0.021890,0.235912
336421306,-0.583675,41.741615,-5.159060,0.985822,0.023550,0.245119
336431327,0.484698,43.276169,-4.848733,0.976535,0.028568,0.264129
336441348,0.882325,44.567940,-4.868240,0.949476,0.039111,0.279140
336451369,0.943632,44.643936,-4.777362,0.920142,0.042167,0.288005
336461390,0.789611,43.944717,-4.958360,0.906548,0.050299,0.300039
336471410,0.499472,44.187996,-5.398226,0.908645,0.059282,0.311087
336481431,0.334955,46.042629,-5.566321,0.918342,0.064701,0.324042
336491451,0.490503,47.866680,-5.523528,0.925717,0.061049,0.338511
336501472,-0.039593,48.946453,-5.490011,0.928683,0.054721,0.351877
336511493,-0.324664,50.664539,-5.306611,0.928705,0.044732,0.357422
336521514,0.163759,51.302658,-5.128120,0.919137,0.051444,0.358025
336531535,0.832895,51.013329,-4.965374,0.908169,0.066144,0.376033
336541555,0.881572,51.864742,-4.570401,0.896262,0.078285,0.391323
336551576,0.472956,53.111572,-4.659867,0.888269,0.096382,0.406229
336581639,-4.244578,52.568062,-5.400249,0.874834,0.051441,0.416699
336591660,-2.846054,53.463493,-5.929862,0.870719,0.036725,0.440644
336601681,-0.407330,56.228130,-5.722625,0.838928,0.039837,0.476986
336611702,1.769380,57.503170,-5.725283,0.790633,0.061421,0.512326
336621722,1.944685,54.052200,-5.951914,0.753394,0.092917,0.554403
336631743,-0.648979,47.882980,-5.286259,0.746075,0.109061,0.577888
336641764,-3.896000,41.744766,-4.508966,0.761426,0.095027,0.560271
336651784,-4.602248,37.717072,-4.362614,0.791569,0.065870,0.524314
336661805,-2.568595,36.027866,-4.574685,0.826906,0.047162,0.506700
336671826,-1.082004,35.600616,-5.301799,0.860660,0.050147,0.510382
336681847,-1.141308,37.804573,-5.958601,0.873012,0.063386,0.526022
336691867,-1.880115,42.061420,-6.353113,0.856860,0.071193,0.538222
336701887,-2.164346,45.101845,-6.582357,0.804490,0.080743,0.540128
336711907,-2.118260,45.041065,-6.430287,0.768914,0.094502,0.553593
336721928,-2.805028,43.551949,-6.377904,0.758497,0.109184,0.570330
336731949,-4.082358,42.443581,-5.864255,0.759005,0.107195,0.573628
336741970,-5.282614,41.624035,-5.214340,0.767097,0.085898,0.570221
336751990,-5.557545,41.517738,-5.486391,0.768158,0.072631,0.578350
336762011,-5.086482,42.854729,-6.207386,0.763150,0.070460,0.595448
336772032,-4.112793,44.343369,-6.780013,0.743271,0.075501,0.620754
336782053,-3.597434,44.509911,-7.286930,0.714558,0.083275,0.627763
336792073,-3.631921,43.004845,-7.635684,0.700476,0.093912,0.632307
336802094,-4.732033,40.740646,-7.945077,0.706124,0.094208,0.634531
336812114,-5.600387,39.540554,-7.800156,0.721537,0.099199,0.625498
336822135,-5.385163,39.555840,-7.192356,0.734269,0.096806,0.623425
336832156,-5.259761,40.696037,-6.752535,0.739417,0.090455,0.638265
336842177,-4.388833,42.990700,-6.746144,0.735121,0.091705,0.675915
336852198,-3.081815,43.734200,-7.274912,0.715489,0.100359,0.697187
336862218,-2.296773,40.997192,-7.445947,0.706746,0.118138,0.717006
336872239,-2.379842,37.257694,-7.502721,0.704193,0.121194,0.730801
336882260,-2.627290,34.810524,-7.422327,0.701618,0.107019,0.731992
336892282,-2.127266,32.864525,-6.951986,0.704650,0.089279,0.730886
336902303,-1.930993,31.237993,-6.540565,0.699269,0.081104,0.723813
336912323,-2.435743,29.824652,-6.642016,0.709277,0.079296,0.721533
336922344,-2.376417,29.003725,-6.641694,0.715992,0.089575,0.719677
336932365,-1.858611,29.428923,-6.630830,0.715262,0.099336,0.706480
336942386,-1.612822,30.295300,-6.389748,0.706548,0.112337,0.696113
336952406,-1.884210,31.496458,-6.358329,0.696787,0.120020,0.704536
336962427,-2.443728,32.895535,-6.218233,0.693101,0.120360,0.718709
336972448,-2.746266,33.595089,-6.140392,0.673551,0.107251,0.731057
336992489,-3.016574,35.389103,-6.109542,0.626087,0.094254,0.751575
337002510,-2.760549,34.005562,-6.094961,0.617252,0.091574,0.766100
337012529,-2.825129,31.877438,-6.061980,0.611567,0.089670,0.768259
337022550,-3.298966,29.719425,-5.675393,0.607174,0.086576,0.760059
337032571,-3.102868,27.773712,-5.157012,0.616219,0.081702,0.760347
337042591,-2.632281,26.967712,-4.977019,0.631658,0.078013,0.761219
337052612,-2.555843,27.226061,-4.993086,0.640001,0.087542,0.759926
337062633,-2.797483,27.712807,-4.793618,0.641548,0.090512,0.745346
337072654,-2.887944,28.199316,-4.823858,0.648237,0.084887,0.737794
337082674,-2.325028,28.761194,-5.011544,0.656065,0.072595,0.743415
337092695,-0.374039,30.659828,-4.693092,0.655899,0.063186,0.753142
337102716,1.562827,32.482609,-4.054492,0.634731,0.064321,0.765178
337112737,2.446103,32.953148,-3.924580,0.616198,0.071059,0.776095
337122757,2.612124,32.466522,-4.016813,0.601388,0.083968,0.790629
337132778,2.551439,31.934654,-3.726349,0.592631,0.098767,0.801732
337142799,2.383783,31.205242,-3.480589,0.586951,0.096097,0.798982
337152820,2.289483,30.125896,-3.768341,0.590135,0.086852,0.787974
337162840,2.407069,29.015854,-4.301473,0.596736,0.087414,0.778549
337172861,2.741448,28.559605,-4.120766,0.601541,0.094159,0.788179
337182882,3.548116,28.391819,-3.837297,0.603799,0.104321,0.811237
337192902,3.793437,28.969376,-3.580702,0.590378,0.114165,0.833454
337202925,3.293327,28.954809,-3.134993,0.565403,0.117005,0.846541
337212945,2.834921,27.526318,-3.038708,0.550130,0.108719,0.854146
337232987,3.756267,23.375706,-2.676170,0.553219,0.110203,0.863989
337243007,4.119095,21.779341,-2.464130,0.562792,0.119067,0.874000
337253028,3.967823,20.548517,-1.669504,0.559717,0.122072,0.879780
337263049,3.373484,19.302628,-1.419983,0.561182,0.123353,0.883422
337273070,2.628232,18.649731,-1.154630,0.553366,0.125116,0.884079
337283090,1.927220,17.783859,-1.148437,0.537862,0.124436,0.883971
337293111,2.182127,16.233011,-1.347001,0.530251,0.116208,0.890174
337303132,2.632733,14.271408,-1.866645,0.530420,0.116236,0.894363
337313153,3.237080,12.568239,-2.067744,0.536221,0.127102,0.896137
337323172,3.464391,11.382498,-1.702688,0.533781,0.135544,0.898599
337333193,3.115284,10.729355,-1.227059,0.529787,0.138394,0.906194
337343214,1.959199,9.818412,-0.912602,0.522125,0.139655,0.913411
337353234,1.135035,7.994987,-0.843613,0.512104,0.139988,0.913517
337363255,0.704096,5.684634,-1.097147,0.507928,0.137940,0.899118
337373276,0.806329,3.313143,-1.065215,0.516219,0.142318,0.891313
337383296,1.031958,1.777648,-0.974074,0.526401,0.139584,0.887404
337393317,0.878890,0.804982,-0.773905,0.527658,0.137159,0.882517
337403338,0.542272,-0.000475,-0.938165,0.532221,0.136133,0.876185
337413358,0.252287,-0.501890,-0.981178,0.533009,0.140693,0.877975
337423379,-0.631390,-1.033269,-1.187212,0.529639,0.148253,0.882622
337433400,-0.967904,-2.355449,-1.076726,0.523200,0.143215,0.878610
337443420,-0.816748,-3.708318,-0.665218,0.520294,0.142667,0.872585
337453441,-0.925563,-5.365099,-0.495215,0.530571,0.145552,0.864260
337463462,-1.351749,-6.565433,-0.033714,0.544329,0.138215,0.861508
337473483,-0.712469,-6.869871,0.281641,0.555285,0.125051,0.854048
337483503,-0.347254,-6.900549,0.370289,0.557839,0.125008,0.853339
337493524,-0.103970,-6.931155,0.383689,0.544709,0.127296,0.865060
337503545,0.548638,-7.691771,0.425114,0.536230,0.121240,0.867415
337513567,1.169294,-9.394821,0.513385,0.543738,0.121421,0.857636
337523588,1.732291,-10.063978,0.936326,0.554198,0.125806,0.855309
337533609,1.763766,-9.957493,1.164533,0.552535,0.124378,0.856037
337543629,1.914983,-11.021590,1.453875,0.539926,0.121819,0.854327
337553650,1.805588,-12.678439,1.471517,0.541815,0.126533,0.854484
337563671,1.743837,-13.316816,1.533540,0.554620,0.126983,0.842556
337573691,2.124352,-13.104327,1.530422,0.561169,0.128044,0.851517
337583712,2.368598,-13.180416,1.818116,0.563038,0.119103,0.854336
337593733,2.246658,-14.046638,2.155075,0.560813,0.113008,0.839075
337603754,1.896597,-14.745487,2.402205,0.558346,0.117745,0.833555
337613775,1.515960,-15.216358,2.496988,0.559774,0.128107,0.832205
337623795,1.134709,-15.960867,2.561562,0.559792,0.128064,0.826379
337633815,1.406726,-16.721207,2.484012,0.569775,0.125561,0.828658
337643835,1.832689,-16.919127,2.633299,0.579598,0.124891,0.832013
337653856,2.183695,-16.721704,2.874207,0.576207,0.119361,0.841866
337663877,2.502553,-17.542732,3.146797,0.571756,0.113390,0.838970
337673898,2.651343,-18.759094,2.872547,0.579392,0.111622,0.837219
337683918,2.620113,-19.336693,2.934279,0.581721,0.121806,0.838427
337693939,2.723811,-20.552956,2.797505,0.581380,0.121570,0.830232
337703960,2.812253,-22.179562,2.844074,0.574620,0.118318,0.820559
337713980,3.038706,-23.836542,3.209583,0.585955,0.119949,0.817351
337724001,3.113468,-24.657457,3.270732,0.604712,0.116688,0.808774
337734022,3.372465,-24.186478,3.176882,0.610965,0.118157,0.798065
337744043,3.402999,-23.958519,3.100249,0.603716,0.122127,0.802531
337754063,3.022329,-24.702959,3.317183,0.599166,0.123501,0.806492
337764084,2.869008,-25.432487,3.334285,0.592091,0.122964,0.793335
337774105,3.110666,-26.451160,3.394342,0.598877,0.125588,0.792088
337784125,3.003480,-26.831110,3.380287,0.605565,0.134988,0.794609
337794146,2.457843,-26.541664,3.704165,0.608702,0.138054,0.796427
337804167,1.818988,-27.726593,4.212991,0.612759,0.139200,0.786979
337814188,1.407547,-28.987787,4.583016,0.614694,0.132365,0.778673
337824210,1.133672,-29.853863,4.951613,0.625505,0.123261,0.777735
337834231,1.206871,-31.054911,4.784585,0.634399,0.119822,0.774368
337844251,1.388186,-31.556744,4.722723,0.645120,0.114835,0.762652
337854272,2.087918,-31.648502,4.839337,0.650222,0.113443,0.757238
337864293,2.453092,-31.542402,4.851674,0.655412,0.119945,0.759407
337874313,2.056171,-32.286953,4.794475,0.660378,0.122215,0.755783
337884334,1.293766,-32.924866,4.541901,0.656129,0.129144,0.747137
337894355,0.761353,-33.213196,4.622439,0.652476,0.127523,0.742389
337904376,0.697219,-34.490173,4.365115,0.655939,0.125586,0.733872
337914397,0.587205,-35.721550,4.016682,0.669766,0.121292,0.723447
337924417,0.647810,-35.584846,3.894195,0.687378,0.114588,0.715437
337934441,0.634316,-34.581551,3.862877,0.690975,0.111444,0.716764
337944457,0.529391,-34.262123,4.107164,0.686289,0.115724,0.719062
337954478,0.074835,-34.565506,4.674691,0.670133,0.119206,0.713270
337964499,-0.535307,-35.629070,4.680374,0.668748,0.123390,0.709038
337974520,-1.191371,-36.829418,4.671303,0.679849,0.121190,0.705131
337994561,-0.889835,-37.696278,4.410788,0.691487,0.102097,0.686254
338004582,0.020792,-38.745934,4.465744,0.702187,0.095654,0.674732
338014602,1.313334,-39.324570,4.761114,0.724151,0.099815,0.665389
338024623,1.999697,-38.504211,4.922678,0.743717,0.102197,0.657136
338034644,2.017975,-36.816875,4.920943,0.747253,0.107813,0.659483
338044665,1.594262,-35.797997,4.968938,0.742214,0.112259,0.658681
338054685,0.618718,-36.359768,4.611270,0.738793,0.115229,0.658814
338064706,-0.006533,-36.860981,4.372753,0.736789,0.115445,0.659344
338074727,-0.524735,-37.088646,4.163629,0.730513,0.109129,0.655526
338084747,0.049598,-38.670158,4.008355,0.726253,0.104268,0.655171
338094768,0.715733,-40.479652,4.111614,0.732266,0.102107,0.646310
338104789,0.959603,-40.890144,4.460574,0.742993,0.096732,0.631320
338114810,1.523276,-40.677731,4.638891,0.752077,0.091765,0.618863
338124831,1.934879,-40.252415,4.711515,0.758254,0.089268,0.614194
338134853,2.057683,-39.614067,4.709970,0.762329,0.092445,0.608189
338144874,2.072041,-39.568581,4.466032,0.766106,0.101500,0.607413
338154894,1.584630,-39.173107,4.058007,0.762148,0.106150,0.611898
338164915,0.763632,-39.385162,4.186395,0.757619,0.107471,0.608759
338174936,0.549074,-40.980976,4.509518,0.756303,0.101368,0.594232
338184956,0.928101,-42.318871,4.858318,0.764645,0.096254,0.585049
338194977,1.826501,-42.562660,5.308758,0.777678,0.087976,0.576836
338204998,2.087368,-41.893890,5.610858,0.786225,0.082430,0.558918
338215019,2.346156,-41.377346,5.440783,0.789910,0.082281,0.546018
338225039,2.604729,-40.724041,5.148687,0.797898,0.080914,0.550093
338235060,2.694621,-40.693878,4.782291,0.806937,0.089758,0.556277
338245081,2.098384,-42.152763,4.635876,0.811223,0.093994,0.545895
338255100,2.050830,-43.535980,4.789914,0.814704,0.089379,0.520101
338265121,2.246492,-44.189903,4.575720,0.823120,0.088612,0.507241
338275142,1.971545,-43.475506,3.906743,0.842236,0.099626,0.506743
338285162,0.877597,-42.228214,3.533036,0.862191,0.105713,0.507203
338295183,-0.110510,-41.148266,3.082493,0.866992,0.095557,0.499674
338305204,-0.656226,-39.977341,2.963677,0.857753,0.082615,0.481140
338315224,0.302630,-39.081371,2.772639,0.852701,0.070751,0.469001
338325245,1.915540,-38.216339,2.652799,0.857485,0.075285,0.475554
338335266,2.449878,-36.711937,2.494914,0.857258,0.085894,0.479653
338345287,1.873666,-35.875351,2.513778,0.853037,0.095773,0.475535
338355307,0.946988,-36.406384,2.993719,0.848878,0.093874,0.456583
338365328,0.642121,-37.910824,3.515523,0.855484,0.092729,0.438067
338375349,0.671318,-38.640499,3.546462,0.871572,0.080741,0.427358
338385369,1.219275,-38.230560,3.496163,0.886578,0.070436,0.420269
338395390,2.770726,-37.046387,3.056524,0.894017,0.065502,0.409075
338405411,4.534445,-35.300140,2.188101,0.896367,0.074506,0.398457
338415432,5.733991,-34.009541,1.126359,0.891055,0.096217,0.389316
338425452,5.537281,-33.325340,1.051038,0.887540,0.105576,0.390306
338435473,4.110264,-32.624722,1.320338,0.894359,0.098374,0.391872
338445495,2.179858,-32.303810,1.350072,0.902281,0.090946,0.389624
338455516,0.566739,-32.454559,1.073088,0.907317,0.083492,0.377886
338465537,-0.317068,-32.514812,0.607586,0.910063,0.081348,0.364632
338475558,-0.044029,-32.363144,0.361564,0.917103,0.085308,0.346988
338485578,1.445721,-32.364479,0.258724,0.925102,0.094231,0.336776
338495599,1.688821,-31.316044,-0.292649,0.926754,0.106377,0.330496
338505619,0.506379,-29.171665,-0.377030,0.920774,0.107891,0.325888
338515646,-1.114854,-27.087440,0.136238,0.917737,0.099741,0.327208
338525661,-2.010478,-26.691338,0.340806,0.920982,0.095256,0.318892
338535682,-2.439615,-28.044003,0.101589,0.932378,0.100512,0.312923
338545702,-3.064764,-29.031540,0.122553,0.949566,0.102382,0.304657
338555723,-4.050238,-28.483217,0.617161,0.965921,0.096972,0.296445
338565750,-4.929057,-26.825497,0.637568,0.978854,0.083468,0.296469
338575763,-5.094049,-24.211012,-0.018812,0.969794,0.074863,0.297931
338585784,-4.105312,-21.628141,-1.156343,0.945308,0.068976,0.290517
338595805,-2.388852,-20.657154,-2.084616,0.926301,0.066558,0.294950
338605825,-1.085419,-22.041809,-2.535162,0.926729,0.074692,0.311092
338615846,-1.576262,-24.200020,-2.620778,0.940402,0.087993,0.312903
338625867,-3.066788,-25.581806,-2.059526,0.954733,0.092596,0.298403
338635888,-4.144138,-25.930168,-1.304343,0.960888,0.083747,0.272664
338645908,-4.262659,-24.759441,-1.045520,0.964496,0.077372,0.255991
338655929,-3.528519,-22.464657,-1.022845,0.965333,0.083890,0.251391
338665950,-2.459479,-20.276501,-0.850271,0.960696,0.093708,0.263112
338675971,-3.246002,-18.831509,-0.449455,0.954117,0.094602,0.272161
338685991,-4.431638,-18.632862,-0.440552,0.947617,0.086694,0.274546
338696012,-5.511432,-18.631954,-0.493221,0.943451,0.075062,0.271152
338706033,-5.769638,-18.190950,-0.628787,0.949444,0.072385,0.266301
338716054,-5.875107,-17.309254,-0.796415,0.958580,0.084957,0.258798
338726074,-6.254219,-15.667410,-1.313104,0.967239,0.103211,0.254523
338736095,-7.039778,-13.310418,-1.095998,0.971056,0.103178,0.257829
338746116,-8.524049,-10.587978,-0.858642,0.972428,0.086263,0.266354
338756138,-9.479527,-8.671900,-1.127387,0.974358,0.072328,0.284692
338776179,-4.918052,-6.821692,-2.063068,0.963678,0.061627,0.270500
338786200,-2.043323,-6.292137,-2.085610,0.954578,0.073743,0.263050
338796221,-2.102892,-5.987974,-1.902602,0.951982,0.084200,0.266586
338806241,-3.577526,-6.290627,-1.677697,0.962013,0.086858,0.276652
338816262,-4.154634,-7.125942,-1.093492,0.979725,0.077519,0.282504
338826283,-3.408739,-7.491243,-0.702714,0.994436,0.070825,0.269920
338836304,-1.900388,-6.489115,-0.395258,0.996475,0.069772,0.254648
338846325,-0.178507,-4.423227,-0.425650,0.988664,0.070772,0.250759
338856345,0.873344,-2.463263,-0.664116,0.971238,0.078217,0.260767
338866366,1.331047,-1.612382,-0.668430,0.950926,0.088460,0.273463
338876387,1.482690,-2.250883,-0.470913,0.944449,0.095332,0.277365
338886406,0.752266,-3.557355,0.008256,0.948017,0.100875,0.269697
338896427,-0.220949,-4.498805,0.443233,0.951705,0.101660,0.259885
338906447,-0.812552,-4.178967,0.660779,0.959883,0.098202,0.252508
338916468,-0.976606,-3.281757,1.072576,0.961393,0.088496,0.249867
338926489,-0.975607,-3.084064,1.239984,0.966201,0.080587,0.250332
338936510,-0.702906,-3.373182,1.116274,0.971801,0.075344,0.242950
338946531,-0.400988,-3.647268,0.672357,0.980016,0.076321,0.243731
338956551,-0.645960,-3.905623,0.354511,0.991155,0.090559,0.243877
338966572,-1.027860,-3.890304,-0.114910,0.980910,0.099423,0.238084
338976593,-0.753228,-4.012015,0.187832,0.958291,0.099430,0.242653
338986613,-1.238662,-4.285028,0.618436,0.946092,0.091534,0.259927
338996634,-1.864148,-5.743750,0.776977,0.945855,0.076453,0.266787
339006655,-1.075650,-8.465151,1.504861,0.953583,0.066229,0.255821
339016676,0.365761,-10.503311,1.663339,0.975232,0.070469,0.231544
339026696,1.382534,-11.233933,1.488631,1.002556,0.076825,0.209112
339036717,2.219890,-10.611410,1.466386,1.028970,0.083380,0.187036
339046738,2.343694,-8.498724,1.021578,1.049564,0.082883,0.186280
339056759,2.030801,-4.211828,0.654246,1.045374,0.082942,0.185703
339066781,2.295864,0.196172,0.267131,1.018848,0.078485,0.195197
339076802,3.572471,0.301379,0.043932,1.003598,0.072032,0.204061
339086822,4.206324,-1.675489,-0.263791,0.997801,0.075238,0.206723
339096843,3.976966,-1.964205,-0.459835,1.005569,0.083714,0.209806
339106864,3.070195,0.468933,-0.165688,1.001014,0.096917,0.210756
339116885,2.437268,3.145022,0.049947,0.985348,0.100338,0.222631
339126905,2.103968,3.555804,0.174007,0.971362,0.106277,0.233223
339136926,1.554135,2.051378,0.255828,0.962953,0.107216,0.244808
339146947,0.304452,0.319538,0.343230,0.974368,0.103245,0.248748
339156967,-0.607726,0.198759,0.441757,0.984176,0.099030,0.241024
339166988,-0.895369,1.779760,0.015843,0.986891,0.084387,0.238798
339177009,0.187254,3.587758,-0.055113,0.979472,0.075757,0.240272
339187029,0.930718,3.769303,-0.563793,0.967235,0.076566,0.251101
339197049,0.412043,3.632769,-0.940602,0.955764,0.081046,0.266822
339207070,-0.638110,3.147221,-0.962564,0.943785,0.084501,0.265978
339217090,-0.775604,2.280972,-0.716905,0.936300,0.081252,0.255024
339227111,-0.366538,0.867019,-0.429210,0.947389,0.088828,0.241568
339237132,-0.306375,-0.865696,0.227141,0.968629,0.094307,0.236398
339247153,-0.624399,-1.245221,0.747982,0.993476,0.086306,0.240469
339257174,-0.665252,1.369453,0.745823,1.001723,0.076327,0.239155
339267194,0.649088,5.016652,0.747534,0.978506,0.073638,0.247748
339277215,2.444792,6.383102,0.473452,0.956544,0.082235,0.256439
339287236,2.747074,4.969201,0.670547,0.953370,0.091640,0.264532
339297256,1.146595,2.963972,0.608531,0.972527,0.103315,0.254561
339307277,-0.450611,2.691712,0.575325,0.990157,0.109896,0.243163
339317298,-1.281808,4.972750,0.823327,0.987735,0.104592,0.235906
339327319,-1.001302,7.374615,1.458842,0.977204,0.099055,0.255176
339337340,-0.042291,7.845053,1.511991,0.954298,0.093471,0.267437
339347360,0.472173,6.339698,1.570416,0.948174,0.101685,0.281163
339357381,0.152517,5.382452,1.939450,0.939144,0.107279,0.279594
339367402,0.230615,5.595404,2.380511,0.934942,0.106801,0.280478
339377424,0.337124,5.093782,2.639191,0.930341,0.104336,0.283014
339387445,0.306278,3.801919,3.143456,0.930877,0.103975,0.284660
339397465,0.305582,2.494799,3.586558,0.938672,0.100000,0.280562
339407486,0.519596,2.388362,3.935460,0.945447,0.101333,0.277322
339417507,1.280873,2.630993,4.081759,0.951896,0.105216,0.272967
339427527,2.103556,2.843244,4.395220,0.960323,0.109699,0.279911
339437548,2.181095,3.132120,4.653374,0.963723,0.106780,0.286698
339447569,2.487950,3.846490,5.031260,0.966990,0.093435,0.288652
339457590,3.051891,3.982945,5.316303,0.957846,0.091007,0.286967
339467611,3.249590,3.298862,5.650640,0.952192,0.103112,0.285005
339477631,2.654836,2.144114,5.747710,0.947080,0.115405,0.285048
339487652,1.242547,1.370446,6.597283,0.952620,0.120241,0.284502
339497672,-0.292194,0.566392,7.249747,0.951868,0.117291,0.278512
339507692,-0.580186,0.201994,7.663688,0.965316,0.112281,0.269183
339517713,-0.213031,0.566695,8.071917,0.979716,0.109611,0.257657
339527734,0.171364,1.889102,8.555289,0.988349,0.100142,0.251971
339537754,0.115375,4.063052,8.782212,0.989987,0.088680,0.258815
339547775,0.531224,6.054273,9.219003,0.981429,0.078098,0.265395
339557796,1.643519,6.691904,9.514603,0.963220,0.081725,0.275247
339567817,1.992627,6.038010,9.664911,0.951571,0.083750,0.278969
339577837,1.064833,4.990111,10.099640,0.948823,0.084766,0.287681
339587858,-0.121076,3.699311,10.749889,0.946342,0.076398,0.285183
339597879,-0.092799,1.571299,11.208782,0.942776,0.068215,0.280854
339607899,1.394295,0.080239,11.122607,0.959638,0.075840,0.286013
339617920,1.869572,1.402526,11.513865,0.967707,0.078430,0.282773
339627941,2.012941,3.485315,12.226917,0.968127,0.079800,0.271475
339637961,2.881732,4.031942,12.509234,0.969970,0.090982,0.258286
339647982,3.385929,4.472537,12.931576,0.977583,0.116112,0.269605
339658003,1.765351,6.374460,13.704033,0.978396,0.125322,0.284102
339668024,-1.435714,7.973890,14.854571,0.959697,0.106691,0.291221
339678044,-3.228645,7.428463,15.463061,0.942411,0.071424,0.295210
339688067,-2.244158,4.934665,15.640710,0.944644,0.049903,0.299046
339698087,-0.485003,2.835252,15.415895,0.957960,0.047415,0.285142
339708108,1.552676,3.547819,15.110104,0.971477,0.059149,0.271852
339718129,2.667455,5.963921,15.205927,0.980364,0.067546,0.266385
339728150,2.536268,8.305214,15.570397,0.970393,0.073791,0.277186
339738170,1.096825,9.766076,16.204754,0.957968,0.062043,0.290849
339748191,0.370132,9.615099,17.109425,0.940511,0.043658,0.309264
339758212,0.461452,8.292794,17.765148,0.934341,0.034317,0.315851
339768233,0.657648,7.198187,17.901810,0.929793,0.036439,0.322538
339778254,0.837623,6.407434,17.626917,0.934184,0.048908,0.316094
339788274,1.246812,5.890184,17.517612,0.940044,0.062083,0.309655
339798295,0.928803,5.997000,17.809446,0.949769,0.065928,0.306780
339808316,-0.681504,6.241735,18.080582,0.958198,0.055193,0.302196
339818335,-1.790330,6.425210,18.302223,0.959903,0.034390,0.303291
339828356,-1.544525,6.790050,18.787563,0.963331,0.020716,0.310530
339838377,-0.478794,7.002063,19.038214,0.958101,0.013743,0.318744
339848416,0.768449,7.107419,19.089497,0.949464,0.008953,0.319266
339858418,2.563055,6.786750,19.335064,0.942202,0.009750,0.313562
339868439,3.888960,6.649179,20.193516,0.936155,0.007089,0.311355
339878459,4.562349,6.557924,21.376892,0.938598,0.000147,0.314525
339888480,4.733038,6.178229,22.457741,0.944521,-0.005190,0.319893
339898501,4.779358,6.087084,22.686020,0.943189,-0.008618,0.322097
339908522,4.841601,6.102396,23.051205,0.939643,-0.002015,0.320196
339918542,5.345092,5.995777,23.550257,0.940992,0.003256,0.320708
339928563,5.467374,5.646191,23.884853,0.943242,0.008164,0.323233
339938584,4.738800,5.738161,24.179848,0.950645,0.003128,0.322965
339948605,4.331429,6.073247,24.853065,0.954861,-0.008059,0.322724
339958625,4.029744,6.985682,25.052589,0.951223,-0.020971,0.319890
339968646,4.366416,8.490258,24.896219,0.940214,-0.025533,0.321851
339978667,5.463529,9.523056,25.008726,0.928010,-0.023482,0.327936
339988688,5.888969,9.644237,24.868217,0.919339,-0.015996,0.336551
339998708,4.883765,9.462534,24.525656,0.909748,-0.009605,0.343165
340008731,3.163645,8.810276,24.341385,0.910080,-0.011231,0.345912
340018751,1.749290,8.401120,24.474510,0.912511,-0.020595,0.342002
340028772,1.262758,8.386348,24.493490,0.914709,-0.033415,0.338664
340038793,1.413843,8.462092,24.202765,0.915431,-0.033034,0.342490
340048813,0.941119,8.158379,23.993366,0.921255,-0.032724,0.346900
340058834,0.378647,8.478041,23.875483,0.931913,-0.038880,0.349760
340068855,0.075916,9.390351,23.800756,0.941460,-0.047616,0.346624
340078875,-0.028752,10.743283,23.617441,0.934947,-0.056249,0.349561
340088896,-0.286667,11.822640,23.252722,0.925770,-0.059540,0.354438
340098917,0.079238,12.521552,23.173071,0.916603,-0.061348,0.362762
340108938,0.444636,12.718868,23.200558,0.905023,-0.066220,0.370911
340118958,0.291963,12.855709,22.973049,0.894425,-0.080078,0.374044
340128978,0.717713,12.444991,23.168249,0.889119,-0.093653,0.376849
340138999,2.252160,11.334049,23.355610,0.896371,-0.108885,0.378302
340149019,4.791146,9.720818,24.038551,0.908191,-0.112205,0.372407
340159040,6.280975,8.838003,24.378407,0.916274,-0.107765,0.372793
340169061,6.585188,9.217705,24.223347,0.922448,-0.107427,0.381758
340179081,5.839705,9.841423,23.817087,0.919688,-0.106571,0.393567
340189102,4.821547,10.799856,23.519255,0.909733,-0.113694,0.396466
340199123,3.878050,11.104543,23.175758,0.895293,-0.115638,0.400200
340209144,4.348709,10.465732,23.294645,0.892293,-0.121428,0.400226
340219164,5.243062,8.701651,23.411350,0.897194,-0.123339,0.398275
340229185,5.560273,7.454883,23.455807,0.893868,-0.113623,0.398535
340239206,5.014188,7.561896,23.749388,0.891322,-0.113410,0.397604
340249227,4.121490,8.353493,24.532549,0.881233,-0.117061,0.401202
340259247,3.425001,8.886379,25.055431,0.873313,-0.123155,0.399374
340269268,2.739252,7.701342,25.229412,0.877494,-0.136707,0.399880
340279289,2.280295,6.257587,25.188585,0.879934,-0.145716,0.394692
340289310,2.325304,5.892721,25.203823,0.882229,-0.152171,0.389299
340299330,2.781415,6.348265,24.971346,0.887904,-0.151183,0.386419
340309351,3.572786,6.894794,24.888578,0.891446,-0.145770,0.385854
340319373,3.193342,7.366346,24.845331,0.892697,-0.147427,0.386241
340329394,1.780497,8.264404,24.748659,0.888150,-0.159388,0.386853
340339415,0.504975,8.691259,25.001820,0.886075,-0.176479,0.389346
340349435,0.444470,8.736943,25.063187,0.879454,-0.182079,0.382788
340359456,1.052499,8.736396,25.012815,0.884170,-0.184359,0.379928
340369477,1.540218,8.796903,25.283278,0.893129,-0.181921,0.382523
340379498,1.193906,9.709492,25.742167,0.894971,-0.180300,0.383615
340389518,1.333207,10.834322,25.846693,0.895605,-0.185738,0.389310
340399539,0.787297,11.579677,25.880648,0.894933,-0.194103,0.391013
340409560,0.271717,12.568165,25.777008,0.888870,-0.208355,0.399462
340419580,0.000711,14.042935,25.777691,0.886057,-0.224093,0.410861
340429601,0.305889,14.346760,25.912193,0.880376,-0.236698,0.420938
340439621,0.610076,13.723384,26.230419,0.878487,-0.241225,0.421326
340449642,0.882403,13.069468,26.183241,0.878738,-0.237621,0.416018
340459662,0.868003,13.160765,26.350866,0.877524,-0.233790,0.413792
340469683,0.505491,13.495723,26.825665,0.876578,-0.235768,0.415623
340479703,0.082143,14.013108,27.209335,0.872201,-0.235507,0.417409
340489724,-0.512136,14.363029,26.710754,0.861035,-0.238053,0.420444
340499745,-1.044131,14.591483,26.653671,0.849725,-0.236350,0.430727
340509766,-1.774980,14.455215,26.461327,0.845071,-0.241139,0.439472
340519786,-2.110324,14.668180,26.143730,0.845642,-0.250576,0.446838
340529807,-2.294628,14.166585,25.901831,0.855031,-0.268925,0.450154
340539828,-3.042044,13.346254,25.679787,0.865604,-0.282228,0.447973
340559870,-3.619216,14.197923,25.439623,0.858892,-0.283142,0.433729
340569890,-2.734963,15.109322,25.614820,0.845849,-0.275031,0.444128
340579911,-2.644850,14.941933,25.400974,0.828503,-0.260991,0.458635
340589931,-3.726261,13.863585,25.440760,0.811867,-0.261942,0.469082
340599952,-4.414842,11.538357,25.417763,0.815585,-0.283548,0.464189
340609973,-4.997038,9.790558,25.103912,0.826890,-0.298188,0.455106
340619994,-4.846752,10.033388,24.523540,0.834859,-0.303276,0.448833
340630016,-4.753873,11.735691,24.140303,0.831210,-0.302270,0.454261
340640037,-4.936815,12.556490,23.622887,0.819073,-0.308429,0.459868
340650057,-5.227490,12.313362,23.274902,0.816397,-0.316388,0.463192
340670099,-4.776389,10.974939,22.587063,0.821944,-0.322636,0.467836
340680120,-4.425809,11.065927,22.767128,0.817083,-0.318937,0.465038
340690140,-4.652042,11.567878,23.012173,0.810273,-0.321881,0.472479
340700161,-4.925474,10.945024,23.380537,0.809779,-0.330803,0.473095
340710182,-5.336755,9.197509,24.025280,0.811838,-0.341274,0.466641
340720203,-5.307683,7.920685,24.285288,0.817779,-0.347221,0.463456
340730223,-4.212826,7.874152,24.322645,0.819325,-0.355312,0.457161
340740244,-3.710485,8.603293,24.120029,0.819904,-0.365709,0.457797
340750267,-3.678516,9.363356,24.164774,0.814907,-0.370543,0.459804
340760284,-3.889602,9.865287,24.394466,0.811153,-0.377205,0.463655
340770305,-4.056639,10.017440,24.380367,0.814621,-0.376138,0.467131
340780325,-4.058460,9.591679,24.106525,0.817796,-0.371844,0.462385
340790346,-4.592264,9.911110,23.531326,0.813268,-0.370145,0.461063
340800367,-4.394021,11.248439,23.040970,0.796214,-0.364419,0.461073
340810388,-4.015368,11.810266,22.382362,0.784551,-0.360667,0.476617
340820408,-4.656798,11.156971,21.961273,0.774634,-0.363167,0.488401
340830429,-5.648112,10.093609,21.695621,0.772479,-0.372958,0.491561
340840450,-6.046188,8.938574,21.532162,0.778107,-0.388959,0.484269
340850471,-5.941776,8.178337,21.364477,0.783754,-0.403683,0.476966
340860491,-5.821209,8.162909,21.089308,0.788961,-0.409229,0.477232
340870512,-5.136240,8.983100,20.885206,0.785698,-0.407337,0.479924
340880533,-4.163673,9.696501,20.389503,0.775793,-0.396916,0.488506
340890554,-3.905859,9.741793,20.189407,0.761425,-0.393380,0.493834
340900574,-4.302907,9.118812,20.040676,0.753240,-0.403607,0.499686
340910595,-4.290756,7.537837,19.996368,0.753761,-0.418766,0.497266
340920616,-3.927944,6.123848,20.116816,0.759874,-0.426198,0.490816
340930637,-3.306016,5.788774,19.883816,0.766072,-0.426671,0.488680
340940658,-3.061390,6.655014,19.820173,0.776865,-0.425044,0.484012
340950680,-3.228475,7.673452,19.378630,0.775980,-0.422454,0.487261
340960700,-3.122127,8.646029,18.889324,0.766748,-0.416433,0.493881
340970721,-3.063000,8.736966,18.401215,0.754512,-0.417887,0.494350
340980742,-3.232490,7.733773,18.296806,0.748232,-0.424569,0.490354
340990762,-3.129612,5.939886,18.221531,0.751382,-0.433732,0.490452
341000783,-3.132836,4.966828,17.841560,0.759274,-0.442785,0.490403
341010813,-2.891727,4.890371,17.306503,0.766013,-0.443442,0.489183
341020824,-2.513522,5.588929,16.464931,0.767480,-0.444049,0.483918
341030845,-2.163272,6.774141,16.034502,0.758593,-0.441756,0.480010
341040866,-1.829700,7.533646,15.421762,0.748586,-0.439384,0.484652
341050887,-2.090577,6.986457,15.058601,0.745385,-0.446068,0.486686
341060922,-2.946728,5.573223,14.517985,0.745080,-0.453311,0.492935
341070927,-3.649851,4.919877,13.868820,0.746502,-0.455888,0.492603
341080948,-2.921922,4.569463,13.528364,0.748110,-0.458850,0.489725
341090968,-2.786986,4.477931,13.070320,0.748700,-0.467954,0.492718
341100989,-3.504853,4.204606,12.359962,0.750916,-0.478933,0.491915
341111009,-4.192100,4.174448,11.588192,0.754726,-0.493221,0.490604
341121030,-3.691857,4.325815,11.111879,0.760095,-0.500417,0.489974
341131051,-2.324190,5.038846,10.552202,0.763600,-0.497366,0.490521
341141072,-1.230057,5.934511,9.948739,0.759233,-0.495811,0.494846
341151093,-1.047041,6.876701,9.641714,0.746434,-0.497971,0.497320
341161114,-1.367277,7.196029,9.247716,0.733049,-0.502481,0.501447
341171134,-1.444072,7.028826,9.126570,0.725509,-0.505978,0.506519
341181155,-1.125408,6.420549,9.246594,0.724606,-0.504477,0.510506
341191175,-0.625115,6.024789,9.045057,0.730092,-0.502152,0.515626
341201196,-0.688988,5.401361,8.543328,0.733374,-0.501450,0.518557
341211217,-1.101922,4.915096,8.150803,0.735437,-0.510988,0.515009
341221238,-0.904198,4.914932,8.164524,0.737583,-0.526701,0.514973
341231259,-0.098887,4.670998,8.128107,0.733966,-0.538345,0.511036
341241279,0.462658,4.639991,7.864809,0.734613,-0.543440,0.513814
341251301,0.795319,4.867455,7.267816,0.737723,-0.542383,0.515103
341261322,1.053410,5.064760,7.067575,0.736891,-0.536526,0.516505
341271343,1.310947,5.277197,6.714958,0.727667,-0.530713,0.519486
341281364,1.476632,5.626424,6.134367,0.712145,-0.530596,0.528658
341291384,1.639126,4.957003,5.204321,0.699573,-0.528345,0.536559
341301405,1.297977,3.163137,4.324911,0.700580,-0.532115,0.546795
341311426,0.393958,1.278536,3.419428,0.708765,-0.546845,0.543881
341321446,-0.267855,0.047117,1.917244,0.719519,-0.551153,0.525239
341331467,-0.015177,-0.622506,0.712249,0.730262,-0.556190,0.506604
341341488,0.087666,-0.075889,-0.492747,0.738426,-0.558487,0.508504
341351509,0.633831,1.519295,-1.580241,0.736004,-0.559081,0.522148
341361529,1.557785,2.946695,-3.203753,0.721785,-0.555278,0.539311
341371570,2.236817,2.899897,-4.549735,0.704872,-0.551155,0.544980
341381569,2.500925,0.603619,-5.966592,0.690522,-0.547472,0.545391
341391590,2.492173,-2.224257,-6.908521,0.689182,-0.550881,0.550326
341401611,3.016837,-3.958186,-8.053648,0.700413,-0.557484,0.542997
341411632,3.695467,-5.023305,-9.017750,0.719371,-0.560415,0.530049
341421652,4.176347,-5.465139,-10.300892,0.730785,-0.555013,0.519163
341431673,4.825741,-5.375038,-11.509646,0.740283,-0.542629,0.511664
341441694,5.188014,-4.661354,-12.549188,0.745020,-0.528239,0.519410
341451715,5.671747,-3.887005,-13.665901,0.743754,-0.526358,0.524666
341461735,5.879696,-3.750985,-15.023681,0.738097,-0.526444,0.526264
341471756,5.966068,-3.994804,-16.182095,0.734967,-0.528397,0.527167
341481777,5.991802,-4.648899,-17.095867,0.735571,-0.525713,0.521323
341491798,6.229654,-5.333663,-18.194078,0.732919,-0.506131,0.525876
341501818,6.118841,-5.759632,-19.137493,0.735293,-0.492286,0.529057
341511839,5.308339,-6.261015,-20.105947,0.744886,-0.484598,0.527789
341521860,4.559773,-6.564744,-20.876987,0.748295,-0.489612,0.522393
341531881,4.510688,-6.747490,-21.699215,0.753248,-0.502335,0.513065
341541901,5.252263,-6.550968,-22.710701,0.753226,-0.504544,0.510170
341551922,6.284126,-5.685817,-23.679337,0.753473,-0.497727,0.520312
341561944,6.404601,-4.986947,-24.320858,0.753525,-0.480377,0.524357
341571965,5.489874,-5.199214,-24.846924,0.753008,-0.463908,0.531319
341581986,4.209507,-5.806400,-25.369816,0.750061,-0.453290,0.531210
341592006,3.399774,-6.459673,-26.063871,0.746651,-0.449784,0.529882
341602027,2.726945,-7.113060,-26.743744,0.749929,-0.451146,0.524818
341612048,2.708834,-7.751708,-27.200098,0.750092,-0.454682,0.515380
341622069,2.659929,-8.314384,-27.793419,0.751172,-0.456927,0.509762
341632089,2.747631,-8.816416,-28.479261,0.760631,-0.459099,0.506389
341642110,2.867424,-8.619162,-29.059357,0.774347,-0.456777,0.502828
341652131,3.597343,-8.163844,-29.263462,0.777248,-0.447039,0.494029
341662152,4.326552,-7.237467,-29.879391,0.778716,-0.433191,0.495746
341672172,4.066039,-6.340793,-30.838146,0.778558,-0.416902,0.503804
341682193,3.076810,-6.036079,-31.211763,0.770985,-0.410197,0.507700
341692212,2.495900,-6.598275,-31.755297,0.764388,-0.412463,0.508399
341702233,2.688984,-7.647654,-32.456665,0.769693,-0.424976,0.503624
341712254,3.003959,-8.909882,-32.991173,0.780771,-0.427875,0.503911
341722274,3.153500,-9.107883,-33.555882,0.791870,-0.417687,0.498628
341732295,3.395930,-8.363488,-34.137436,0.794841,-0.401329,0.497604
341742316,3.744248,-7.345683,-34.994316,0.790490,-0.399621,0.497740
341752337,4.212916,-7.483191,-35.637718,0.789988,-0.398775,0.487714
341762358,4.178042,-8.562754,-36.291603,0.798995,-0.394945,0.481375
341772378,4.022081,-9.019024,-37.097515,0.815734,-0.384818,0.479229
341782399,3.809270,-7.742192,-37.691319,0.822471,-0.371198,0.485539
341792420,3.581755,-6.222117,-38.270000,0.808107,-0.355287,0.487670
341802441,3.108027,-6.024412,-38.982677,0.790385,-0.344417,0.491639
341812461,2.556090,-7.407500,-39.510418,0.782662,-0.349982,0.487804
341822482,2.351400,-9.733464,-40.238007,0.794467,-0.354019,0.483554
341832503,2.498488,-11.086811,-40.893028,0.813928,-0.347108,0.471075
341842524,2.878998,-10.494370,-41.079346,0.835272,-0.335089,0.462755
341852544,3.322454,-8.351522,-41.450447,0.842421,-0.319894,0.460861
341862565,3.051043,-5.919322,-42.014420,0.842199,-0.307976,0.469502
341872587,2.535768,-4.444457,-42.270885,0.829556,-0.297503,0.479520
341882608,2.550240,-4.368566,-42.499619,0.808775,-0.281970,0.491622
341892629,2.349429,-5.584612,-42.740715,0.792171,-0.269104,0.496675
341902649,1.506654,-7.970754,-43.295750,0.787845,-0.254127,0.491239
341912670,0.376063,-10.432507,-43.528538,0.793423,-0.247499,0.486491
341922691,0.297064,-12.256564,-43.434792,0.806087,-0.257079,0.473916
341932711,0.553114,-12.956188,-43.740822,0.819657,-0.266094,0.465714
341942732,1.677491,-13.109238,-43.886433,0.839500,-0.269543,0.458603
341952753,2.330789,-13.140262,-44.013302,0.853877,-0.259018,0.456254
341962774,2.318579,-11.878454,-43.831562,0.857511,-0.235218,0.451896
341972795,2.245311,-10.236669,-43.893497,0.846501,-0.215006,0.450557
341982815,2.474949,-9.507174,-43.835003,0.837760,-0.200809,0.454200
341992858,2.778358,-10.525792,-43.531635,0.835154,-0.190141,0.461558
342002855,2.350049,-12.030336,-43.481216,0.843869,-0.179506,0.462627
342012876,1.223220,-12.713470,-43.578590,0.850239,-0.168891,0.456212
342022897,0.509157,-12.651991,-43.451279,0.853996,-0.152113,0.439349
342032918,0.145353,-12.165203,-43.388004,0.853139,-0.137579,0.430300
342042938,-0.369529,-11.176632,-43.308811,0.853777,-0.130832,0.431706
342052959,-0.411618,-10.005924,-42.943913,0.848312,-0.129626,0.435844
342062980,0.275549,-9.732606,-42.309502,0.846575,-0.133142,0.450246
342073001,0.717021,-10.720804,-41.702492,0.847590,-0.138438,0.451207
342083021,0.731715,-12.149499,-41.152733,0.851227,-0.138660,0.453239
342093042,0.184588,-13.060881,-40.644875,0.858209,-0.123875,0.444791
342103063,-0.452091,-12.923318,-40.198261,0.860437,-0.097538,0.435486
342113083,-0.724006,-12.649305,-39.861229,0.860798,-0.073141,0.431281
342123104,-1.376642,-13.210930,-39.276703,0.872813,-0.062787,0.425639
342133125,-2.212783,-13.772518,-38.965027,0.882817,-0.064208,0.426270
342143146,-2.711920,-13.634991,-38.336632,0.886388,-0.071061,0.419069
342153166,-2.783849,-12.661765,-37.727535,0.882508,-0.076343,0.411801
342163187,-2.125179,-11.050762,-37.231300,0.872248,-0.079642,0.413392
342173208,-0.691357,-10.215571,-36.450783,0.869262,-0.083768,0.416499
342183230,0.449332,-11.705938,-35.665817,0.872406,-0.080530,0.417042
342193251,0.659304,-13.393455,-35.620121,0.880527,-0.061535,0.413121
342203272,0.125392,-13.484385,-36.027328,0.889830,-0.037487,0.404432
342213292,-0.208846,-12.982527,-36.192841,0.898867,-0.020399,0.390882
342223313,-1.014968,-12.100367,-36.675068,0.901752,-0.010244,0.389181
342233334,-2.092905,-10.123485,-37.186718,0.901306,-0.015134,0.392860
342243354,-1.556492,-8.117299,-37.040359,0.901558,-0.020717,0.402922
342253375,-0.274350,-6.886782,-36.350471,0.885882,-0.017649,0.416439
342263396,-0.285568,-6.643130,-35.421185,0.864672,0.005340,0.424835
342273417,-1.303850,-7.858043,-34.711342,0.855156,0.029403,0.429665
342303481,-2.531750,-12.963102,-31.284105,0.867696,0.060802,0.410560
342313498,-2.272169,-13.829490,-30.584394,0.880732,0.037116,0.389729
342323519,-1.449546,-13.936406,-30.133503,0.892924,0.018941,0.372669
342333540,-0.884840,-12.933571,-30.062597,0.907391,0.023274,0.371465
342343560,-0.867281,-11.641468,-30.063953,0.914447,0.033224,0.375258
342353581,-0.710326,-9.969232,-29.579168,0.912036,0.056434,0.377598
342363602,-0.720799,-8.965587,-28.818207,0.904481,0.077932,0.384831
342373622,-1.416195,-8.310987,-28.066902,0.901781,0.093482,0.386322
342383644,-1.795263,-8.462515,-27.713409,0.902639,0.090391,0.389267
342393664,-2.115134,-8.963841,-27.619064,0.900581,0.085458,0.383648
342403685,-1.550393,-8.356152,-27.349710,0.896841,0.077635,0.378405
342413706,-0.574807,-7.612000,-27.068398,0.898498,0.077949,0.374772
342423726,-0.406440,-8.022364,-26.581728,0.897671,0.071218,0.375186
342433747,-0.333448,-9.497002,-26.672314,0.896947,0.069898,0.367726
342443768,0.501939,-10.561699,-26.403454,0.907827,0.076598,0.358646
342453789,1.418577,-9.650095,-25.710461,0.914081,0.080892,0.360295
342463809,1.850378,-8.525092,-24.663509,0.924325,0.082722,0.357259
342473830,1.806771,-8.570411,-24.114616,0.929638,0.083707,0.353284
342483851,1.473657,-7.962033,-24.036453,0.942027,0.095541,0.351273
342493873,1.399819,-6.441899,-24.189690,0.953364,0.108800,0.342507
342503894,1.463788,-4.617809,-24.237616,0.948589,0.117197,0.334026
342513915,1.041559,-2.337311,-24.404139,0.927410,0.115529,0.336799
342523936,0.952142,-1.181962,-24.480726,0.915797,0.095713,0.345982
342533956,2.622033,-2.201999,-24.705879,0.913555,0.079909,0.349374
342543977,4.567810,-2.431714,-24.735817,0.919556,0.079473,0.351970
342553998,5.467318,-2.067454,-24.285961,0.914237,0.089756,0.350936
342564019,5.622362,-1.763272,-23.647499,0.906662,0.095901,0.353015
342574039,5.669509,-2.006301,-23.129585,0.907832,0.102300,0.357705
342584060,5.636919,-2.629654,-23.403008,0.918088,0.120255,0.365644
342594081,5.711378,-2.979460,-23.647032,0.924397,0.128941,0.369624
342604101,6.075918,-2.615067,-23.924429,0.927716,0.130873,0.366355
342614135,6.670295,-1.794721,-23.960236,0.919988,0.124568,0.360888
342624142,7.278715,-1.293686,-24.148212,0.918725,0.111982,0.357705
342634162,7.931609,-1.355154,-24.366472,0.920172,0.099225,0.361462
342644183,9.055742,-1.386648,-24.634083,0.916105,0.094709,0.358921
342654204,9.190192,-1.235067,-25.336142,0.904576,0.115995,0.353744
342664225,8.959554,-1.174378,-26.035315,0.905365,0.145137,0.351143
342674245,8.182911,-1.249835,-26.303547,0.908133,0.160038,0.349947
342684266,7.603394,-1.462310,-26.649343,0.910892,0.162198,0.351770
342694287,6.475421,-1.051314,-27.570518,0.917138,0.152430,0.350258
342704307,6.108231,-0.701708,-28.329861,0.910252,0.143071,0.352834
342714328,6.594628,-0.155017,-28.638840,0.899361,0.135831,0.362829
342724349,7.201376,-0.125319,-29.039671,0.882931,0.135953,0.370902
342734370,8.020275,-1.129362,-29.136421,0.887368,0.139696,0.368172
342744390,8.777740,-2.437386,-29.247646,0.892619,0.147184,0.355585
342754411,8.955982,-3.000370,-30.086493,0.901930,0.158638,0.345179
342764432,8.665332,-2.559581,-30.755091,0.910375,0.161948,0.341390
342774453,8.589390,-1.875590,-31.059889,0.910797,0.165764,0.340451
342784473,8.497549,-1.222064,-31.532137,0.913663,0.175586,0.343122
342794494,7.978591,-0.781104,-32.259930,0.913475,0.188176,0.343927
342804516,7.138171,-0.279328,-33.579544,0.904308,0.197436,0.344694
342814537,6.983608,0.510811,-34.615192,0.886502,0.189144,0.346271
342824558,8.062193,0.388175,-34.821426,0.868753,0.172480,0.349921
342834579,10.201088,-1.286066,-35.354282,0.869191,0.177577,0.349700
342844599,10.925200,-3.126343,-35.982796,0.877587,0.201252,0.338094
342854620,8.885256,-3.520017,-36.423882,0.883664,0.227858,0.323534
342864641,5.721549,-2.818285,-37.009750,0.893017,0.255743,0.316089
342874664,2.632498,-1.432865,-38.282486,0.905216,0.279794,0.313794
342884682,1.427472,0.072340,-39.996407,0.901404,0.294463,0.317287
342894703,1.772559,1.165757,-41.737061,0.906992,0.289437,0.314638
342904724,1.893036,1.834231,-42.363316,0.904066,0.275800,0.313819
342914745,1.516192,3.126786,-42.117859,0.898546,0.260792,0.319729
342924768,1.837462,4.874522,-42.441944,0.891440,0.261460,0.321675
342934785,2.857212,6.256785,-42.847221,0.876738,0.279390,0.324879
342944805,3.130317,6.636432,-43.184883,0.866017,0.297136,0.336126
342954826,2.900306,6.180459,-43.472183,0.858990,0.305908,0.349477
342964847,2.701842,5.359838,-43.287045,0.855697,0.305798,0.352549
342974868,2.504236,5.010461,-43.102360,0.857511,0.315727,0.342648
342984888,2.352131,5.299350,-43.253834,0.859428,0.333138,0.333778
342994909,1.638680,5.984024,-43.264244,0.865916,0.339757,0.329764
343004930,1.791323,6.500698,-43.357323,0.870964,0.348238,0.327910
343014951,2.735154,7.016747,-43.319340,0.877990,0.355999,0.331539
343024972,3.895103,8.581663,-42.933563,0.867965,0.358037,0.340372
343034992,4.704147,10.101149,-42.834545,0.841990,0.355257,0.355865
343045013,5.235955,10.662973,-43.204830,0.827018,0.367744,0.362207
343055034,5.551343,9.978321,-43.907486,0.826527,0.393334,0.344876
343065055,5.351000,8.731933,-44.011429,0.820544,0.415296,0.318795
343075075,4.772667,7.638106,-43.625046,0.816029,0.429725,0.312816
343085096,4.135639,8.094790,-43.422516,0.805636,0.422969,0.340291
343095117,3.789935,9.022650,-42.811279,0.796517,0.404568,0.373516
343105137,4.657845,9.022041,-42.497963,0.799762,0.404412,0.383920
343115160,4.840858,8.368429,-42.041653,0.809286,0.428367,0.362852
343125180,4.769060,8.201813,-40.852493,0.824127,0.456688,0.351437
343135201,5.111735,9.175160,-39.180016,0.819650,0.464294,0.360264
343145222,6.339333,11.044789,-37.149487,0.803141,0.461965,0.382013
343155243,7.534128,12.047869,-35.331207,0.774154,0.438967,0.394191
343165263,8.509489,10.755448,-34.133770,0.748960,0.427062,0.410130
343175284,8.919353,8.216929,-33.098423,0.735889,0.432412,0.416909
343185305,9.250510,6.438066,-33.129757,0.742963,0.467093,0.411576
343195325,9.582722,5.525620,-33.299042,0.757011,0.503062,0.397179
343205346,9.884935,4.871615,-33.483582,0.757616,0.517376,0.385958
343215367,10.446533,4.582247,-33.609505,0.747666,0.508923,0.381585
343225388,11.507067,3.790573,-34.241589,0.733136,0.501726,0.389914
343235407,11.806992,2.741149,-34.837120,0.740620,0.504412,0.398505
343245428,12.078502,1.479213,-34.807541,0.752734,0.510624,0.400181
343255449,12.124916,0.673767,-34.212906,0.753015,0.516420,0.395401
343265469,13.131721,0.810064,-33.428452,0.731121,0.512281,0.382893
343275490,15.550333,0.625709,-33.096382,0.716049,0.528345,0.379555
343285511,16.415915,0.016903,-33.102440,0.722823,0.557463,0.385919
343295531,15.485452,-2.019187,-32.895306,0.736454,0.579293,0.382015
343305552,13.764878,-3.780959,-32.667133,0.742617,0.573062,0.365359
343315573,13.873666,-4.084738,-31.905853,0.744022,0.565440,0.348133
343325594,14.864691,-3.690127,-31.395781,0.741091,0.565143,0.351392
343335614,16.096804,-3.128806,-31.542889,0.734195,0.568002,0.354232
343345635,17.602180,-2.993319,-31.600269,0.728876,0.580169,0.361558
343355656,17.634266,-2.901960,-31.204449,0.727121,0.599393,0.368852
343365677,16.570488,-3.159337,-30.921793,0.729778,0.618842,0.365980
343375697,15.247621,-3.842108,-30.591036,0.732901,0.629616,0.349525
343385718,14.990329,-4.206499,-30.101147,0.741045,0.632782,0.325341
343395739,14.750556,-3.172404,-29.673660,0.740566,0.620057,0.304502
343405760,14.709478,-1.606426,-29.232965,0.727129,0.610582,0.302844
343415781,15.125988,0.460863,-28.659124,0.708995,0.608618,0.321300
343425803,15.250876,1.828968,-28.463297,0.693970,0.620662,0.341849
343435823,14.173748,1.602218,-27.708233,0.685447,0.637599,0.346564
343455865,12.635989,-1.177944,-26.901510,0.707683,0.667636,0.310607
343465885,12.881680,-1.162674,-26.278709,0.704686,0.659015,0.297363
343475906,14.010811,-0.236100,-25.694016,0.692419,0.656127,0.301304
343485927,14.604630,0.310614,-25.744793,0.687348,0.662157,0.317605
343495947,13.860341,0.280953,-25.525749,0.686307,0.679523,0.321642
343505969,12.005608,0.312992,-25.450611,0.697284,0.692023,0.307962
343515989,9.790249,1.683285,-24.886404,0.705225,0.695618,0.292149
343526010,8.244479,3.235442,-24.266556,0.710246,0.688951,0.288417
343536031,8.189161,4.406395,-23.383516,0.702739,0.676004,0.297755
343546050,8.755421,5.242234,-22.824894,0.678806,0.662795,0.312621
343556071,9.609992,6.457707,-22.604046,0.661352,0.658298,0.335109
343566091,10.186633,5.697165,-22.546803,0.651500,0.671984,0.341480
343576112,10.289492,3.158569,-22.270931,0.659100,0.689799,0.324636
343586133,10.074568,1.745089,-22.130819,0.676771,0.695342,0.295949
343596154,9.926549,2.779166,-21.566908,0.687675,0.690918,0.286779
343606174,9.809309,4.557966,-21.262959,0.690374,0.691525,0.300450
343616195,9.781171,6.123665,-21.416588,0.686620,0.700265,0.316192
343626216,8.656537,6.869412,-21.621983,0.680067,0.713296,0.314398
343636237,7.606945,6.946260,-21.766375,0.677512,0.721016,0.292647
343646257,7.122115,7.068470,-21.366623,0.686673,0.733340,0.276224
343656278,6.323399,8.285858,-20.066536,0.696290,0.729337,0.272140
343666299,4.900907,9.716516,-18.959949,0.681294,0.706042,0.297351
343676320,4.281129,10.690164,-18.468548,0.655230,0.689015,0.334265
343686340,3.777629,10.568810,-18.860723,0.631614,0.701059,0.362217
343696361,3.332363,8.516940,-19.007734,0.627414,0.736602,0.351878
343706382,3.434305,5.826255,-18.899317,0.641750,0.748681,0.312370
343716403,2.932783,5.036417,-18.452866,0.660385,0.745280,0.284310
343726423,2.314453,6.390186,-17.763756,0.670959,0.721662,0.292776
343736446,2.852127,7.940578,-17.068462,0.654009,0.704870,0.330665
343746466,3.174229,8.518157,-16.614380,0.625497,0.718626,0.358203
343756487,2.717055,7.606545,-16.442410,0.618861,0.739150,0.358714
343766508,1.407960,5.722943,-15.912547,0.628434,0.765624,0.333255
343776528,0.756431,5.131053,-15.023270,0.640122,0.776084,0.316319
343786549,-0.089751,5.937914,-14.011930,0.645108,0.765922,0.308246
343796570,-0.630498,7.094225,-12.820423,0.637806,0.741665,0.317315
343806591,-0.702148,7.869908,-12.043541,0.628109,0.730454,0.335364
343816611,-1.260048,8.722040,-11.217293,0.619427,0.738906,0.351436
343826632,-1.470275,8.388178,-10.362115,0.608458,0.747581,0.343273
343836653,-0.813038,7.840880,-9.208656,0.599006,0.760048,0.333268
343846693,-0.627835,7.400299,-8.280229,0.578997,0.763463,0.335279
343856693,-0.837186,6.686586,-7.013311,0.571141,0.764567,0.345591
343866714,-0.303640,5.364050,-6.025773,0.579941,0.755695,0.347185
343876735,0.043170,3.767604,-6.026923,0.597192,0.760999,0.334886
343886755,-0.048927,3.387629,-6.071568,0.611480,0.776958,0.327393
343896776,-1.126672,3.875117,-5.819980,0.622830,0.791882,0.321890
343906797,-2.355507,4.985973,-5.613533,0.619248,0.795179,0.316556
343916817,-3.172497,6.081429,-5.059787,0.611606,0.798468,0.326852
343926838,-4.247298,6.462877,-3.985345,0.609450,0.803891,0.340994
343936859,-5.215770,6.403475,-2.728463,0.616997,0.809255,0.342098
343946879,-5.070640,7.316216,-0.993467,0.615263,0.802340,0.340321
343956900,-4.636040,8.639124,0.693212,0.597373,0.789349,0.347399
343966921,-3.947694,8.411043,1.876604,0.579866,0.778760,0.359559
343976942,-3.142284,6.404140,2.710339,0.577834,0.779606,0.371373
343986963,-2.763909,4.230274,3.288483,0.587510,0.792561,0.367512
343996983,-2.473904,2.892721,4.216956,0.602794,0.812829,0.352890
344007004,-3.383067,2.513928,5.229901,0.615328,0.834683,0.350070
344017025,-5.460523,3.443482,6.281038,0.617892,0.847566,0.346704
344027046,-8.234613,4.252386,8.129934,0.613832,0.832157,0.350626
344037066,-10.416221,4.969526,9.882954,0.602884,0.808522,0.362577
344047089,-10.941877,4.818772,11.669809,0.593104,0.790912,0.377946
344057109,-10.117695,3.207427,13.249619,0.593554,0.785857,0.385821
344067130,-9.551008,2.204345,14.800355,0.588388,0.793569,0.382624
344077151,-10.624834,2.069172,16.378084,0.588695,0.801749,0.379827
344087171,-12.049503,1.219859,18.004889,0.593273,0.802007,0.374578
344097192,-12.503263,0.141470,19.152130,0.603984,0.795162,0.357961
344107213,-12.364042,-0.116737,19.897902,0.612512,0.790790,0.351140
344117233,-12.877396,0.340079,20.632761,0.608635,0.788703,0.356955
344127254,-13.953717,0.174217,21.570602,0.605706,0.776204,0.362136
344137275,-14.225497,-0.722010,22.502968,0.612649,0.764804,0.363373
344147296,-14.071625,-1.284257,23.248911,0.615259,0.757894,0.371279
344157317,-14.007631,-1.040768,23.964310,0.619762,0.757762,0.387519
344167336,-13.700232,-1.207823,24.906780,0.618308,0.756834,0.382235
344177356,-13.121189,-2.180856,25.695562,0.621829,0.760223,0.379138
344187377,-13.014988,-3.457617,26.244473,0.626609,0.773570,0.369047
344197398,-12.954439,-4.308796,26.580021,0.630476,0.773987,0.359057
344207419,-13.635605,-4.444626,27.453857,0.636749,0.778612,0.356151
344217440,-15.133955,-4.229730,29.186874,0.636167,0.764811,0.362634
344227460,-17.074181,-3.725797,30.542097,0.643113,0.741583,0.367065
344237481,-18.057964,-3.557226,31.661751,0.647771,0.725735,0.378701
344247502,-17.735954,-3.572384,32.375412,0.645474,0.720187,0.388381
344257523,-16.350739,-4.029345,32.989925,0.638687,0.717752,0.390537
344267543,-14.722599,-5.064086,33.785961,0.634930,0.708273,0.383122
344277564,-14.190073,-6.690704,34.651901,0.637941,0.700895,0.377742
344287585,-14.767784,-7.921240,35.266960,0.646741,0.703470,0.373779
344297605,-15.662563,-8.528114,36.173347,0.659383,0.693754,0.367578
344307626,-16.222731,-8.633728,36.863396,0.675125,0.684552,0.363217
344317647,-16.583612,-7.690655,37.474731,0.679978,0.682376,0.374924
344327668,-17.050251,-6.534636,38.162865,0.686934,0.674336,0.386877
344337688,-16.559822,-6.580198,39.195236,0.681477,0.660878,0.380393
344347709,-15.736854,-6.945442,39.859676,0.680062,0.651428,0.381736
344357731,-16.295305,-6.746892,40.854153,0.680960,0.651445,0.385930
344367752,-16.915195,-6.791533,41.803616,0.682482,0.643408,0.387100
344377773,-16.500458,-6.654612,42.836391,0.677585,0.631795,0.384793
344387794,-16.195351,-7.186691,43.352604,0.688082,0.626910,0.386549
344397814,-15.936131,-7.901140,43.884567,0.694723,0.617441,0.376843
344407835,-15.552764,-7.749108,44.658554,0.701397,0.598335,0.370858
344417856,-15.320640,-7.216897,45.463814,0.705967,0.574405,0.374184
344427877,-14.739326,-7.292974,46.419334,0.713499,0.554470,0.381323
344437897,-13.808819,-7.339021,47.219780,0.722021,0.539231,0.384425
344447918,-12.649607,-6.944447,47.972351,0.729906,0.529442,0.383471
344457939,-11.445899,-6.717222,48.511425,0.734114,0.528587,0.374768
344467960,-10.924687,-6.048455,49.299095,0.741304,0.532620,0.367504
344477979,-11.317348,-5.379082,49.682388,0.746982,0.535106,0.370074
344488000,-12.000603,-4.907233,49.717651,0.748338,0.516346,0.375702
344498020,-12.487856,-4.648524,49.416412,0.751487,0.494611,0.376996
344508041,-11.925901,-4.709878,49.275032,0.752764,0.468498,0.374308
344518062,-10.907318,-4.573997,49.160442,0.757051,0.450600,0.379039
344528083,-9.568548,-3.571998,48.859734,0.767120,0.442857,0.388099
344538103,-7.941380,-2.843873,48.557076,0.769033,0.448835,0.386607
344548124,-7.393451,-2.449132,48.506790,0.764636,0.446694,0.384043
344558145,-8.334672,-2.265762,48.818565,0.758321,0.439530,0.388791
344568165,-9.263031,-4.134425,49.497860,0.764339,0.427232,0.390029
344578186,-9.145771,-6.794714,49.621368,0.775876,0.414734,0.375103
344588207,-9.025023,-6.870916,49.422440,0.790734,0.406613,0.367084
344598228,-8.992636,-4.955748,49.024227,0.802951,0.395536,0.373456
344608248,-9.204354,-3.557201,48.658852,0.817536,0.384427,0.380209
344618269,-9.021333,-2.356643,48.229691,0.826519,0.375930,0.383623
344628290,-8.504723,-0.578956,47.279381,0.821508,0.370375,0.386727
344638311,-7.668909,0.727302,46.525143,0.811835,0.371494,0.395206
344648331,-7.883634,0.347316,46.222416,0.806810,0.365782,0.401771
344658352,-8.480838,-1.674012,46.091774,0.797358,0.354046,0.398157
344668374,-9.048205,-3.437067,45.686401,0.801186,0.340283,0.393929
344678395,-9.034251,-3.741189,45.503746,0.811209,0.326053,0.388475
344688416,-8.636229,-2.646952,45.682499,0.814887,0.314666,0.384772
344698437,-8.650484,-1.263799,45.269913,0.819747,0.312473,0.394112
344708457,-9.654575,-0.229523,44.636696,0.819309,0.321459,0.400226
344718478,-11.085323,-0.365239,44.327827,0.814534,0.319920,0.404391
344728499,-12.289310,-1.701959,44.246899,0.804185,0.310989,0.408578
344738519,-13.235373,-3.570902,44.271156,0.801021,0.293905,0.409788
344748540,-13.206928,-5.607706,44.729961,0.810314,0.278370,0.398695
344758561,-12.370518,-6.429113,45.150955,0.823684,0.256261,0.394787
344768582,-11.377840,-5.669555,45.919689,0.841363,0.230657,0.395491
344778603,-9.868407,-4.743290,46.547176,0.853654,0.209847,0.392475
344788622,-8.496212,-3.680169,47.007988,0.859251,0.193356,0.392834
344798643,-7.520553,-2.768829,47.228191,0.862694,0.193538,0.399960
344808663,-6.850932,-2.313396,47.161682,0.857550,0.191640,0.404126
344818684,-6.822290,-2.678384,46.872314,0.851557,0.194882,0.411339
344828705,-7.874659,-3.392164,46.378246,0.852890,0.198308,0.408771
344838726,-9.458901,-3.938267,45.888103,0.853425,0.195126,0.398604
344848746,-10.587101,-3.588090,44.936520,0.853354,0.188511,0.391375
344858767,-11.351347,-2.812796,43.524639,0.857046,0.177466,0.384573
344868788,-11.445661,-1.794806,42.229290,0.862183,0.153481,0.381531
344878808,-11.008116,-1.430834,41.159031,0.867957,0.124238,0.383818
344888829,-10.450232,-1.781431,40.088524,0.869049,0.086503,0.387233
344898850,-10.226736,-1.554195,38.776245,0.875899,0.071364,0.400518
344908871,-10.382737,-0.277886,37.130684,0.880270,0.072814,0.408368
344918891,-10.355831,0.253609,35.956757,0.874907,0.092195,0.404709
344928912,-10.284524,-0.582907,35.118988,0.862872,0.117160,0.402958
344938933,-10.595553,-2.376834,34.163162,0.859880,0.111920,0.403344
344948954,-11.408063,-5.097377,33.730106,0.879169,0.097431,0.406336
344958974,-12.187852,-7.027373,33.524597,0.902857,0.070430,0.402908
344968995,-12.429478,-6.373449,33.647724,0.927800,0.053774,0.395398
344979018,-11.557492,-3.561928,33.684090,0.930714,0.039842,0.391164
344989038,-10.079217,-0.462395,33.075600,0.920071,0.036404,0.397852
344999059,-9.425802,1.771112,31.895260,0.905727,0.042521,0.407165
345009080,-8.974859,1.876492,30.474699,0.894075,0.045116,0.413978
345019100,-9.195529,0.401543,29.136967,0.895408,0.048166,0.409957
345029121,-10.020564,-0.783663,28.672081,0.902621,0.028694,0.404889
345039142,-10.371424,-0.996267,28.476894,0.913817,0.006020,0.394051
345049163,-9.398710,-0.298046,28.026917,0.915893,-0.015747,0.388783
345059183,-7.803641,0.809859,27.099442,0.914810,-0.026820,0.393237
345069204,-6.833421,1.446995,26.024839,0.909610,-0.032734,0.396707
345079225,-5.575174,2.083777,24.719477,0.912920,-0.043167,0.398092
345089246,-4.651063,2.736092,23.508087,0.919167,-0.053314,0.394580
345099265,-3.179041,3.965523,22.154819,0.921733,-0.065583,0.392697
345109286,-1.114247,5.133620,20.766588,0.916281,-0.075661,0.399660
345119307,1.100605,5.845408,19.072908,0.910395,-0.077709,0.406735
345129327,3.468699,5.903686,18.003372,0.914331,-0.068978,0.411972
345139348,4.955765,5.704462,17.291275,0.914737,-0.064748,0.417767
345149369,6.110779,5.931364,17.023184,0.914961,-0.060704,0.422834
345159390,7.176571,6.432148,17.151667,0.918707,-0.054402,0.419532
345169411,7.740138,6.203804,17.513241,0.919987,-0.043741,0.408892
345179431,7.251657,5.246519,17.472183,0.932435,-0.030916,0.392853
345189452,6.246580,5.262406,17.068483,0.948841,-0.018975,0.388868
345199472,4.653057,7.650248,16.728004,0.952914,-0.012777,0.397041
345209493,1.921276,10.981609,16.502012,0.930456,-0.024164,0.414634
345219514,-0.392203,13.065484,14.917939,0.896176,-0.046500,0.431684
345229535,-1.159984,11.803816,13.553726,0.871618,-0.065924,0.443136
345239556,-0.534745,7.713399,11.998667,0.880529,-0.068461,0.438488
345249576,0.593862,4.245859,10.561052,0.907760,-0.055717,0.416731
345259597,0.741729,3.926075,9.615552,0.927560,-0.048941,0.411539
345269618,0.254997,5.491881,8.825500,0.936312,-0.048326,0.413783
345279640,-0.142890,6.449405,7.700138,0.941487,-0.066560,0.424351
345289661,0.369587,6.372438,6.553537,0.933973,-0.079303,0.436783
345299681,1.064893,6.720903,5.298476,0.919478,-0.084887,0.441275
345309702,0.894425,6.583888,4.522846,0.914740,-0.071301,0.444406
345319723,0.583867,5.686705,3.261438,0.906835,-0.052281,0.435998
345329743,0.135294,4.880691,1.650561,0.917007,-0.045808,0.419448
345339764,0.785148,5.350800,0.380497,0.929261,-0.045905,0.406246
345349785,1.939703,7.781374,-1.062893,0.937206,-0.048865,0.416708
345359806,2.425309,10.349320,-2.546993,0.923106,-0.050006,0.431363
345369826,2.270144,11.382558,-3.857128,0.896827,-0.036203,0.444896
345379847,1.778883,10.652919,-4.736394,0.877791,-0.028428,0.446878
345389868,1.288694,9.300282,-5.036088,0.867777,-0.028300,0.443890
345399911,1.210243,7.841044,-4.973161,0.866893,-0.026467,0.443323
345409908,1.466949,6.959121,-5.020005,0.872347,-0.028776,0.437919
345419929,2.424983,6.988700,-5.012142,0.879631,-0.032451,0.423981
345429950,3.673491,7.565346,-4.854657,0.886185,-0.033664,0.421126
345439970,5.091053,8.491614,-4.394066,0.895043,-0.024634,0.427489
345449991,5.837906,9.767821,-4.538129,0.894548,-0.006145,0.436619
345460012,5.730430,10.345321,-5.086368,0.892748,0.012621,0.455935
345470032,5.716055,10.482214,-4.934022,0.883003,0.023092,0.471619
345480053,5.062883,10.072508,-4.562948,0.872590,0.024059,0.482825
345490074,4.528177,8.461673,-4.450669,0.868958,0.025591,0.485517
345500095,4.905325,6.059691,-4.085612,0.873697,0.024201,0.479554
345510115,5.770114,4.250141,-3.724853,0.879501,0.021729,0.477614
345520136,6.329624,3.261415,-4.063413,0.889162,0.022145,0.479502
345530157,6.630280,2.485643,-4.598266,0.893398,0.024616,0.476963
345550198,7.218520,2.104617,-5.668977,0.892344,0.041446,0.482461
345560219,6.381053,1.740448,-5.799341,0.888690,0.055228,0.489604
345570240,5.268975,0.935663,-5.957656,0.881657,0.059492,0.484783
345580261,5.009287,0.403812,-6.016109,0.873563,0.066145,0.480299
345590282,4.963282,0.221429,-6.030820,0.874470,0.064256,0.473220
345600304,4.794595,-0.340924,-6.135651,0.873335,0.058719,0.461604
345610324,4.671592,-0.705733,-6.317203,0.877057,0.050996,0.460420
345620345,4.350687,-0.690446,-6.741381,0.878080,0.046623,0.462831
345630366,4.332952,-0.994692,-7.259002,0.872792,0.058907,0.461234
345640386,3.997467,-1.146498,-7.439125,0.865727,0.074124,0.458143
345650407,3.207371,-1.343321,-7.189096,0.865510,0.084522,0.458420
345660434,2.676087,-1.585924,-6.834351,0.875373,0.085830,0.458117
345670449,2.753767,-1.251437,-6.561005,0.888959,0.079792,0.458084
345680469,2.817563,-0.096084,-6.334037,0.892600,0.066797,0.458764
345690490,3.140798,1.454308,-6.048486,0.887522,0.057255,0.464997
345700511,4.130897,1.818413,-5.766926,0.879735,0.049768,0.472468
345710536,5.452761,0.738085,-5.517017,0.873557,0.052455,0.478227
345720551,6.288582,-0.630523,-4.988852,0.877778,0.052888,0.471335
345730572,7.247639,-0.995975,-4.523524,0.883066,0.051106,0.462830
345740592,7.736129,0.189282,-4.589337,0.890745,0.065581,0.463313
345750613,7.540414,0.782409,-4.359848,0.883916,0.086886,0.470371
345760634,6.462965,0.889980,-3.848881,0.881507,0.098458,0.477177
345770655,5.536589,0.875719,-3.537034,0.878691,0.092854,0.477931
345780676,5.095406,0.587310,-3.457195,0.878078,0.086423,0.469968
345800717,4.914431,0.861208,-3.197044,0.879169,0.086034,0.468886
345810738,5.189453,0.921920,-2.879242,0.876950,0.084260,0.471070
345820758,5.280367,0.237889,-2.635507,0.877009,0.089018,0.473580
345830779,4.626990,-0.475804,-2.172725,0.873991,0.093587,0.468786
345840800,4.004816,-0.946259,-1.618992,0.876255,0.084001,0.459049
345850820,3.931012,-0.778753,-1.115777,0.885088,0.076183,0.455354
345860842,3.719942,-0.459197,-0.794493,0.888964,0.079402,0.454628
345870862,3.447738,0.453102,-0.838978,0.889459,0.087570,0.450558
345880883,2.489666,1.168226,-1.213223,0.889979,0.098314,0.449745
345890904,1.060138,1.701369,-1.522735,0.889900,0.105986,0.451502
345900926,0.208288,2.203603,-1.851884,0.888077,0.093441,0.452685
345910946,0.527571,2.476889,-1.991719,0.890032,0.076808,0.451197
345920967,1.043968,2.415581,-2.117513,0.888209,0.065017,0.455651
345930988,1.393076,2.719168,-2.425209,0.887680,0.067055,0.459090
345941009,1.347040,2.551979,-2.455171,0.883496,0.068985,0.465053
345951029,1.210474,2.354555,-2.286335,0.879002,0.073052,0.463530
345961050,1.302017,2.111343,-2.088731,0.880282,0.073211,0.462992
345971080,1.774754,1.624757,-1.497669,0.882818,0.071891,0.462111
345981092,1.912303,1.563928,-1.285353,0.886644,0.070893,0.458141
345991113,2.064843,1.928608,-1.332578,0.892317,0.072638,0.459078
346001133,2.384536,2.490707,-1.503163,0.888361,0.077659,0.464471
346011154,2.355174,2.779621,-1.366081,0.879846,0.081248,0.464015
346021176,2.338234,2.369081,-1.624585,0.875702,0.085155,0.466137
346031194,2.398777,1.897854,-1.472238,0.867263,0.081832,0.468288
346041215,2.261759,1.548396,-1.348964,0.865748,0.078597,0.471581
346051235,1.788746,0.895092,-1.466613,0.873099,0.082111,0.468510
346061257,1.667030,0.439245,-1.267173,0.877863,0.081791,0.459443
346071277,1.821993,1.016983,-0.781336,0.887498,0.079256,0.456621
346081298,1.944204,1.457690,-0.843636,0.890143,0.085969,0.457496
346091318,1.518479,1.914004,-1.054116,0.894397,0.091410,0.462216
346101339,0.820299,2.507485,-1.003614,0.894486,0.098361,0.465437
346111360,0.137189,2.994549,-0.937891,0.886441,0.097223,0.467937
346121381,-0.578598,2.843052,-1.160808,0.875103,0.096353,0.475327
346131401,-1.736897,1.992642,-1.455855,0.871840,0.097491,0.474747
346141422,-2.391856,1.430745,-1.480776,0.879259,0.091665,0.466109
346151443,-2.526585,1.795867,-1.099173,0.883068,0.088070,0.455970
346161464,-2.054317,2.008338,-0.965866,0.883139,0.080606,0.457671
346171484,-1.915966,2.069189,-0.601306,0.882708,0.089196,0.459600
346181505,-2.235826,2.084599,-0.751234,0.883082,0.090297,0.461414
346191526,-2.358543,2.099776,-1.039803,0.887782,0.087116,0.459836
346201547,-2.692841,2.632025,-1.235818,0.882231,0.095822,0.467189
346211569,-3.391624,2.830284,-1.154465,0.874419,0.099650,0.476023
346221589,-4.046782,2.222769,-1.209814,0.870396,0.099175,0.477636
346231610,-4.093600,1.371573,-1.117231,0.869937,0.089795,0.465510
346241631,-3.835354,1.143349,-1.073285,0.877726,0.086209,0.464869
346251652,-3.849917,1.432201,-1.042973,0.883730,0.084260,0.460012
346261672,-4.063036,1.933895,-1.346545,0.889348,0.082365,0.461708
346271693,-4.092057,2.633197,-1.316511,0.887426,0.074337,0.457025
346281714,-3.499396,2.830219,-1.504080,0.881203,0.072419,0.456268
346291735,-2.373990,2.859666,-1.467027,0.890906,0.076506,0.461585
346301755,-2.007125,3.543493,-1.287647,0.886966,0.082431,0.465878
346311776,-1.929771,3.953932,-1.136263,0.881159,0.084909,0.468728
346321797,-2.019790,4.045342,-0.861400,0.879008,0.088626,0.473962
346331816,-2.094737,3.680780,-0.403383,0.875371,0.089039,0.473022
346341837,-1.987873,3.437569,-0.175424,0.872540,0.082525,0.474148
346351858,-1.836938,2.920570,-0.221802,0.866814,0.077701,0.475967
346361878,-1.459067,2.160070,-0.452529,0.864359,0.071346,0.474544
346371899,-0.791596,1.338609,-0.472106,0.873375,0.075155,0.465292
346381920,-0.183601,1.064492,-0.400326,0.885594,0.074953,0.462652
346391941,-0.364223,1.946356,-0.338828,0.890779,0.081090,0.464824
346401961,-0.513736,3.117041,-0.232133,0.882048,0.083629,0.470020
346411982,-0.604490,3.314751,-0.201151,0.874438,0.088348,0.476481
346422003,-0.969736,3.041463,-0.152382,0.869858,0.087530,0.479914
346432024,-0.985182,2.494317,0.046329,0.871013,0.077623,0.473813
346442044,-0.712277,2.190025,-0.016422,0.871167,0.075049,0.471286
346452065,-0.211948,2.037439,-0.324845,0.870071,0.075259,0.472733
346462086,0.288411,2.188820,-0.770686,0.869646,0.072015,0.477127
346472107,0.303387,2.477544,-0.969150,0.874833,0.078524,0.480206
346482128,0.227730,2.584040,-0.922960,0.881309,0.072032,0.478486
346492148,0.335068,2.888016,-0.832651,0.881954,0.065060,0.473814
346502169,0.777673,3.510951,-0.699504,0.875762,0.067214,0.481399
346512190,0.534893,3.754390,-0.682636,0.870951,0.076071,0.486025
346522212,0.076869,2.918670,-0.769754,0.866153,0.084525,0.485192
346532233,-0.061923,1.945881,-0.813480,0.868824,0.091364,0.478418
346542254,0.074549,1.580963,-0.737998,0.871559,0.090191,0.473167
346552274,0.713337,1.580430,-0.697186,0.869827,0.083835,0.473207
346562295,0.804285,1.489129,-0.728270,0.873726,0.078572,0.484568
346572315,0.667522,1.215692,-0.574597,0.878885,0.084204,0.492389
346582336,0.181380,1.383342,-0.540555,0.879036,0.079754,0.482594
346592357,0.030699,1.976362,-0.463777,0.875704,0.075214,0.478237
346602378,0.259437,2.371392,-0.481141,0.872386,0.073656,0.482778
346612399,0.594120,2.082358,-0.300595,0.866001,0.073955,0.485642
346622419,1.322339,1.093657,-0.259534,0.863203,0.070190,0.488748
346632440,2.307276,0.058930,-0.662259,0.864237,0.064851,0.483702
346642460,3.261344,-0.717456,-1.308776,0.869208,0.068427,0.484255
346652480,2.894292,-0.291843,-2.068194,0.871930,0.081174,0.487629
346662501,1.586499,0.803536,-2.622957,0.870818,0.092113,0.485163
346672522,0.568448,1.214849,-2.630777,0.872001,0.085905,0.486498
346682543,0.203055,0.637582,-2.475063,0.869175,0.080136,0.489620
346692563,0.719529,0.682670,-2.631432,0.859228,0.073370,0.491607
346702584,1.614147,0.180063,-3.049204,0.853473,0.078742,0.491338
346712605,1.871165,-1.264154,-2.745077,0.858654,0.082437,0.483516
346722625,1.186867,-1.461144,-2.663461,0.872396,0.072878,0.476047
346732646,1.904410,-0.154386,-2.533069,0.884159,0.067433,0.478727
346742667,3.759957,1.090313,-3.005570,0.876518,0.069024,0.481207
346752688,4.093421,1.120296,-3.297651,0.868608,0.077554,0.484539
346762709,3.682374,0.649450,-3.202634,0.868244,0.090698,0.485885
346772729,3.624594,1.075408,-2.608367,0.878956,0.089124,0.492167
346782750,4.131938,2.382665,-1.775480,0.875434,0.086112,0.496900
346792771,4.683420,3.324955,-1.155899,0.864582,0.079725,0.498877
346802791,4.546134,2.732296,-0.986684,0.856343,0.091192,0.504185
346812812,3.148191,1.487372,-0.136776,0.856708,0.101685,0.493722
346822833,1.235079,1.200590,0.731413,0.861638,0.114542,0.491648
346832855,-0.253442,1.430039,1.047340,0.863976,0.124705,0.489943
346842876,-1.193766,1.659109,1.572378,0.864579,0.128521,0.489369
346852896,-1.664382,1.811586,1.697734,0.872094,0.117806,0.485689
346862917,-1.800951,2.282878,1.545970,0.872926,0.101261,0.493843
346872938,-1.298494,2.692873,1.526493,0.865338,0.094861,0.500760
346882959,-0.431890,2.357753,1.657295,0.861192,0.086199,0.504625
346892980,0.584852,1.323164,1.620005,0.855946,0.077003,0.507941
346903001,1.586917,0.547017,1.597819,0.855932,0.076472,0.510130
346913021,1.708789,0.227779,1.810499,0.855203,0.076859,0.511760
346923042,1.115617,-0.090888,1.922004,0.854057,0.086936,0.516039
346933062,1.159869,-1.094163,2.044506,0.848026,0.084804,0.511278
346943083,1.963977,-2.508492,2.252990,0.854710,0.079378,0.506091
346953103,3.270055,-3.269715,2.197986,0.867647,0.076930,0.496919
346963123,4.851990,-2.906260,2.170277,0.877941,0.082034,0.492946
346973144,6.130906,-1.980085,2.159595,0.875820,0.086999,0.494347
346983165,6.846406,-1.220698,2.016263,0.872303,0.083033,0.493261
346993186,7.165689,-0.947412,1.876427,0.868133,0.083798,0.489583
347003206,7.212037,-0.704195,1.952024,0.867266,0.085782,0.484825
347013227,6.924232,-0.232675,2.014731,0.864526,0.098598,0.486521
347023248,6.515032,0.406158,2.062975,0.865126,0.101479,0.482677
347033269,6.014246,0.786662,2.142637,0.868487,0.106140,0.478657
347043290,5.665362,0.893449,2.312814,0.870858,0.103840,0.468133
347053310,4.873138,1.121923,1.800628,0.878500,0.102624,0.467106
347063331,4.219540,2.231978,1.332256,0.878142,0.103368,0.468372
347073352,3.749727,3.463615,1.151854,0.875201,0.102528,0.472181
347083372,3.127991,4.254653,1.216820,0.869905,0.101879,0.472330
347093393,1.593124,4.210490,1.472415,0.862633,0.105337,0.481535
347103414,-0.581726,3.573994,1.657294,0.856686,0.109978,0.480725
347113434,-1.694213,2.480397,1.529728,0.865460,0.109411,0.470961
347123455,-2.258540,1.781567,1.412823,0.886047,0.105917,0.459122
347133476,-3.583413,1.752080,0.904965,0.900622,0.101187,0.440512
347143498,-6.139547,2.681182,0.039962,0.916475,0.096247,0.420639
347153519,-8.740479,4.218344,-0.901455,0.928581,0.085382,0.405886
347163540,-10.198163,7.137881,-1.761524,0.925148,0.074675,0.405767
347173560,-10.804672,10.588579,-2.963828,0.917771,0.072540,0.422847
347183581,-10.303002,12.989434,-4.143161,0.890364,0.086815,0.448932
347193602,-9.162449,13.338021,-4.274128,0.844243,0.106890,0.481752
347203623,-8.812346,11.605179,-3.345742,0.803222,0.113567,0.513081
347213643,-9.042773,7.060866,-1.785547,0.784692,0.098543,0.540018
347223664,-9.369995,1.376120,-1.137726,0.813049,0.068246,0.544299
347233685,-8.007706,-1.756601,-1.267102,0.855252,0.056872,0.521394
347243705,-5.330647,-0.846922,-1.471327,0.885933,0.059278,0.514315
347253726,-3.533540,2.024307,-2.097284,0.892223,0.065749,0.514490
347263746,-3.577338,3.787540,-2.464293,0.894820,0.070125,0.519753
347273766,-3.986308,4.137637,-2.217703,0.896984,0.066756,0.512331
347283787,-3.786188,4.624093,-1.808309,0.901417,0.066928,0.494881
347293808,-2.412704,6.553657,-1.424513,0.889841,0.068968,0.475843
347303829,-0.599131,9.318634,-1.669581,0.863358,0.067049,0.483313
347313849,0.559263,11.050547,-1.771519,0.832603,0.074939,0.501960
347323870,0.616468,9.575851,-2.014349,0.819407,0.087694,0.523791
347333891,-1.045950,6.765044,-1.983709,0.827287,0.103630,0.524992
347343911,-3.237086,5.216547,-1.645477,0.850317,0.105014,0.512038
347353932,-4.496318,5.856289,-1.209803,0.859153,0.094739,0.496346
347363953,-4.203416,7.513103,-0.954593,0.855233,0.074717,0.493023
347373974,-2.467565,8.454173,-0.770716,0.847508,0.059031,0.501472
347383995,0.057624,8.315336,-0.424267,0.844306,0.053669,0.509687
347394015,2.078834,7.568750,-0.362875,0.835765,0.056188,0.512517
347404036,2.928182,7.096620,-0.704146,0.837147,0.065339,0.520100
347414057,2.713741,6.458299,-0.808555,0.843457,0.075718,0.531167
347424078,2.333699,5.835516,-0.485083,0.851722,0.080535,0.533555
347434098,1.254417,5.638910,-0.309020,0.854319,0.083591,0.533003
347444119,0.555817,6.065161,-0.288830,0.855063,0.084863,0.533908
347454141,0.435920,6.384632,0.016519,0.850618,0.080764,0.537733
347464162,0.695244,5.791780,0.517899,0.839634,0.078026,0.539861
347474183,0.586062,4.666889,0.336960,0.835932,0.073130,0.535868
347484204,1.041035,4.210412,0.242484,0.841733,0.083239,0.533824
347494224,1.923649,3.966562,0.540679,0.840974,0.095330,0.540092
347504245,1.817808,3.814743,0.770183,0.842444,0.096033,0.539550
347514266,1.452283,3.419838,0.803832,0.833464,0.080696,0.543253
347524287,1.846825,2.507516,1.030218,0.830607,0.073490,0.549301
347534307,2.559390,1.336398,1.041099,0.833905,0.074719,0.549679
347544328,2.404685,0.804285,0.600927,0.836074,0.084100,0.540331
347554349,1.824599,0.789318,0.011162,0.831944,0.089292,0.543718
347564369,1.182266,-0.168046,-0.501052,0.825475,0.083948,0.547720
347574389,0.919519,-1.581747,-0.939563,0.827200,0.077367,0.548880
347584410,0.870934,-2.478744,-1.288784,0.828653,0.075284,0.541260
347594430,0.930908,-2.433302,-1.533072,0.836524,0.076594,0.537118
347604451,1.159341,-2.205486,-1.550275,0.836186,0.077479,0.532739
347614472,1.356551,-2.296900,-1.627884,0.835872,0.080191,0.528890
347624492,1.706448,-2.357975,-1.554326,0.839797,0.086123,0.525228
347634513,1.767570,-2.160417,-1.570218,0.838339,0.085579,0.522673
347644534,1.007371,-2.129354,-1.564419,0.841692,0.090259,0.521202
347654555,0.277934,-2.128674,-1.452170,0.838589,0.090880,0.524998
347664576,0.247734,-2.204613,-1.360448,0.840138,0.096861,0.523321
347674596,0.568258,-2.174351,-1.058202,0.845536,0.104243,0.521479
347684617,0.463356,-1.778928,-0.844459,0.848287,0.104915,0.519308
347694638,-0.295237,-0.866187,-0.839506,0.850109,0.104324,0.516959
347704658,-0.949041,-0.379279,-1.063502,0.850247,0.100280,0.512805
347734733,-3.277167,-0.316675,-1.533282,0.857405,0.113005,0.497275
347744742,-3.624734,0.003042,-1.119532,0.858539,0.103711,0.500273
347754762,-3.834809,1.219403,-0.966705,0.853164,0.098350,0.504102
347764784,-3.453888,1.112780,-0.710503,0.852856,0.090358,0.507808
347774805,-2.391460,-0.392982,-0.503913,0.857376,0.086795,0.503500
347784826,-1.723497,-0.880026,-0.554283,0.867416,0.086041,0.495750
347794847,-1.006732,0.031491,-0.438748,0.874372,0.086997,0.491058
347804868,-0.594206,1.505585,-0.626144,0.875054,0.084459,0.494544
347814888,-0.319290,2.751736,-0.903688,0.863959,0.086457,0.495721
347824909,0.091324,2.857776,-0.937410,0.850874,0.089771,0.498147
347834930,-0.168125,2.584321,-1.057055,0.847813,0.093874,0.504464
347844950,-0.610019,2.128649,-1.083709,0.849489,0.099229,0.517179
347854971,-0.884458,1.718449,-1.081217,0.851663,0.099038,0.520474
347864992,-0.747560,1.459969,-0.944893,0.856591,0.098569,0.516325
347875013,-0.657041,1.611788,-1.204753,0.862463,0.099897,0.510349
347885032,-0.701734,2.341445,-1.311756,0.859753,0.101388,0.509224
347895053,-0.669322,3.344729,-1.267243,0.859230,0.103791,0.512660
347905074,-0.729923,3.815948,-1.434827,0.853533,0.112980,0.510904
347915094,-1.277107,3.862041,-1.400202,0.851817,0.120292,0.509920
347925115,-2.431951,4.015111,-1.269599,0.854123,0.115507,0.508520
347935136,-2.977793,4.319729,-1.006680,0.856842,0.100666,0.504292
347945157,-2.307424,4.547278,-0.768250,0.862686,0.086848,0.496619
347955177,-1.119562,5.123998,-0.564590,0.869107,0.075207,0.488750
347965198,-0.172598,7.297009,-0.497722,0.873609,0.074325,0.502083
347975219,0.104890,9.348963,-0.486553,0.862961,0.085356,0.517756
347985240,0.394539,9.698357,-0.458631,0.846910,0.098011,0.519901
347995261,-0.061887,9.516343,-0.439723,0.839246,0.111287,0.524470
348005281,-0.759287,9.836349,-0.053764,0.829895,0.109677,0.534430
348015302,-0.426161,8.437670,0.249736,0.829681,0.106928,0.532084
348025322,-0.519975,6.796049,0.358664,0.837057,0.098939,0.526923
348035344,-0.779388,6.446608,0.284800,0.843916,0.093530,0.524286
348045364,-0.398470,6.689541,0.373070,0.843167,0.092081,0.524111
348055385,-0.337342,6.826307,0.387708,0.840942,0.092955,0.539383
348065407,-0.307851,6.704589,0.204758,0.837123,0.096385,0.551891
348075428,-0.035256,5.974713,0.264305,0.829576,0.104914,0.555771
348085449,-0.598702,5.184798,0.421737,0.823560,0.106703,0.563724
348095469,-1.269421,3.999727,0.549893,0.827283,0.099732,0.565630
348105490,-1.710695,3.756901,0.583979,0.830085,0.090912,0.562082
348115511,-1.511681,3.954463,0.841288,0.832962,0.085119,0.548676
348125532,-0.660136,3.923336,0.865262,0.834027,0.080461,0.537068
348135552,-0.204442,4.181254,0.617739,0.838802,0.082754,0.536356
348145573,0.115731,4.241872,0.813303,0.833142,0.083427,0.541954
348155594,-0.463441,4.059834,0.543657,0.826779,0.085934,0.547713
348165615,-1.041303,4.181911,0.471789,0.820986,0.089699,0.552010
348175636,-0.950150,3.756276,0.654331,0.810945,0.090267,0.559216
348185670,-0.602051,2.357557,0.896770,0.812205,0.089529,0.560688
348195676,-0.481729,1.187042,1.110267,0.819223,0.081909,0.555339
348205696,-0.314570,0.974112,1.185369,0.825161,0.076158,0.553973
348215717,0.218416,1.353698,1.211397,0.831338,0.074981,0.555303
348225738,0.492321,1.247099,1.316054,0.832604,0.074610,0.556954
348235759,0.536771,0.958159,1.148384,0.835775,0.079667,0.556935
348245779,0.674209,1.155685,1.208090,0.841319,0.084868,0.556387
348255800,0.781475,1.611634,1.206836,0.836052,0.084529,0.549067
348265821,0.810861,1.368317,1.054475,0.834631,0.089172,0.557759
348275842,0.645581,2.007015,1.268451,0.829498,0.086306,0.554285
348285863,0.918467,1.596334,1.251510,0.824496,0.079599,0.549388
348295883,0.886039,1.094586,0.962738,0.825121,0.086566,0.555890
348305904,0.917532,1.657017,0.977201,0.820055,0.089570,0.557467
348315925,0.916431,1.626491,0.702980,0.815799,0.085073,0.557109
348325945,0.990433,0.866282,0.535529,0.821705,0.089522,0.554202
348335966,0.929815,0.881557,0.581689,0.822289,0.092630,0.556548
348345987,0.945770,1.580745,0.443776,0.820943,0.089045,0.562212
348356008,0.868926,1.322346,0.353190,0.817798,0.085245,0.559853
348366029,0.913779,0.744689,0.429575,0.823605,0.083333,0.559548
348376050,0.974173,0.638200,0.368267,0.830030,0.085389,0.554661
348386071,1.020536,1.048597,0.367523,0.827282,0.084899,0.556830
348396092,0.976028,1.656691,0.367289,0.826018,0.085832,0.557177
348406113,0.838699,1.550366,0.292260,0.825466,0.085663,0.557903
348416134,0.731330,1.261585,0.186700,0.827331,0.088362,0.556802
348426154,0.685734,1.048853,0.293907,0.825893,0.090409,0.559506
348436175,0.290319,1.003592,0.296981,0.829664,0.085776,0.557022
348446196,0.457354,1.200996,0.143148,0.829838,0.084850,0.555393
348456217,0.624911,1.398462,0.126440,0.829084,0.084167,0.560127
348466237,0.807641,1.641505,0.079100,0.830917,0.085244,0.561588
348476258,0.807046,1.474256,0.003079,0.827989,0.084373,0.561210
348486279,0.639494,1.215998,0.050318,0.830552,0.085251,0.561768
348496298,0.699251,1.079038,-0.163323,0.827865,0.087255,0.556087
348506319,0.744753,1.048588,-0.178880,0.828066,0.087584,0.551533
348516339,0.775122,0.866180,-0.102757,0.825470,0.084901,0.553357
348526360,1.155566,0.561925,0.123162,0.824200,0.086225,0.557343
348536381,1.337761,-0.030990,0.335638,0.820548,0.086485,0.560410
348546402,1.427499,-0.882339,0.350992,0.817620,0.086558,0.564394
348556422,1.518840,-1.140773,0.502902,0.819076,0.087860,0.570949
348566443,1.290791,-1.125374,0.504636,0.816178,0.088801,0.569099
348576464,1.168555,-1.930838,0.734883,0.816637,0.080899,0.561520
348586485,1.091458,-2.614813,0.781831,0.822479,0.081352,0.560648
348596505,0.773815,-2.052011,0.951337,0.828143,0.081234,0.556138
348606526,0.623165,-0.835865,0.738030,0.830954,0.086288,0.554842
348616547,0.699380,0.288751,0.248811,0.827218,0.093855,0.559669
348626567,0.607486,0.562318,-0.055475,0.822371,0.101479,0.570132
348636588,0.227138,0.441037,-0.052444,0.829309,0.102289,0.570358
348646609,0.272039,0.304130,-0.174552,0.831368,0.089745,0.554635
348656630,0.363829,0.866447,-0.297680,0.834577,0.084402,0.553610
348666651,0.913377,1.671726,-0.119815,0.830912,0.083748,0.556502
348676672,0.670901,2.082381,-0.103108,0.822014,0.087952,0.564596
348686694,0.442885,1.733029,0.081810,0.813635,0.089574,0.569802
348696714,-0.014793,0.608586,0.223511,0.813873,0.091325,0.560321
348706735,0.028721,-0.257993,0.086868,0.813899,0.092770,0.558488
348716756,-0.078066,-0.546706,0.133669,0.819751,0.094520,0.560520
348726776,-0.429114,-0.926512,-0.030883,0.822831,0.093009,0.559644
348736797,-0.688896,-1.063223,-0.303021,0.827889,0.089270,0.557345
348746818,-0.399506,-0.729057,-0.336028,0.830054,0.087972,0.558828
348756838,-0.140463,-0.136490,-0.475704,0.830998,0.089765,0.556635
348766859,-0.458997,0.638982,-0.641598,0.824092,0.090576,0.553664
348776880,-0.642543,0.426239,-0.822828,0.822985,0.091000,0.559480
348786901,-0.672934,0.213494,-0.715738,0.818589,0.090551,0.564004
348796922,-0.505233,-0.212146,-0.396653,0.820598,0.091267,0.566197
348806941,-0.671185,0.152907,-0.228123,0.829394,0.093282,0.560600
348816962,-1.141643,0.487780,-0.148650,0.839444,0.095520,0.563022
