Timestamp (us),Gyroscope X (deg/s),Gyroscope Y (deg/s),Gyroscope Z (deg/s),Accelerometer X (g),Accelerometer Y (g),Accelerometer Z (g)
4282174192,-0.065443,0.007330,-0.001432,0.996475,0.011337,0.042735
4282194237,0.087280,-0.030614,0.003406,0.995475,0.011336,0.043024
4282214282,-0.003581,0.060916,0.050583,0.995835,0.009881,0.042657
4282234328,0.163472,0.030193,0.001540,0.995117,0.012337,0.043482
4282254391,0.009785,0.060462,-0.026157,0.997327,0.009886,0.044266
4282274418,0.109855,-0.008140,0.010428,0.996497,0.010793,0.043915
4282294463,0.041490,0.014861,0.049868,0.995757,0.011519,0.043473
4282314508,0.017882,0.045247,0.019441,0.996794,0.011706,0.045180
4282334554,-0.090780,0.006748,-0.077524,0.997156,0.011706,0.044992
4282354599,-0.073217,0.060344,0.036535,0.996458,0.010434,0.046640
4282374645,0.027414,-0.000568,0.095806,0.997845,0.011976,0.042801
4282394690,-0.074330,0.067618,-0.032492,0.997966,0.011342,0.044343
4282414736,-0.058031,-0.031480,0.005885,0.997017,0.010155,0.042364
4282434781,0.117052,-0.038986,-0.020464,0.996772,0.010430,0.043911
4282454827,0.041517,0.029737,0.041881,0.998315,0.011250,0.043430
4282474872,-0.020229,0.037214,0.004852,0.996411,0.010703,0.044189
4282494919,-0.050850,0.037053,-0.002302,0.996092,0.011608,0.041833
4282514964,0.095573,0.060026,0.063511,0.996699,0.011978,0.044999
4282535010,-0.036229,0.059566,-0.033258,0.997671,0.010430,0.043170
4282555055,-0.089624,-0.009196,-0.031995,0.996791,0.010159,0.044910
4282575101,0.000815,-0.070074,-0.109754,0.997941,0.010257,0.047795
4282595146,0.049446,-0.008650,0.049688,0.997969,0.010433,0.044436
4282615192,-0.128867,-0.085164,-0.091734,0.996920,0.009335,0.042004
4282635243,0.002970,-0.092311,-0.002495,0.996975,0.011706,0.045086
4282655281,-0.060428,-0.016243,-0.131221,0.995886,0.013161,0.045556
4282675326,-0.028214,0.029680,-0.040125,0.996686,0.010248,0.044185
4282695372,-0.089366,0.006742,-0.053971,0.997373,0.011064,0.041903
4282715417,-0.018841,-0.008335,0.036389,0.998374,0.012521,0.041793
4282735463,0.058165,0.060377,0.065127,0.996506,0.010521,0.044370
4282755509,0.078824,0.021798,-0.049799,0.997782,0.010978,0.044256
4282775554,0.055756,0.037030,-0.049248,0.996200,0.010609,0.042650
4282795599,-0.012394,0.052233,-0.002107,0.998994,0.009071,0.045419
4282815645,-0.149047,0.044602,0.038792,0.995489,0.011156,0.043750
4282835690,-0.057462,0.135768,0.006065,0.997598,0.009249,0.044081
4282855736,-0.172394,0.120018,-0.022266,0.996031,0.010064,0.043380
4282875783,-0.117113,0.005842,0.061120,0.997714,0.011617,0.045527
4282895828,0.074502,-0.123544,0.088248,0.996784,0.011887,0.044635
4282915874,0.202971,0.074629,0.016178,0.996880,0.010614,0.044817
4282935919,0.102640,-0.039849,-0.012123,0.998239,0.012070,0.044337
4282955965,0.116379,0.028566,-0.088889,0.999036,0.013252,0.043051
4282976010,0.040451,0.089489,-0.041610,0.996273,0.010243,0.041651
4282996056,-0.027051,0.051335,0.028654,0.994773,0.011611,0.044579
4283016101,-0.119555,0.051002,-0.030724,0.995598,0.009520,0.044568
4283036145,-0.004529,0.028152,-0.009945,0.996775,0.008793,0.044005
4283056190,-0.065963,-0.040489,-0.023708,0.996046,0.010793,0.044195
4283076236,-0.034949,0.043408,-0.016882,0.996319,0.010157,0.044101
4283096282,-0.095114,0.020519,0.037828,0.997354,0.010161,0.045717
4283116327,0.087638,-0.108943,-0.003592,0.997498,0.011522,0.043716
4283136373,-0.049670,-0.085835,0.014322,0.998050,0.012160,0.043977
4283156418,-0.164132,0.066609,0.008323,0.996606,0.011796,0.044910
4283176463,-0.104256,-0.078484,-0.076310,0.994774,0.010701,0.044580
4283196509,-0.048021,-0.032143,0.060039,0.995662,0.009799,0.048016
4283216554,0.103396,0.020985,-0.027141,0.996593,0.008338,0.044009
4283236600,0.326204,-0.070124,0.068066,0.996889,0.011160,0.045361
4283256646,0.096697,0.051855,0.094782,0.997607,0.012343,0.044711
4283276692,0.240691,-0.138679,0.046641,0.997340,0.014800,0.045256
4283296738,-0.166784,-0.047307,-0.067953,0.994546,0.010151,0.042134
4283316783,0.188099,-0.122833,0.101143,0.993862,0.007334,0.044420
4283336828,0.307825,-0.130410,-0.008306,0.993930,0.008705,0.048138
4283356889,0.285628,-0.175524,0.083931,0.996988,0.011252,0.045722
4283376919,0.178673,-0.053255,0.108238,0.999260,0.012801,0.045227
4283396965,0.161415,-0.068533,0.024307,1.000356,0.014258,0.045296
4283417009,-0.205624,0.045788,0.031045,1.000116,0.016436,0.042392
4283437054,-0.365148,0.037969,0.041699,0.999632,0.011156,0.040593
4283457100,-0.258675,0.113837,-0.037064,0.998315,0.009058,0.038441
4283477145,-0.234194,0.159401,0.008265,0.998375,0.006781,0.036628
4283497191,-0.005146,0.204679,-0.026906,0.995524,0.009140,0.035765
4283517236,0.018737,0.219449,0.026082,0.992986,0.010412,0.036895
4283537282,0.178636,0.180819,0.000185,0.997572,0.006161,0.047354
4283557327,0.261364,0.127043,-0.039452,0.994903,0.010705,0.046575
4283577372,0.300808,0.104064,0.066793,0.993776,0.013157,0.045047
4283597418,0.237880,-0.033318,0.007269,0.992910,0.012068,0.047515
4283617463,0.092123,-0.040981,0.010024,0.997091,0.010981,0.046356
4283637510,0.113235,-0.018081,-0.082067,0.998512,0.010524,0.044154
4283657556,0.146032,0.073579,0.054633,1.001061,0.009526,0.043658
4283677601,0.098899,0.141770,0.001683,0.999797,0.011064,0.039683
4283697647,0.212832,0.194677,-0.023554,0.997565,0.009146,0.037455
4283717701,0.319514,0.300818,-0.003119,0.999523,0.009881,0.039599
4283737738,0.202391,0.307463,-0.100042,0.997804,0.013701,0.040711
4283757783,0.011401,0.283825,-0.080717,0.994926,0.015702,0.043208
4283777831,-0.072288,0.260322,-0.055996,0.993847,0.017158,0.044222
4283797873,-0.155572,0.145463,-0.023269,0.995896,0.012425,0.041200
4283817918,-0.170996,0.114657,-0.053363,0.993964,0.011875,0.040416
4283837964,-0.246288,0.099211,-0.013567,0.998236,0.009432,0.043979
4283858009,-0.032350,0.121737,-0.048239,0.997920,0.008790,0.041716
4283878055,-0.115588,0.091059,-0.008203,0.998095,0.011064,0.041437
4283898100,-0.155023,0.235288,-0.091955,1.000107,0.012159,0.041673
4283918146,0.023371,0.295988,0.026857,1.001284,0.004162,0.045479
4283938191,0.116032,0.531344,0.077579,1.003981,-0.005738,0.052258
4283958236,1.269923,0.682665,0.108038,1.003433,-0.020552,0.061097
4283978282,2.268472,0.826054,0.179269,0.999644,-0.023911,0.068248
4283998328,3.878983,1.015607,0.246401,0.998259,-0.042631,0.080920
4284018374,5.961231,0.917403,0.397349,0.994368,-0.028912,0.073974
4284038420,7.253596,0.856814,0.410681,0.986629,0.000623,0.062528
4284058465,7.734015,0.612927,0.348680,0.986027,0.004347,0.059900
4284078511,7.949984,0.178870,0.468198,0.984549,0.010985,0.059460
4284098556,7.666629,-0.065116,0.451584,0.986195,0.029002,0.060673
4284118602,6.808871,-0.408445,0.385315,0.991241,0.030112,0.066758
4284138647,6.096651,-0.439266,0.322823,0.993590,0.036482,0.065800
4284158691,5.085469,-0.554092,0.220564,0.991348,0.039021,0.063292
4284178737,4.464908,-0.691585,0.156648,0.994814,0.037471,0.058061
4284198782,3.737980,-0.676613,0.124855,0.992758,0.032269,0.050389
4284218827,3.200529,-0.814213,0.005838,0.995504,0.026797,0.040638
4284238873,2.973566,-0.829201,0.140196,1.000215,0.020978,0.038207
4284258918,2.660138,-0.684492,0.138155,1.002943,0.012064,0.036995
4284278964,2.544831,-0.631261,0.102008,1.003577,0.011883,0.036712
4284299009,2.361791,-0.417881,0.120132,1.003810,0.016247,0.034795
4284319055,1.924269,-0.288673,0.021211,0.997575,0.024697,0.034070
4284339100,1.184826,-0.250483,0.142413,0.996920,0.023420,0.033176
4284359146,0.708462,-0.250911,0.014111,0.995614,0.020149,0.036380
4284379191,-0.047119,-0.494788,0.098358,0.983312,0.049860,0.025194
4284399238,-1.494033,-0.724024,0.004934,0.993880,0.055314,0.014293
4284419283,-3.126384,-0.595405,-0.208346,1.009835,0.048147,0.012308
4284439329,-4.366920,-0.329272,-0.322707,1.015839,0.028072,0.024312
4284459374,-4.831869,0.234697,-0.262072,1.022395,0.023622,0.022937
4284479420,-5.697052,0.752493,-0.346347,1.007028,0.028510,0.022101
4284499465,-6.175346,0.751813,-0.581590,0.991745,0.025582,0.025272
4284519510,-6.556574,0.698507,-0.520525,0.989560,0.018037,0.030042
4284539555,-7.100815,0.606738,-0.593715,0.995735,0.021724,0.052625
4284559600,-8.036619,0.575616,-0.758848,1.007103,0.044368,0.090248
4284579645,-9.823716,1.031631,-1.084837,1.002460,0.057549,0.140505
4284599691,-11.932073,1.168481,-0.983250,1.000204,0.086241,0.163190
4284619737,-14.668083,1.647988,-0.931756,1.006799,0.112208,0.180373
4284639782,-17.129322,1.829321,-1.320164,0.992693,0.065726,0.194852
4284659827,-16.458996,2.043536,-1.043509,0.978523,-0.004733,0.180141
4284679873,-18.797295,0.716153,-1.345224,0.932912,0.239469,0.028280
4284699918,-28.521385,-0.827549,-2.053088,0.954830,0.355176,-0.047449
4284719964,-36.816956,-0.996396,-1.608824,1.030017,0.145140,0.056919
4284740009,-41.342621,-0.814629,-1.575102,1.015715,0.185041,0.100307
4284760056,-47.031151,-0.581904,-2.428319,1.019547,0.187602,0.105139
4284780101,-52.910500,-0.005278,-2.851056,0.979182,0.225581,0.059286
4284800147,-60.366226,-0.778048,-3.299844,0.954069,0.239661,0.016753
4284820192,-69.335754,-1.825543,-3.733626,0.960896,0.255779,-0.032137
4284840238,-79.068741,-2.575903,-4.115376,0.956326,0.268186,-0.060675
4284860283,-88.896469,-3.524805,-4.655098,0.978374,0.260545,-0.078740
4284880329,-98.317612,-4.046684,-5.135357,0.993561,0.251090,-0.087788
4284900374,-107.065720,-4.309265,-5.614256,1.003918,0.270198,-0.094442
4284920418,-115.338600,-4.129586,-6.042717,1.033029,0.271759,-0.110373
4284940464,-123.841293,-3.804248,-6.077490,1.012562,0.258701,-0.121259
4284960509,-131.087723,-3.211559,-5.992342,1.029011,0.251586,-0.145583
4284980555,-138.336868,-3.274571,-6.034863,1.003108,0.230046,-0.164351
4285000600,-144.422668,-3.222815,-6.016285,1.017525,0.183597,-0.206912
4285020645,-149.023636,-2.758965,-5.928551,1.027209,0.151668,-0.213651
4285040691,-153.506012,-2.128915,-6.477911,1.062367,0.099205,-0.227054
4285060737,-155.402008,-0.385331,-6.951262,1.040588,0.034359,-0.199160
4285080782,-154.965363,0.939837,-7.376785,1.041187,-0.007726,-0.179584
4285100827,-153.918793,1.815347,-7.881420,1.028770,-0.046568,-0.167143
4285120873,-152.523132,2.729701,-8.110222,0.994540,-0.019585,-0.159342
4285140920,-152.937164,0.617616,-8.523079,0.941304,0.025992,-0.218877
4285160965,-153.692291,-0.997862,-8.365501,1.009985,0.030058,-0.291951
4285181011,-156.290253,-1.248821,-7.840485,1.067987,0.115632,-0.306154
4285201056,-160.504700,-0.497725,-8.800445,1.046958,0.108645,-0.278459
4285221102,-163.270218,-0.292416,-8.678693,1.008891,0.038569,-0.262171
4285241147,-164.944824,-0.291895,-8.264128,1.017652,0.042644,-0.228286
4285261193,-166.454208,0.201624,-8.878364,1.014286,0.051028,-0.217349
4285281251,-166.757614,0.171377,-8.742472,1.000188,-0.002104,-0.207670
4285301282,-166.382690,0.377261,-8.735148,1.025403,-0.027476,-0.223581
4285321327,-164.947433,0.095411,-8.846117,0.980289,-0.061733,-0.215493
4285341373,-163.375992,-0.774346,-9.439181,1.001250,-0.053900,-0.227301
4285361418,-161.222931,-1.131333,-9.174112,0.972463,-0.072643,-0.204902
4285381464,-160.126450,-1.999352,-8.970898,1.005307,-0.028489,-0.213977
4285401509,-160.008423,-1.992260,-9.210096,1.003121,-0.008285,-0.207528
4285421555,-160.204651,-1.961498,-9.068844,1.007795,-0.019377,-0.207408
4285441600,-159.734573,-1.426481,-8.460790,1.012384,-0.021105,-0.211205
4285461645,-159.680115,-1.212976,-8.416708,1.027516,0.003371,-0.221036
4285481691,-159.390259,-1.266329,-8.452721,1.001733,0.002629,-0.207795
4285501736,-158.771027,-1.266173,-8.457096,0.969900,-0.003913,-0.176650
4285521783,-157.899796,-3.399689,-8.405766,0.978230,-0.023529,-0.215793
4285541829,-156.257065,-3.787040,-8.031355,1.011998,-0.079279,-0.235340
4285561874,-153.636505,-4.113277,-7.706688,0.980951,-0.086742,-0.211014
4285581920,-151.105240,-4.797378,-7.233909,1.009689,-0.082493,-0.197986
4285601965,-148.416489,-4.696937,-6.957835,1.031451,-0.108107,-0.193503
4285622011,-145.908951,-3.743765,-7.009665,1.035712,-0.083687,-0.174281
4285642056,-143.543625,-2.713038,-6.470602,1.036626,-0.090683,-0.169836
4285662100,-141.402252,-2.232318,-6.460263,1.016631,-0.061597,-0.167547
4285682146,-139.514023,-2.094685,-6.482079,1.012615,-0.073967,-0.163282
4285702191,-137.199326,-2.405767,-6.159168,1.000278,-0.078435,-0.158979
4285722236,-135.291580,-2.610498,-5.935695,1.003811,-0.080145,-0.150957
4285742282,-133.571701,-3.090178,-5.944547,0.988057,-0.088616,-0.144048
4285762327,-130.962128,-3.698803,-5.794479,1.015199,-0.095763,-0.143773
4285782373,-128.290771,-2.981395,-5.657668,1.020999,-0.110828,-0.127688
4285802418,-125.409546,-2.888354,-5.308889,1.013288,-0.112000,-0.115209
4285822464,-122.310593,-2.910078,-5.177912,1.019949,-0.111345,-0.110694
4285842509,-119.131592,-2.390271,-4.866898,1.012519,-0.119266,-0.108012
4285862555,-115.925964,-2.030998,-4.769826,1.036562,-0.134597,-0.103041
4285882600,-112.002838,-1.427839,-4.748620,0.999085,-0.171186,-0.082370
4285902647,-106.542702,-1.517697,-4.693800,0.994574,-0.212493,-0.081952
4285922693,-100.274529,-1.621900,-4.348953,1.035118,-0.183187,-0.056458
4285942738,-96.013306,-0.294501,-4.260305,1.029608,-0.055738,-0.001564
4285962784,-95.812866,0.521141,-4.198137,1.024845,0.060503,-0.009664
4285982829,-100.271103,1.701012,-4.276027,0.984549,0.192060,-0.021723
4286002874,-108.582611,0.425143,-4.675968,0.955691,0.278128,-0.045248
4286022920,-117.610619,-0.301965,-4.972136,0.978804,0.135294,-0.068463
4286042964,-120.771912,-0.812841,-4.725699,1.034462,0.002181,-0.075091
4286063010,-121.396271,-0.851765,-5.003829,0.971046,-0.005415,-0.047672
4286083055,-121.332512,-1.202938,-5.271348,1.016871,-0.003383,-0.068519
4286103100,-121.306976,-1.454065,-5.118178,1.016105,0.033344,-0.082728
4286123146,-122.151451,-1.447115,-5.308134,1.002089,0.058621,-0.078446
4286143191,-124.342857,-1.547373,-5.563294,1.016116,0.071722,-0.089509
4286163237,-127.159477,-1.632332,-5.722317,0.990769,0.059407,-0.087786
4286183282,-130.242508,-1.968680,-5.806561,1.009174,0.045666,-0.105687
4286203328,-133.436676,-1.893093,-5.706626,1.009694,0.038269,-0.122205
4286223373,-135.958649,-1.239260,-6.087786,1.017121,0.029159,-0.135843
4286243419,-137.458313,-0.432047,-6.175996,1.024788,-0.005577,-0.133465
4286263466,-137.613846,-0.028549,-6.334792,1.054044,-0.044182,-0.124731
4286283511,-137.866302,-1.447006,-6.714886,0.973780,0.015129,-0.163403
4286303556,-137.397980,0.817598,-6.265383,0.984893,-0.028552,-0.128843
4286323602,-139.080017,-2.187238,-7.002169,0.974484,0.008625,-0.189548
4286343647,-140.338196,-2.475717,-6.380762,1.016149,0.018570,-0.207704
4286363693,-142.331757,-1.699707,-6.719092,1.064401,0.040942,-0.200213
4286383738,-146.429840,1.753207,-5.986262,1.297327,0.021054,-0.322797
4286403805,-148.584335,8.925247,-8.688690,0.920812,0.160379,-0.085853
4286423828,-152.470078,5.120458,-9.066751,1.009706,-0.026518,-0.130450
4286443874,-151.779831,3.013058,-7.605970,0.934766,-0.012002,-0.194828
4286463918,-152.236893,2.142454,-8.327782,0.976185,0.013254,-0.249407
4286483964,-151.837646,0.496786,-8.177222,0.948297,-0.089011,-0.232967
4286504010,-149.638794,-0.965150,-7.878798,0.962425,-0.135119,-0.183930
4286524055,-146.722809,-2.091803,-7.679461,0.978376,-0.175501,-0.139654
4286544100,-142.828705,-1.899947,-7.556984,1.027561,-0.169221,-0.127249
4286564146,-138.963684,-1.167855,-7.794890,1.019354,-0.134087,-0.109738
4286584191,-135.781174,-1.257218,-7.267954,0.996108,-0.106649,-0.110477
4286604237,-133.112000,-1.698385,-7.211298,1.001843,-0.067281,-0.128523
4286624282,-131.547974,-1.522147,-6.982424,1.040271,-0.080280,-0.155028
4286644329,-130.063812,-0.448163,-7.396872,1.026349,-0.071147,-0.122489
4286664375,-129.108688,-0.196514,-7.439167,1.059210,-0.077990,-0.109512
4286684420,-128.096832,0.755644,-7.752347,1.038878,-0.036048,-0.090354
4286704466,-127.908134,1.274552,-7.482643,0.976036,-0.003369,-0.078534
4286724511,-126.990585,1.175739,-7.477194,1.006521,-0.029811,-0.086272
4286744557,-126.716743,0.558381,-7.533942,0.995403,-0.030470,-0.089803
4286764602,-126.040611,-0.012535,-7.331201,0.982215,-0.055513,-0.093168
4286784646,-124.725754,-0.871328,-6.467448,0.909279,-0.009529,-0.112153
4286804692,-124.994019,-2.955489,-4.735978,0.912148,0.037994,-0.146141
4286824737,-126.812279,-4.259856,-5.032577,0.983421,0.016902,-0.146050
4286844783,-127.082062,-4.387772,-4.300979,0.978785,-0.067896,-0.096629
4286864828,-124.760910,-4.021791,-4.492424,1.098953,-0.140393,-0.088572
4286884873,-123.241943,-2.104367,-5.972516,1.055275,-0.095596,-0.081820
4286904919,-120.806236,-1.089653,-5.770990,1.017844,-0.115955,-0.091769
4286924965,-118.269463,-1.226353,-5.857965,1.007405,-0.108620,-0.102405
4286945010,-115.954460,-1.270685,-5.528308,0.995587,-0.105374,-0.108927
4286965055,-114.205063,-1.895281,-5.590740,0.986942,-0.081893,-0.096019
4286985101,-113.195251,-2.466463,-5.539660,1.006979,-0.071596,-0.103367
4287005148,-111.569695,-2.092032,-5.297357,1.024381,-0.075635,-0.086501
4287025193,-110.373642,-1.877915,-5.122601,1.014274,-0.060428,-0.069287
4287045239,-109.399948,-1.314395,-5.418462,1.021544,-0.052306,-0.061073
4287065284,-108.417542,-1.199343,-5.216307,0.996556,-0.053803,-0.063913
4287085330,-107.247253,-1.618089,-5.176489,1.002340,-0.069822,-0.073062
4287105375,-105.898468,-1.388714,-5.012389,1.009252,-0.082180,-0.070527
4287125421,-104.269104,-1.433897,-4.967440,0.999913,-0.077439,-0.056850
4287145466,-102.939568,-1.639401,-5.007837,0.998279,-0.079251,-0.051554
4287165510,-100.926048,-1.813785,-4.855291,0.999558,-0.085709,-0.051928
4287185556,-99.346703,-1.797565,-4.618540,1.002075,-0.082599,-0.044169
4287205601,-97.959747,-1.652011,-4.454901,1.001922,-0.068048,-0.046551
4287225647,-96.976379,-1.888362,-4.610742,1.011159,-0.058835,-0.040551
4287245692,-96.018814,-1.727841,-4.515235,1.000408,-0.054663,-0.038832
4287265738,-95.139206,-1.575155,-4.502246,1.010070,-0.059018,-0.040169
4287285783,-93.782181,-1.551453,-4.299413,1.008171,-0.063568,-0.039403
4287305828,-92.527779,-1.383406,-4.278465,1.013970,-0.060926,-0.041776
4287325874,-91.471222,-1.146708,-4.208057,1.003140,-0.065024,-0.035048
4287345919,-90.198761,-0.985920,-4.034606,1.008417,-0.071014,-0.031679
4287365965,-88.531006,-0.733880,-3.991391,0.999714,-0.071194,-0.023269
4287386012,-86.891418,-0.862550,-3.801176,1.004465,-0.071642,-0.023259
4287406057,-85.447807,-0.854733,-3.882704,1.002101,-0.072827,-0.022763
4287426103,-84.068474,-0.914927,-3.710591,0.997162,-0.067922,-0.022777
4287446148,-82.670349,-1.219505,-3.759631,0.996730,-0.065555,-0.021322
4287466194,-81.332664,-1.264915,-3.777795,1.003822,-0.059816,-0.022723
4287486239,-80.320572,-1.005185,-3.630187,1.006214,-0.066717,-0.017396
4287506285,-78.436539,-0.889968,-3.460809,1.000669,-0.098384,-0.017885
4287526330,-75.216110,-1.125140,-3.369687,1.004037,-0.129223,-0.020433
4287546374,-70.270874,-0.940152,-3.045981,1.003217,-0.247342,0.011277
4287566420,-60.286804,-0.166031,-2.310034,1.071647,-0.349244,0.102963
4287586465,-49.634872,2.077355,-2.325517,1.011677,-0.194351,0.134230
4287606511,-44.693985,0.835783,-2.615935,0.956528,-0.098903,0.034340
4287626556,-39.421124,0.877909,-1.503400,0.981550,-0.191882,0.062299
4287646602,-34.484623,0.505478,-1.643798,0.995104,-0.140372,0.062527
4287666647,-30.102337,0.651592,-1.584131,1.015987,-0.145454,0.104119
4287686693,-25.472662,1.110559,-1.385119,1.013458,-0.102950,0.117980
4287706738,-21.889738,1.164471,-1.554161,1.018247,-0.076563,0.116856
4287726783,-18.536772,1.607875,-1.345607,1.002021,-0.069487,0.119027
4287746829,-15.345552,1.822473,-1.194284,0.996355,-0.066063,0.104503
4287766876,-12.305058,1.679159,-0.908939,0.982704,-0.059264,0.102728
4287786921,-9.339086,1.261744,-0.506615,0.974065,-0.047800,0.110390
4287806967,-6.716069,0.782427,-0.464219,0.971764,-0.033976,0.110316
4287827012,-4.784992,0.326283,-0.209797,0.980490,-0.031528,0.098453
4287847058,-2.481443,0.144289,-0.085777,0.982703,-0.050282,0.088642
4287867103,-0.398948,-0.190084,0.081246,0.989816,-0.066740,0.087005
4287887149,2.273055,-0.265106,0.281816,0.995003,-0.056454,0.086627
4287907195,4.284232,-0.203566,0.296076,0.993174,-0.047384,0.072482
4287927238,6.450548,-0.263620,0.437635,0.997427,-0.036836,0.066128
4287947284,8.240809,-0.354439,0.502537,0.994156,-0.013292,0.058792
4287967329,8.400076,-0.354565,0.430674,0.989854,0.007991,0.059647
4287987375,8.032811,-0.552826,0.423178,0.989329,0.031631,0.052627
4288007420,6.744600,-0.805122,0.227413,1.005603,0.062664,0.045580
4288027466,4.496783,-0.584724,0.224447,1.001920,0.064831,0.039285
4288047511,2.560687,-0.600702,0.132164,0.997013,0.043437,0.034502
4288067557,0.816026,-0.479425,0.050992,1.008070,0.037895,0.029512
4288087602,0.103406,-0.487438,-0.034492,1.002370,0.029157,0.031893
4288107648,-0.211522,-0.312442,-0.120661,1.001875,0.001239,0.037848
4288127692,0.524540,-0.372941,-0.004838,0.990997,-0.015121,0.055853
4288147740,1.826176,-0.479039,0.100163,0.988241,-0.023562,0.069077
4288167785,3.072432,-0.493949,0.098954,0.987636,-0.019449,0.080882
4288187831,4.183085,-0.668660,0.215531,0.992766,-0.012872,0.091767
4288207876,5.216508,-0.553919,0.279152,0.993152,0.002515,0.098725
4288227922,5.684504,-0.614550,0.369612,0.993506,0.021976,0.094420
4288247967,5.247278,-0.691053,0.294294,0.996450,0.032892,0.091356
4288268013,4.649537,-0.538983,0.213689,0.996541,0.041163,0.086984
4288288073,3.882365,-0.691930,0.076256,0.988142,0.022673,0.081257
4288308102,4.200131,-0.965621,0.323169,0.981651,-0.034815,0.038525
4288328148,6.606034,-1.459638,0.621994,0.976839,-0.102114,0.001863
4288348193,10.782956,-1.968789,0.764242,0.992494,-0.114553,0.002979
4288368238,13.935825,-1.990447,0.917096,1.003507,-0.034161,0.030163
4288388284,16.460171,-1.881939,1.402653,1.003715,-0.045391,0.006485
4288408330,18.202137,-1.653031,1.322241,1.020151,0.005366,-0.010128
4288428375,17.264479,-1.074767,1.032852,1.029990,0.030993,-0.034213
4288448420,15.590627,-0.556955,1.048325,1.013396,0.037306,-0.051642
4288468466,13.413166,-0.352570,0.707824,1.003703,0.042684,-0.037325
4288488511,12.680422,-0.276400,0.775279,0.997469,-0.005141,-0.017168
4288508557,13.541619,-0.291772,0.621073,0.997533,-0.060046,0.007160
4288528604,16.666613,-0.283597,0.499276,1.006840,-0.133842,0.040984
4288548649,22.244127,0.312757,0.679439,1.003606,-0.179308,0.055639
4288568695,28.065371,0.139400,0.834510,0.958115,-0.111479,0.020808
4288588740,31.155682,-1.139811,0.954558,0.974966,-0.048203,-0.016713
4288608786,33.402271,-1.229831,1.308619,1.020157,-0.044773,-0.017761
4288628831,35.946205,-0.466403,1.585297,1.028819,-0.047366,0.000705
4288648877,38.185436,0.318959,1.501025,1.031377,-0.049074,0.010377
4288668921,40.870331,1.112347,1.537983,1.023400,-0.062016,0.003091
4288688966,44.231949,1.632087,1.799605,0.999454,-0.085444,-0.003996
4288709011,48.208755,1.579932,1.852517,0.997294,-0.095568,-0.017469
4288729057,52.253143,1.452424,2.263516,0.985669,-0.084943,-0.018105
4288749102,55.526230,0.942821,2.316323,0.976275,-0.066486,-0.016251
4288769148,58.134773,0.196894,2.413378,0.993208,-0.040462,-0.027385
4288789193,59.747608,-0.343777,2.406806,0.993371,-0.017619,-0.022161
4288809239,60.753883,-0.122904,2.233716,1.017298,-0.014804,0.006929
4288829284,61.212864,1.027919,2.205695,1.050305,0.042526,0.041402
4288849330,58.740532,3.229183,1.978890,1.036153,0.137756,0.042756
4288869375,54.326237,4.295501,2.221466,1.045360,0.138353,0.012642
4288889422,49.978127,5.620587,2.309067,1.011260,0.105530,-0.000702
4288909468,46.521927,4.537541,2.333889,0.963489,0.070910,-0.041679
4288929513,45.987926,2.967766,2.456457,0.963671,-0.041967,-0.082707
4288949558,49.596413,1.460848,2.911073,0.965676,-0.094179,-0.081293
4288969604,54.507298,0.121272,3.080050,0.973819,-0.134173,-0.068475
4288989649,60.303432,-0.479111,3.130051,0.994196,-0.124066,-0.028534
4289009695,65.276505,-0.241128,3.300210,1.017155,-0.090853,0.009237
4289029740,68.976364,0.658963,3.225421,1.023628,-0.049479,0.045187
4289049784,70.514198,1.429161,3.254148,1.013944,0.019397,0.059036
4289069830,69.834045,1.848141,3.258310,0.997440,0.093574,0.040857
4289089875,65.569611,1.404283,2.960463,0.960606,0.203630,0.007533
4289109921,57.368355,0.250785,2.733727,0.937618,0.355867,-0.054329
4289129966,45.139877,-1.087389,2.211321,0.982271,0.337711,-0.017296
4289150012,35.575790,-1.127930,2.267135,0.974979,0.307100,0.015649
4289170057,25.305042,-2.413180,1.339775,0.953802,0.236475,-0.036523
4289190102,21.108742,-3.877240,1.464282,0.961659,-0.022343,-0.096231
4289210148,22.629925,-4.668401,1.895885,1.004554,-0.028286,-0.045028
4289230193,20.803436,-5.158461,1.115323,1.020780,0.041776,0.001329
4289250239,19.632694,-5.919935,1.515007,1.018517,0.036987,0.021528
4289270286,17.953806,-6.148578,1.701174,1.016627,0.051683,-0.000341
4289290331,14.951899,-6.181468,1.018313,1.002048,0.093076,-0.039649
4289310377,11.254471,-5.847742,0.760365,0.999259,0.101396,-0.066032
4289330422,7.906528,-5.711348,0.809592,0.995475,0.091851,-0.058962
4289350468,5.406490,-5.239534,0.803042,1.022132,0.083990,-0.050507
4289370513,3.671094,-4.455075,0.788256,0.994325,0.084261,-0.028247
4289390558,2.153239,-4.249255,0.985135,1.014534,0.070190,-0.027933
4289410613,0.478471,-3.783913,1.375232,1.004972,0.066184,-0.021772
4289430648,-1.670063,-3.564495,0.942422,1.014443,0.089544,-0.041307
4289450693,-5.348507,-3.376063,0.470629,1.009062,0.106252,-0.054406
4289470739,-9.529634,-2.881708,0.519548,1.010338,0.098330,-0.059952
4289490784,-13.782823,-2.799292,0.403126,1.007780,0.071850,-0.061589
4289510830,-17.665693,-2.595413,0.042228,1.003034,0.070561,-0.066317
4289530875,-21.260656,-2.139336,-0.050003,1.000597,0.051901,-0.070784
4289570966,-25.765804,-1.112019,-0.179965,1.016944,0.033182,-0.072121
4289591012,-27.132734,-0.549254,-0.529746,1.017093,0.025164,-0.079281
4289611057,-28.377678,0.067833,-0.477077,1.008656,0.002329,-0.072745
4289631103,-28.725662,0.586407,-0.288657,1.013216,-0.019054,-0.079323
4289651149,-28.844742,1.035405,-0.547650,1.005384,-0.027442,-0.083443
4289671195,-29.198458,1.172216,-0.663505,1.007858,-0.019068,-0.082500
4289691240,-29.441471,1.751512,-0.591945,1.019058,-0.026953,-0.075143
4289711286,-29.672428,2.459936,-0.704444,1.019485,-0.036483,-0.062698
4289731331,-29.169952,3.092279,-0.846204,1.017521,-0.057771,-0.061631
4289751377,-28.692411,3.594810,-1.094028,1.021924,-0.075752,-0.047152
4289771422,-27.279661,4.776115,-1.232355,1.028612,-0.098279,-0.032886
4289791466,-24.916811,6.422775,-1.276044,1.041763,-0.097432,-0.028119
4289811511,-22.335180,7.627131,-1.467695,1.129957,-0.105166,-0.050307
4289831557,-19.468039,11.764740,-2.041440,1.133735,-0.121037,-0.025199
4289851602,-16.045212,16.368011,-2.344784,1.121073,-0.126213,-0.009089
4289871648,-13.241647,21.176874,-2.652080,1.152888,-0.097959,-0.005866
4289891693,-10.747204,26.456696,-3.581544,0.862377,0.049393,0.380108
4289911739,-13.167171,8.420193,-2.313039,0.696315,0.022126,0.115827
4289931784,-17.919458,6.236977,-3.313925,0.822433,0.232486,-0.023202
4289951830,-22.899361,1.498456,-2.009452,0.963200,0.097369,-0.206115
4289971875,-27.387320,-0.192452,-1.091461,0.917028,0.044536,-0.206874
4289991921,-30.232943,-2.090853,-1.098697,0.950872,-0.007316,-0.129751
4290011967,-29.725210,-2.867589,-0.899644,1.030245,-0.105507,-0.058228
4290032013,-25.801537,-2.415774,-0.419458,1.008805,-0.172841,0.055630
4290052058,-19.981279,-1.903429,-0.343065,0.995751,-0.203393,0.127073
4290072104,-13.923409,-1.421424,-0.232974,1.010932,-0.192707,0.138416
4290092149,-8.523618,-1.061591,-0.147914,0.998087,-0.133718,0.119564
4290112195,-4.917099,-1.053309,-0.279055,0.993021,-0.077471,0.086787
4290132240,-3.051072,-0.626015,-0.270837,1.011003,-0.035810,0.069254
4290152286,-2.793012,-0.656674,-0.375081,0.984159,0.006840,0.082168
4290172330,-3.612059,-0.482739,-0.856462,1.007268,0.009546,0.101741
4290192375,-4.629792,-0.376434,-0.905841,0.998369,0.022946,0.124837
4290212421,-5.242135,-0.231899,-0.947930,1.010566,0.025169,0.137243
4290232466,-5.335671,0.202204,-1.062182,1.036509,0.006447,0.126483
4290252512,-4.694382,1.307199,-1.154719,1.018757,-0.023489,0.137547
4290272557,-2.596137,2.016876,-0.999119,1.008110,-0.071414,0.156146
4290292603,1.266441,2.216221,-0.929545,0.988199,-0.096472,0.149809
4290312648,3.666096,1.272784,-0.537405,0.885194,0.045598,0.062912
4290332693,-0.185290,-2.347629,-0.290148,0.883871,0.162624,-0.019685
4290352739,-3.560035,-3.430997,-0.412093,1.033395,0.073500,0.028113
4290372784,-6.180184,-3.104706,-0.713845,1.022318,0.084839,0.071221
4290392831,-8.503879,-2.160321,-0.710106,1.071620,0.073024,0.088737
4290412877,-11.459395,0.033000,-1.019207,1.041521,0.089799,0.082414
4290432922,-13.453418,1.061413,-0.968656,1.029004,0.087074,0.043144
4290452968,-16.295071,1.646766,-1.266971,0.998800,0.069968,0.014548
4290473014,-19.041281,1.516312,-1.335512,0.976803,0.050004,0.009328
4290493059,-21.989698,0.844317,-1.574080,0.967260,0.047530,0.006862
4290513104,-24.905331,0.180237,-1.691047,0.980659,0.037001,0.009556
4290533150,-27.763090,-0.179442,-2.001187,0.979808,0.035269,0.007939
4290553194,-30.683817,-0.485037,-1.989344,0.994968,0.031990,-0.007020
4290573239,-33.187557,-0.463305,-2.185359,0.983238,0.042415,-0.018094
4290593285,-35.911175,-0.936712,-2.260839,0.988980,0.039684,-0.023815
4290613330,-38.448734,-1.173508,-2.203170,1.014232,0.029891,-0.027043
4290633375,-40.537769,-0.366534,-2.325791,1.047493,0.022596,-0.012257
4290653421,-41.915119,0.753146,-2.425055,1.055807,-0.029812,0.028356
4290673467,-40.924648,2.231303,-2.670798,1.040294,-0.115254,0.082231
4290693512,-37.541271,2.872822,-2.478776,0.990299,-0.163599,0.101863
4290713557,-33.228951,2.409141,-2.461571,0.943584,-0.130365,0.053222
4290733603,-31.047787,1.350769,-2.309334,0.940591,-0.037514,-0.066253
4290753649,-32.752529,0.008179,-2.669140,0.992250,0.010966,-0.114056
4290773695,-35.910397,-0.411800,-2.659957,1.031013,0.039620,-0.095883
4290793741,-40.012093,-0.450461,-2.427409,1.024402,0.066284,-0.032906
4290813786,-44.219849,-0.254777,-2.995936,1.044617,0.067584,0.017311
4290833832,-47.909382,0.513342,-3.255483,0.977663,0.029566,0.078156
4290853877,-49.439735,0.185105,-3.308751,0.983915,-0.032363,0.086232
4290873922,-49.011238,0.299568,-3.294522,0.982300,-0.102154,0.078568
4290893968,-47.025810,0.354109,-3.012288,0.998035,-0.138374,0.058207
4290914013,-43.648643,0.370945,-2.718727,0.985420,-0.167681,0.060741
4290934058,-39.423080,-0.343584,-2.416270,0.969020,-0.170422,0.067651
4290954103,-35.484634,-0.875847,-2.353374,0.988979,-0.158114,0.066020
4290974148,-31.525656,-0.691114,-2.025813,0.996789,-0.142524,0.079114
4290994194,-28.307709,-1.062783,-1.643813,0.983281,-0.095215,0.092338
4291014239,-26.266825,-0.826080,-1.684203,1.005068,-0.065874,0.101540
4291034285,-24.360327,-0.558512,-1.546334,1.015547,-0.054818,0.120316
4291054330,-22.493567,0.181311,-1.508605,1.020003,-0.076888,0.137342
4291074376,-19.682922,0.761807,-1.274701,1.004346,-0.060876,0.150927
4291094421,-16.765081,0.946093,-1.018633,0.983852,-0.061413,0.173427
4291114467,-14.311064,0.299972,-0.590331,0.926841,0.048777,0.077448
4291134512,-18.141541,-2.176656,-0.072196,0.839343,0.123597,-0.034203
4291154559,-25.192009,-5.052525,-0.445431,1.034172,0.204102,-0.044013
4291174605,-30.846462,-3.860167,-1.562313,1.077002,0.103286,0.065901
4291194650,-33.655708,-3.234483,-0.913852,1.016575,0.000287,0.105501
4291214695,-34.975410,-2.558217,-1.616433,1.033116,-0.009352,0.042144
4291234741,-36.031731,-1.171752,-1.730457,1.057291,-0.021753,0.005714
4291254787,-37.738541,0.473553,-1.886210,1.024309,0.010523,0.021927
4291274832,-40.240623,1.119376,-2.435842,0.991696,0.007381,0.021490
4291294885,-42.737484,1.019086,-2.669793,0.992767,0.015205,0.020642
4291314922,-45.299828,1.047763,-3.147428,0.998578,0.019776,0.028796
4291334967,-48.099186,1.046889,-3.200086,1.001024,0.009878,0.036850
4291355012,-49.688976,0.345465,-3.143978,0.979846,-0.019920,0.026004
4291375058,-50.635151,-0.005075,-3.025112,1.008154,-0.040177,0.019473
4291395103,-50.840343,0.496982,-3.397233,1.018864,-0.079802,0.032791
4291415149,-48.794205,1.001080,-3.155881,0.990875,-0.123558,0.057215
4291435194,-46.454720,0.689252,-3.154390,0.972853,-0.131445,0.035840
4291455240,-45.248447,-0.011728,-3.228953,0.966699,-0.059285,-0.000395
4291475285,-46.656288,-1.140043,-3.243728,1.003320,0.015271,-0.054520
4291495331,-50.127953,-0.851455,-3.276663,1.044239,0.049531,-0.057363
4291515376,-54.351105,-0.510011,-3.432738,1.018815,0.083132,-0.018042
4291535423,-59.830433,-0.260637,-3.709318,1.003572,0.079457,0.026070
4291555468,-64.194847,-0.231145,-3.632370,0.973319,0.065078,0.048487
4291575514,-67.201111,-0.674114,-3.694825,0.966265,-0.008505,0.062255
4291595559,-68.357567,-1.131894,-3.785482,0.978489,-0.052788,0.063573
4291615605,-68.127060,-1.177407,-3.721031,0.993314,-0.130636,0.065083
4291635650,-66.450607,-1.252902,-3.608122,0.999543,-0.136531,0.070524
4291655696,-64.668373,-1.298052,-3.566140,0.989944,-0.133162,0.080032
4291675740,-62.649975,-1.480414,-3.566491,0.988382,-0.144720,0.078807
4291695785,-61.137619,-2.044113,-3.632167,0.993476,-0.113368,0.055339
4291715831,-59.999458,-1.548626,-3.709392,1.008159,-0.125640,0.048482
4291735876,-58.674858,-1.365142,-3.613442,1.015928,-0.081940,0.061167
4291755922,-58.570366,-0.923465,-3.769770,1.014788,-0.042889,0.075828
4291775967,-58.631729,-0.351982,-3.801047,1.026802,-0.040774,0.078524
4291796012,-58.561157,0.113106,-3.719909,1.017649,-0.057985,0.076440
4291816058,-57.494831,-0.030935,-3.518519,0.994521,-0.092164,0.058735
4291836103,-56.058357,-0.350728,-3.560611,0.983125,-0.084917,0.050657
4291856149,-55.160969,-0.670177,-3.393565,0.979415,-0.093662,0.047103
4291876194,-53.639084,-0.958304,-2.940726,0.977437,-0.086102,0.054114
4291896241,-52.227173,-1.376388,-2.645790,0.960146,-0.076898,0.077542
4291916287,-49.780056,-2.167199,-2.171023,0.973601,-0.119530,0.086098
4291936332,-46.348137,-2.378799,-1.801349,0.971203,-0.118204,0.065530
4291956378,-44.415131,-2.598462,-1.448412,0.989339,-0.064033,0.022920
4291976429,-44.114662,-2.637180,-1.744489,1.011311,-0.033725,0.012872
4291996469,-43.787720,-1.912405,-1.447588,1.044860,-0.062100,0.041669
4292016514,-43.281372,-1.028088,-1.383942,1.050501,-0.024708,0.037970
4292036559,-44.274101,0.426299,-1.789801,1.055427,0.013386,0.020484
4292056604,-45.420490,1.217580,-2.213395,1.025363,0.007782,0.014652
4292076649,-45.839489,1.117609,-2.548797,0.992167,-0.045568,0.019028
4292096695,-45.431545,0.554165,-2.379084,0.973917,-0.092713,0.021959
4292116740,-44.661701,-0.025085,-2.491432,0.984879,-0.091861,0.031757
4292136786,-43.817478,-0.337873,-2.728374,0.987166,-0.076075,0.057200
4292156831,-43.619686,-0.749447,-2.769049,0.968759,-0.049042,0.080708
4292176876,-43.424393,-1.450921,-2.938616,0.963088,-0.078092,0.068779
4292196922,-40.697266,-2.302995,-2.621907,0.982274,-0.185226,0.018612
4292216967,-35.085651,-2.773023,-2.209612,0.998936,-0.242005,-0.002366
4292237013,-29.566977,-1.993494,-1.906654,1.051323,-0.117640,0.061349
4292257058,-26.254644,-0.956026,-1.852118,1.049438,-0.102651,0.102933
4292277105,-21.378225,0.487291,-1.149194,1.038196,-0.177626,0.156263
4292297150,-15.021142,1.967772,-1.017667,0.996980,-0.126780,0.134005
4292317196,-14.606774,-0.126524,-0.437985,0.821850,0.123360,-0.051242
4292337241,-21.063961,-3.338923,-1.394722,1.048829,0.117808,-0.085968
4292357287,-22.091681,-1.556452,-1.632882,1.039794,-0.010607,0.047479
4292377332,-20.045685,-1.096111,-0.550822,1.024691,-0.099601,0.098629
4292397378,-17.047325,-0.858926,-0.495170,1.023216,-0.084478,0.059958
4292417422,-13.885944,0.284450,-0.758999,1.020378,-0.091747,0.015447
4292437467,-10.507313,0.933964,-0.406441,0.988774,-0.104664,-0.009683
4292457513,-7.792315,0.911921,-0.367352,0.976207,-0.106607,-0.017454
4292477558,-5.290812,0.348854,-0.276471,0.971841,-0.082237,-0.019871
4292497604,-3.416013,-0.618225,-0.156802,0.962523,-0.061316,-0.013755
4292517649,-1.383552,-1.874219,0.235863,0.974442,-0.051394,-0.020511
4292537695,0.762970,-2.818822,0.159149,1.001803,-0.063319,-0.047737
4292577786,5.095131,-3.038057,0.419682,0.977206,-0.055417,-0.034077
4292597831,7.687109,-3.845116,0.448488,0.988252,-0.069412,-0.035241
4292617877,10.686983,-4.331666,0.613500,0.991514,-0.057284,-0.021337
4292637924,13.903339,-4.360628,0.895051,1.022312,-0.068792,-0.021208
4292657969,16.962811,-3.224234,0.915957,1.071283,-0.025552,0.006390
4292678015,20.049229,-0.724265,0.687274,1.090515,-0.055492,0.036340
4292698060,21.306772,4.061121,0.295434,1.145036,0.070556,0.072783
4292718106,19.029648,10.589330,-0.706068,1.172062,0.149920,0.018723
4292738151,15.516547,18.123438,-1.595239,1.088724,0.150073,0.123902
4292758196,9.352203,11.477620,-1.033220,0.691260,0.132039,0.130709
4292778254,7.054005,5.137302,-0.631293,0.964227,0.005013,-0.113387
4292798286,10.059443,2.098662,-0.068179,0.945874,-0.164904,-0.191586
4292818332,18.169172,-0.296929,1.142613,0.928714,-0.279813,-0.183478
4292838377,26.646198,-2.032391,1.075598,0.989502,-0.215070,-0.094389
4292858422,34.367691,-2.623829,1.470281,0.952847,-0.121904,0.046060
4292878468,39.003113,-3.064307,1.595761,0.994123,0.003127,0.135835
4292898513,41.761799,-1.593037,1.460919,1.048655,0.059030,0.168491
4292918559,43.075909,0.365614,1.337201,1.037942,0.077654,0.163378
4292938604,42.996147,1.394902,1.541641,1.007754,0.104625,0.109200
4292958650,41.720863,1.835753,1.190488,1.000149,0.104015,0.078738
4292978695,40.751766,1.729059,1.301345,0.992309,0.061823,0.096371
4292998741,42.384560,1.753896,1.957310,1.034696,-0.033808,0.153905
4293018788,47.692165,2.846193,2.416151,1.010550,-0.086423,0.207327
4293038833,50.596462,1.879040,2.385940,0.929470,0.135701,0.101224
4293058879,48.656750,1.816870,2.095203,0.992319,0.154834,0.117277
4293078924,46.779602,1.815861,1.879463,0.971737,0.182254,0.156254
4293098969,44.309433,1.412244,2.287887,1.024444,0.141424,0.173306
4293119015,42.813324,2.433290,2.389933,0.987248,0.113245,0.165635
4293139060,44.517075,1.565854,2.772399,0.950154,-0.099755,0.020742
4293159132,51.597996,0.022912,3.717581,0.951231,-0.165091,-0.042621
4293179150,55.802052,-1.059196,3.265176,1.006469,0.046398,0.003200
4293199195,58.730873,-1.301213,3.721128,1.004466,0.008672,0.020635
4293219241,60.500961,-1.399300,3.939275,0.998125,0.060857,0.007221
4293239286,60.107204,-0.699821,3.279780,1.006963,0.069711,0.016315
4293259331,60.156441,-0.097365,3.444931,1.023596,0.069073,0.002144
4293279377,59.992100,-0.044557,3.233984,1.002339,0.080682,-0.000600
4293299423,59.756290,0.137434,2.871164,0.988757,0.075570,0.000548
4293319468,60.163452,0.145414,2.977858,0.998068,0.070744,-0.009770
4293339514,60.577679,-0.151495,3.062507,0.984198,0.090030,0.001873
4293359559,60.059757,-0.349503,3.180196,0.983410,0.128154,0.006090
4293379604,58.196159,-0.244049,2.864500,1.004390,0.165757,0.006850
4293399651,55.794735,0.128625,2.818159,0.996342,0.123975,-0.001114
4293419697,55.365685,0.365619,3.184844,0.996739,0.033491,-0.034195
4293439742,57.333195,0.160722,3.330743,1.031972,-0.017386,-0.077558
4293459788,60.048031,0.816869,3.337011,1.044936,-0.010089,-0.077428
4293479833,63.043041,1.321321,3.621081,1.014244,0.009023,-0.047162
4293499879,65.294128,1.040387,3.807580,0.985109,0.044415,-0.020489
4293519924,66.767052,0.529864,3.673718,0.973627,0.097196,-0.001227
4293539968,66.686546,-0.065068,3.470941,0.978181,0.137515,0.005437
4293560014,65.242470,-0.156769,3.529834,0.997260,0.168501,0.021309
4293580059,62.868328,-0.156923,3.736373,0.999623,0.186742,0.046112
4293600104,59.946033,-0.310314,3.656042,0.997384,0.187852,0.058312
4293620150,56.713806,-0.334774,3.344411,1.007478,0.162578,0.059181
4293640195,54.026775,0.182257,3.142662,0.996759,0.149665,0.071277
4293660241,51.562168,0.127914,2.999630,1.008303,0.144846,0.063099
4293680286,48.982365,0.561176,2.811362,1.012504,0.142057,0.077466
4293700332,47.070114,0.697729,2.763957,0.987785,0.124474,0.083091
4293720378,44.885181,0.963097,2.431039,1.007440,0.108062,0.097580
4293740423,42.833931,1.267082,2.301718,1.005527,0.142848,0.119432
4293760468,39.876934,1.372238,1.984315,0.983668,0.104186,0.086372
4293780515,40.150486,0.359578,2.349168,0.922289,-0.072180,-0.002158
4293800561,46.114460,-2.021984,3.288249,0.939353,-0.182537,-0.073072
4293820606,50.594093,-2.960182,2.425021,0.988632,0.080960,0.013704
4293840652,51.497105,-3.188446,2.477032,1.038009,0.008359,0.021697
4293860697,53.655354,-1.859673,3.393552,1.054126,0.038618,0.040345
4293880742,54.267712,-0.024903,2.519719,1.056998,0.059964,0.019472
4293900788,54.587395,1.483821,2.386230,1.022596,0.059784,-0.002998
4293920832,54.226635,1.963625,2.292294,0.997927,0.064171,-0.022556
4293940878,54.316666,1.422382,2.215934,0.978054,0.065758,-0.034928
4293960923,54.695290,0.781899,2.034966,0.979029,0.060025,-0.036842
4293980968,55.570496,0.553986,2.240344,1.008914,0.060914,-0.021376
4294001014,56.571568,0.806647,2.625075,1.013909,0.071854,-0.012492
4294021059,56.684299,1.545596,2.490523,1.015472,0.096084,0.004144
4294041105,55.980850,1.804496,2.480386,1.008166,0.119399,0.025108
4294061150,54.514969,2.131063,2.163878,0.985431,0.126753,0.035742
4294081196,53.264111,2.390217,2.324833,0.989808,0.085046,0.008503
4294101241,54.162975,2.238607,2.567706,0.970808,-0.016933,-0.027042
4294121287,58.002209,1.097706,3.085399,1.001169,-0.076464,-0.072578
4294141334,63.430977,1.099185,3.094674,1.059707,-0.111260,-0.094851
4294161379,69.162743,1.703373,3.348232,1.045009,-0.063208,-0.071985
4294181424,73.474754,2.138851,3.316602,1.008956,0.032142,-0.035490
4294201470,75.184799,2.369560,4.008589,0.994200,0.100196,-0.019375
4294221516,74.624840,2.513964,3.904352,0.997156,0.169640,-0.003564
4294241561,72.070946,2.833311,3.884073,1.002289,0.235364,0.016029
4294261606,67.508255,2.587495,3.576071,0.976043,0.259541,0.025605
4294281652,62.748486,2.090376,3.372068,0.979269,0.253899,0.021928
4294301696,57.848419,1.417607,3.026186,0.959933,0.211558,0.015974
4294321741,54.755722,0.699979,2.844060,0.979688,0.151806,0.008746
4294341787,52.750626,0.081953,2.762762,0.970695,0.116993,0.033558
4294361832,51.730892,-0.414009,2.623729,0.990667,0.102115,0.040686
4294381877,51.064735,-0.330489,2.567605,0.998958,0.095327,0.053719
4294401923,50.938446,-0.223359,2.768376,0.993140,0.080136,0.059108
4294421969,50.703350,0.340732,2.855116,1.011127,0.083173,0.063789
4294442014,50.235813,0.957707,2.770437,1.026434,0.095764,0.072222
4294462059,49.015480,2.000765,2.477344,1.030297,0.136987,0.076173
4294482105,46.862774,2.746435,2.218616,1.003613,0.127948,0.079820
4294502150,45.063976,2.722832,2.108412,0.983906,0.116102,0.085168
4294522197,43.520432,2.448207,2.169843,0.972180,0.104800,0.082664
4294542243,43.086563,1.975882,2.294456,0.976302,0.086571,0.111309
4294562288,42.524590,1.457052,2.100769,0.956149,0.106453,0.104630
4294582333,39.926460,-0.166583,2.240645,0.868921,0.172903,-0.007737
4294602379,34.612217,-4.435438,2.373258,0.868858,0.171914,-0.156972
4294622424,34.106880,-6.942757,2.421977,0.954570,-0.088924,-0.083836
4294642470,37.347622,-9.434875,2.023525,0.993465,0.054035,0.011579
4294662540,36.373337,-9.550856,1.423858,1.058921,0.088200,0.089564
4294682559,36.304718,-10.958628,2.331568,0.963811,0.052624,0.061833
4294702605,35.335842,-12.253073,2.920145,0.941965,0.090088,-0.033900
4294722650,32.736664,-14.136929,2.587138,0.915140,0.140055,-0.102153
4294742696,28.992195,-16.089464,2.345356,0.909306,0.140932,-0.116035
4294762741,25.477951,-17.774128,2.564342,0.935356,0.152089,-0.104696
4294782787,22.130627,-20.640068,2.753458,1.207586,0.147400,-0.151996
4294802832,18.586409,-12.130634,1.800512,1.109874,0.115932,-0.065128
4294822878,16.706156,-7.976979,2.113544,1.182326,0.073775,-0.042510
4294842923,13.920138,-0.771249,0.852209,1.149460,0.149699,-0.036901
4294862969,9.933446,5.109179,0.046507,1.151197,0.143424,-0.037193
4294883014,5.445207,11.592869,-0.186005,1.111255,0.189096,-0.001729
4294903061,0.493277,16.170713,-0.624776,1.057336,0.171597,0.024910
4294923106,-2.889312,19.293743,-0.905761,1.110687,0.016998,0.010912
4294943152,-2.698372,24.803268,-1.111203,1.317435,-0.095782,-0.042535
4294963197,0.139120,34.518085,-2.253125,1.237607,-0.150675,0.002944
4294983247,5.431895,40.099808,-1.503284,0.695977,-0.304396,0.520062
4295003288,13.490009,9.233882,0.391684,0.526542,0.062281,0.017983
4295023334,14.997283,5.970932,-0.283865,0.823445,-0.005690,-0.290344
4295043391,15.298542,-1.494534,0.995983,0.848298,0.050964,-0.427391
4295063423,13.768725,-4.990777,1.931357,0.912470,0.079314,-0.291731
4295083468,10.028010,-5.456861,1.845024,0.988424,0.163945,-0.079749
4295103514,3.795477,-5.513011,1.362473,1.001557,0.239504,0.147480
4295123559,-2.930349,-4.242875,1.037908,1.062266,0.203170,0.284396
4295143605,-7.968899,-0.596055,0.069016,1.110090,0.148110,0.283763
4295163650,-11.198532,2.687047,-0.215470,1.085430,0.061803,0.215336
4295183696,-12.423713,3.311348,-0.338962,0.972282,0.015607,0.111768
4295203741,-12.103389,2.107317,-0.341169,0.924962,-0.049949,0.015098
4295223787,-10.157426,0.233742,-0.059392,0.942334,-0.103331,-0.040756
4295243832,-7.076223,-1.914380,0.010234,0.960212,-0.139996,-0.005506
4295263877,-3.384822,-2.660388,-0.051269,0.978458,-0.152928,0.075178
4295283925,1.002680,-2.903225,-0.112672,1.023118,-0.116352,0.145162
4295303970,4.471084,-1.668169,-0.313990,1.050670,-0.051351,0.200866
4295324015,7.266872,0.511657,-0.535968,1.068050,0.030381,0.260710
4295344061,6.843719,2.401046,-0.748008,0.995000,0.207160,0.229164
4295364114,-1.284225,0.837646,-0.287070,0.838894,0.382808,0.035727
4295384152,-13.408419,-2.352599,-0.897031,0.974408,0.211282,-0.049814
4295404197,-16.235130,-2.641643,-0.336883,0.984253,0.068927,0.003541
4295424256,-18.844704,-2.626410,-0.041771,1.046846,0.057295,0.062406
4295444287,-20.845631,-1.614135,-0.373104,1.049206,0.063393,0.061993
4295464332,-22.253424,-0.409630,-0.044139,1.042572,0.041070,0.047800
4295484378,-24.185112,0.663682,-0.354095,1.005686,0.041257,0.029275
4295504423,-26.945360,0.677181,-0.781991,0.991650,0.045217,0.016526
4295524468,-30.068275,0.348231,-0.957183,0.971776,0.036349,0.008347
4295544514,-33.511585,-0.354107,-1.079067,0.968021,0.021124,-0.007722
4295564559,-36.053314,-1.124868,-1.233500,0.998852,-0.008305,-0.006928
4295584605,-37.252991,-0.927959,-1.623515,1.015133,-0.054547,0.015656
4295604650,-36.920792,-0.623603,-1.867859,1.015510,-0.111821,0.037077
4295624696,-34.027657,0.199562,-2.155982,1.042801,-0.192641,0.045552
4295644741,-29.082098,1.199970,-1.842639,0.992191,-0.194982,0.049959
4295664788,-25.340534,0.880279,-2.105213,0.979082,-0.099997,0.014440
4295684834,-23.484510,0.560471,-2.201294,1.006380,-0.003735,-0.053270
4295704879,-24.500090,0.339382,-2.119720,1.017739,0.049111,-0.067713
4295724925,-27.628029,-0.004471,-2.149578,1.036471,0.101257,-0.020370
4295744970,-32.325611,0.108187,-2.318609,0.993674,0.122135,0.041509
4295765015,-38.742043,-0.268118,-2.811808,1.018142,0.196704,0.108688
4295785061,-48.404472,0.756313,-3.582909,1.009791,0.310807,0.181717
4295805105,-58.219887,1.934095,-3.938913,0.967363,0.113813,0.142825
4295825150,-60.567421,0.448461,-3.475776,0.912659,-0.128695,0.045758
4295845196,-58.678719,-1.014116,-3.415859,0.954075,-0.131105,0.037884
4295865241,-55.440563,-1.941427,-2.742026,0.991328,-0.194805,0.047794
4295885287,-51.594711,-1.612727,-2.756614,1.036484,-0.164999,0.095087
4295905332,-46.699657,-0.436675,-2.282405,1.018826,-0.238027,0.123106
4295925378,-41.297974,0.091052,-2.098602,1.025211,-0.215480,0.109434
4295945423,-36.925766,0.793132,-2.193420,1.018554,-0.160817,0.108548
4295965469,-32.704388,0.954399,-2.153606,0.995092,-0.101851,0.137173
4295985514,-29.038334,1.153986,-1.957957,1.007970,-0.083551,0.186851
4296005560,-25.219370,2.002332,-1.362437,0.951049,-0.036706,0.179210
4296025605,-29.728867,-0.697260,-1.602170,0.865087,0.319137,-0.032606
4296045652,-41.850662,-3.659576,-2.510954,0.981161,0.243664,-0.057880
4296065697,-46.117538,-4.084542,-1.249960,0.989159,0.020208,0.023418
4296085743,-48.929909,-4.314726,-1.591978,1.028245,0.019348,0.071501
4296105788,-50.382233,-2.921534,-2.042205,1.053875,-0.026217,0.056978
4296125834,-50.544434,-1.306279,-2.189623,1.050356,-0.056631,0.042837
4296145879,-49.799049,0.011731,-2.453001,1.025682,-0.081259,0.026141
4296165925,-49.845230,0.415557,-2.484015,0.984071,-0.040672,0.016253
4296185969,-51.695534,-0.073631,-2.889686,0.999845,0.002258,-0.002061
4296206014,-54.292736,0.046919,-3.183556,0.998138,-0.003375,0.003969
4296226060,-56.571766,-0.609112,-3.190640,0.983610,-0.003297,0.008574
4296246105,-58.233562,-0.678483,-3.333916,1.004188,-0.082285,0.029414
4296266151,-56.805542,-0.251590,-3.447104,1.018814,-0.130012,0.036779
4296286196,-54.267227,0.107229,-3.466986,0.973846,-0.133744,0.020486
4296306242,-51.647743,-0.409656,-3.195153,0.947844,-0.101284,-0.019612
4296326287,-50.876228,-1.918370,-3.182177,0.979472,-0.035137,-0.092066
4296346332,-52.846237,-2.604386,-3.011762,1.010188,0.006546,-0.107637
4296366378,-55.484669,-2.246022,-2.633176,1.058312,0.038626,-0.062577
4296386423,-59.315514,-1.493660,-3.096247,1.038071,0.045162,-0.001876
4296406470,-63.091461,-0.846796,-3.055698,1.000811,0.036524,0.031998
4296426516,-65.985504,-0.726151,-3.275035,0.990774,-0.008153,0.034694
4296446561,-67.054413,-0.634795,-3.193466,0.983479,-0.072635,0.050812
4296466607,-66.616089,-0.917297,-3.468482,0.997588,-0.088970,0.061764
4296486652,-65.437637,-0.657763,-3.423440,1.001948,-0.110867,0.073709
4296506698,-64.336494,-0.726034,-3.414014,1.008342,-0.115373,0.092852
4296526743,-62.547100,-0.169237,-3.420023,1.021906,-0.144256,0.108101
4296546789,-60.667084,-0.185080,-3.892013,0.993051,-0.146216,0.103603
4296566833,-57.639210,-0.351904,-3.881438,1.004444,-0.162786,0.086643
4296586878,-55.513916,0.464007,-3.925394,1.021660,-0.090839,0.117729
4296606924,-54.061729,1.127295,-3.978705,1.007560,-0.075362,0.136372
4296626969,-52.926945,1.844325,-3.827359,1.028313,-0.056835,0.153053
4296647015,-51.672569,2.652474,-3.831465,1.024253,-0.061533,0.174917
4296667060,-50.359138,3.293710,-3.522862,0.983089,-0.045950,0.172688
4296687105,-49.768261,2.205431,-2.942313,0.894407,0.029384,0.095281
4296707151,-55.537613,-1.242061,-3.483692,0.909357,0.233369,-0.058999
4296727196,-62.363361,-2.387667,-3.752427,0.979004,0.065168,-0.008709
4296747242,-65.772385,-2.760849,-3.257114,1.034593,0.024355,0.015919
4296767287,-68.199654,-1.946580,-3.480176,1.042953,0.005564,0.031876
4296787334,-69.910110,-0.880894,-3.817324,1.026217,-0.023204,0.033843
4296807380,-70.660812,-0.408815,-3.911309,1.011277,-0.059177,0.024081
4296827425,-70.750862,-0.157149,-3.826344,0.974570,-0.046808,0.001175
4296847470,-71.207069,-0.553198,-3.670985,0.959649,-0.064227,-0.011341
4296867516,-71.858841,-1.559499,-3.739044,0.964671,-0.071134,-0.011869
4296887561,-72.046936,-2.130679,-3.550097,0.965650,-0.097114,0.009490
4296907607,-71.966591,-2.991251,-3.304265,0.963210,-0.071219,-0.006942
4296927652,-73.155228,-3.594033,-3.477871,0.980205,-0.030163,-0.057591
4296947697,-75.310005,-4.052644,-3.808964,1.024296,0.012120,-0.105073
4296967742,-78.848236,-3.840979,-4.138368,1.053598,0.022823,-0.095695
4296987787,-82.133369,-3.216653,-4.015569,1.051063,0.028332,-0.064978
4297007833,-84.660538,-2.371994,-4.267360,1.036235,0.007449,-0.029015
4297027878,-86.287331,-1.930219,-4.183774,1.006196,-0.052980,-0.017510
4297047924,-85.419930,-1.929543,-3.994289,0.980568,-0.125865,-0.005332
4297067969,-83.465584,-1.570262,-3.750673,1.025464,-0.203130,-0.007603
4297088015,-79.488594,-1.066110,-3.707259,0.999976,-0.223215,0.025000
4297108060,-75.223862,-0.935639,-3.805730,0.993511,-0.219632,0.050613
4297128106,-70.455971,-1.048085,-3.554007,0.996315,-0.199540,0.040637
4297148151,-66.314362,-1.305395,-3.259084,0.982927,-0.172262,0.044451
4297168198,-63.386383,-1.914289,-3.260382,0.974162,-0.123590,0.052508
4297188244,-61.609100,-2.317246,-3.056642,0.986208,-0.078529,0.059581
4297208289,-60.985241,-2.202185,-2.809321,1.000924,-0.050152,0.095866
4297228334,-59.899582,-1.645617,-2.832240,1.043461,-0.073953,0.131763
4297248380,-57.627712,-0.166530,-2.827758,1.035524,-0.105310,0.154645
4297268425,-51.778904,0.408507,-2.018549,0.982086,-0.272457,0.129599
4297288471,-47.544937,-1.000363,-2.073091,0.900454,0.055905,-0.038219
4297308515,-52.747952,-4.142820,-2.595909,0.916041,0.140072,-0.093091
4297328560,-56.737614,-5.055158,-1.208767,1.018354,-0.008471,-0.014250
4297348606,-58.432690,-4.460927,-1.101439,1.056444,0.031892,0.041769
4297368651,-61.210644,-3.129426,-1.709133,1.087755,0.019008,0.035084
4297388697,-62.996609,-0.563423,-2.470090,1.086802,0.005643,-0.011628
4297408742,-64.644348,1.546466,-2.758441,1.048680,-0.021017,-0.034445
4297428788,-65.552505,2.665642,-3.126617,0.996315,-0.049365,-0.022975
4297448833,-66.084930,2.047621,-3.374038,0.978791,-0.048571,-0.022224
4297468878,-67.351471,1.276983,-3.621988,0.979610,-0.051191,-0.012793
4297488924,-67.986588,0.263244,-3.613931,0.973308,-0.060208,-0.013306
4297508970,-68.407799,-0.476132,-3.626220,0.997255,-0.085547,-0.009224
4297529017,-67.592468,-0.011433,-3.796417,1.013448,-0.130134,0.023435
4297549062,-65.072113,0.468960,-3.969185,1.027459,-0.146933,0.029125
4297569107,-61.335384,1.560388,-3.701462,1.011080,-0.142775,0.027854
4297589153,-58.803989,2.208872,-3.691609,0.992713,-0.078182,-0.007434
4297609198,-58.906239,1.972243,-3.841666,0.983167,0.002672,-0.063233
4297629244,-61.847660,1.247816,-3.690481,1.006277,0.064713,-0.083702
4297649289,-66.876091,0.902895,-3.958549,1.024752,0.087133,-0.076156
4297669337,-72.139282,1.000185,-4.116555,1.013137,0.061053,-0.049408
4297689378,-76.092583,0.854292,-4.131056,0.981587,0.029203,-0.029027
4297709424,-78.493980,-0.038999,-4.555254,0.984810,-0.037190,-0.021982
4297729469,-78.692017,-0.031332,-4.513231,0.989073,-0.126116,0.000061
4297749515,-76.280899,-0.190369,-4.360809,1.007584,-0.191466,0.018644
4297769560,-72.404312,0.184081,-4.368505,0.989482,-0.204189,0.041306
4297789606,-67.651917,-0.286550,-4.115289,0.974512,-0.224425,0.030883
4297809651,-62.334133,-1.030424,-3.451855,0.974183,-0.194688,0.024938
4297829697,-57.804611,-1.211689,-3.271692,1.005482,-0.175266,0.024463
4297849742,-54.154602,-1.156992,-3.113456,1.002342,-0.133618,0.068929
4297869788,-51.295326,-1.040967,-2.710837,1.009785,-0.094183,0.088344
4297889833,-49.600639,-0.400756,-2.883399,1.037578,-0.076191,0.105360
4297909880,-47.620090,0.765720,-2.910430,1.038828,-0.089415,0.137042
4297929926,-45.031536,2.031940,-2.720348,1.019842,-0.094784,0.151990
4297949972,-42.283611,2.490290,-2.568875,0.971040,-0.065297,0.147599
4297970017,-42.938148,1.003549,-2.772827,0.883630,0.128667,0.018865
4297990062,-49.585327,-2.403905,-2.387974,0.876718,0.180028,-0.049276
4298010108,-53.928158,-4.842578,-1.875306,0.992969,-0.025496,-0.000264
4298030153,-54.325493,-4.408293,-1.876683,1.029600,-0.032272,0.048052
4298050197,-54.150703,-3.753036,-1.958671,1.064009,-0.026774,0.042100
4298070243,-54.340919,-1.635504,-2.405234,1.074997,0.006328,0.026154
4298090288,-55.390038,0.185264,-2.559050,1.026886,0.037178,0.019751
4298110334,-57.995251,0.482024,-2.455996,0.983323,0.041465,0.010683
4298130379,-61.923744,0.137259,-2.783616,0.976269,0.048888,-0.004550
4298150425,-66.701157,-0.619260,-3.108675,0.982047,0.045671,-0.027792
4298170470,-70.141266,-1.016368,-3.063525,0.984909,0.007929,-0.023693
4298190516,-72.834526,-0.925893,-3.172036,1.019888,-0.004320,-0.034436
4298210561,-75.024254,-0.500129,-3.352566,1.003426,-0.012807,-0.036048
4298230606,-76.203148,-0.348225,-3.437176,1.019216,-0.056812,-0.034519
4298250652,-75.570976,0.131711,-3.588587,1.014509,-0.096995,-0.015309
4298270697,-73.428398,0.582108,-3.509398,1.023036,-0.148615,0.007507
4298290744,-69.843285,1.085905,-3.573000,1.012224,-0.176639,0.013730
4298310790,-66.521164,0.964371,-3.782247,0.972160,-0.149897,-0.007055
4298330835,-64.642944,0.072947,-3.899780,0.934466,-0.082005,-0.064441
4298350881,-67.054764,-1.939903,-4.014391,0.992522,-0.009993,-0.134905
4298370926,-71.914253,-1.857944,-4.256594,1.050770,0.071171,-0.121690
4298390971,-78.024544,-1.296826,-4.766496,1.069720,0.094695,-0.054786
4298411017,-83.519760,-0.407426,-5.098389,1.034155,0.073617,-0.009210
4298431061,-87.168640,0.033344,-5.212448,0.990610,0.016709,-0.001655
4298451107,-88.239708,0.536908,-4.841834,0.988721,-0.084264,0.003356
4298471152,-86.824165,0.339295,-4.776947,0.974441,-0.164062,0.006546
4298491198,-82.768143,-0.131599,-4.556066,0.984265,-0.241378,0.004419
4298511243,-76.756836,-0.540285,-4.029468,0.993237,-0.269286,0.008670
4298531288,-70.429932,-0.789577,-3.815182,0.995592,-0.258531,0.017962
4298551334,-64.094231,-0.924410,-3.540317,0.993606,-0.232014,0.045185
4298571379,-59.200108,-1.243057,-3.489035,0.995241,-0.197331,0.056537
4298591425,-55.474476,-1.135104,-3.378293,1.011022,-0.144623,0.063534
4298611470,-53.163895,-0.227469,-3.326810,1.026033,-0.101057,0.097065
4298631516,-51.847950,0.359760,-3.300810,1.026376,-0.052159,0.123213
4298651561,-50.767563,1.434817,-3.210731,1.032471,-0.040919,0.146874
4298671608,-48.533573,2.319554,-3.165328,1.015867,-0.104868,0.163422
4298691654,-44.270344,2.192721,-2.491127,0.909843,-0.036516,0.061993
4298711699,-47.698860,-1.268238,-2.542982,0.882781,0.152157,-0.073480
4298731744,-52.486267,-3.144263,-2.535537,0.977348,0.021386,-0.021771
4298751790,-53.480030,-4.140782,-1.641811,0.999933,0.013647,0.008177
4298771835,-55.728661,-3.509983,-2.127539,1.054252,0.010218,0.030677
4298791881,-57.021698,-1.978756,-2.229810,1.041156,-0.002004,0.023295
4298811925,-58.131195,-0.759910,-2.319319,1.036536,0.000025,-0.008583
4298831970,-59.545742,0.107431,-2.776170,1.023013,-0.014577,-0.024305
4298852016,-61.076061,0.327863,-2.846548,0.993659,0.002092,-0.039628
4298872062,-63.786507,0.006590,-3.045052,0.983254,0.012086,-0.038559
4298892107,-66.983154,-0.192481,-3.074058,0.999691,0.007196,-0.039104
4298912153,-70.411629,-0.088109,-3.672685,1.021268,-0.003944,-0.029014
4298932198,-72.116730,0.588644,-4.123264,1.032091,-0.084649,0.007247
4298972289,-66.748840,2.700974,-4.173324,1.013655,-0.218944,0.062977
4298992334,-61.471745,2.847359,-4.100456,0.958420,-0.179323,0.032807
4299012380,-58.938442,1.530045,-3.915983,0.920076,-0.055282,-0.065420
4299032426,-60.165302,-0.420554,-3.618232,0.957055,0.003921,-0.159741
4299052472,-64.167969,-1.762314,-3.360343,1.036034,0.060451,-0.153102
4299072518,-70.238548,-2.068718,-3.333226,1.010609,0.142513,-0.076824
4299092563,-75.867332,-2.138991,-3.407165,1.020538,0.098873,-0.017734
4299112616,-80.310547,-1.652601,-3.475397,1.008772,0.045684,0.009062
4299132654,-83.084930,-0.494914,-3.455982,1.009371,-0.029610,0.026515
4299152699,-83.755501,-0.068060,-3.345052,0.989928,-0.104390,0.042040
4299172753,-82.709213,-0.183232,-3.831100,0.998654,-0.158871,0.041255
4299192789,-80.139069,-0.052853,-3.774425,1.010686,-0.215330,0.051039
4299212834,-75.920303,-0.112916,-3.871370,1.001426,-0.233362,0.048049
4299232880,-71.288727,-0.767263,-3.951422,0.979496,-0.213023,0.044032
4299252925,-67.116112,-1.337937,-4.045771,1.001226,-0.219005,0.038316
4299272971,-62.922134,-1.404874,-3.821270,1.013830,-0.194314,0.049498
4299293016,-59.542023,-0.931427,-3.804379,1.017194,-0.149058,0.070880
4299313062,-57.212090,-0.001390,-3.952025,1.033249,-0.105059,0.091956
4299333107,-55.346901,0.410554,-3.989589,1.019428,-0.070673,0.102302
4299353152,-53.399345,1.295747,-3.717027,1.014708,-0.098592,0.111870
4299373198,-51.172569,1.730939,-3.631780,0.987386,-0.073852,0.132265
4299393244,-48.090889,1.473715,-3.178744,0.969677,-0.093347,0.131692
4299413290,-48.043194,0.102303,-3.029916,0.891235,0.079368,0.017092
4299433336,-53.585804,-3.159606,-2.453019,0.835514,0.164631,-0.079866
4299473427,-60.887505,-4.205531,-2.407192,1.030243,0.012575,0.046151
4299513518,-64.267784,-1.006990,-2.986490,1.050395,0.016406,0.034817
4299533563,-65.685806,-0.085767,-3.214209,0.997944,-0.028106,0.011548
4299553607,-66.304375,-0.581156,-3.154709,0.969051,-0.051394,-0.015699
4299573653,-67.481445,-1.556823,-3.098055,0.960562,-0.023955,-0.028308
4299593698,-69.548035,-2.548305,-3.184558,0.975482,-0.012202,-0.030761
4299613744,-71.520302,-3.089829,-3.144485,1.000228,-0.028998,-0.032244
4299633789,-72.793694,-2.373408,-2.976974,1.033056,-0.064768,-0.017948
4299653834,-73.165596,-1.276815,-3.286707,1.052488,-0.099984,0.012643
4299673880,-71.603668,0.208858,-3.642902,1.047545,-0.150155,0.043040
4299693926,-68.568291,1.482262,-3.690758,1.007395,-0.126307,0.032065
4299713971,-67.114304,1.100807,-4.031001,0.952559,-0.101687,-0.045835
4299734016,-66.184563,-0.316725,-4.151303,0.979902,-0.097430,-0.131367
4299754062,-66.667526,-1.140015,-4.192680,1.017654,-0.053098,-0.146609
4299774109,-68.498688,-1.528642,-3.964818,1.063387,-0.026556,-0.093057
4299794154,-70.972900,-0.935515,-4.239723,1.045108,0.015544,-0.037532
4299814200,-73.122360,-0.288486,-4.314791,0.991197,0.000801,0.004262
4299834245,-74.143333,-0.440702,-4.111078,0.969517,-0.037140,0.019673
4299854291,-74.294655,-0.882515,-4.007332,0.978258,-0.078518,0.020500
4299874336,-73.305412,-0.477993,-3.859762,0.981869,-0.140888,0.038698
4299894381,-70.554230,-0.811733,-3.499397,0.971328,-0.145049,0.060762
4299914435,-67.507820,-1.313425,-3.297031,0.990162,-0.153391,0.061181
4299934471,-64.719498,-1.372966,-3.007072,0.992112,-0.143940,0.053779
4299954517,-61.757427,-1.859470,-2.818403,1.000770,-0.119992,0.059038
4299974562,-59.698391,-1.539560,-3.126873,1.005991,-0.122332,0.069392
4299994607,-57.721905,-1.820484,-2.904480,0.992575,-0.140018,0.059211
4300014653,-54.278694,-2.017359,-2.756677,0.995625,-0.178984,0.039253
4300034698,-49.150688,-2.030545,-2.466424,0.988426,-0.201028,0.029063
4300054744,-43.638412,-2.698721,-2.043900,1.002802,-0.206636,0.035454
4300074789,-37.844692,-2.361125,-1.737167,1.037663,-0.160068,0.104681
4300094835,-32.981373,-1.155741,-1.751493,1.030183,-0.137449,0.092062
4300114880,-28.582222,-1.038908,-1.180079,0.960082,-0.112521,0.047646
4300134926,-27.752302,-2.173575,-0.909671,0.942902,0.026213,-0.041435
4300154973,-29.917994,-3.531814,-1.390386,0.985479,0.033993,-0.050071
4300175018,-30.059650,-3.941889,-0.752032,1.013123,-0.041334,-0.022458
4300195064,-28.592150,-3.841506,-0.360562,1.002892,-0.066947,0.009985
4300215109,-26.645164,-5.107305,-0.890822,0.982054,-0.065779,0.019143
4300235154,-24.208525,-6.035653,-0.568222,0.991803,-0.109736,0.000532
4300255200,-20.642311,-6.438157,-0.376272,0.985518,-0.125617,-0.023845
4300275245,-17.087603,-6.841166,-0.398058,0.986814,-0.129569,-0.047462
4300295289,-13.238353,-6.832078,-0.212971,0.989500,-0.161860,-0.047455
4300315335,-9.430820,-6.678668,-0.226232,0.994060,-0.160828,-0.033191
4300335380,-5.433671,-6.433962,-0.327532,1.006765,-0.147963,-0.022264
4300355426,-1.391841,-5.602633,-0.515709,1.028253,-0.138095,-0.015566
4300375471,2.468054,-4.313929,-0.633104,1.050529,-0.113945,-0.009813
4300395517,6.165953,-2.255800,-0.856899,1.068393,-0.063964,-0.003937
4300415562,8.601366,0.335295,-1.149667,1.087254,-0.015655,-0.018046
4300435608,8.965524,3.520324,-1.419505,1.089407,0.072580,-0.024402
4300455653,6.526002,7.451702,-1.583934,1.126518,0.133586,-0.024137
4300475699,2.456359,12.274021,-1.864886,1.172218,0.175780,-0.019994
4300495744,-2.468617,18.710762,-2.570178,1.202377,0.166207,-0.005151
4300515790,-5.792620,26.253269,-3.149746,1.218587,0.086662,0.065148
4300535837,-7.465735,19.281376,-2.406339,0.442302,0.047150,0.331810
4300555882,-6.033446,9.154659,-1.911365,0.956287,-0.123198,-0.072370
4300575928,1.493127,4.731635,-0.743640,0.868068,-0.354109,-0.168341
4300595973,12.279809,0.318479,1.010315,0.864217,-0.312073,-0.161627
4300616018,20.605816,-2.285496,1.079027,0.932448,-0.163463,-0.084515
4300636064,27.099461,-3.189289,1.659046,1.017006,-0.070527,0.031718
4300656109,30.382145,-1.984060,1.759448,1.012558,0.061233,0.158028
4300676154,30.200832,-0.308343,1.398239,1.066973,0.137166,0.200275
4300696199,27.470642,1.794060,1.291388,1.047189,0.179405,0.180571
4300716244,22.321503,2.431350,0.655601,0.993668,0.205312,0.109545
4300736290,16.598461,1.545351,0.471585,0.964544,0.184746,0.026379
4300756335,11.205450,0.988270,0.769123,0.979681,0.147156,0.003217
4300776381,7.558228,0.248104,0.788869,0.972210,0.100294,0.054802
4300796426,6.029831,-0.506617,0.859246,0.986211,0.067111,0.107632
4300816472,6.319282,-0.316173,0.791864,1.018751,0.010563,0.153922
4300836517,8.214623,0.560564,0.713960,1.015260,0.006976,0.186667
4300856563,9.236189,1.741603,0.506811,1.028172,-0.000272,0.192813
4300876608,10.372699,2.580782,0.749414,0.995657,0.000053,0.197815
4300896654,12.387192,1.934062,0.972287,0.902255,-0.139849,0.074730
4300916700,18.389309,-1.393413,1.516422,0.878934,-0.215150,-0.048113
4300936746,24.276855,-3.967483,1.617068,0.974462,-0.029019,-0.022909
4300956791,25.219738,-4.074592,1.331678,1.036906,0.029200,0.027491
4300976837,26.076309,-3.288445,1.740361,1.040229,0.051914,0.059895
4300996882,25.709206,-1.764490,1.681279,1.060178,0.057960,0.067080
4301016928,25.448439,-0.310172,1.161879,1.027366,0.041482,0.035804
4301036973,26.319279,0.512954,1.088750,1.021094,0.011509,0.016171
4301057017,28.563639,0.857004,1.303864,0.997196,-0.032831,0.015199
4301077063,32.831615,1.209877,1.800623,1.003280,-0.083560,0.029614
4301097108,38.516972,1.449200,2.461293,0.995738,-0.109008,0.049574
4301117154,43.804214,1.138691,2.688315,0.968689,-0.014868,0.011026
4301137199,46.058964,0.163790,2.678375,0.957248,-0.000099,-0.013586
4301157245,48.212620,-0.353146,2.982171,0.980884,-0.000587,-0.000190
4301177290,49.971096,-0.649880,2.987244,1.023009,0.030444,0.022007
4301197335,50.847549,0.249188,2.799132,1.045598,0.054120,0.068696
4301217381,50.714645,1.795701,2.582602,1.048887,0.096773,0.110236
4301237426,49.597958,3.470834,2.079075,1.022900,0.095821,0.107776
4301257472,49.507980,4.347380,2.146675,0.993572,0.051211,0.060874
4301277519,51.118046,3.647313,2.415781,0.960634,-0.039978,-0.035182
4301297564,56.666344,2.149236,3.168951,0.973916,-0.110875,-0.115357
4301317610,64.357300,1.246354,4.000825,1.011887,-0.132882,-0.142474
4301337655,71.324265,0.822675,4.524213,1.011801,-0.053460,-0.088683
4301357700,75.950577,0.078182,5.002388,0.980356,0.023803,-0.046245
4301377746,77.548904,0.192960,5.016841,0.993225,0.114291,-0.021742
4301397791,76.553528,0.497324,4.928162,1.008103,0.193128,-0.002882
4301417858,73.079193,0.937971,4.741943,1.005262,0.239566,0.023778
4301437881,68.244598,1.209707,4.177686,0.981882,0.239897,0.023995
4301457926,63.070137,0.666520,3.874903,0.981410,0.219563,-0.002380
4301477972,58.337620,0.610956,3.470225,0.978810,0.202914,-0.000764
4301498017,54.137230,-0.282110,3.348383,0.960346,0.192175,0.012459
4301518063,50.641361,-1.266290,3.289590,0.983178,0.166924,0.015561
4301538108,47.855576,-1.595058,3.153704,0.987138,0.134304,0.034701
4301558153,46.024147,-1.603695,2.929461,1.004236,0.131718,0.050028
4301578199,43.951107,-0.750902,2.844584,1.032445,0.147912,0.079386
4301598245,41.851341,0.079523,2.974261,1.033547,0.109710,0.082154
4301618290,38.875393,1.235805,2.416842,1.050992,0.163730,0.109726
4301638336,35.803238,2.705901,2.448636,1.018258,0.118461,0.105185
4301658382,32.631847,3.100533,2.103863,1.014491,0.147767,0.115549
4301678428,29.582064,2.534940,1.752286,0.930680,0.041123,0.067409
4301698473,31.530890,0.364544,2.203108,0.908158,-0.094580,-0.002062
4301718519,36.250233,-1.775270,2.378466,0.968187,-0.061001,0.005755
4301738564,38.359432,-2.233056,1.911142,1.009176,0.039231,0.064168
4301758610,39.702244,-2.088282,1.747058,1.001969,-0.004871,0.081339
4301778655,41.887516,-1.042908,2.052681,1.025691,-0.001225,0.065587
4301798701,43.240852,-0.204306,2.023628,1.015315,-0.009112,0.037909
4301818745,45.497826,0.047955,2.093616,0.988356,0.002442,0.008756
4301838790,46.357685,-0.271412,2.299596,0.981787,0.069461,-0.001320
4301858836,46.732605,-1.018070,2.340655,0.998986,0.023574,-0.036759
4301878881,48.299763,-1.123375,2.753801,0.993670,0.054905,-0.011484
4301898926,49.222958,-0.384210,2.618804,1.056524,0.044353,-0.011539
4301918972,51.241142,1.324235,2.963669,1.081194,0.032926,-0.011850
4301939017,52.698708,4.137157,3.132341,1.077282,0.078438,0.006387
4301979108,48.265362,8.007266,3.067936,1.018652,0.195698,0.053125
4301999154,44.307518,7.639792,2.809734,0.923767,0.193155,0.083161
4302019199,40.395702,5.161519,2.634081,0.945807,0.098151,-0.003931
4302039246,41.252377,3.486309,3.135012,0.950354,-0.075201,-0.088598
4302059292,46.042831,1.881228,3.842112,0.975344,-0.120429,-0.117725
4302079337,51.683975,0.693768,3.797735,0.998669,-0.112616,-0.091175
4302099383,57.480000,0.375322,3.831516,1.000232,-0.077591,-0.039880
4302119428,62.211845,0.345982,3.778003,0.983149,-0.013943,0.007692
4302139474,64.490585,0.499034,3.786766,0.986800,0.058683,0.021761
4302159519,64.249588,0.887091,3.553266,0.990181,0.129654,0.026215
4302179567,61.646175,1.084028,3.335677,0.992437,0.192697,0.023802
4302199608,57.221794,0.914541,3.062944,0.976339,0.231248,0.025011
4302219654,51.852974,0.280433,3.008762,1.000467,0.255270,0.007766
4302239699,45.899967,0.156330,2.765541,1.001945,0.237358,0.012401
4302259745,40.965710,0.009878,2.624888,1.012172,0.190634,0.023923
4302279790,37.092388,0.175905,2.370912,0.997130,0.126713,0.055604
4302299836,35.232681,-0.152495,2.285828,0.984033,0.092334,0.071044
4302319881,34.419796,-0.297813,2.156898,0.988799,0.067322,0.070369
4302339927,34.224888,-0.237390,1.946518,0.994210,0.073263,0.081614
4302359972,33.847553,-0.100674,1.792914,0.999899,0.058717,0.082086
4302380018,32.979889,0.188190,1.579545,1.005854,0.076502,0.103560
4302400063,31.531254,0.316885,1.377983,0.991440,0.095598,0.110582
4302420110,28.978590,0.292487,1.014958,0.989727,0.129741,0.128438
4302440155,25.770523,0.001480,0.780160,0.950689,0.054197,0.087925
4302460201,29.071180,-2.167756,1.571537,0.871861,-0.205486,-0.030216
4302480246,37.452339,-4.815241,2.579222,1.004330,-0.112264,0.001048
4302500292,40.668739,-4.251795,1.995316,1.003614,0.012068,0.038708
4302520337,43.513134,-4.631042,2.438080,0.997774,0.069974,0.018287
4302540383,41.685387,-4.083908,1.975029,1.011996,0.145456,-0.007680
4302560427,39.370972,-4.230009,1.684201,1.024981,0.078027,0.022984
4302580472,39.204220,-2.995370,1.721534,1.050152,0.009064,0.050629
4302600518,40.673206,-1.379339,1.718215,1.051224,0.019111,0.020819
4302620563,42.868484,0.313081,1.708190,1.040284,-0.008166,-0.013808
4302640609,45.733047,1.853804,1.930210,1.044254,-0.000439,-0.020788
4302660654,48.149582,3.920610,2.304360,1.008568,0.019695,0.025721
4302700745,51.616257,1.421476,2.138432,0.991787,0.071390,0.001139
4302720790,52.310970,1.300591,2.507426,1.003456,0.069967,0.009566
4302740836,51.055107,1.490511,2.393617,0.994019,0.126782,0.045581
4302760881,48.520058,1.679789,2.151802,1.008119,0.152207,0.058642
4302800973,45.041092,0.886332,2.176102,0.973069,0.031966,-0.054395
4302821019,48.468803,0.416085,2.745396,1.013163,-0.080597,-0.105364
4302841065,54.203171,0.753900,3.152618,1.048237,-0.109098,-0.097473
4302861110,60.170300,1.015021,3.326337,1.020270,-0.079958,-0.057647
4302881156,65.323853,0.522100,3.778162,0.974804,-0.021015,-0.023654
4302901201,68.373680,-0.132546,3.751728,0.957785,0.057839,-0.020318
4302921247,69.135124,-0.597592,3.593314,0.968256,0.127535,-0.022700
4302941290,67.796829,-1.131407,3.598135,0.974778,0.174239,-0.008092
4302961336,64.755333,-1.293037,3.267977,0.992555,0.200507,0.015981
4302981381,60.996651,-1.149847,3.011852,1.000484,0.212825,0.030349
4303001427,56.233204,-1.234954,3.012868,1.003032,0.229495,0.040627
4303021472,51.550331,-1.175710,2.813164,1.014522,0.219593,0.038995
4303041518,47.640003,-0.955200,3.048776,1.019634,0.181379,0.031618
4303061563,44.731720,-0.445785,2.874270,1.016856,0.142357,0.036905
4303081609,43.192017,-0.141757,2.704457,0.997864,0.091877,0.058463
4303101654,42.904316,-0.500612,2.451425,0.988939,0.065763,0.063107
4303121700,43.207836,-0.752303,2.331751,1.004147,0.032018,0.053735
4303141745,44.313667,-0.439939,2.164066,1.008797,0.042686,0.063624
4303161792,44.856415,-0.074033,2.144675,1.014979,0.044455,0.081671
4303181838,45.013844,0.801941,1.940026,1.013738,0.068502,0.099717
4303201883,44.023540,0.961187,1.714186,0.999143,0.131573,0.075533
4303221928,41.047001,0.960093,1.588552,0.971804,0.162174,0.066235
4303241974,37.055279,0.456009,1.575989,0.961842,0.220072,0.045157
4303262019,30.762054,-0.864079,1.587877,0.952513,0.273885,0.028433
4303282065,24.626564,-1.727271,1.427071,0.987202,0.198038,0.012899
4303302110,20.989159,-2.284265,1.560638,0.978422,0.136057,0.003620
4303322154,18.135098,-2.925415,1.465324,1.012012,0.104879,-0.009338
4303342200,15.555243,-2.103523,1.260480,1.032427,0.096842,0.007212
4303362245,13.195130,-1.387523,1.372665,1.028673,0.110210,0.007526
4303382291,9.759025,-0.687774,1.177201,1.031124,0.113743,-0.002779
4303402336,6.545828,-0.201182,1.054536,1.020697,0.097805,-0.004481
4303422382,2.726871,0.262161,0.836722,1.001876,0.108604,-0.004088
4303442427,-1.467120,0.550087,0.603845,1.005676,0.119433,-0.005350
4303462472,-5.869180,0.997773,0.275134,1.001589,0.135078,-0.003128
4303482518,-10.893909,1.719189,-0.248724,1.020258,0.127813,-0.011423
4303502563,-15.439537,2.883369,-0.508261,1.026454,0.115074,-0.017862
4303522609,-19.852324,4.307047,-0.618411,1.058044,0.103473,-0.019380
4303542656,-24.163023,6.394071,-0.602845,1.014146,0.087377,0.020521
4303562701,-26.342979,5.342759,-0.190255,0.983721,0.000461,0.024452
4303582746,-26.054222,4.465274,-0.681990,0.996336,-0.076673,0.020189
4303602792,-22.304787,4.405697,-0.517661,1.006792,-0.181374,0.016009
4303622838,-16.949549,4.399914,-0.346464,0.958787,-0.173177,0.009007
4303642883,-12.062949,3.334488,-0.261984,0.958294,-0.149512,-0.035233
4303662929,-10.337213,1.924899,-0.336626,0.934732,-0.002504,-0.069661
4303682974,-12.967338,0.109570,-0.692185,0.974113,0.107907,-0.067066
4303703018,-18.905039,-0.944208,-0.902043,1.001019,0.185263,-0.020631
4303723063,-26.943867,-0.901026,-1.067141,1.012959,0.216115,0.028497
4303743109,-35.062466,-0.919259,-1.413881,0.985992,0.194041,0.069753
4303763154,-41.705757,-1.127650,-1.773333,0.983192,0.108890,0.071031
4303783199,-45.808689,-0.786447,-2.046361,0.986979,0.017107,0.072481
4303803245,-46.847958,-1.129566,-2.002129,0.975181,-0.071438,0.066202
4303823291,-45.201088,-1.166838,-1.835283,1.004653,-0.139262,0.065177
4303843336,-42.220455,-1.333851,-1.900205,1.000095,-0.184551,0.077494
4303863382,-38.370132,-1.005562,-2.090632,1.028337,-0.139703,0.105442
4303883427,-36.023865,0.069401,-2.185587,1.042310,-0.097043,0.141988
4303903473,-35.106724,1.182168,-2.245295,1.012575,-0.053096,0.171290
4303923519,-35.338192,1.142741,-2.783216,0.972043,-0.070053,0.132611
4303943565,-33.724918,0.511675,-2.338649,0.975977,-0.068815,0.108759
4303963610,-33.450317,0.260193,-2.366065,0.977622,-0.005108,0.122423
4303983656,-34.102531,0.168275,-2.490649,1.000659,-0.003253,0.123570
4304003702,-33.714157,0.656869,-2.171229,1.035192,-0.008272,0.138150
4304023747,-33.079456,1.205715,-2.185372,1.001575,-0.015591,0.142366
4304043792,-32.615852,1.518902,-1.927960,0.973947,-0.027801,0.153932
4304063838,-31.223793,0.704957,-1.447926,0.949128,-0.037823,0.062324
4304083882,-32.994926,-1.298322,-0.803215,0.858162,0.088463,-0.060518
4304103927,-38.714558,-4.236723,-1.996777,1.043668,0.077807,-0.066568
4304123972,-39.291031,-3.160819,-1.354933,1.031020,-0.059867,0.029555
4304144018,-40.381283,-2.117714,-1.642908,1.079848,-0.007342,0.059863
4304164064,-41.428558,-0.076708,-2.126076,1.066074,-0.003631,0.061090
4304184109,-42.762520,0.814049,-2.355325,1.001075,0.009900,0.049285
4304204154,-44.409058,0.455106,-2.490292,0.956731,0.010144,0.017815
4304224200,-46.168793,-0.490439,-2.521771,0.954845,-0.008731,-0.005905
4304244245,-48.310081,-1.580778,-2.507157,0.955875,0.002736,-0.003854
4304264291,-50.519009,-2.350928,-2.438806,0.975157,0.005685,0.001622
4304284336,-52.543369,-2.823697,-2.321537,1.001361,-0.009065,0.024439
4304304383,-53.662872,-2.832032,-2.498463,1.003728,-0.043312,0.051053
4304324428,-53.201160,-2.206657,-2.356675,1.029737,-0.104846,0.060607
4304344474,-51.380424,-0.788656,-2.350878,1.027869,-0.107474,0.067996
4304364520,-49.890953,0.179335,-2.467058,1.022377,-0.063985,0.074916
4304384565,-50.105862,0.909730,-2.962014,1.010338,0.005268,0.046140
4304404611,-53.513855,1.411037,-3.287267,1.018309,0.056585,-0.007731
4304424656,-58.769276,1.721714,-3.446134,1.038942,0.107513,-0.034311
4304464746,-72.394264,1.859877,-4.718143,0.996296,0.077348,0.022748
4304484791,-75.833923,1.287560,-4.641853,0.980176,-0.035290,0.028021
4304504836,-76.804314,0.845403,-4.590986,0.978901,-0.072296,0.040541
4304524882,-76.523750,0.083142,-4.693231,0.963329,-0.127449,0.039627
4304544927,-74.746254,-0.662701,-4.465429,0.968430,-0.135450,0.038373
4304564973,-73.854103,-1.111384,-4.160306,0.988830,-0.089132,0.028326
4304585018,-73.523636,-1.088215,-4.067457,0.975047,-0.065471,0.044862
4304605064,-73.694748,-1.087645,-3.804329,0.998126,-0.067351,0.043110
4304625109,-74.130562,-1.118243,-3.803412,1.001701,-0.062431,0.044130
4304645155,-73.809258,-1.087653,-3.794466,1.014165,-0.085908,0.030249
4304665200,-73.418060,-0.835914,-3.734122,0.999762,-0.095943,0.026335
4304685247,-71.795769,-1.071532,-3.650195,0.995893,-0.141269,0.016945
4304705293,-68.833168,-1.131231,-3.447674,1.008872,-0.152986,0.016652
4304725338,-65.373940,-1.023194,-3.270630,1.009863,-0.167137,0.039353
4304745383,-61.679901,-1.014445,-3.212434,1.014647,-0.156010,0.051599
4304765429,-58.439667,-0.693735,-3.314583,1.016363,-0.141170,0.056356
4304785474,-56.067585,-0.365185,-3.224159,1.004820,-0.118172,0.055970
4304805520,-54.700218,-0.037306,-3.305274,1.026564,-0.094337,0.038221
4304825570,-53.960598,0.709421,-3.444375,1.004484,-0.060041,0.056243
4304845609,-53.686424,0.686494,-3.503109,0.994513,-0.041670,0.061466
4304865655,-53.470497,0.656309,-3.400218,0.982549,-0.033971,0.052307
4304885700,-52.834110,0.283313,-3.289061,0.989973,-0.047448,0.038223
4304905746,-51.838112,0.100955,-3.170234,1.002677,-0.073268,0.037051
4304925791,-49.854103,0.094350,-2.964185,0.995236,-0.106392,0.037595
4304945837,-47.837330,-0.057744,-3.056302,0.991326,-0.091549,0.049166
4304965882,-46.127419,-0.132856,-2.783573,0.985816,-0.080369,0.048334
4304985928,-44.773243,-0.239068,-2.733082,0.994501,-0.065343,0.049613
4305005973,-44.019142,-0.543056,-2.456328,0.986205,-0.042517,0.051895
4305026018,-43.819550,-0.718167,-2.406127,0.976537,-0.031794,0.053313
4305046064,-44.001770,-1.236232,-2.316811,0.982942,-0.019328,0.049825
4305066111,-44.308662,-1.343137,-2.371631,0.983490,-0.011329,0.045445
4305086156,-44.535404,-1.685770,-2.213262,0.989827,-0.016619,0.032364
4305106202,-44.585743,-1.456760,-2.044936,1.014032,-0.035144,0.031165
4305126247,-44.183086,-1.144553,-2.198976,1.010688,-0.049123,0.051671
4305146293,-43.548096,-0.816659,-2.189465,1.011073,-0.054935,0.057211
4305166338,-42.747028,-0.511859,-2.297721,1.003680,-0.049842,0.062685
4305186384,-41.942657,-0.442859,-2.214220,1.001305,-0.061317,0.057116
4305206428,-41.108063,-0.267213,-2.154585,0.997511,-0.053876,0.050088
4305226473,-40.059803,-0.449720,-2.105545,0.990903,-0.071803,0.052227
4305246519,-38.016624,-0.784245,-1.998890,0.990022,-0.082165,0.058160
4305266564,-35.686848,-0.981045,-1.691935,0.981925,-0.134770,0.051759
4305286609,-30.374718,-1.237952,-1.358595,0.995274,-0.199619,0.048461
4305326700,-27.733538,-4.384009,-1.063147,0.909384,0.070257,-0.057912
4305346746,-30.615839,-5.764035,-1.002624,1.014228,-0.016784,-0.030143
4305366791,-29.793304,-5.252678,-0.775760,1.028248,-0.063206,0.047128
4305386837,-28.623058,-4.636055,-1.197876,1.056055,-0.055585,0.064252
4305406882,-27.208702,-4.262297,-1.218924,1.013232,-0.058128,0.050371
4305426929,-25.378313,-4.147110,-1.056147,0.994154,-0.043600,-0.001525
4305446974,-23.446638,-4.763204,-0.762996,0.963793,-0.051878,-0.028226
4305467020,-22.103962,-5.951014,-0.464154,0.954994,-0.045997,-0.039161
4305487065,-21.303379,-7.336999,-0.115926,0.963881,-0.046957,-0.023243
4305507111,-20.336481,-8.319307,0.113109,0.971117,-0.038094,-0.007041
4305527156,-19.177114,-9.286152,0.414772,0.981003,-0.051543,-0.006734
4305547202,-17.975281,-9.918134,0.515819,0.982752,-0.053913,-0.011026
4305567253,-16.538874,-10.352241,0.474109,0.996072,-0.059908,-0.017144
4305587291,-14.871265,-9.871609,0.501282,1.007974,-0.061171,-0.020613
4305627382,-11.613344,-6.814881,0.435529,1.122474,-0.048295,-0.036657
4305647428,-9.893109,-1.968891,-0.164168,1.144758,-0.059875,-0.018136
4305687519,-6.607462,6.924650,-0.593756,1.074233,-0.027140,0.032032
4305707564,-6.349630,9.750594,-1.234766,1.169208,0.006029,-0.015667
4305727610,-6.565778,15.625548,-1.555789,1.129976,0.021204,0.007127
4305747655,-7.046126,20.684507,-2.082929,1.215744,0.018673,-0.002865
4305767701,-8.107811,27.122557,-2.672153,1.183229,0.050836,0.052738
4305787746,-9.666307,28.595011,-1.806255,0.619572,0.069832,0.409632
4305807793,-11.827241,7.835023,-1.763982,0.816800,0.081347,0.066289
4305827838,-12.296458,6.013272,-1.855793,0.758115,-0.059540,-0.075996
4305847884,-10.526894,0.042815,-0.189133,0.876901,-0.114471,-0.218181
4305867929,-8.009187,-3.240589,0.048036,0.914808,-0.108747,-0.149755
4305887975,-5.124123,-4.009139,0.216214,0.967594,-0.110153,-0.009404
4305908020,-1.592804,-3.772103,0.146903,1.027689,-0.083287,0.113348
4305928066,1.636460,-2.422090,0.247859,1.086806,-0.069143,0.193017
4305948110,4.246498,0.770900,-0.134358,1.088542,-0.032111,0.195286
4305968155,5.814583,2.889861,-0.171839,1.048280,0.005992,0.116116
4305988201,6.000495,3.011157,-0.466226,0.968630,0.019933,0.039201
4306008246,5.711918,1.700637,-0.311076,0.953826,0.023795,-0.028999
4306028292,5.004966,0.519829,-0.041259,0.949828,0.015859,-0.038086
4306048337,4.755023,-1.263088,0.152922,0.950121,0.014291,0.001763
4306068382,4.642297,-2.474497,0.304330,0.987764,0.021958,0.036784
4306088428,4.325923,-2.177764,0.133727,1.021882,0.029722,0.078673
4306108473,4.747944,-1.240156,0.183548,1.032770,0.007930,0.092866
4306128519,5.564077,-0.112384,0.034053,1.028070,-0.006621,0.099506
4306148565,6.724731,0.337329,-0.066380,0.985468,-0.024610,0.096450
4306168611,8.612558,0.582585,0.308810,1.002567,-0.028646,0.063122
4306188657,10.554221,0.583054,0.286415,0.976444,-0.026211,0.073004
4306208702,12.150933,0.034651,0.234333,0.987961,-0.020660,0.064084
4306228748,13.204024,-0.139608,0.550703,1.002969,-0.003531,0.066614
4306248795,13.897825,-0.040614,0.437572,0.990782,0.022403,0.080758
4306268839,13.870334,-0.200247,0.614390,0.990654,0.045847,0.065653
4306288884,12.990680,-0.421521,0.601630,0.994452,0.060216,0.059663
4306308937,11.748209,-0.163260,0.380353,1.000576,0.076156,0.065705
4306328974,10.525117,0.019333,0.388195,1.003712,0.062425,0.066492
4306349019,9.077341,0.209103,0.232261,1.005931,0.058518,0.067641
4306369064,8.251995,0.186075,0.255995,0.999636,0.034581,0.066608
4306389110,7.808819,0.178373,0.272261,0.994509,0.026112,0.065438
4306409155,7.694372,0.048828,0.290196,0.982127,0.014989,0.062037
4306429201,7.777174,-0.248512,0.228448,0.990109,0.013631,0.058998
4306449246,7.828768,-0.210647,0.120340,0.982853,0.006719,0.066123
4306469292,8.180979,-0.568643,0.160546,0.993373,0.015106,0.067473
4306489337,8.120411,-0.522860,0.192135,0.993735,0.014469,0.067286
4306509383,8.158743,-0.560938,0.199159,0.998616,0.019112,0.064835
4306529428,8.320333,-0.598863,0.257282,0.995601,0.020637,0.055171
4306549475,8.379670,-0.385715,0.148440,1.004417,0.020728,0.047940
4306569521,8.165675,-0.119049,0.144064,0.997365,0.016912,0.056418
4306589566,8.415858,0.162694,0.016008,1.008231,0.020393,0.061310
