Timestamp (us),Gyroscope X (deg/s),Gyroscope Y (deg/s),Gyroscope Z (deg/s),Accelerometer X (g),Accelerometer Y (g),Accelerometer Z (g)
419513714,-1.408426,-0.014972,0.077618,0.993033,0.002363,-0.092359
419533759,-1.105475,-0.022327,0.163144,0.992358,-0.009014,-0.094961
419553804,-0.828379,-0.121275,0.119637,0.989636,-0.009753,-0.098908
419573847,-0.202722,-0.204832,-0.022243,0.991245,-0.012665,-0.100928
419593892,0.507251,-0.204301,-0.074158,0.994166,-0.012934,-0.101068
419613935,1.192731,-0.081874,-0.110554,0.997379,-0.015302,-0.105204
419633980,2.113492,0.139324,-0.144263,0.998802,-0.013839,-0.102325
419654023,2.901222,0.215111,-0.228214,0.990217,-0.013670,-0.102270
419674067,3.847222,0.093287,-0.246078,0.991516,-0.015130,-0.106102
419694110,4.525012,0.131220,-0.396902,1.000022,-0.011122,-0.110158
419714153,5.080050,0.329094,-0.576443,0.995322,0.000240,-0.111639
419734197,5.081002,0.306357,-0.522896,0.984862,0.006589,-0.113741
419754241,5.113307,0.199904,-0.423829,0.983181,0.003581,-0.115886
419774285,5.176265,-0.005596,-0.317386,0.993130,0.016415,-0.120344
419794329,4.351877,0.200110,-0.248584,1.000885,0.042637,-0.114346
419814373,2.762980,0.565649,-0.180763,1.001216,0.049739,-0.110914
419834417,1.154615,0.718263,0.086823,0.992982,0.052191,-0.106602
419854461,-0.671033,0.695136,0.183457,0.988672,0.050736,-0.102714
419874505,-2.413538,0.489019,0.233238,0.986203,0.044190,-0.098394
419894550,-4.124844,0.412536,0.312548,0.984199,0.045378,-0.093188
419914594,-5.911218,0.069501,0.478258,0.989982,0.053569,-0.096023
419934638,-8.241522,-0.060448,0.577398,0.992499,0.058391,-0.097890
419954682,-9.629591,-0.113710,0.772622,0.995629,0.052385,-0.101837
419974726,-10.892488,-0.197052,1.125987,0.990194,0.046285,-0.099737
419994770,-12.523018,-0.151028,1.440206,0.984467,0.056743,-0.097659
420014814,-14.663095,-0.570619,1.498412,0.986308,0.070476,-0.100891
420034856,-17.289579,-0.746110,1.710432,0.994770,0.066209,-0.102934
420054900,-19.571161,-0.456559,1.952418,0.994254,0.066121,-0.101200
420074944,-21.670111,-0.609051,2.161766,0.988075,0.059746,-0.099904
420094987,-23.989025,-0.464180,2.458448,0.991922,0.066940,-0.098893
420115031,-26.339371,-0.609000,2.718497,0.990156,0.068936,-0.100409
420135075,-28.858849,-0.540616,2.919987,0.996245,0.072673,-0.101790
420155119,-31.379908,-0.350512,3.029405,0.995153,0.076120,-0.106225
420175163,-34.357723,-0.312678,3.255173,0.996262,0.080573,-0.110155
420195207,-36.735607,-0.220880,3.675440,0.993397,0.080565,-0.111922
420215251,-39.562191,-0.388973,3.814902,0.980344,0.082540,-0.116150
420235296,-42.491333,-0.731779,4.209105,0.978454,0.087718,-0.119213
420255340,-45.544853,-1.112986,4.491227,0.982144,0.089538,-0.122002
420275384,-48.625931,-1.280438,4.933643,0.989094,0.089722,-0.126479
420295428,-51.976196,-1.234798,5.281234,0.991112,0.087707,-0.135860
420315472,-55.048359,-1.356361,5.792097,0.965002,0.083693,-0.120793
420335516,-58.086926,-2.072902,6.067404,1.010939,0.095956,-0.169073
420355560,-62.163773,1.942710,6.263048,1.107082,0.117448,-0.184455
420375602,-65.570320,2.027069,6.879053,0.919069,0.076672,-0.091403
420395646,-68.202766,0.708745,7.224897,1.007292,0.096051,-0.163836
420415690,-71.825470,0.098337,7.327791,0.940357,0.103060,-0.157533
420435734,-75.449387,-1.082762,7.807039,0.942937,0.107797,-0.156041
420455778,-79.334641,-1.928815,8.198545,0.971216,0.101358,-0.168132
420475822,-82.988876,-2.195449,8.660055,0.996176,0.107004,-0.185996
420495865,-86.895905,-1.532532,9.062243,0.994651,0.113009,-0.184165
420515909,-90.691490,-1.524361,9.731899,0.987874,0.099871,-0.200458
420535953,-94.195900,-1.311274,10.005510,0.984084,0.091209,-0.208277
420555997,-97.288376,-1.547800,10.242058,0.974005,0.096278,-0.214468
420576041,-100.564476,-1.973905,10.903080,0.984300,0.091204,-0.211367
420596086,-104.024559,-5.352169,10.370150,0.850764,0.171421,-0.215759
420616130,-107.024414,-2.656394,13.093893,1.110158,0.021610,-0.264868
420636174,-111.161919,-1.722326,12.154755,0.992227,0.093645,-0.226847
420656218,-113.298927,0.442770,12.716273,1.043494,0.056212,-0.242456
420676262,-114.816483,1.996434,12.457814,1.025944,0.003796,-0.236623
420696306,-114.833794,3.040154,12.309488,0.981621,-0.002671,-0.204175
420716350,-114.859451,2.132974,12.190742,0.929015,-0.004162,-0.233051
420736392,-115.853218,-0.023820,12.278337,0.914864,0.025981,-0.255100
420756436,-117.776787,-2.011838,12.948881,0.929463,0.095915,-0.280792
420776480,-121.005829,-2.878764,14.114794,0.997836,0.105405,-0.321371
420796524,-124.999123,-1.133071,14.782500,1.079924,0.178357,-0.342681
420816568,-129.368622,4.322434,14.810918,1.097836,0.144122,-0.217929
420836612,-135.996002,4.243673,14.481293,1.011774,0.179624,-0.289597
420856656,-141.293015,6.072333,14.929496,0.956861,0.165846,-0.267033
420876700,-146.455414,5.444907,14.451006,0.935043,0.081970,-0.300654
420896744,-148.928711,4.536949,14.280418,0.941181,-0.003344,-0.295261
420916787,-149.589905,2.585492,14.146915,0.876916,-0.051347,-0.276656
420936831,-148.584457,-0.318081,14.037733,0.874034,-0.093987,-0.311122
420956877,-147.148132,-2.437285,13.627205,0.942428,-0.128644,-0.314410
420976921,-142.967239,-2.405869,13.545973,0.969573,-0.155938,-0.286051
420996965,-136.911743,-2.139523,12.686363,1.000471,-0.211423,-0.307636
421017008,-126.182365,-1.231532,11.924962,1.049325,-0.369398,-0.323004
421037052,-113.382889,0.382479,9.760862,1.043283,-0.474632,-0.305932
421057096,-98.113327,1.967720,8.045623,1.027420,-0.456015,-0.259396
421077139,-82.261032,2.055102,7.745372,0.989151,-0.224783,-0.186597
421097182,-81.894295,2.076042,6.882344,0.990248,0.263684,-0.166094
421117226,-91.272812,1.117726,8.779202,0.905129,0.351831,-0.150264
421137270,-97.165085,0.161297,11.082176,0.945220,0.069102,-0.124425
421157314,-99.651749,-0.969388,10.179010,0.937198,0.080197,-0.171511
421177358,-101.003777,-2.366087,9.453392,0.960093,0.007772,-0.197108
421197402,-101.066986,-2.846451,9.356878,0.979303,0.003262,-0.191074
421217446,-102.675804,-3.013951,9.610257,1.026091,0.021933,-0.217956
421237490,-106.036865,-1.998954,10.596712,1.008842,0.094422,-0.212698
421257534,-111.017044,-1.479480,11.700291,0.961449,0.179669,-0.221291
421277577,-116.573532,-1.455852,12.663874,0.961982,0.194547,-0.245472
421297623,-121.614326,-2.027022,13.413110,0.954259,0.158759,-0.260077
421317667,-125.395958,-1.706588,13.997401,0.970687,0.078808,-0.265762
421337711,-127.266403,-1.325709,14.139407,1.023694,0.004300,-0.259099
421357755,-128.601730,-0.345666,12.985271,0.995749,0.000273,-0.249356
421377798,-129.064026,-0.223334,13.207795,0.957257,-0.045343,-0.239546
421397842,-128.769760,-2.188818,13.483722,0.905212,-0.015097,-0.275474
421417886,-129.733505,-3.911321,13.523441,0.901757,0.010176,-0.282810
421437929,-131.457138,-5.549591,13.822148,0.932689,0.078361,-0.333832
421457973,-135.054794,-5.731989,14.450392,1.012117,0.117760,-0.343240
421478016,-139.512726,-4.047152,15.219015,1.054298,0.155478,-0.346745
421498060,-145.433258,-1.996229,16.274611,1.026582,0.180099,-0.342501
421518104,-151.482269,-0.724403,16.594070,0.993231,0.163698,-0.329469
421538148,-156.457001,0.190052,17.138403,0.970156,0.086952,-0.342110
421558192,-159.596909,0.341949,17.275240,0.948313,0.026971,-0.341638
421578236,-161.427185,-0.314268,17.137186,0.949288,-0.024825,-0.360995
421598280,-160.986816,-0.817490,16.985126,0.950309,-0.090676,-0.354458
421618324,-158.793976,-2.044969,16.518742,0.909830,-0.145846,-0.344054
421638369,-155.550568,-3.194573,16.643030,0.968115,-0.138442,-0.372293
421658413,-151.846954,-3.270386,16.388021,0.976362,-0.147955,-0.356895
421678457,-146.689987,-2.691372,15.720560,1.010295,-0.181457,-0.346888
421698501,-140.175537,-1.897095,15.698488,1.000142,-0.238254,-0.355971
421718545,-132.049576,-0.761683,14.719395,1.008397,-0.292274,-0.352663
421738589,-121.724716,0.091958,13.576309,0.977185,-0.375463,-0.297980
421758632,-108.381706,0.046953,12.354725,0.979252,-0.409002,-0.282437
421778675,-96.754814,0.930724,10.911182,1.080395,-0.187902,-0.189575
421798719,-94.018150,3.635610,10.360022,1.036540,0.058190,-0.145754
421818763,-98.507393,2.577022,11.184237,0.896043,0.191958,-0.162462
421838807,-105.057938,0.390473,12.220314,0.907181,0.137103,-0.171003
421858851,-106.523071,-0.744974,12.420636,0.991013,-0.039438,-0.168418
421898938,-105.613968,-1.121203,11.120485,0.984900,0.009286,-0.184462
421918983,-107.233124,-0.450817,11.195520,1.020923,0.023799,-0.186643
421939027,-109.879074,0.844863,11.548207,1.018779,0.027059,-0.193602
421959070,-113.284927,1.660865,12.177046,0.987875,0.036092,-0.204346
421979114,-115.971596,1.736958,12.435245,0.974630,0.030341,-0.204747
421999160,-116.953629,1.560993,12.256207,0.970408,-0.000163,-0.217424
422019204,-116.936653,1.255409,11.935955,0.967786,-0.027550,-0.217696
422039247,-116.256027,-0.001745,11.988065,0.926182,-0.039078,-0.220690
422059291,-115.688705,-0.618644,12.093732,0.966226,-0.016595,-0.246555
422079335,-116.490120,-1.053035,12.187144,0.973421,0.025587,-0.269352
422099379,-118.395454,-0.862239,12.521496,1.016069,0.061751,-0.277310
422119423,-121.625656,0.326188,12.702481,1.037779,0.104533,-0.281110
422139465,-125.304794,1.538631,13.427001,1.010341,0.117096,-0.253067
422159509,-129.397812,1.606790,13.712515,0.972959,0.107305,-0.254864
422179553,-132.892349,1.041903,13.713431,0.959368,0.061159,-0.256734
422199597,-134.980759,0.789733,13.663097,0.961947,0.012952,-0.253703
422219641,-135.735199,0.645072,13.808122,0.970387,-0.031639,-0.269114
422239685,-135.287796,0.888557,13.592311,0.936491,-0.079685,-0.248213
422259729,-133.278320,0.180225,13.540394,0.952944,-0.134746,-0.275272
422279773,-129.696762,-0.246123,13.311847,0.974902,-0.165662,-0.285036
422299816,-124.860344,0.439566,12.673174,0.992320,-0.197614,-0.259318
422319860,-118.734085,0.027971,11.944353,0.987982,-0.243306,-0.269426
422339906,-110.721527,-0.048116,11.078474,0.981078,-0.276834,-0.240294
422359950,-100.767090,-0.207529,10.205758,0.958149,-0.321233,-0.223671
422379994,-88.756462,-0.931360,8.897667,0.966781,-0.346293,-0.203352
422400037,-82.471230,-0.801084,8.484898,1.038221,0.141462,-0.128945
422420081,-89.863625,0.852687,9.341131,1.009264,0.302267,-0.123907
422440125,-97.257759,0.420244,11.021981,0.941848,0.148548,-0.157997
422480213,-99.889908,-1.440076,10.979909,0.982208,0.004877,-0.206467
422500256,-101.121651,-1.069092,10.077960,1.010052,0.016752,-0.201697
422520299,-102.770233,-0.322360,10.214444,1.013489,0.019120,-0.203393
422540343,-105.743439,0.661988,11.086494,1.001999,0.034481,-0.201407
422560387,-109.180962,1.020622,11.671621,0.973174,0.057262,-0.207671
422580431,-112.509781,1.104175,11.934614,0.956368,0.045137,-0.208363
422600475,-114.122299,0.173170,11.586930,0.947142,0.009532,-0.220311
422620519,-115.023468,-0.810951,11.256186,0.939662,-0.014042,-0.221234
422640563,-114.905098,-2.250685,11.510852,0.947765,-0.028160,-0.238051
422660607,-115.606316,-2.677325,11.648141,0.966047,0.028763,-0.267869
422680651,-118.057693,-2.745189,12.238477,0.995614,0.056917,-0.267603
422700696,-120.937630,-1.830195,12.772724,1.027977,0.071680,-0.279799
422720740,-124.128883,-0.809312,12.999360,1.014491,0.076949,-0.272860
422740784,-127.121841,-0.047531,13.207731,1.005212,0.057651,-0.272035
422760828,-129.739502,0.402002,13.463347,0.967982,0.030877,-0.257103
422780872,-131.345474,0.066235,13.457420,0.967907,-0.006268,-0.273108
422800916,-131.786240,-0.170756,13.191669,0.963647,-0.031092,-0.263190
422820959,-131.947983,-0.170953,13.126036,0.957759,-0.058556,-0.252514
422841002,-131.149902,-0.863812,13.311534,0.938876,-0.054231,-0.260642
422861046,-130.182358,-1.778445,13.150617,0.946834,-0.056245,-0.274754
422881090,-128.942139,-2.151306,13.250056,0.972705,-0.085328,-0.280321
422901134,-126.402832,-2.211475,13.300323,0.967389,-0.122061,-0.264102
422921178,-122.651825,-2.515690,13.136851,0.986526,-0.143062,-0.272654
422941222,-118.463074,-2.188041,12.634202,0.982776,-0.171347,-0.264918
422961265,-113.666039,-2.019705,12.372448,1.008556,-0.164591,-0.273084
422981309,-109.174255,-0.761666,12.105347,0.998353,-0.143610,-0.231460
423001353,-104.876770,-0.532833,11.700253,0.994837,-0.162791,-0.220475
423021397,-99.967766,-0.227654,11.283042,0.984028,-0.173139,-0.198396
423041441,-94.782684,-0.555772,10.511074,0.976029,-0.175396,-0.181916
423061486,-89.816620,-0.632126,9.880065,0.983734,-0.159443,-0.169456
423081530,-85.479073,-0.678370,9.161811,0.993320,-0.131746,-0.153416
423101574,-82.847847,-0.998578,8.806163,0.969560,-0.034521,-0.147998
423121618,-82.470856,-1.478253,8.953274,0.982059,-0.015233,-0.157321
423141662,-82.033401,-1.500785,9.044199,0.993077,-0.057908,-0.171508
423161706,-79.987183,-1.211039,8.873625,1.021165,-0.071246,-0.174779
423181750,-78.581062,0.213256,8.360187,1.045227,-0.061537,-0.157504
423201792,-76.692574,1.393915,7.891690,1.012480,-0.064029,-0.150406
423221836,-75.677734,1.752074,7.763825,0.979230,-0.037047,-0.143983
423241880,-75.512093,1.477454,7.631620,0.970831,-0.023875,-0.147765
423261924,-75.510307,0.502283,7.764737,0.960396,-0.013976,-0.148330
423281968,-74.812492,-0.091652,7.898361,0.981632,-0.020153,-0.160937
423302011,-74.167549,0.067904,7.617865,0.990916,-0.017751,-0.147936
423322056,-74.046989,0.166770,7.515857,0.992543,-0.007296,-0.153065
423342100,-73.709053,0.372807,7.592670,0.990152,-0.035497,-0.150799
423362143,-72.097290,0.624513,7.499425,0.992519,-0.088173,-0.154473
423382187,-68.876358,-0.153623,6.789993,0.895582,-0.176021,-0.107649
423402233,-61.683701,-5.524310,6.859343,0.915693,-0.215217,-0.221036
423422276,-57.997120,-3.002812,5.992343,1.034162,-0.105522,-0.122021
423442320,-53.290840,-3.643118,5.391176,1.007902,-0.181759,-0.153400
423462364,-47.896866,-1.165586,5.079584,1.045385,-0.155010,-0.130572
423482416,-42.791565,-0.289154,4.503832,1.019032,-0.121198,-0.126094
423502452,-38.760757,0.907511,4.115976,1.023630,-0.081396,-0.102546
423522496,-35.618488,1.631267,3.655238,1.002317,-0.112000,-0.106035
423542538,-30.647148,1.380330,3.322724,0.983322,-0.150768,-0.098475
423562583,-25.255737,0.976050,2.547006,0.988455,-0.171933,-0.084276
423582626,-19.402912,0.671301,1.914833,0.986628,-0.163184,-0.074001
423602670,-14.467721,0.076718,1.286147,0.965909,-0.120013,-0.080256
423622714,-10.078509,-0.654590,0.913038,0.996542,-0.119147,-0.078419
423642758,-5.647281,-0.051837,0.702783,1.031102,-0.117001,-0.076561
423662802,-1.577376,0.992543,0.368166,1.024151,-0.090536,-0.075397
423682846,1.863788,1.685990,-0.052423,1.009283,-0.086379,-0.078872
423702890,5.513775,1.853998,-0.322485,0.995731,-0.092952,-0.081081
423722934,9.163004,1.663752,-0.621905,0.980686,-0.088332,-0.079380
423742978,12.167554,0.947216,-1.036969,0.970559,-0.067792,-0.082328
423763023,14.723038,0.154621,-1.336085,0.962020,-0.045327,-0.078407
423783067,16.397457,-0.676544,-1.732598,0.984793,-0.012100,-0.084569
423803111,17.411617,-0.760452,-1.881903,0.997180,-0.000721,-0.090609
423823155,16.874283,-0.456058,-2.010036,1.005007,0.032869,-0.085170
423843199,15.496801,0.054970,-1.671708,1.017333,0.075002,-0.087720
423863243,13.305019,0.947290,-1.135455,1.010350,0.079256,-0.094507
423883302,10.315423,1.084641,-0.718754,0.993289,0.065850,-0.099096
423903329,7.794691,0.886150,-0.577483,0.984958,0.061196,-0.100398
423923373,5.226929,0.573192,-0.496050,0.978573,0.050551,-0.095733
423943417,3.245657,0.069592,-0.532343,0.980936,0.053382,-0.091330
423963461,1.733103,-0.441203,-0.440161,0.982729,0.058030,-0.088009
423983505,-0.229072,-0.791897,-0.271014,0.983166,0.060850,-0.088838
424003549,-2.043327,-0.768813,0.031564,0.992427,0.048047,-0.082893
424043636,-4.453677,-0.128604,0.328371,1.010203,0.032520,-0.080901
424063680,-4.953983,0.130915,0.558818,1.004811,0.014034,-0.087042
424083724,-4.885417,0.222345,0.541900,0.992070,-0.009181,-0.085969
424103770,-3.818319,0.115514,0.361079,0.990900,-0.031563,-0.086457
424123813,-2.449747,-0.097494,0.365798,0.989714,-0.031200,-0.086346
424143857,-1.317062,-0.258068,0.008130,0.992974,-0.023274,-0.082512
424163901,-0.245098,-0.295683,0.094435,0.996937,-0.016450,-0.085042
424183945,0.702848,-0.219245,0.083428,0.996668,-0.007997,-0.089136
424203989,1.159699,-0.135546,-0.025055,0.993898,-0.007913,-0.090723
424224033,1.763728,-0.005838,-0.029566,0.993754,-0.008009,-0.093534
424264119,2.959383,-0.112819,-0.289295,0.997212,-0.009105,-0.099129
424284163,3.440046,-0.173786,-0.344268,0.993022,-0.008747,-0.098513
424304207,3.914306,-0.234594,-0.330344,0.990338,-0.005751,-0.100197
424324251,4.048727,-0.212113,-0.508780,0.991771,0.003164,-0.101144
424344295,3.706404,-0.265321,-0.410263,0.992952,0.012901,-0.100908
424364339,3.255367,-0.173988,-0.409457,0.991657,0.020358,-0.101262
424384383,2.774251,-0.181663,-0.377171,0.992137,0.020816,-0.100000
424404427,2.356159,-0.280524,-0.238825,0.991486,0.015173,-0.100978
424424471,1.782567,-0.166392,-0.250999,0.993264,0.013988,-0.103639
424444515,1.585506,-0.150979,-0.155529,0.995145,0.009529,-0.105933
424484604,1.112290,0.047131,-0.116440,0.999733,0.011886,-0.114367
424504648,0.639189,0.207154,-0.069586,0.996594,0.014162,-0.111140
424524692,0.309617,0.298406,-0.116985,0.989005,0.014886,-0.106654
424544736,-0.131026,0.138627,0.044927,0.983221,0.016339,-0.103290
424564780,-0.390934,-0.166250,0.058626,0.985693,0.013705,-0.103146
424584824,-0.725563,-0.371856,0.165143,0.985492,0.016978,-0.103874
424604866,-1.163293,-0.364601,0.058991,0.993416,0.010983,-0.105452
424624910,-1.353925,-0.303623,0.085411,0.998476,0.007900,-0.103718
424644954,-1.315278,-0.273077,0.107484,1.000770,0.004629,-0.103388
424664998,-1.320997,-0.044218,0.206172,0.997114,0.004351,-0.103507
424685042,-1.306682,0.184269,0.144002,0.992176,0.005071,-0.103787
424705085,-1.284179,0.161357,0.120717,0.991905,0.009256,-0.103335
424725129,-1.184892,0.031824,0.119222,0.992402,0.009343,-0.106067
424745174,-1.214425,0.161498,0.172853,0.996314,0.000803,-0.102580
424765217,-1.207850,0.222324,0.111392,0.992722,0.006800,-0.103799
424785261,-1.023805,0.077657,0.146509,0.992337,0.006070,-0.104881
424805307,-0.979040,0.092766,0.084459,0.992539,0.001068,-0.104150
424825351,-0.962745,0.169104,0.137378,0.994900,-0.001841,-0.105093
424845395,-0.588061,0.214931,0.137597,0.992726,-0.002571,-0.104147
424865439,-0.413093,0.214862,0.088353,0.993816,0.002616,-0.104174
424885482,-0.321549,0.390128,0.070711,0.996361,0.002346,-0.104852
424905527,-0.284659,0.481408,-0.006724,0.995884,0.007893,-0.105580
424925570,-0.138052,0.733091,0.058367,0.989695,0.009251,-0.104296
424945613,-0.175754,0.428336,0.098320,0.988551,0.007971,-0.106907
424965657,-0.413954,0.397638,0.034271,0.992104,0.005337,-0.107599
424985701,-0.382170,0.344460,0.102605,0.995828,0.005977,-0.108662
425005745,-0.275994,0.580607,0.046268,0.993830,0.005248,-0.108082
425025788,-0.442931,0.535005,0.118432,0.991220,0.006157,-0.105951
425045832,-0.519497,0.542591,0.112251,0.992127,0.004338,-0.106417
425065876,-0.320750,0.580740,0.108268,1.000496,0.005257,-0.108196
425085920,-0.427802,0.740737,0.102171,0.998229,0.009904,-0.102173
425105964,-0.542251,0.847422,0.111678,0.989690,0.000243,-0.105098
425126009,-0.192452,0.611037,0.013980,0.990514,-0.001120,-0.105110
425146052,0.052723,0.679752,0.039560,0.995502,0.004169,-0.101845
425166097,0.059694,0.710147,0.001116,0.997678,0.002897,-0.102788
425186141,0.312944,0.809401,0.049361,0.989549,0.002613,-0.102740
425206185,0.426579,0.725471,-0.006054,0.989659,0.004525,-0.101655
425226229,0.273482,0.801610,-0.018620,0.996512,-0.002470,-0.101942
425246273,0.548046,0.969242,-0.062713,0.999987,-0.004640,-0.097005
425266317,0.825147,0.992417,0.038813,1.001012,0.002733,-0.095491
425286361,0.900991,1.167625,-0.001449,0.990950,0.012444,-0.100510
425306403,0.663317,1.091274,-0.034790,0.994104,0.015620,-0.107468
425326447,0.403713,1.076010,-0.014419,0.989219,0.016701,-0.109747
425346491,-0.006851,1.015237,0.116013,0.988354,0.018515,-0.111914
425366535,-0.474401,0.893037,0.056719,0.992353,0.016608,-0.113068
425386579,-0.656714,0.931244,0.121261,0.987092,0.014784,-0.111251
425406623,-1.017497,0.633770,0.052838,0.986241,0.009694,-0.108232
425426667,-1.558763,0.679553,0.139603,0.987104,0.013793,-0.105803
425446711,-1.833705,0.572835,0.160576,0.991472,0.014799,-0.106605
425466755,-2.145794,0.649136,0.235151,0.996941,0.011985,-0.107420
425486799,-2.435923,0.717695,0.255835,0.999447,0.013357,-0.105196
425506842,-2.687342,0.923493,0.298236,0.999819,0.011712,-0.109829
425526888,-2.725244,0.992108,0.314026,0.992773,0.004687,-0.115779
425546932,-2.978432,0.999548,0.265424,0.988355,0.000120,-0.122686
425566976,-2.764948,0.801398,0.239017,0.982781,0.000930,-0.122774
425587020,-2.458852,0.717690,0.256280,0.981029,0.000579,-0.113938
425607063,-2.259567,0.733048,0.282928,0.991104,-0.003498,-0.112741
425627107,-1.700590,0.588518,0.333694,0.989516,-0.002139,-0.114532
425647151,-1.504251,0.755900,0.191781,0.994516,0.000778,-0.115621
425667194,-1.075406,0.748482,0.229333,1.001690,-0.003756,-0.113285
425687238,-0.549058,0.862770,0.157608,0.995515,-0.008120,-0.106727
425707282,-0.197922,0.794206,0.128098,0.994917,-0.007108,-0.099638
425727326,0.197129,0.938769,-0.017595,0.998964,-0.003833,-0.102799
425747370,0.794032,1.007580,0.008801,0.994070,-0.004374,-0.095906
425767414,0.869503,1.015092,-0.046179,0.991355,0.002994,-0.094147
425787458,1.122790,0.939083,0.010291,0.993318,0.005267,-0.096454
425807501,1.100515,0.878200,0.049133,0.990750,0.005635,-0.092144
425827545,1.076055,0.855135,-0.034371,0.996939,0.008553,-0.093162
425847589,0.968511,0.877903,-0.062926,0.994443,0.011922,-0.089676
425867633,0.747141,0.893131,-0.043399,0.995542,0.006456,-0.094678
425887679,0.602204,0.908376,-0.025354,0.984873,0.004168,-0.093857
425907723,0.557009,0.626500,0.022310,0.989014,0.009090,-0.091939
425927767,0.274782,0.664613,0.058225,0.999769,0.015654,-0.092768
425947811,-0.207544,0.710124,0.021584,0.998973,0.019303,-0.086316
425967855,-0.328586,0.725500,0.092655,0.991361,0.012738,-0.088354
425987899,-0.246546,0.542366,-0.015308,0.993311,0.006185,-0.091916
426007942,-0.163004,0.572796,-0.047596,0.992263,-0.000727,-0.089799
426027985,-0.025242,0.412824,-0.034453,0.991850,-0.004272,-0.087698
426048029,0.242526,0.374815,-0.024240,0.989459,-0.002630,-0.083575
426068072,0.372249,0.245270,-0.033967,0.991529,0.000827,-0.084978
426088116,0.386526,0.168939,-0.087480,0.987131,0.003913,-0.085544
426108160,0.258620,0.100591,0.029851,0.995845,0.008651,-0.088151
426128204,0.059593,0.054785,0.018583,0.991520,0.012017,-0.084815
426148248,0.043519,0.123263,-0.027182,0.995327,0.011465,-0.091233
426168292,-0.145998,0.207247,0.060272,0.991892,0.005996,-0.094524
426208380,-0.162160,-0.356775,0.031897,0.984098,0.009647,-0.081326
426228425,-0.338064,-0.547337,0.035945,1.000093,0.009671,-0.080781
426248469,-0.476041,-0.280708,0.007169,1.002299,0.004854,-0.080357
426268513,-0.245406,-0.112835,0.070908,0.998213,0.009581,-0.078752
426288557,-0.551670,-0.082491,0.046184,0.993596,0.005021,-0.081661
426308601,-0.406350,-0.151029,0.051233,0.995388,-0.006725,-0.089116
426328645,-0.146186,-0.120452,0.061366,0.992249,-0.003912,-0.090701
426348689,0.195791,-0.189214,-0.052021,0.994737,-0.002824,-0.094377
426368731,0.157817,-0.006303,-0.044252,0.986551,0.000170,-0.092336
426388775,0.247770,-0.440872,-0.128606,0.992823,0.006446,-0.098444
426408819,0.340947,-0.303495,-0.054457,0.993856,0.009543,-0.096742
426428863,0.387327,-0.356760,-0.024614,0.984930,0.005083,-0.090773
426448907,0.356787,-0.539650,-0.015771,0.995342,0.003278,-0.090948
426468951,0.462479,-0.425492,-0.094617,0.994051,0.004467,-0.086661
426488995,0.449589,-0.333740,0.035233,0.998365,0.006377,-0.090278
426509039,0.249908,-0.318668,-0.014433,0.989231,0.006273,-0.090304
426529083,0.327578,-0.326111,0.052858,0.988343,0.001807,-0.094094
426549127,0.410876,-0.478600,0.013542,0.993781,0.002994,-0.096276
426569172,0.349117,-0.585378,-0.015470,0.992282,0.005635,-0.093260
426589216,0.157609,-0.608337,-0.034602,0.994450,0.005554,-0.089665
426609260,0.006753,-0.470944,0.074848,0.994879,0.007735,-0.091038
426629304,-0.017573,-0.501612,-0.000992,0.994348,0.003187,-0.090386
426649348,-0.033483,-0.387391,-0.039271,0.996044,0.001821,-0.092591
426669391,0.242525,-0.585348,0.009523,0.993241,0.000628,-0.095991
426689436,0.418066,-0.547240,-0.009293,0.986611,0.007537,-0.093529
426709478,0.410775,-0.653880,0.014127,0.992980,0.009455,-0.094730
426729522,0.249328,-0.608316,-0.036382,0.996957,0.009101,-0.092165
426749566,0.118979,-0.608399,-0.056776,0.995035,0.008643,-0.092404
426769610,-0.003171,-0.600788,-0.046790,0.988543,0.006722,-0.092834
426789653,-0.369375,-0.631263,-0.001375,0.992324,0.008360,-0.095716
426809698,-0.284684,-0.760710,0.035619,0.993962,0.002002,-0.091557
426849785,-0.139298,-0.714935,0.040287,0.996928,0.002729,-0.094060
426869830,0.143038,-0.562525,0.003736,0.991073,0.003448,-0.094506
426889874,0.487009,-0.760574,0.005362,0.989548,0.004077,-0.097840
426909918,0.211541,-0.821639,-0.004372,0.988580,0.002259,-0.096005
426929963,0.302518,-0.913159,-0.044040,0.993666,0.000726,-0.092821
426950007,0.422649,-1.073439,-0.160460,0.996191,0.002099,-0.089598
426970051,0.538631,-0.913213,-0.094470,0.994090,0.005554,-0.089387
426990094,0.393779,-0.989401,-0.068482,0.991387,0.007828,-0.087257
427010138,0.286885,-1.035132,-0.058614,0.990028,0.007554,-0.086688
427030182,0.291736,-1.096456,-0.211333,0.994787,0.008653,-0.086136
427050226,0.034675,-1.004705,-0.053821,0.998115,0.010300,-0.083926
427070269,-0.135229,-0.936387,-0.150091,0.997219,0.009473,-0.087903
427090312,-0.011002,-0.928488,-0.045547,0.995869,0.009373,-0.091693
427110357,-0.132743,-0.928444,-0.012619,0.995670,0.007188,-0.092684
427130401,-0.209692,-0.867565,-0.041895,0.995169,0.002998,-0.095302
427150444,-0.285895,-0.707525,-0.033307,0.997038,0.002814,-0.097966
427170488,-0.278140,-0.753231,-0.025664,0.997149,0.009995,-0.101338
427190532,-0.500556,-0.639075,-0.067577,0.992143,0.011255,-0.105158
427210576,-0.903913,-0.738004,0.039918,0.988317,0.013152,-0.109363
427230620,-0.903823,-0.821816,0.047837,0.986364,0.006504,-0.111588
427250664,-1.140915,-0.844749,0.044872,0.991046,0.006968,-0.110307
427270708,-1.004420,-1.050608,-0.010581,0.990901,0.004424,-0.108485
427290753,-0.912933,-0.974415,-0.027893,0.995166,0.002426,-0.110097
427310797,-0.859826,-0.943973,-0.051949,0.995400,0.001786,-0.112279
427330841,-0.768534,-0.966869,-0.076569,0.987456,0.002957,-0.112055
427350885,-0.752886,-1.058263,-0.053644,0.981192,0.005226,-0.109864
427370929,-0.594355,-1.378538,-0.154993,0.982053,0.002411,-0.107967
427390973,-0.638932,-1.546029,-0.077155,0.986535,0.003427,-0.102690
427411017,-0.587719,-1.691101,-0.199929,0.996987,0.002445,-0.100687
427431059,-0.227286,-1.523217,-0.146351,1.004138,-0.000362,-0.099443
427451103,0.040202,-1.088802,-0.168270,1.008259,-0.004913,-0.104045
427471147,0.350214,-0.700532,-0.374256,1.002527,-0.004100,-0.102768
427491191,0.583537,-0.654236,-0.157336,0.990993,0.001803,-0.098859
427511235,0.756589,-0.867923,-0.305170,0.984299,0.002791,-0.100199
427531279,1.021441,-1.180643,-0.446814,0.978936,-0.000217,-0.099014
427551323,1.093645,-1.477376,-0.248549,0.983734,0.003235,-0.105909
427571367,1.177740,-1.683104,-0.241855,0.988910,0.007880,-0.107276
427591411,1.316908,-1.797172,-0.152478,0.995864,0.009074,-0.106580
427611455,1.368449,-1.850757,-0.260280,0.984794,0.008883,-0.102669
427631500,1.188130,-2.421918,-0.063843,0.976555,0.008852,-0.113331
427651544,1.234604,-3.031455,-0.009226,0.975527,0.010213,-0.114496
427671588,1.263154,-3.671819,-0.099345,0.979736,0.007127,-0.114290
427691632,0.881984,-4.342365,-0.013302,0.963586,0.005376,-0.113467
427711676,1.041982,-5.470205,-0.005010,0.947269,0.007812,-0.111559
427751763,0.742444,-8.952953,0.042963,0.935863,0.006614,-0.110999
427771806,0.963421,-11.330537,0.084797,1.056536,0.008773,-0.173518
427791850,1.110878,-9.600398,0.144949,1.019205,-0.003286,-0.119303
427811894,1.312152,-7.085311,0.193802,1.046801,0.008111,-0.127781
427831938,1.312559,-5.180174,0.149244,1.046826,0.013447,-0.145583
427851982,1.167263,-3.389437,0.084970,1.015092,-0.008024,-0.119770
427872026,0.915908,-1.872934,0.084799,1.011149,0.014723,-0.114294
427892070,0.892804,-0.737531,0.035618,1.021358,0.011651,-0.110741
427912114,0.786414,0.093141,0.042559,0.986137,0.007691,-0.109044
427932158,0.403927,-0.470891,0.051858,0.993508,-0.004626,-0.135566
427952202,0.237162,-1.415670,0.165220,0.941521,0.031542,-0.114587
427972245,-0.046882,-3.099988,0.161056,0.950376,0.018990,-0.120527
427992291,-0.452561,-4.837592,0.197637,0.958360,0.016896,-0.128375
428012335,-0.809095,-5.660317,0.383048,0.976323,0.011998,-0.135209
428032379,-0.939633,-5.988099,0.363748,1.018884,-0.013242,-0.141885
428052422,-0.994647,-5.020525,0.246972,1.003613,0.005246,-0.117327
428072467,-1.238375,-4.250814,0.272063,0.995722,0.011955,-0.123648
428092510,-1.286487,-4.091090,0.142561,0.987256,0.008670,-0.122318
428112554,-1.331694,-4.395828,0.190301,0.974016,-0.000620,-0.117811
428132597,-1.141414,-4.830250,0.157489,0.983712,0.000652,-0.126693
428172684,-1.339289,-4.312000,0.190169,1.013455,0.016472,-0.156729
428192728,-1.444366,-3.115381,0.256997,1.026491,0.018365,-0.177470
428212773,-1.496429,-1.332047,0.274995,1.027050,0.007879,-0.192077
428232816,-2.107018,0.664458,0.264913,1.020493,0.002577,-0.201125
428252860,-2.099807,2.310396,0.182879,1.016645,0.010122,-0.201254
428272904,-2.182249,3.712732,0.225659,1.000522,-0.011881,-0.180790
428292948,-1.848377,4.040164,0.072903,0.958434,-0.009078,-0.155204
428312992,-1.534783,2.744806,0.124620,0.929529,-0.026766,-0.153592
428333037,-1.278438,0.930766,-0.011861,0.940797,0.021986,-0.168299
428353081,-0.950554,-0.898142,0.003149,0.945166,-0.009580,-0.171044
428373125,-0.997219,-1.820318,-0.008158,0.992461,0.007268,-0.200292
428393169,-0.665440,-1.911283,0.161460,0.992771,0.011465,-0.193223
428413213,-0.474527,-1.484524,0.133410,0.989634,-0.007432,-0.176617
428433257,0.036993,-1.050125,0.076190,1.000275,-0.010654,-0.155007
428453301,0.763701,-0.249751,0.067065,1.004030,-0.012533,-0.139998
428473343,1.249162,0.496669,-0.174083,0.990603,0.007199,-0.133902
428493387,1.294152,0.664214,-0.229004,0.975174,-0.011482,-0.139508
428513431,1.446489,-0.014030,-0.237343,0.983867,0.005611,-0.152212
428533475,1.270837,-0.486512,-0.209438,0.977139,0.014529,-0.145122
428553519,1.052003,-1.095821,-0.027410,0.972321,0.008056,-0.149114
428573563,0.723678,-1.713099,0.019224,0.974653,0.008610,-0.146523
428593607,0.671619,-2.078699,0.113148,0.989299,0.004540,-0.145132
428613651,0.655330,-1.903565,0.051750,0.996820,0.009839,-0.138279
428633695,0.281531,-1.370131,0.080151,0.999760,0.013302,-0.137154
428653739,0.014543,-0.935763,0.099169,1.002567,0.014760,-0.138385
428673784,-0.169580,-0.448192,0.047628,0.998877,0.010202,-0.140584
428693828,-0.375280,-0.006171,0.073073,0.989640,0.009732,-0.141243
428713872,-0.528176,-0.059552,0.076217,0.977031,0.007067,-0.146470
428733916,-0.786863,-0.638601,0.167220,0.971951,0.005325,-0.149557
428753959,-0.634488,-1.012028,0.150224,0.977414,0.009608,-0.150202
428774004,-0.917427,-1.492190,0.164954,0.977430,0.012157,-0.149208
428794048,-1.114556,-1.834942,0.269259,0.981282,0.010063,-0.153356
428814090,-1.388916,-1.888242,0.320609,0.991717,0.009170,-0.152261
428834134,-1.576981,-1.438292,0.475590,0.997135,0.006360,-0.150896
428854178,-1.592699,-0.988752,0.436191,1.001440,0.008187,-0.150156
428874222,-1.662939,-0.394570,0.336237,0.993331,0.007086,-0.149108
428894266,-1.640725,-0.440380,0.297751,0.980680,0.001522,-0.147067
428914310,-1.626995,-0.509162,0.213657,0.980559,-0.002485,-0.148874
428934354,-1.306891,-0.897846,0.170533,0.986752,-0.001303,-0.154610
428954398,-1.269931,-0.684631,0.092691,0.990801,0.002336,-0.157681
428974442,-1.170908,-0.555108,0.067414,0.992721,0.005706,-0.157356
428994485,-1.076225,-0.196546,0.217212,0.994099,0.005882,-0.161828
429014529,-1.039111,0.283400,0.138480,0.993256,0.000602,-0.163257
429034575,-1.010749,0.755580,-0.001189,0.992952,-0.002139,-0.169874
429054619,-0.661063,1.281215,-0.131987,0.992941,-0.006053,-0.170684
429074663,-0.187643,1.677518,-0.180700,0.992775,-0.005141,-0.169775
429094707,0.049841,2.142482,-0.171573,0.993143,-0.004959,-0.169600
429114751,0.363977,2.508426,-0.148321,0.986764,0.001038,-0.168412
429134794,0.501282,2.752273,-0.174722,0.980098,0.009945,-0.167769
429154838,0.356333,2.508425,-0.148173,0.979067,0.013944,-0.168938
429174881,0.105761,2.508584,-0.051614,0.988692,0.018312,-0.176553
429194925,-0.382050,2.950631,0.017511,0.999785,0.012964,-0.174736
429214969,-0.624835,3.682363,0.096201,1.000028,-0.000769,-0.172357
429235013,-0.575900,4.131380,-0.173694,0.993055,-0.016149,-0.170125
429255057,0.161902,4.595919,-0.403518,0.991035,-0.029801,-0.171520
429275101,1.052088,5.182354,-0.667270,0.993904,-0.028784,-0.164581
429295144,2.013208,5.662399,-0.809781,0.999914,-0.025129,-0.160514
429315188,2.942170,6.264156,-1.043771,0.996723,-0.020393,-0.155021
429335232,4.303495,6.500798,-1.032767,0.984533,-0.014584,-0.152008
429355276,5.304992,6.180997,-1.028211,0.975274,-0.003955,-0.153139
429375320,5.979158,5.777472,-0.940611,0.976225,0.003237,-0.150716
429395366,6.445070,5.449859,-0.956202,0.979323,0.001703,-0.146318
429415409,6.805264,4.962362,-0.892795,0.977485,0.001608,-0.146922
429435453,7.141037,4.520388,-0.913122,0.978211,-0.002386,-0.142571
429455497,7.395535,3.911113,-0.770844,0.979663,-0.000656,-0.142961
429475541,7.687871,3.606610,-0.660881,0.991823,0.006368,-0.141910
429495585,7.220092,3.804435,-0.744160,1.003514,0.014301,-0.141487
429515629,6.761973,4.154930,-0.721155,0.992357,0.024664,-0.136684
429535672,6.016570,4.482911,-0.516747,1.003354,0.034046,-0.139066
429555716,4.858156,5.290844,-0.336488,1.018595,0.052462,-0.128917
429575759,3.075969,6.236190,0.015888,1.031130,0.067850,-0.131698
429595803,1.347314,7.471126,0.358619,1.020753,0.052843,-0.120966
429615847,-0.325878,8.895844,0.378701,1.031759,0.040117,-0.124219
429635891,-1.472050,10.404455,0.365353,1.036764,0.021116,-0.121549
429675979,-2.456195,4.827380,1.106031,0.831553,0.037421,-0.094384
429716067,-4.136023,-1.316750,0.601255,0.953868,0.012902,-0.119759
429736111,-4.278527,-2.209000,0.362465,0.974950,0.005984,-0.087155
429756156,-4.049818,-2.033758,0.319236,1.010112,-0.002335,-0.087922
429776200,-3.833160,-1.507563,0.443185,1.026168,-0.001040,-0.088924
429796244,-4.052011,0.009199,0.549362,1.041591,0.008162,-0.093923
429816288,-4.019065,1.739331,0.619377,1.041219,-0.003212,-0.094987
429836332,-3.756778,2.585560,0.718451,1.001809,-0.006341,-0.082781
429856376,-3.255354,2.349048,0.549038,0.982407,-0.016125,-0.095143
429876420,-2.395364,1.434320,0.359643,0.965270,-0.012334,-0.097853
429896463,-1.679098,0.245421,0.265646,0.961264,-0.015804,-0.102227
429916506,-1.016112,-0.554823,0.171390,0.966896,-0.011051,-0.093888
429936550,-0.535261,-0.768172,0.132204,1.004873,-0.009715,-0.090090
429956594,0.021206,-0.242438,0.020317,1.025162,-0.014052,-0.089793
429976638,0.679501,0.733238,0.027219,1.011269,-0.012882,-0.085292
429996682,1.307832,1.091739,0.090248,0.998180,-0.004632,-0.091074
430016726,1.481417,1.083871,-0.035357,0.990285,0.001639,-0.087954
430036770,1.289773,0.824664,-0.053700,0.984295,0.011616,-0.099851
430056814,1.244793,0.436131,0.009598,0.986944,0.011521,-0.104707
430076857,1.084365,0.337041,0.020682,0.990381,0.013351,-0.101591
430096902,1.138754,0.200002,0.073573,0.994522,0.006445,-0.100380
430116947,1.062517,0.299075,0.082364,0.997061,0.007729,-0.096431
430136991,0.855810,0.428530,0.063020,0.993046,0.004457,-0.091546
430157035,0.781019,0.405866,0.156244,0.997356,0.005084,-0.100335
430177079,0.459067,0.459015,0.108824,0.985202,0.010988,-0.095417
430197125,0.161858,0.306656,0.168589,0.989903,0.008716,-0.098126
430217166,0.139633,0.093373,0.215579,0.989932,0.006172,-0.096761
430237210,0.216969,-0.013177,0.267923,0.993128,0.010361,-0.096550
430257253,0.056967,0.146880,0.293419,0.993251,0.009546,-0.094917
430277297,-0.353247,0.215699,0.438696,0.992999,0.015635,-0.098190
430317385,-0.804845,0.291718,0.408999,0.996212,0.005997,-0.097957
430337429,-0.795365,0.368161,0.507899,0.994734,0.004901,-0.098928
430357473,-0.789149,0.284154,0.431643,0.988493,-0.003481,-0.100987
430377516,-0.574911,0.200408,0.443048,0.985020,-0.007762,-0.101374
430397560,-0.195219,-0.020818,0.306512,0.986978,-0.009758,-0.099407
430417604,0.101058,-0.051469,0.201526,0.990090,-0.008834,-0.094106
430437648,0.500768,-0.195872,0.324156,0.992795,-0.007915,-0.091067
430457692,0.675891,-0.165439,0.282449,0.995119,0.006004,-0.092945
430477737,0.590373,-0.036100,0.199622,0.994816,0.006820,-0.094394
430497781,0.643569,-0.089470,0.183485,0.990936,-0.000469,-0.097221
430517825,0.627770,-0.020957,0.152997,0.993322,0.000355,-0.096537
430537869,0.714795,0.070889,0.311473,0.997709,0.012635,-0.100535
430557913,0.332588,-0.005405,0.319144,0.994567,0.017458,-0.097312
430577957,-0.072216,0.017403,0.342206,0.991884,0.008179,-0.094800
430598001,-0.132757,0.108912,0.373641,0.995897,-0.001551,-0.095760
430618044,-0.286316,0.101167,0.338440,0.993004,0.000259,-0.098891
430638088,-0.032261,0.162424,0.432645,0.993535,0.001623,-0.099719
430658131,-0.027748,-0.005629,0.265005,0.994845,-0.001739,-0.098284
430678176,-0.049415,0.032632,0.334071,0.990381,-0.001116,-0.102475
430698219,-0.043074,-0.074220,0.265531,0.990903,0.002067,-0.103670
430738307,-0.493367,-0.127577,0.312653,0.993070,0.007535,-0.099812
430758351,-0.585465,-0.066684,0.291313,0.993625,-0.000106,-0.099900
430778395,-0.391888,-0.043456,0.425026,0.990868,0.000253,-0.100761
430798439,-0.560614,-0.081670,0.397861,0.994160,0.004434,-0.105181
430818483,-0.569253,-0.135144,0.344717,0.997345,0.007440,-0.105604
430838528,-0.589845,0.093765,0.466617,0.994121,0.007715,-0.102191
430858572,-0.828294,0.108757,0.387138,0.990375,0.002159,-0.102571
430878617,-0.761061,0.039987,0.302007,0.996310,-0.006666,-0.108105
430898660,-0.416171,0.002085,0.348931,0.991144,-0.003122,-0.105753
430918704,-0.599143,0.093548,0.375101,0.998856,0.005255,-0.107986
430938748,-1.054070,0.374884,0.153748,0.995211,-0.002756,-0.108001
430958809,-1.062411,0.359550,0.115754,0.988309,-0.009859,-0.106329
430978834,-0.703279,0.184350,0.109369,0.988270,-0.004494,-0.108062
430998878,-0.542444,0.032021,0.129679,0.990308,-0.001395,-0.106377
431018922,-0.208050,0.069950,0.016084,0.988577,-0.004764,-0.106342
431059010,0.167050,-0.120400,0.047646,0.989620,-0.014866,-0.109792
431079054,0.393554,-0.181675,-0.109374,0.994802,-0.007128,-0.110620
431099098,0.369484,-0.006560,-0.178263,0.995376,0.003885,-0.108560
431119142,0.517335,0.009055,-0.035996,0.994283,0.006795,-0.108183
431159230,0.486125,0.100409,-0.073902,0.994232,-0.002391,-0.106624
431179275,0.440261,0.092778,-0.072986,0.992879,-0.000845,-0.105605
431199319,0.533453,0.016786,0.009514,0.992448,-0.000388,-0.104236
431219363,0.539282,-0.021549,-0.089810,0.990598,0.001072,-0.100485
431239407,0.364616,0.024280,-0.025442,0.990744,0.003161,-0.102307
431259451,0.532932,0.070061,-0.021219,0.990398,0.004254,-0.101214
431279495,0.296166,-0.105237,-0.000758,0.992979,0.005352,-0.099898
431299538,0.275158,-0.120233,0.106680,0.996458,0.003902,-0.099592
431319581,0.114285,-0.036492,0.086598,0.990170,0.004258,-0.098759
431339625,0.045567,-0.150803,0.095954,0.993021,0.000261,-0.097984
431359669,-0.129774,-0.082200,0.122052,0.995871,0.005171,-0.101581
431379713,-0.106956,-0.036488,0.113816,0.994514,0.001895,-0.101098
431399757,-0.191809,-0.189014,0.077763,0.992921,0.001806,-0.098348
431419801,-0.113061,0.001812,0.197862,0.996929,-0.004285,-0.099314
431439845,-0.221850,0.016797,0.100585,0.995486,-0.001564,-0.103015
431459889,-0.099665,0.070153,0.090395,0.997983,-0.000929,-0.106236
431479933,-0.253493,0.313844,0.031437,0.993436,0.003160,-0.104895
431499977,-0.496729,0.260623,0.112748,0.991489,0.004883,-0.106317
431520020,-0.489548,0.176741,0.089964,0.990214,0.003236,-0.111103
431540066,-0.650411,0.039493,0.078259,0.986255,-0.002505,-0.113114
431560110,-0.556818,-0.059308,0.183752,0.996392,-0.003855,-0.113285
431580154,-0.400230,0.077384,-0.041343,0.995909,-0.005032,-0.109916
431600197,-0.180622,0.115270,-0.160352,0.988352,-0.006861,-0.108695
431620241,-0.246840,0.031765,-0.013602,0.988972,0.004702,-0.104186
431640285,-0.492256,0.023982,-0.054663,0.995189,0.002619,-0.104016
431660329,-0.651385,0.024125,0.024839,0.990363,0.004251,-0.103119
431680372,-0.737173,-0.075180,-0.064863,0.990364,0.005797,-0.102940
431700416,-0.607806,-0.105707,-0.097837,0.995835,-0.003385,-0.104017
431720459,-0.412520,-0.090869,-0.292713,0.994823,-0.013204,-0.100171
431740503,-0.290990,0.023365,-0.341300,0.998632,-0.010563,-0.101420
431760547,-0.108167,0.152871,-0.383486,0.997532,0.001445,-0.100877
431780591,-0.016785,0.046163,-0.400187,0.987480,0.009263,-0.095816
431800636,-0.244165,0.023500,-0.288719,0.992561,0.005992,-0.097804
431820680,-0.266530,0.046430,-0.257795,0.991804,-0.003019,-0.099773
431840723,-0.178690,0.015464,-0.473357,0.996806,-0.005106,-0.101035
431860767,-0.172270,0.045788,-0.542356,0.991660,-0.004108,-0.097772
431880813,-0.425169,0.076126,-0.575757,0.996532,0.005356,-0.100412
431900856,-0.599657,0.190562,-0.503979,0.991730,0.012267,-0.097891
431920900,-1.076337,0.121510,-0.647328,0.995328,0.008802,-0.105935
431940944,-0.936582,0.068481,-0.527600,0.989736,0.003705,-0.102472
431960988,-1.028897,-0.007820,-0.556121,0.992175,-0.003118,-0.104318
431981032,-0.660331,0.053444,-0.471779,0.990421,-0.006761,-0.105553
432001076,-0.422464,-0.014966,-0.422677,0.988453,0.000427,-0.102899
432021119,-0.483021,-0.190171,-0.382711,0.991657,0.005627,-0.097334
432041162,-0.402997,-0.282123,-0.605560,0.994223,-0.002193,-0.097365
432061206,-0.112172,-0.099121,-0.596530,0.995695,-0.009468,-0.097287
432081250,0.301516,-0.121766,-0.550991,0.991877,-0.003476,-0.100772
432101294,0.301253,-0.098939,-0.566345,0.992441,0.001531,-0.099610
432121338,0.132296,-0.060980,-0.609042,0.991686,0.003173,-0.095969
432141382,0.162545,-0.144839,-0.624632,0.992934,0.005720,-0.097447
432161426,0.035234,-0.136906,-0.477001,0.992322,0.013174,-0.100353
432181470,-0.255829,-0.015126,-0.509966,0.994259,0.012351,-0.104288
432201514,-0.172677,-0.182875,-0.556870,0.993115,0.004347,-0.102440
432221559,-0.424506,0.030490,-0.537410,0.989493,0.007802,-0.100569
432241603,-0.324430,-0.167523,-0.492844,0.992695,0.004440,-0.100527
432261647,-0.309739,-0.243801,-0.523441,0.991975,-0.002110,-0.100322
432281691,-0.286275,-0.274208,-0.493230,0.985441,-0.004572,-0.098209
432301735,0.062180,-0.449804,-0.667518,0.988702,-0.002659,-0.099539
432321779,0.436686,-0.472584,-0.674709,0.995769,-0.004011,-0.097842
432341823,0.718992,-0.373521,-0.711083,0.994277,-0.002816,-0.089648
432361865,0.819808,-0.243764,-0.637057,1.000961,0.010726,-0.102584
432381909,0.693559,-0.068046,-0.436514,0.994665,0.025994,-0.106134
432401953,0.062277,0.061763,-0.256585,0.991829,0.032904,-0.105915
432421997,-0.448521,-0.075349,-0.169802,0.995505,0.020720,-0.105504
432442041,-0.454932,-0.090431,-0.100855,0.993126,0.003520,-0.106796
432462085,-0.211042,-0.098087,-0.143769,0.996330,-0.002115,-0.106751
432482129,-0.282149,-0.052681,-0.272445,0.991478,-0.003124,-0.107393
432502173,-0.135446,-0.113419,-0.191034,0.988941,0.002060,-0.105996
432522217,-0.151409,-0.090649,-0.229007,0.990430,0.008707,-0.104126
432542261,-0.470103,-0.128521,-0.092792,0.991521,0.018079,-0.103797
432562304,-1.174230,-0.098319,-0.132720,0.994667,0.022901,-0.106219
432582350,-1.492898,-0.090465,0.003342,0.988398,0.016526,-0.104831
432602394,-1.518579,-0.319438,-0.140585,0.987788,0.004427,-0.103983
432622438,-1.348318,-0.486774,-0.021068,0.990636,0.004896,-0.098223
432642482,-1.380274,-0.494581,-0.096837,0.999701,0.000900,-0.102184
432662525,-1.433090,-0.258273,-0.066033,0.999114,0.002360,-0.099271
432682569,-1.280461,-0.189687,-0.084506,0.994337,0.001813,-0.095921
432702613,-1.258573,-0.083132,-0.146417,0.993353,0.006453,-0.094550
432722656,-1.161154,-0.106224,-0.255210,0.997584,0.005908,-0.097889
432742700,-1.215898,-0.106397,-0.322921,0.997014,0.000901,-0.099324
432762744,-0.893183,-0.029901,-0.237740,0.993501,0.006359,-0.096368
432782788,-0.908128,0.084445,-0.222548,0.996002,0.006986,-0.104219
432802832,-0.840687,0.137627,-0.300448,0.987084,-0.000211,-0.102874
432822876,-0.568881,-0.175181,-0.480434,0.990747,0.001606,-0.107116
432842920,-0.598329,-0.136940,-0.418858,0.991186,0.003698,-0.107944
432862964,-0.635878,-0.174963,-0.379796,0.991853,0.001699,-0.106590
432883008,-0.269846,-0.205473,-0.432646,0.992118,0.001162,-0.102236
432903052,-0.180673,-0.076237,-0.579994,0.997908,-0.001929,-0.105416
432923097,0.407709,0.144864,-0.607430,0.998309,-0.001569,-0.108329
432943141,0.614587,0.312624,-0.589078,0.993359,0.001697,-0.109067
432963184,0.837384,0.381405,-0.532499,0.987296,0.008418,-0.110518
432983229,0.834193,0.106658,-0.699634,0.984243,0.003133,-0.112908
433003273,1.276845,-0.076217,-0.738180,0.986533,-0.000411,-0.112759
433023316,1.612673,-0.182888,-0.767266,0.981884,-0.001219,-0.102602
433043360,1.626556,-0.465020,-0.835369,0.993695,0.002431,-0.105715
433063403,1.449448,-0.350925,-0.908727,0.999862,0.014545,-0.102481
433083447,1.580117,-0.274597,-0.873309,0.997146,0.017083,-0.105889
433103491,1.397557,0.053151,-0.832651,0.994999,0.012435,-0.108659
433123535,1.677046,0.152840,-0.601521,0.994008,0.016066,-0.112551
433143578,1.570649,0.251959,-0.569221,0.993668,0.014885,-0.111272
433163622,1.502586,0.076771,-0.521468,0.984481,0.016513,-0.109121
433183666,1.023908,-0.006790,-0.351431,0.989002,0.023885,-0.111117
433203711,0.716556,-0.189957,-0.428913,0.988488,0.022522,-0.109381
433223754,0.153735,-0.151620,-0.265291,0.998894,0.028815,-0.109388
433243798,-0.455236,0.100038,-0.124407,0.993845,0.029814,-0.105763
433263842,-1.012176,0.191490,-0.060415,0.994691,0.033539,-0.109142
433283887,-1.261580,0.306106,0.096872,0.991434,0.018526,-0.108426
433303931,-1.328830,0.344392,0.182106,0.994257,0.011614,-0.109280
433323975,-1.344634,0.405284,0.151644,0.991986,0.007791,-0.108872
433344020,-1.159696,0.375039,0.232212,0.996746,0.008154,-0.113129
433364063,-1.075520,0.550338,0.229995,0.994874,0.010248,-0.110559
433384107,-1.226397,0.649627,0.339572,0.994723,0.011516,-0.113645
433404151,-1.358397,0.656950,0.227488,0.989004,0.013968,-0.111645
433424193,-1.303384,0.405687,0.318954,0.988919,0.010056,-0.111547
433444238,-1.015061,0.314032,0.199043,0.987980,0.002236,-0.108522
433464281,-0.760133,0.215375,0.347254,0.988397,0.008429,-0.105362
433484325,-0.418662,-0.013480,0.211485,0.981314,0.002417,-0.103507
433504369,-0.107204,-0.227028,0.106813,0.986293,-0.010309,-0.101846
433524413,0.478138,-0.257793,-0.080196,0.997487,-0.008013,-0.099045
433544457,0.814071,-0.181563,-0.109892,0.996453,0.000180,-0.095228
433564501,0.927398,-0.082645,-0.188835,0.994821,0.000451,-0.094565
433584545,0.936136,-0.097742,-0.127823,0.998489,0.002269,-0.098534
433604589,1.416183,-0.029243,-0.221422,0.994889,0.007918,-0.090494
433624634,1.422848,-0.052230,-0.274965,0.989262,0.013546,-0.093040
433644678,1.087294,-0.189373,-0.222148,0.990113,0.015907,-0.096235
433664722,0.751306,-0.120824,-0.200574,0.998597,0.015645,-0.096833
433684766,0.705542,0.046825,-0.200244,0.994449,0.011732,-0.094214
433704816,0.854269,0.146378,-0.012425,0.991743,0.005536,-0.097608
433724854,0.996012,0.092615,-0.206033,0.988981,0.000972,-0.103907
433744898,1.402022,0.009001,-0.160143,0.989537,0.002884,-0.103375
433784985,1.647821,-0.036508,-0.095988,0.993385,0.006977,-0.107351
433805029,1.930875,-0.074514,-0.086071,0.992382,0.011525,-0.106978
433825073,1.671147,-0.066933,-0.073415,0.997707,0.016175,-0.105261
433845117,1.619430,0.161897,0.018524,0.996383,0.018270,-0.102701
433885204,1.184410,0.085681,0.065427,0.984798,0.016708,-0.101956
433905248,1.024950,-0.249513,0.138410,0.985044,0.021528,-0.103148
433925292,0.584205,-0.348343,0.292479,0.996430,0.024817,-0.104619
433945336,-0.110502,-0.104540,0.343354,0.998169,0.026920,-0.099477
433965380,-0.742736,0.048006,0.469736,0.997439,0.027465,-0.099375
433985425,-1.099848,0.139645,0.590982,0.995792,0.026908,-0.104430
434005469,-1.741812,0.261437,0.603034,0.990985,0.018261,-0.103153
434045557,-1.762388,0.276978,0.733286,0.995358,0.007622,-0.104390
434065601,-1.640431,0.414128,0.707538,0.991401,0.002800,-0.101410
434085645,-1.413885,0.185211,0.558717,0.988039,0.000158,-0.100622
434105689,-1.123205,0.116724,0.568588,0.994723,0.000343,-0.104640
434125731,-0.780011,0.246248,0.515648,0.994002,-0.006663,-0.104525
434145775,-0.528042,0.276752,0.495375,0.991838,-0.000841,-0.102682
434165819,-0.099864,0.307349,0.494606,0.993988,0.002343,-0.104721
434185863,0.183617,0.292260,0.527363,0.997114,0.005988,-0.103419
434205907,0.196874,0.360583,0.412256,0.990370,0.003887,-0.102756
434225951,0.227973,0.314936,0.442370,0.991240,-0.001301,-0.105394
434245995,0.486221,0.131895,0.353913,0.987871,-0.001123,-0.104793
434266039,0.960147,0.208210,0.344463,0.994276,-0.000121,-0.108988
434286083,1.334813,0.223553,0.344783,0.999135,0.004164,-0.107808
434306127,1.413838,0.414415,0.480160,0.999766,0.009714,-0.107918
434326171,1.045959,0.589471,0.425584,0.991262,0.018080,-0.102976
434346216,0.577348,0.299486,0.313379,0.984907,0.016346,-0.101049
434366260,0.377520,0.299298,0.256126,0.992498,0.009798,-0.105797
434386304,0.441281,0.292031,0.400100,0.997472,0.008709,-0.108513
434406348,0.275544,0.414233,0.532814,0.989797,0.012428,-0.108388
434426392,-0.185048,0.299566,0.435153,0.987730,0.014703,-0.106450
434446436,-0.442889,0.231189,0.555006,0.992563,0.016256,-0.106808
434466488,-0.579402,0.406565,0.610561,0.996512,0.016718,-0.105605
434486522,-0.935224,0.582196,0.800275,0.994539,0.018357,-0.103577
434506566,-1.165166,0.422034,0.774705,0.987802,0.009623,-0.098092
434526610,-1.165991,0.185696,0.737300,0.984271,0.007346,-0.096575
434546654,-1.051345,-0.058129,0.743529,0.988070,0.010351,-0.098370
434566698,-1.338575,-0.089250,0.504679,0.995419,-0.001744,-0.101743
434586742,-1.008981,-0.142397,0.551951,0.992739,-0.011477,-0.099139
434606786,-0.745137,-0.051371,0.340209,0.991839,-0.013752,-0.098576
434626830,-0.534510,-0.181309,0.153160,0.993951,-0.006742,-0.097534
434646874,-0.426992,-0.249801,0.181867,0.989296,0.001804,-0.096833
434666918,-0.412634,-0.425186,0.136324,0.987975,0.008357,-0.093826
434686963,-0.704251,-0.547329,0.081258,0.991603,0.013464,-0.089993
434707007,-0.621688,-0.539887,-0.004425,0.992407,0.000999,-0.091711
434727051,-0.261562,-0.425385,0.034054,0.999605,-0.005634,-0.093093
434747095,-0.150067,-0.395288,-0.143963,0.994263,0.000359,-0.095100
434767139,0.047911,-0.494406,-0.185682,0.991465,0.002814,-0.093150
434787183,-0.035234,-0.555266,-0.130375,0.993309,0.006549,-0.092008
434807227,-0.242456,-0.601145,-0.172050,0.992499,0.012644,-0.091005
434827281,-0.960513,-0.608872,-0.135167,0.993347,0.017652,-0.089303
434847314,-1.725282,-0.662443,-0.143073,0.994005,0.028018,-0.092509
434867357,-2.553229,-0.547652,0.155344,0.995023,0.042760,-0.090917
434887401,-3.965336,-0.608683,0.289928,0.994289,0.051220,-0.090555
434907445,-5.550771,-0.456064,0.557069,1.005677,0.053500,-0.096835
434927489,-7.203502,-0.105137,0.901270,1.002773,0.062132,-0.100159
434947533,-9.248872,0.115789,1.100694,0.996884,0.064030,-0.102331
434967577,-10.946927,0.200064,1.484869,0.993676,0.058930,-0.103267
434987621,-13.003920,0.214722,1.471245,0.994999,0.047182,-0.111349
435007665,-14.541945,0.420895,1.821343,0.989203,0.043977,-0.118598
435027709,-15.969780,0.314081,1.933461,0.981547,0.048690,-0.122288
435047754,-17.551998,0.063240,2.392919,0.990411,0.066246,-0.130729
435067798,-19.636608,-0.058890,2.548397,0.975583,0.055238,-0.118475
435087842,-20.910398,-0.516053,2.735106,0.993485,0.017498,-0.125707
435107886,-21.221634,-0.630149,2.863789,0.994862,-0.014210,-0.102984
435127930,-20.550602,-0.493038,2.758614,1.007977,-0.049007,-0.087717
435147974,-18.769108,-0.005852,2.317427,1.026521,-0.086282,-0.089969
435168018,-15.700414,0.657296,2.018789,1.010881,-0.093213,-0.086604
435188060,-12.121504,0.924056,1.619872,0.986394,-0.069619,-0.100115
435208104,-8.862934,0.824065,0.853962,0.966746,-0.114182,-0.127665
435228148,-3.789131,0.207777,0.704071,0.968735,-0.170334,-0.141949
435248192,2.667186,-0.180702,0.045183,0.957585,-0.165776,-0.127423
435268236,8.563441,-0.530486,-0.297308,1.010027,-0.115303,-0.128583
435288280,13.426298,-0.232974,-0.728882,0.982883,-0.100653,-0.104179
435308324,18.158163,-0.331886,-1.202443,0.996484,-0.103298,-0.119385
435328368,22.888248,-0.415789,-1.775359,0.982768,-0.117959,-0.116222
435348412,27.336401,-0.667289,-2.288755,0.985450,-0.112576,-0.109287
435368456,30.682962,-0.667689,-2.842744,1.004478,-0.087252,-0.106204
435388500,32.548092,-0.462493,-3.299899,1.010691,-0.070411,-0.105067
435408545,33.225342,-0.409389,-3.481329,0.985587,-0.041332,-0.102417
435428589,33.001930,-0.821165,-3.559679,0.971573,0.009966,-0.096454
435448633,32.016796,-1.034644,-3.486362,0.987517,0.055013,-0.100704
435468677,30.237131,-0.844375,-3.391331,1.002830,0.081881,-0.095926
435488721,28.361780,-0.729854,-3.087872,0.998076,0.077151,-0.091571
435508765,26.265270,-0.478151,-2.757653,1.000826,0.065484,-0.106395
435528822,24.411974,-0.455183,-2.500166,0.986581,0.033439,-0.108096
435548851,23.345705,-0.584475,-2.265085,1.002278,0.014991,-0.109967
435568895,22.304638,-0.219136,-2.345439,1.008511,0.020916,-0.108449
435588939,21.061466,0.123850,-2.184912,0.994999,0.032451,-0.107421
435608983,19.609198,0.032075,-2.156427,0.981606,0.036265,-0.100481
435629027,18.340105,-0.265441,-2.138452,0.974563,0.036899,-0.096096
435649071,17.289700,-0.829014,-1.856384,0.990564,0.040918,-0.099825
435669115,16.035631,-0.631239,-1.870916,0.993033,0.020815,-0.100923
435689159,15.587031,-0.615793,-1.732358,0.993571,0.013355,-0.101918
435709203,14.955127,-0.371761,-1.591004,1.003915,0.021569,-0.095391
435729247,14.191311,-0.204217,-1.553816,1.002633,0.031319,-0.085218
435749293,13.051989,-0.074988,-1.562705,1.002448,0.032492,-0.090119
435809425,12.211438,0.526859,-1.556039,0.972858,-0.020519,-0.102870
435829468,12.715563,-0.288448,-1.555466,0.971248,-0.007772,-0.095420
435849512,13.158574,-0.806571,-1.562337,0.991871,-0.000738,-0.096056
435869556,13.331830,-0.425845,-1.719796,1.013358,-0.000705,-0.094879
435889599,13.603855,0.122474,-1.917936,1.008550,-0.011172,-0.093781
435909642,14.424371,0.481161,-1.797505,0.999262,-0.025922,-0.093145
435929686,15.604924,0.558081,-1.629633,0.988221,-0.010933,-0.096522
435949730,16.049770,0.352630,-1.545883,0.980853,0.032258,-0.101914
435969774,15.212193,-0.212040,-1.756994,0.980548,0.025804,-0.099084
435989818,15.114777,-0.425179,-1.639773,0.999303,-0.015364,-0.090349
436009862,15.588100,-0.196536,-1.687926,1.016453,-0.030800,-0.087620
436029906,15.961217,0.481575,-1.796762,1.016132,-0.019440,-0.094260
436049950,16.304758,1.213151,-1.851712,1.009394,-0.004279,-0.106788
436069994,16.535372,1.823001,-1.804728,1.001662,0.029467,-0.102991
436090039,15.507277,1.625129,-1.570159,0.975992,0.041737,-0.087777
436110083,14.228354,0.977783,-1.237529,0.984938,0.050541,-0.107007
436130127,12.341229,0.619305,-1.146228,0.977446,0.037528,-0.103045
436150171,11.378473,0.169528,-1.095483,0.990238,0.011964,-0.114114
436170215,10.507622,0.047471,-1.047613,0.981701,0.032799,-0.105379
436190259,9.474284,0.077528,-1.111717,0.987621,0.055816,-0.109694
436210303,7.579495,0.161025,-1.037021,1.022941,0.053946,-0.116285
436230346,5.490548,1.471945,-0.748683,1.030847,0.022309,-0.110648
436250389,3.614717,2.188411,-0.493068,0.981674,0.043294,-0.086696
436270434,2.136747,1.357099,-0.591526,0.991371,0.026410,-0.125868
436290477,1.838237,0.861656,-0.591726,0.972815,0.018392,-0.117368
436310521,1.441489,0.640668,-0.537443,0.959767,0.031311,-0.106092
436330565,0.856324,0.259958,-0.326143,0.982433,0.035604,-0.114837
436350609,-0.711573,-0.091061,-0.340399,0.995232,0.026906,-0.105055
436370653,-1.923400,0.152968,-0.134302,1.002738,0.022452,-0.109352
436390697,-2.997735,0.488460,0.061181,0.995838,0.029062,-0.121318
436410741,-3.861394,0.297762,0.086216,0.983709,0.026846,-0.130095
436430786,-4.625873,0.030860,0.101938,0.979631,0.007580,-0.115015
436450830,-4.939027,-0.068246,0.123628,0.984554,-0.004125,-0.101645
436470874,-4.562630,-0.159362,0.223608,0.996718,-0.023931,-0.097190
436490918,-3.611945,-0.113049,0.365477,0.998956,-0.026736,-0.090052
436510966,-3.330136,-0.022663,-0.121704,0.998070,0.054007,-0.112774
436531006,-3.584077,-0.021950,0.211804,0.986918,-0.000466,-0.092250
436551050,-2.862054,0.169181,0.388193,0.999313,0.002899,-0.103270
436571093,-2.483599,-0.044585,0.182884,0.980012,0.006854,-0.114203
436591136,-2.179211,-0.219959,0.108788,0.997315,-0.014532,-0.132891
436611180,-1.409683,0.092330,-0.052371,1.006972,-0.042443,-0.131103
436631224,-0.064798,0.001143,-0.093447,0.984226,-0.043733,-0.121544
436651268,0.588748,-0.326876,-0.303714,0.976645,-0.011809,-0.119562
436671312,0.840674,-0.372581,-0.323733,0.990160,0.019326,-0.117847
436691356,0.268706,-0.311580,-0.244065,0.996432,0.039522,-0.123071
436711400,-0.373617,-0.334622,-0.246807,0.988749,0.027872,-0.119471
436731444,-1.290540,-0.350032,-0.213681,0.985695,0.020330,-0.112326
436751488,-1.641369,-0.464316,-0.160644,0.993759,0.023255,-0.110743
436771532,-2.412632,-0.197685,-0.116000,0.998992,0.021909,-0.104567
436791578,-3.017572,0.007783,-0.173719,0.995058,0.015261,-0.105305
436811621,-3.637418,-0.083895,-0.199593,0.988588,0.014707,-0.104559
436831665,-4.566478,-0.137001,0.009647,0.988732,0.032536,-0.105499
436851709,-5.727785,-0.281986,0.063230,0.987619,0.028721,-0.101751
436871753,-7.003535,-0.548894,0.134722,0.988603,0.027000,-0.098134
436891797,-7.904452,-0.510865,0.205567,1.002135,0.031934,-0.097102
436911841,-8.630257,-0.221415,0.226329,0.997350,0.030203,-0.094204
436931884,-9.172881,-0.137706,0.236579,0.990989,0.005069,-0.103767
436951927,-9.048865,-0.259380,0.333917,0.990867,-0.003850,-0.105929
436971971,-8.789697,-0.282275,0.290757,1.001421,0.011728,-0.102322
436992015,-8.817967,-0.114335,0.413009,1.000161,0.026376,-0.100418
437012059,-9.046151,0.144851,0.470064,0.988984,0.005960,-0.113175
437032103,-8.870890,0.175302,0.435996,0.987809,-0.009335,-0.118304
437052147,-8.285900,-0.228905,0.242596,0.993242,-0.012135,-0.111311
437072191,-7.551042,0.015253,0.281014,0.997266,-0.005131,-0.115476
437092235,-7.562068,-0.007058,0.518187,0.986538,0.020325,-0.116062
437112279,-7.823374,-0.106367,0.447174,0.991193,0.014574,-0.131201
437132323,-7.691117,-0.144138,0.574638,0.983024,-0.001967,-0.114876
437152368,-7.149054,-0.243160,0.533883,0.991654,-0.008319,-0.112924
437172412,-6.249804,-0.304267,0.371450,0.999108,-0.019494,-0.110673
437192456,-5.407946,-0.067706,0.407817,0.988523,-0.013867,-0.109775
437212500,-4.919861,-0.273487,0.345541,0.988814,0.003959,-0.112624
437232544,-4.836320,-0.006826,0.304825,1.017832,0.016264,-0.123125
437252588,-4.727601,0.816417,0.368748,1.009887,0.005079,-0.113984
437272632,-3.913125,1.083867,0.581297,1.003443,-0.013843,-0.108123
437292675,-3.036102,1.289559,0.448972,0.990507,-0.011484,-0.101280
437312719,-2.379519,1.205786,0.398303,0.987737,0.001892,-0.097170
437332762,-2.240004,0.977458,0.510978,0.981500,0.013617,-0.097809
437352806,-2.570137,0.573315,0.449957,0.975553,0.007884,-0.093795
437372850,-2.340610,0.253342,0.469492,0.989068,-0.007464,-0.090097
437392894,-2.071704,0.276444,0.540612,1.002067,0.006751,-0.087709
437412938,-2.133176,0.428795,0.518373,0.993220,0.001727,-0.092180
437432982,-1.488717,0.330189,0.643743,1.001945,-0.001085,-0.094684
437453026,-1.213135,0.589397,0.652815,0.996462,0.010751,-0.084352
437473070,-1.335760,0.490262,0.640242,0.983744,0.011376,-0.080596
437493115,-1.023980,0.116728,0.559021,0.994426,-0.010453,-0.087097
437513159,-0.468198,0.169912,0.425796,0.997031,-0.019634,-0.085129
437533203,0.240652,0.337461,0.296862,0.995730,-0.017909,-0.086199
437553247,0.735365,0.283957,0.172819,0.997015,-0.000819,-0.094510
437573291,0.971958,0.398270,0.144923,0.996219,0.024185,-0.101346
437593335,0.330472,0.390577,0.187962,0.990581,0.018985,-0.105145
437613379,-0.079132,0.458483,-0.056484,0.984163,-0.000033,-0.102734
437633423,0.456375,0.092889,-0.027451,0.986902,-0.011576,-0.098677
437653465,0.617321,-0.105147,0.000651,0.989753,-0.000362,-0.087215
437673510,0.587527,-0.188876,0.047357,0.995862,0.008190,-0.092145
437693554,0.495265,-0.173727,0.018531,0.992160,0.005806,-0.099703
437713598,0.493748,-0.173924,-0.065495,0.989813,0.004250,-0.103201
437733642,0.340710,-0.234943,-0.069964,0.992968,0.017187,-0.094924
437753686,0.266760,-0.234638,0.069016,0.995044,0.019934,-0.086341
437773729,-0.131129,-0.280505,0.053965,0.988914,0.012017,-0.082501
437793774,-0.166916,-0.371642,0.192509,0.991859,0.016101,-0.090819
437813817,-0.419837,-0.379409,0.159236,0.992408,0.016639,-0.095549
437833861,-0.696069,-0.570118,0.111740,0.996498,0.000010,-0.087966
437853907,-0.792302,-0.402086,0.281160,1.008714,0.017949,-0.088114
437873951,-1.377321,-0.051225,0.474739,0.995833,0.038120,-0.091831
437893994,-2.341343,-0.303038,0.448435,0.973047,0.010814,-0.081139
437914038,-2.834441,-0.661813,0.252878,0.998463,-0.019006,-0.091508
437934083,-1.984993,-0.280471,0.280974,1.015367,0.002738,-0.104451
437954126,-1.599365,0.230627,0.447543,1.000743,0.028620,-0.117952
437974170,-1.925867,0.147011,0.576420,0.978394,0.013843,-0.122085
437994219,-2.317532,-0.447704,0.501944,0.974133,-0.009071,-0.112080
438014257,-2.020616,-0.805946,0.443885,0.995542,-0.007208,-0.105276
438034301,-1.400306,-0.386532,0.483943,1.001084,0.003542,-0.101304
438054345,-1.042953,-0.059022,0.361296,1.001585,0.000263,-0.104030
438074389,-0.645998,0.040066,0.322698,0.996238,-0.018128,-0.107812
438094433,0.240077,0.055434,0.274888,0.993908,-0.020228,-0.110401
438114477,0.867491,0.017559,0.301046,0.989518,-0.007680,-0.109893
438134521,1.262121,-0.089404,0.140916,0.988411,0.006056,-0.109625
438154565,1.438623,-0.058791,0.175597,0.993478,0.004248,-0.107439
438174608,1.482324,0.024762,0.052207,0.997139,0.004436,-0.107048
438194652,1.291939,0.276281,0.085630,0.992990,0.002606,-0.109243
438214698,1.199215,0.207547,0.034168,0.990234,0.005777,-0.114739
438234742,1.041029,0.169711,0.167268,0.991741,0.016056,-0.116507
438254786,0.756045,0.207466,0.050409,0.995379,0.014422,-0.117474
438274829,0.461681,0.207884,0.262439,0.988590,0.014600,-0.114181
438294873,0.153670,0.077973,0.146585,0.985422,0.019693,-0.112320
438314918,0.040516,0.040040,0.232962,0.988206,0.016425,-0.110183
438334961,-0.325982,-0.020955,0.263201,0.991065,0.004431,-0.104584
438355004,-0.623887,0.055206,0.276370,0.993431,0.002259,-0.100354
438375048,-1.067732,-0.158332,0.262769,0.987343,0.009622,-0.098175
438395092,-1.588691,-0.356735,0.212407,0.988469,0.011810,-0.096473
438415136,-1.811181,-0.372134,0.170926,0.996707,0.005736,-0.091066
438435179,-1.879215,-0.257746,0.210073,1.007798,0.007485,-0.088898
438455224,-1.842560,0.145937,0.108679,1.001514,0.012754,-0.087619
438475267,-2.101901,0.107847,0.144404,0.988163,0.009194,-0.083754
438495311,-2.048223,-0.067386,0.159229,0.990085,-0.001448,-0.084223
438515355,-1.949327,-0.158869,0.134690,0.998343,-0.010175,-0.087618
438535399,-1.676043,-0.059987,0.022077,0.995928,-0.010273,-0.089755
438555443,-1.285900,0.046829,0.029434,0.992932,-0.001195,-0.097980
438575488,-1.000906,0.024316,0.146242,0.989346,0.008706,-0.103472
438595533,-0.938834,-0.044133,0.198756,0.994376,0.006795,-0.108094
438615576,-0.757012,0.024281,0.103303,0.994590,-0.002300,-0.106993
438635620,-0.482406,0.024270,0.067408,0.990974,-0.011863,-0.110456
438655665,0.304138,-0.013748,0.014066,0.990402,-0.015779,-0.111983
