Timestamp (us),Gyroscope X (deg/s),Gyroscope Y (deg/s),Gyroscope Z (deg/s),Accelerometer X (g),Accelerometer Y (g),Accelerometer Z (g)
6513026902,0.114852,0.074005,-0.158842,0.356170,0.382188,-0.851695
6513046931,0.061675,-0.025122,-0.294513,0.356641,0.381737,-0.852970
6513066961,0.168646,0.134282,-0.257889,0.354528,0.382831,-0.850894
6513086991,0.153128,0.058248,-0.257258,0.355516,0.382640,-0.850332
6513107020,0.047298,0.256914,-0.198321,0.354713,0.381650,-0.851632
6513127051,0.061787,0.051197,-0.234497,0.355839,0.381657,-0.853988
6513147081,-0.006378,0.158298,-0.182354,0.353528,0.381383,-0.851472
6513167111,-0.082382,0.097528,-0.265284,0.356518,0.382271,-0.850685
6513187140,-0.120154,0.120410,-0.310987,0.356408,0.382810,-0.849221
6513207170,-0.013569,0.234351,-0.213325,0.355912,0.388100,-0.849910
6513227200,0.341925,0.081482,0.159654,0.355262,0.392005,-0.847237
6513247229,0.855809,-0.223796,0.731124,0.351172,0.397116,-0.844609
6513267259,1.476048,-0.453114,1.423321,0.357185,0.394237,-0.841434
6513287287,2.051242,-0.805073,1.790496,0.353409,0.389914,-0.845826
6513307317,2.379888,-0.716847,1.380480,0.344356,0.380349,-0.851813
6513347376,2.849813,-0.855429,1.654827,0.366944,0.386652,-0.847736
6513367406,2.726445,-1.067036,1.914336,0.360705,0.366351,-0.858615
6513387436,2.296281,-0.747004,1.335200,0.352032,0.355246,-0.866345
6513407465,1.253705,-0.106203,0.108596,0.358511,0.348768,-0.871412
6513427495,-0.018281,0.384293,-0.904558,0.356907,0.347244,-0.874008
6513447525,-1.206447,0.797720,-2.068667,0.353368,0.353535,-0.871269
6513467555,-2.168619,1.120366,-2.708739,0.353491,0.363415,-0.863050
6513487584,-2.584868,1.388138,-2.961398,0.364861,0.376435,-0.858545
6513507614,-2.625457,0.985878,-2.677502,0.365664,0.382024,-0.849260
6513527643,-2.369437,0.971767,-1.941795,0.337716,0.392162,-0.839852
6513547675,-1.574779,0.741983,-1.113031,0.329579,0.400526,-0.844015
6513567704,-0.945641,0.664163,-0.626819,0.344565,0.389567,-0.855193
6513587734,-0.923860,0.565733,-0.436429,0.372212,0.379295,-0.857030
6513607763,-1.139616,0.225853,0.013665,0.364661,0.378485,-0.850587
6513627793,-1.088502,-0.093291,0.258997,0.358066,0.388135,-0.842480
6513647823,-0.707657,-0.126593,0.009251,0.354694,0.382461,-0.850073
6513667853,-0.668532,1.339372,-3.126868,0.356407,0.377473,-0.839958
6513687882,-0.109777,1.730055,-3.774357,0.355149,0.421762,-0.826514
6513707911,1.760498,0.390478,-0.790018,0.361848,0.422178,-0.842560
6513727940,2.763184,-0.286414,0.960035,0.351390,0.402101,-0.856336
6513747970,2.640670,-0.552401,0.893970,0.361162,0.364953,-0.853599
6513767999,2.371351,-0.096847,0.124222,0.325148,0.380597,-0.842537
6513788029,2.507507,-0.127430,0.298933,0.362394,0.384645,-0.842168
6513808059,2.437198,-0.293292,0.664233,0.391769,0.363949,-0.854754
6513828088,1.514436,-0.698287,1.008382,0.352505,0.348288,-0.876535
6513848118,-0.016175,-0.175721,0.070655,0.327721,0.349021,-0.882135
6513868148,-1.227118,0.459453,-0.829953,0.353523,0.364154,-0.864777
6513888178,-1.561542,0.560480,-0.739977,0.359042,0.372528,-0.853929
6513908207,-1.782258,0.523668,-0.717029,0.351038,0.377784,-0.856475
6513928237,-2.088719,0.405387,-0.155108,0.365612,0.369262,-0.863347
6513948267,-2.599090,0.195066,-0.123260,0.358374,0.371645,-0.858056
6513968297,-3.060988,0.241452,-0.639456,0.348945,0.380033,-0.849276
6513988327,-2.763631,0.323097,-0.791640,0.358988,0.393494,-0.840955
6514008357,-2.194787,0.313846,-0.381854,0.361112,0.397946,-0.841244
6514028386,-1.619244,-0.069044,-0.158479,0.353331,0.396005,-0.843854
6514048416,-1.210754,-0.221965,0.282765,0.352847,0.395940,-0.847788
6514068446,-0.816666,-0.215117,0.677168,0.352786,0.395861,-0.849706
6514088475,-0.423612,-0.467084,1.066161,0.354025,0.395387,-0.847865
6514108505,0.017615,-0.309170,1.186362,0.354661,0.392385,-0.849252
6514128534,0.048463,-0.386213,0.959561,0.359919,0.383504,-0.846966
6514148563,0.049921,-0.341848,0.572501,0.360943,0.384324,-0.848220
6514168593,0.188862,-0.077195,0.267062,0.355787,0.387906,-0.847814
6514188622,0.333767,-0.078420,0.130664,0.354867,0.387998,-0.847007
6514208652,0.464251,0.026638,-0.112782,0.354088,0.387109,-0.849858
6514228682,0.533955,0.185476,-0.303635,0.351859,0.387592,-0.852263
6514248712,0.679452,0.237148,-0.554208,0.356165,0.383367,-0.850863
6514268741,0.741173,0.388773,-0.638855,0.356987,0.380366,-0.852520
6514288771,0.544494,0.480518,-0.829273,0.357343,0.376000,-0.854016
6514308800,0.196222,0.503798,-1.246653,0.355734,0.376746,-0.855313
6514328830,-0.219815,0.664345,-1.695546,0.356456,0.375923,-0.855400
6514348860,-0.446520,0.801715,-1.947019,0.354866,0.380037,-0.856392
6514368890,-0.619598,1.129472,-2.086333,0.355018,0.384113,-0.852609
6514408950,-0.605259,0.985056,-2.001710,0.353703,0.385832,-0.849054
6514449010,-1.265102,1.070981,-2.389438,0.354279,0.375301,-0.855807
6514469039,-1.803484,1.294034,-2.550796,0.356920,0.380103,-0.854167
6514489069,-1.901998,1.263651,-2.687066,0.358155,0.383170,-0.850467
6514509098,-2.113416,1.408501,-2.953759,0.358300,0.384246,-0.847625
6514529128,-2.241320,1.530100,-3.212633,0.353007,0.386846,-0.850517
6514549157,-2.415465,1.622005,-3.319638,0.349647,0.390682,-0.848710
6514569186,-2.368869,1.658977,-3.570136,0.354246,0.390370,-0.846903
6514589216,-2.398563,1.834201,-3.571622,0.359277,0.390353,-0.849287
6514609246,-2.671853,1.766432,-3.783484,0.360729,0.389889,-0.849450
6514629275,-2.944374,1.904248,-3.974326,0.358840,0.389271,-0.850856
6514649305,-3.346732,1.936342,-4.118849,0.354855,0.389118,-0.851561
6514669335,-3.709517,2.257086,-4.379510,0.351847,0.392857,-0.849111
6514689364,-3.936154,2.325595,-4.736554,0.354688,0.396268,-0.843464
6514709394,-4.102727,2.348701,-4.918799,0.359209,0.401865,-0.839687
6514729423,-3.964584,2.522452,-5.094580,0.353906,0.405734,-0.841381
6514749453,-3.825786,2.703175,-5.459971,0.356122,0.407914,-0.842785
6514769483,-3.786699,2.854742,-5.597703,0.355997,0.411627,-0.838918
6514789513,-3.591410,2.558050,-5.238758,0.354773,0.413890,-0.835083
6514809544,-3.380740,2.352820,-4.819917,0.356007,0.422896,-0.834432
6514829573,-2.550728,1.858045,-3.511239,0.351303,0.435071,-0.824171
6514849603,-1.427699,0.837891,-1.788573,0.347656,0.445899,-0.818287
6514869632,0.073883,-0.243787,0.344226,0.350298,0.455483,-0.808752
6514889662,2.121867,-1.342615,2.765554,0.353452,0.459667,-0.811127
6514909692,4.217895,-2.161366,4.797865,0.353342,0.466632,-0.818368
6514929721,6.639134,-3.339329,6.909172,0.342044,0.472401,-0.795766
6514949751,9.790113,-4.391073,9.224486,0.358696,0.487211,-0.791433
6514969779,13.669293,-5.827127,11.581293,0.342159,0.498937,-0.785294
6514989809,17.868992,-6.960362,13.950874,0.339669,0.485072,-0.794866
6515009838,21.452543,-7.257000,15.137907,0.355739,0.450995,-0.810349
6515029868,24.296036,-7.103891,15.350297,0.360193,0.437036,-0.811227
6515049898,26.956247,-6.513424,14.042501,0.365466,0.408900,-0.818614
6515069927,29.136272,-5.292542,11.569118,0.346859,0.395605,-0.830725
6515089957,30.331314,-2.358024,5.562772,0.365550,0.327928,-0.866469
6515109987,30.118465,-0.171258,1.336237,0.339744,0.362524,-0.820282
6515130017,32.861938,-5.908458,15.374729,0.363734,0.464208,-0.851270
6515150046,38.353222,-9.676463,23.999556,0.283229,0.474642,-0.836505
6515170076,43.466034,-13.138220,37.095066,0.257493,0.378557,-0.842377
6515190106,44.058483,-14.707085,46.859123,0.289732,0.160385,-0.889427
6515210137,33.780815,-12.972662,48.462162,0.352661,-0.112290,-1.089399
6515230166,17.728754,-12.296833,49.858994,0.397840,-0.049790,-1.140398
6515250196,13.255218,-13.301594,56.408630,0.290370,0.388462,-0.873522
6515270226,31.151081,-17.750217,79.140305,0.283166,1.063040,-0.612416
6515290255,72.953537,-23.581230,113.275909,0.320964,1.306990,-0.561981
6515310285,114.157867,-21.975048,146.598145,-0.065171,0.977439,-0.745493
6515330315,143.628387,-15.428651,168.242279,0.255151,0.712491,-0.983206
6515350344,169.594955,-6.082397,195.312729,0.255894,0.667896,-1.021950
6515370374,196.203400,11.848023,225.078857,-0.051301,0.557487,-1.114875
6515390402,222.824890,39.578411,246.847031,-0.184187,0.403484,-1.291187
6515410432,248.123001,75.027580,259.837891,-0.079241,0.162069,-1.429294
6515430462,271.199036,115.481026,265.764618,-0.299636,-0.035831,-1.434250
6515450492,291.754944,158.343033,259.599213,-0.286743,-0.322933,-1.401456
6515470521,307.680664,198.148621,238.103439,-0.327484,-0.591397,-1.320884
6515490551,320.227356,234.069443,205.909943,-0.310474,-0.798519,-1.230591
6515510581,328.824829,269.647308,169.638260,-0.544390,-1.024781,-1.120724
6515530610,342.019287,301.213745,127.003174,-0.527974,-1.212562,-1.239690
6515570669,391.597229,376.138275,21.893824,-0.965223,-1.605637,-1.126089
6515590699,412.107697,400.569672,-53.114079,-1.166884,-1.811303,-0.659371
6515610729,426.166138,407.560028,-139.018219,-1.529173,-1.696991,-0.191664
6515630760,434.198944,385.726501,-226.995773,-1.479262,-1.755276,0.429315
6515650789,434.743103,335.409546,-304.130432,-1.788154,-1.518498,0.643216
6515670819,437.368195,266.527100,-373.503357,-2.102321,-1.269706,0.927166
6515690849,438.275360,184.248505,-424.969421,-2.257455,-0.896772,1.199419
6515710879,435.419891,89.715805,-450.335358,-2.225655,-0.379645,1.443817
6515750938,422.945923,-100.117325,-447.898285,-2.333644,0.465862,1.363975
6515770967,414.651306,-189.494385,-413.055084,-2.175167,0.931228,1.193288
6515790995,402.810852,-262.600098,-361.934937,-2.079915,1.299894,0.754192
6515811025,388.639740,-323.979492,-297.403046,-1.927106,1.598039,0.492764
6515831055,374.111694,-366.609131,-228.335495,-1.722064,1.506391,0.180924
6515851084,364.087555,-393.322266,-156.631927,-1.626001,1.516911,-0.024381
6515871114,357.891815,-412.332550,-81.260780,-1.460898,1.545276,-0.270759
6515891144,353.692230,-423.286743,-6.441542,-1.369173,1.437811,-0.466726
6515911174,349.749115,-413.298645,64.880997,-1.287933,1.311475,-0.837228
6515931203,346.065552,-404.971619,136.126633,-1.111920,1.216154,-1.018384
6515951233,342.817108,-371.297089,203.550568,-1.104893,1.080012,-1.204582
6515971263,335.966858,-327.501953,262.077362,-0.938128,0.780376,-1.642123
6515991292,320.642487,-276.886322,311.876465,-0.781879,0.378404,-1.824337
6516031352,251.542450,-155.633377,344.686646,-0.366322,-0.726964,-1.918918
6516051383,192.200577,-102.322609,334.209534,0.207756,-1.337558,-1.993292
6516071412,100.839615,-70.478569,279.564575,-0.497570,-1.244308,-1.625844
6516091442,77.114052,-45.731441,262.846649,0.336604,-0.060971,-1.078595
6516111472,69.391510,-25.501495,231.821442,0.357272,-0.476014,-0.950361
6516131502,60.227261,-4.403234,198.688004,0.109330,-0.561478,-0.884428
6516151531,52.471928,8.814045,187.382095,0.370768,-0.587489,-0.998828
6516171561,35.887146,10.730289,167.424591,0.473910,-0.564920,-1.058840
6516191591,8.025246,10.835945,152.655457,0.286115,-0.774371,-1.022930
6516211619,-31.668320,8.590321,133.047775,0.267863,-0.720699,-0.928515
6516231648,-68.691330,7.987571,121.813423,0.400275,-0.592220,-0.937043
6516251678,-103.899010,3.983679,113.846054,0.378825,-0.287496,-0.983689
6516271708,-139.054031,1.875778,110.692596,0.292404,-0.168935,-0.948027
6516291737,-169.053848,0.328681,108.135902,0.340047,-0.355914,-0.955738
6516311767,-186.596146,-1.754810,99.228348,0.451474,-0.740518,-0.974739
6516331797,-186.248077,-3.750449,85.764282,0.508780,-1.055195,-1.025377
6516351826,-186.396637,-7.300247,71.115059,0.586273,-1.033066,-1.123332
6516371856,-205.877960,-11.505852,57.349091,0.619731,-0.757322,-1.100427
6516391886,-238.169174,-14.880349,44.199268,0.663235,-0.596479,-1.191535
6516411915,-267.253601,-13.416991,28.333889,0.476080,-0.303783,-1.248380
6516431945,-289.805908,-10.475942,16.273062,0.335996,-0.034815,-1.347862
6516451976,-309.768463,-2.891459,-0.708380,0.344229,0.313837,-1.147309
6516472006,-306.445221,-4.980756,5.717653,0.266532,0.845613,-0.389566
6516512065,-252.809357,-6.568786,5.036622,-0.071591,1.209899,-0.094805
6516532095,-238.811951,-46.881546,42.860249,0.455634,0.476282,-0.754080
6516552124,-250.705948,-21.159304,20.104486,0.570310,0.642068,-0.941487
6516572154,-263.365662,-35.651333,18.529236,0.597795,0.653474,-0.911538
6516592184,-286.202759,-44.375710,13.867791,0.539068,0.584449,-1.339382
6516612224,-311.548096,-10.440121,3.964065,0.394341,0.481178,-1.030556
6516632242,-336.851807,-18.781101,3.051354,0.446690,0.800707,-0.865981
6516652271,-360.427063,-27.890612,0.409628,0.619155,0.803719,-0.658835
6516672301,-374.581512,-16.567865,-7.145501,0.566396,0.867113,-0.350077
6516692330,-378.951385,7.078226,0.690880,0.165516,0.940619,0.064588
6516712360,-382.743683,-28.565674,-6.889485,-0.016203,0.813472,0.179049
6516732390,-384.395508,-28.898767,-4.415719,0.584570,0.742656,0.139498
6516752420,-385.901031,1.918626,5.962499,0.598615,0.673996,0.325513
6516772449,-386.306824,-4.091932,-5.193590,0.400731,0.447064,0.575365
6516792479,-379.064484,1.291852,-4.439171,0.640998,0.265110,0.798792
6516812509,-366.121155,16.070673,-0.879678,0.571487,0.049803,0.885321
6516832539,-352.234985,16.483374,5.659351,0.106850,-0.028421,0.924337
6516852568,-333.705566,14.321443,21.252535,0.043621,-0.267678,0.987285
6516872599,-311.788940,8.353245,14.860868,0.342422,-0.441964,0.924706
6516892629,-275.005096,-0.579111,-3.031111,0.243016,-0.727352,0.876447
6516912658,-168.105728,-14.576392,-15.493690,0.168585,-0.935940,0.908913
6516932688,-114.924850,-8.451478,-16.247284,0.297082,-1.072695,1.217396
6516952718,-106.272644,3.006936,16.347166,0.293154,-0.349901,0.981998
6516972748,-66.506218,-0.034313,21.183823,0.390050,-0.336624,0.724512
6516992777,-78.449310,-3.090289,26.200319,0.300864,-0.631689,0.779127
6517012807,-178.736938,-1.132050,43.149643,0.229428,-0.695483,0.877251
6517032835,-163.380951,-3.130100,36.782124,0.176036,-1.074778,0.700148
6517052865,-137.427063,-3.769804,27.754585,0.178337,-1.142485,0.812946
6517072894,-104.473946,-8.700259,25.931553,0.192390,-1.220396,0.709018
6517092924,-38.448048,-9.717367,13.059687,0.289764,-0.954719,0.797230
6517112953,24.545778,-9.266891,17.643211,0.322679,-0.610930,0.804323
6517132983,23.547165,-10.068662,26.657009,0.363549,-0.780882,0.726363
6517153013,14.961218,-7.094080,19.417294,0.241234,-0.792075,0.635443
6517173043,-6.656655,-3.683242,10.461639,0.261543,-0.836053,0.658007
6517193072,-19.651138,-1.641714,6.290801,0.290122,-0.673649,0.785229
6517213102,-11.815318,-0.908573,3.498217,0.334818,-0.611143,0.765170
6517233132,-5.241152,-0.719292,4.500645,0.313675,-0.583181,0.835382
6517253161,1.299823,-0.756302,6.066034,0.357503,-0.563603,0.804961
6517273191,7.593088,0.083743,7.745251,0.324443,-0.567070,0.810052
6517293222,15.371498,1.088865,4.252802,0.263059,-0.615479,0.788796
6517313252,23.711035,-0.597598,4.809325,0.286684,-0.589760,0.805029
6517333281,31.448164,-1.522362,6.837672,0.272704,-0.574545,0.835070
6517353311,40.409843,-3.753365,9.423491,0.282667,-0.650087,0.813992
6517373340,51.649551,-4.419194,10.215473,0.213628,-0.641191,0.814778
6517393370,63.424812,-7.460398,13.977100,0.222142,-0.648758,0.806812
6517413400,78.240219,-10.195501,20.755310,0.305013,-0.794269,0.788646
6517433430,98.206627,-10.500800,24.808794,0.359201,-0.863119,0.775743
6517453458,116.216782,-9.922523,21.415859,0.389884,-0.845652,0.778047
6517473488,133.272949,-7.095996,21.878048,0.395941,-0.791739,0.757555
6517493517,151.446167,-4.626357,22.093561,0.417232,-0.757620,0.851519
6517513547,170.927429,-0.711983,19.386047,0.443442,-0.753237,0.884395
6517533576,189.678574,1.532575,14.682941,0.415377,-0.615035,0.941910
6517553606,205.334015,2.319824,10.870098,0.271391,-0.421163,0.948028
6517573636,216.636871,0.909866,10.038206,0.247958,-0.238982,0.908980
6517593665,224.701813,-1.324553,10.189762,0.187751,-0.037661,0.954506
6517613695,230.696045,-2.864977,12.002556,0.263183,-0.020728,0.922293
6517633725,239.818039,-4.020018,11.106811,0.292218,-0.059501,0.917476
6517653754,250.490570,-8.637726,3.796097,0.369507,-0.005494,0.945981
6517673784,262.304230,-6.459885,-2.251836,0.502656,0.083714,0.907340
6517693815,273.309021,-1.729218,0.352339,0.435755,0.162709,0.849377
6517713845,284.522644,2.973769,1.842277,0.353162,0.322059,0.821116
6517733875,293.820923,9.941195,8.225483,0.387921,0.457602,0.766971
6517753904,299.410583,17.629606,10.385188,0.453128,0.681485,0.541137
6517773934,297.659851,26.293081,17.059679,0.234930,0.713600,0.278522
6517793964,292.873810,7.183762,6.147933,0.328671,0.760482,0.151207
6517813993,290.819275,9.053654,6.661987,0.395418,0.809928,0.317991
6517834023,295.567444,2.986432,2.636051,0.458747,0.752488,0.259696
6517854064,297.035767,-2.731844,-2.387658,0.460992,0.887410,0.048904
6517874081,296.522461,0.637723,-1.665570,0.320767,0.931907,-0.154814
6517894110,292.067352,4.971750,-1.029306,0.246204,0.919085,-0.298654
6517914140,286.453461,6.143194,-1.049439,0.406171,0.881396,-0.379571
6517934170,283.008423,7.644944,-3.558228,0.408662,0.879659,-0.365488
6517954199,282.105560,8.480822,-5.408136,0.374587,0.861763,-0.447367
6517974229,280.991425,7.474326,-5.415388,0.332673,0.791599,-0.539261
6517994258,278.258545,10.159489,-8.002009,0.410278,0.703086,-0.642163
6518014288,274.314301,8.405521,-8.391042,0.576751,0.600161,-0.616856
6518034318,275.856873,6.334461,-10.685449,0.159285,0.762595,-0.739815
6518054348,271.207214,8.258876,-9.361822,0.390643,0.403956,-0.904158
6518074377,267.568939,5.614987,-6.801375,0.417753,0.620696,-0.972374
6518094407,261.053040,-5.195556,-3.999360,0.590067,0.412432,-0.694149
6518114438,251.314529,5.370642,-28.158403,0.271860,-0.174059,-1.315318
6518134468,237.403748,8.170757,-16.398460,0.263086,0.537853,-0.814429
6518154497,245.187881,6.647472,-29.339733,0.417019,0.479360,-0.756596
6518174527,253.496536,-0.402870,-12.216771,0.503425,0.138534,-0.868719
6518194557,253.378433,-1.987831,-10.641603,0.308876,-0.093114,-1.003478
6518214586,239.567474,-4.049837,6.360540,0.311197,-0.520467,-1.136391
6518234616,210.071198,-6.312090,4.704790,0.312481,-1.091387,-1.139824
6518254646,172.520767,-2.552999,-11.820855,0.196567,-0.854100,-1.016358
6518274683,149.157333,-0.824488,-7.684087,0.329472,-0.580632,-0.880206
6518294703,129.298981,-1.652154,-4.403686,0.450004,-0.653560,-0.905123
6518314733,112.074821,-5.019743,-5.316339,0.364333,-0.494836,-0.806267
6518334763,101.323792,-5.168610,-3.136639,0.286942,-0.546134,-0.861954
6518354792,91.275627,-4.468814,-5.535738,0.272817,-0.488220,-0.843937
6518374822,82.930702,-3.571863,-7.738534,0.293045,-0.483923,-0.852515
6518394852,77.937462,-2.507851,-7.037165,0.319115,-0.414766,-0.868615
6518414882,78.835762,-0.663846,-0.501270,0.357212,-0.253410,-0.979525
6518434911,90.628723,3.943500,14.235698,0.383217,0.031719,-0.980848
6518454941,105.544167,11.555733,31.102266,0.348511,-0.060272,-0.991848
6518474971,119.315430,21.967337,45.632233,0.259544,-0.168733,-0.994845
6518495000,130.215240,31.795187,54.062115,0.202026,-0.345494,-0.955420
6518515030,135.744141,40.469723,55.106518,0.151041,-0.503011,-0.848791
6518535061,136.261612,47.574444,54.516369,0.214314,-0.659687,-0.773895
6518555091,131.225800,51.257027,52.913521,0.257221,-0.843973,-0.628102
6518575120,119.678612,52.684406,49.476414,0.229141,-1.005346,-0.524971
6518595150,108.313126,56.198009,44.232510,0.163502,-0.779979,-0.614973
6518615180,120.277130,71.462250,52.533852,0.361742,-0.313699,-1.175013
6518635209,146.877350,97.379547,69.290276,0.285644,-0.433362,-1.129153
6518655239,168.341843,104.234497,61.357712,0.120158,-0.584785,-1.071163
6518675269,184.524124,140.381287,70.501755,0.231575,-0.840302,-0.809885
6518695298,192.733994,165.239670,67.036690,0.283602,-0.931470,-0.694396
6518715327,197.889557,193.971710,60.792912,-0.125900,-0.973292,-0.535831
6518735357,200.755371,220.156311,44.871891,-0.129539,-1.141552,-0.402149
6518755386,204.015564,241.149872,22.837973,0.017289,-1.239587,-0.366526
6518775416,208.010925,254.261932,-1.275152,-0.164885,-1.214725,-0.264633
6518795445,206.810608,264.392975,-25.941998,-0.320505,-1.134580,0.313386
6518815475,171.026733,253.075623,-45.721825,-0.382790,-0.165591,1.637245
6518835504,79.257607,196.913071,-55.242363,0.290554,-0.458705,2.408694
6518855534,46.140610,181.059479,-59.333332,0.242561,-1.002953,0.431572
6518875564,48.475586,199.755844,-66.479897,0.174726,-0.844374,0.033073
6518895593,48.267590,199.842987,-81.675270,0.466875,-0.639969,0.615046
6518915623,33.172226,196.188873,-85.223068,0.059637,-0.917891,0.771738
6518935653,20.970510,178.237930,-87.011688,0.264778,-0.690043,0.639051
6518955684,5.611277,150.340179,-77.352730,0.223070,-0.567905,0.795616
6518975714,-12.086243,134.205978,-72.676544,0.133147,-0.486252,0.916787
6518995743,-30.625732,108.818977,-61.576851,0.301652,-0.439863,0.920228
6519015773,-50.707973,91.090096,-50.458809,0.432327,-0.422602,0.961038
6519035802,-71.733444,73.015205,-37.329052,0.330317,-0.402158,1.031965
6519055833,-97.657845,47.249657,-21.399952,0.012410,-0.376834,1.105271
6519075862,-125.647484,26.780781,-13.614020,0.254027,-0.394516,0.926629
6519095891,-144.650635,28.123091,-11.071726,0.711725,-0.644809,0.700597
6519115921,-160.837692,30.594053,-5.724583,0.174427,-0.733320,0.800873
6519135950,-184.277130,26.284761,-6.730901,0.112607,-0.677251,0.889855
6519155979,-206.716431,15.882328,-4.986344,0.347726,-0.666110,0.617067
6519176009,-225.219955,14.350407,-3.018661,0.447445,-0.727547,0.627797
6519196039,-247.385574,14.532104,0.259731,0.427816,-0.865212,0.607398
6519216068,-269.213104,6.499976,3.872627,0.457233,-1.133586,0.392588
6519236098,-283.280945,0.493196,6.304625,0.325577,-1.289443,0.031774
6519256127,-290.743317,3.670394,9.049392,0.440108,-0.786347,-0.173879
6519276158,-297.689484,16.918819,8.305478,-0.082589,-1.135339,-0.062537
6519296187,-307.636078,7.220614,-0.815000,0.342159,-0.889337,-0.372613
6519316216,-315.884918,-4.323079,-6.006794,0.386133,-0.859017,-0.087421
6519336246,-331.634888,1.604260,2.480860,0.388960,-1.143835,-0.438386
6519356276,-346.953888,6.186253,5.422331,0.200316,-0.984407,-0.570802
6519376306,-359.519684,8.352734,5.140274,0.356241,-0.868080,-0.613843
6519396337,-374.037598,16.352243,18.365110,0.399876,-0.854360,-0.733423
6519416366,-385.576691,6.176560,5.077706,0.378747,-0.634504,-0.926372
6519436396,-389.293518,-4.635522,-8.579674,0.456883,-0.385744,-1.073436
6519456426,-393.127502,0.478162,12.158101,0.306961,-0.354651,-1.028295
6519476455,-397.270569,4.548556,-22.187128,0.305956,-0.195343,-1.089556
6519496485,-394.535522,1.625280,0.183219,0.196144,0.455004,-1.158453
6519516514,-375.284424,-4.399462,18.106567,0.458536,0.682117,-0.910889
6519536544,-347.255768,4.985459,0.966406,0.171899,1.037876,-0.614731
6519556573,-308.280273,-10.951511,29.127382,0.297163,1.180293,-0.379856
6519576602,-249.877594,-5.395488,28.138464,0.409090,0.418630,-0.374857
6519596632,-69.089317,-7.680596,24.984758,0.455421,-0.793854,-0.419736
6519636691,96.871048,8.953074,-14.183186,0.520290,1.038706,-0.471116
6519656721,84.458099,11.033583,-19.430729,0.440862,1.041776,-0.522864
6519676750,74.937408,20.906128,-36.729618,0.257387,1.079548,-0.541199
6519696780,63.890984,13.329329,-23.311663,0.345614,1.098521,-0.467376
6519716810,42.818550,11.435452,-24.382610,0.230499,1.306813,-0.512967
6519736839,34.720749,9.346721,-22.208086,0.234855,1.090560,-0.546850
6519756869,33.101524,9.852028,-19.354656,0.235231,0.942019,-0.550956
6519776899,38.609974,12.608363,-24.015388,0.246529,0.843834,-0.627089
6519796928,42.673569,13.164055,-24.397194,0.266589,0.856800,-0.638420
6519816959,36.722221,13.216580,-27.213478,0.223414,0.999257,-0.623015
6519836989,23.371691,10.382988,-21.661198,0.248206,1.074950,-0.618260
6519857019,14.379379,8.846744,-17.308098,0.316291,0.911313,-0.604699
6519897078,19.878651,5.399202,-10.710386,0.349125,0.813550,-0.635288
6519917108,22.912176,2.807705,-6.956760,0.360468,0.763864,-0.640037
6519937137,30.594776,1.594116,-4.888103,0.341036,0.661746,-0.680279
6519957167,37.668423,1.202218,-3.895719,0.331648,0.608199,-0.719636
6519977195,44.135002,1.607133,-4.585964,0.360088,0.590087,-0.752572
6519997225,53.439213,2.331576,-5.383669,0.315187,0.605111,-0.719201
6520017255,65.503052,2.697688,-6.533391,0.330945,0.658983,-0.727211
6520037284,82.418320,2.876840,-8.103795,0.382792,0.758207,-0.740880
6520057314,103.100288,2.421268,-11.410934,0.428848,0.746407,-0.718786
6520077344,122.675667,1.738971,-11.441233,0.375405,0.649229,-0.694991
6520097374,138.229919,-0.076814,-8.544846,0.352194,0.560841,-0.742837
6520117403,153.825577,-1.666843,-4.088419,0.366339,0.554494,-0.826017
6520137433,170.784348,-4.091841,-1.322716,0.384898,0.525759,-0.917184
6520157462,188.183868,-4.929212,1.172079,0.332128,0.461357,-0.985647
6520177492,205.014969,-3.824088,3.210526,0.271008,0.348626,-0.988961
6520197522,219.827301,-0.778187,6.528241,0.294040,0.233210,-1.027815
6520217551,232.408417,1.908863,15.071965,0.304567,0.071914,-1.042373
6520257612,253.825760,11.029098,31.117731,0.337164,-0.106421,-1.158340
6520277642,266.661316,9.590809,21.991989,0.361053,-0.184198,-1.107090
6520297672,277.714813,16.825558,35.955910,0.334558,-0.282655,-1.001344
6520317708,288.080872,19.480625,36.006866,0.283602,-0.452753,-1.018718
6520337731,296.168060,12.324107,25.668213,0.314350,-0.637462,-0.896862
6520357760,296.006134,16.354876,22.101025,0.195520,-0.799405,-0.645125
6520377790,294.567200,16.960436,18.819771,0.263701,-0.927396,-0.621556
6520397818,295.390991,-0.435060,3.498726,0.041664,-0.743296,-0.621635
6520417848,303.143585,-18.878557,-9.232255,0.283354,-0.882425,-0.685365
6520437877,315.444214,-15.572113,-7.093167,0.455055,-0.872731,-0.734614
6520457907,328.318146,-20.312023,-1.974712,0.457420,-0.966162,-0.521173
6520477937,333.844299,-26.507721,2.310800,0.324998,-1.208592,-0.150532
6520497967,328.853027,-35.052834,4.389393,0.076638,-0.782164,0.185794
6520517996,305.808136,5.744975,-2.970175,0.438411,-0.801636,1.225670
6520538026,263.359863,-37.609013,3.492081,0.028412,-0.532700,0.823635
6520558055,233.476440,-58.250523,13.553185,0.734626,-0.734203,1.060205
6520578085,207.858994,-15.625246,0.050682,0.097137,-0.381245,0.973866
6520598115,182.822327,-81.655533,40.611374,0.599754,-0.349249,0.760669
6520618144,165.216293,-43.266914,20.271343,0.336123,-0.574284,0.832086
6520638176,148.801163,-61.720589,36.681976,0.308824,-0.494185,0.808373
6520658205,134.661072,-73.875229,48.817589,0.433003,-0.493324,0.699477
6520678235,126.491058,-58.374027,36.969120,0.358377,-0.667872,0.579520
6520698265,126.956696,-56.635468,43.156914,0.554720,-0.889479,0.446276
6520718294,138.623611,-43.487011,35.197090,0.408737,-1.173330,0.119468
6520738335,163.781952,-24.628128,26.316317,0.658365,-1.408671,0.114410
6520758354,196.807495,-14.140198,10.048836,0.263480,-1.493465,0.096344
6520778384,221.246445,5.070551,-10.799809,0.373474,-1.134113,0.337450
6520798413,244.123276,18.515106,-30.781925,0.436621,-1.327806,0.450254
6520818441,265.845001,29.190775,-52.045479,0.465175,-1.106335,0.774577
6520838471,280.036407,29.294186,-62.343571,0.069604,-0.766454,0.469201
6520858500,289.086761,28.814749,-75.247513,0.124747,-0.433834,0.635128
6520878530,296.025238,21.718313,-87.641975,-0.034023,-0.635099,0.909315
6520898560,308.750916,8.110591,-62.348957,-0.009562,-0.382629,0.776842
6520918590,317.743652,-3.751952,-71.828796,0.034701,-0.324263,0.968905
6520938619,325.189850,-16.245268,-83.449829,-0.155264,0.112323,0.982728
6520958649,325.012085,-23.592848,-61.688213,-0.079873,0.335388,0.918551
6520978678,321.720947,-35.270348,-67.172188,0.071388,0.538730,0.765773
6520998708,316.469452,-33.944633,-52.400742,0.092874,0.577064,0.697824
6521018738,313.795593,-41.980740,-49.225895,0.025020,0.691556,0.629766
6521038767,307.618927,-43.465252,-36.349575,-0.013669,0.865525,0.389365
6521058798,292.481293,-42.337284,-25.796904,0.133143,1.162927,0.058084
6521078828,269.433044,-31.212820,-15.741426,0.286653,1.344644,-0.295156
6521098858,248.016190,-18.106598,-6.846699,0.330974,1.048694,0.099316
6521118888,231.337250,-4.774677,-0.339939,0.372218,1.157543,-0.464116
6521138917,203.654358,16.169308,7.015021,0.448436,1.188261,-0.581183
6521158947,175.061951,28.600662,7.617117,0.456672,1.036290,-0.520375
6521178977,152.078827,6.274073,0.491895,0.482012,1.187816,-0.493091
6521199006,135.666626,1.374838,-6.442864,0.451500,1.177436,-0.130699
6521219035,123.737091,8.064925,-7.338838,0.183727,0.948309,-0.307798
6521239064,109.785538,19.710867,2.352719,0.117175,0.924110,-0.335944
6521259094,99.304291,32.825348,10.555110,0.159838,0.925566,-0.224223
6521279124,93.925926,32.092739,12.848458,0.270668,0.949488,-0.101328
6521299153,90.737999,4.406047,9.341405,0.620877,1.019260,-0.083762
6521319183,84.750015,-4.829159,-0.728810,0.546951,0.991272,-0.409133
6521339212,72.893967,-2.134157,-1.174187,0.245247,0.955351,-0.331474
6521359242,66.567139,-6.769247,0.332601,0.349863,0.921633,0.093792
6521379272,79.967979,-23.498617,1.495550,0.347935,0.820685,0.509127
6521399302,102.646057,-35.241997,3.766020,0.300274,0.869957,0.356713
6521419331,117.681046,-41.470375,6.517236,0.186859,0.853485,0.239961
6521439361,130.577759,-60.876945,16.603819,0.143868,1.004910,0.090484
6521459391,138.731171,-77.202240,25.555248,0.184651,0.968120,-0.363837
6521479422,133.927124,-70.696335,30.927090,0.012966,0.886576,-0.726440
6521499451,120.074181,-72.135399,40.690651,0.205427,0.798827,-0.864442
6521519481,107.651543,-68.959450,42.037922,0.347117,0.791135,-0.726274
6521539511,105.730072,-70.747253,46.100849,0.168135,0.935887,-0.332359
6521559541,114.750031,-87.137726,61.952969,0.218934,0.861193,-0.276170
6521579570,127.330841,-84.297737,66.166023,0.179461,0.977146,-0.155140
6521599600,143.275894,-102.190865,87.485626,0.297764,0.942002,-0.363427
6521619629,152.736649,-109.396431,107.802544,0.074611,0.813755,-0.596474
6521639658,152.393723,-111.548103,128.421021,-0.137345,0.505906,-0.970954
6521659687,140.656235,-109.017578,151.739426,-0.005637,0.372713,-1.186777
6521679717,129.400696,-104.008987,168.008621,0.126865,0.404138,-1.140238
6521699746,122.260521,-100.323532,186.626236,0.142010,0.292713,-1.073282
6521719776,114.825409,-90.539490,196.154587,0.107687,0.192607,-1.083439
6521739806,105.945930,-79.311508,198.179016,0.199463,0.078857,-1.169181
6521759836,92.760986,-65.911362,189.697067,0.205898,-0.135060,-1.183927
6521799895,21.021458,-33.320087,155.072083,0.464108,-0.657993,-1.444572
6521819924,15.105909,-34.571815,165.141190,0.242296,0.496566,-0.850662
6521839954,17.013670,-36.491257,181.391541,0.215426,0.043849,-0.834836
6521859984,12.965561,-30.542522,194.312637,0.442394,-0.127347,-1.243918
6521880014,-7.849013,-27.874916,180.632370,0.198895,-0.059316,-0.933469
6521900045,-16.324146,-20.167040,166.384995,0.388271,-0.315191,-0.961516
6521920075,-30.557968,-13.388996,140.420715,0.438800,-0.381609,-0.965782
6521940104,-45.042477,-9.399691,110.954041,0.452485,-0.434869,-0.953454
6521960134,-59.835732,-6.275381,81.820511,0.567695,-0.516071,-0.943660
6521980172,-79.966637,-5.942833,49.326229,0.540333,-0.567635,-1.023003
6522000193,-106.174271,-3.336465,22.488911,0.158446,-0.570132,-1.062919
6522020223,-128.599503,-3.090980,28.488619,0.674128,-0.223793,-0.976018
6522040253,-145.776291,-10.908736,28.470135,0.333831,-0.235563,-1.189442
6522060281,-171.596375,-7.958871,29.759750,0.098839,-0.519130,-1.281061
6522080311,-202.728378,-0.383166,15.214420,0.271534,-0.352772,-1.346282
6522100340,-229.117416,1.475160,10.159119,0.433499,-0.208915,-1.100573
6522120370,-250.923737,-1.144502,9.404777,0.507568,-0.052196,-1.267270
6522140399,-272.301666,1.458191,-1.826191,0.555523,0.099570,-1.211315
6522160429,-289.114532,6.907125,-12.828640,0.528937,0.286996,-1.051710
6522180459,-298.718597,9.802328,-20.379045,0.518687,0.607401,-0.971131
6522200488,-307.840363,1.533935,-8.137162,0.029270,0.384114,-1.242615
6522220518,-325.916931,15.200000,-13.143529,0.265445,0.717355,-0.733031
6522240548,-321.601929,0.132205,-2.983794,0.287851,0.747599,-0.269984
6522260577,-322.679871,-2.531021,0.123965,0.241727,0.825906,-0.734786
6522280607,-333.631409,-4.930592,2.701571,0.172475,0.882662,-0.646284
6522300638,-345.066650,-22.914473,5.917797,0.363170,0.786279,-0.628465
6522320668,-360.419067,-18.917976,4.451380,0.547010,0.840087,-0.632740
6522340697,-375.388672,-0.779199,1.175593,0.510874,0.963213,-0.338222
6522360727,-377.772003,-14.994634,-8.365809,0.443405,0.814591,0.043380
6522380757,-380.458069,6.728281,0.640015,0.422656,0.693722,0.096519
6522400786,-370.896088,17.021517,9.543013,0.139843,0.340496,0.838909
6522420816,-333.177673,-28.212303,-22.957722,0.460790,-0.127025,1.260756
6522440846,-223.927597,-8.210870,-7.734228,0.596621,-0.253187,1.226192
6522460876,-38.044037,0.214597,-0.352862,0.400576,0.094050,0.710499
6522480904,79.321594,1.016835,20.229509,0.069124,0.117531,0.912110
6522500933,92.557266,17.739861,29.739939,0.252101,0.320249,1.525249
6522520963,37.024113,-1.547521,1.335967,0.276300,-0.052178,1.667629
6522540993,-31.335554,0.336735,-3.269756,0.202109,0.254927,1.423775
6522561022,-58.208023,-11.609030,-14.775496,0.175748,0.096261,1.167717
6522581052,-47.934669,-13.186161,-14.878600,0.260204,0.108553,1.282407
6522601081,-23.122969,-15.835463,-16.656479,0.331748,0.085889,1.155549
6522621111,-9.856805,-11.777257,-11.262934,0.420619,0.315885,0.981189
6522641141,-3.176528,-8.989668,-11.563647,0.491163,0.450287,0.849924
6522661171,14.902546,0.354752,-4.301463,0.425729,0.516097,0.691988
6522681200,38.702229,6.386825,2.559118,0.389761,0.551789,0.685890
6522701230,46.663643,11.281052,6.002063,0.333349,0.520717,0.842625
6522721261,42.192108,7.132557,3.464397,0.258975,0.460765,0.909697
6522741291,33.015728,3.267563,3.128470,0.268287,0.503020,0.838300
6522761320,21.969719,0.902106,2.111824,0.317219,0.578083,0.831755
6522781350,4.597834,1.092471,-0.339614,0.335235,0.525164,0.875014
6522801379,2.072769,1.236569,-2.214826,0.299683,0.507463,0.823879
6522821410,-1.067627,-0.267343,-1.672970,0.308653,0.524241,0.826827
6522841439,-0.862171,2.383659,1.542432,0.325083,0.530589,0.829892
6522861469,4.674051,5.586211,5.142468,0.296356,0.510800,0.817556
6522881497,11.955231,3.990891,3.968992,0.337205,0.495194,0.857423
6522901527,21.255974,5.727818,5.467745,0.301672,0.499615,0.855791
6522921556,29.734695,5.513301,4.829167,0.333225,0.570655,0.791686
6522941586,35.745800,7.074077,5.349716,0.358996,0.599330,0.735677
6522961616,40.760181,8.381003,5.773348,0.347311,0.619940,0.696786
6522981645,45.453564,9.385599,6.328259,0.312274,0.596916,0.714993
6523001675,52.537952,10.144602,7.788658,0.271018,0.571044,0.775524
6523021705,63.016426,9.850627,9.312614,0.246550,0.532260,0.877291
6523041734,76.966118,10.412922,10.626343,0.263137,0.466901,0.930910
6523061764,95.287437,11.219666,12.296494,0.305461,0.365445,1.087503
6523081794,121.586044,8.932588,9.659511,0.383069,0.277667,1.235026
6523101823,148.437683,8.081573,9.399100,0.397221,0.366164,0.990677
6523121854,167.952240,2.691263,3.570079,0.477061,0.454226,0.876937
6523141884,186.422562,2.605688,-1.849062,0.542058,0.555132,0.841679
6523161913,205.421616,-1.942658,-7.101581,0.395330,0.561306,0.845285
6523181943,227.377167,-5.687499,-6.415042,0.193413,0.744709,0.818047
6523201973,247.185898,-11.298318,-4.902587,0.182271,0.850594,0.602570
6523222002,262.933350,-11.467303,-0.912947,0.197136,0.866689,0.355371
6523242032,273.153564,-5.997171,5.324053,0.298863,0.862456,0.112044
6523262062,279.537445,-6.311202,3.479742,0.149211,0.931110,-0.006061
6523302120,305.773987,-10.591291,5.666521,0.404489,0.908942,-0.038179
6523322149,319.141144,-10.793299,2.861717,0.525580,0.882920,-0.141713
6523342179,330.943909,-3.086287,-4.582263,0.484074,0.820172,-0.413563
6523362209,334.988037,1.829911,-12.120294,0.324677,0.631924,-0.750843
6523382239,331.424683,3.986682,-5.619511,0.119841,0.581299,-0.801839
6523402268,329.749084,-0.961453,0.676467,0.435382,0.466495,-0.851271
6523422298,328.612030,-2.885028,-2.727463,0.413031,0.378504,-0.890061
6523442328,328.638489,-13.626294,15.173117,0.260837,0.410249,-0.955051
6523462357,330.701477,-15.931823,32.298710,0.223702,0.251833,-1.038280
6523482387,330.571259,-8.746161,25.315849,0.197146,0.012511,-1.207810
6523502416,323.266144,-5.154529,31.590477,0.252470,-0.206931,-1.123216
6523542477,301.333282,0.936444,24.636591,0.242605,-0.449150,-1.077779
6523562507,293.372620,4.632369,26.929417,0.243196,-0.458490,-1.038416
6523582537,287.210663,4.308958,18.361366,0.299834,-0.523786,-0.991449
6523602566,282.413177,5.954695,18.064692,0.296552,-0.593191,-0.894003
6523622596,275.369415,1.699442,4.600857,0.217190,-0.723730,-0.806850
6523642626,269.086609,14.217233,20.816999,0.335376,-0.718935,-0.739336
6523662655,264.524353,-3.368577,-0.745132,0.313888,-0.734911,-0.678575
6523682685,262.315582,8.639320,8.319748,0.250271,-0.804312,-0.705904
6523702716,258.653931,7.302636,3.431157,0.199619,-0.874866,-0.563774
6523722743,255.125748,-4.876758,-4.550815,0.446319,-0.838894,-0.496896
6523742773,256.110535,5.294825,4.462789,0.328475,-0.877582,-0.531852
6523762802,259.510559,4.159344,2.631514,0.273664,-0.912028,-0.549038
6523782832,263.410980,7.172796,1.736155,0.279975,-0.967261,-0.408306
6523802861,265.160248,8.431620,0.816578,0.307970,-1.010676,-0.255427
6523822891,264.516724,8.676845,0.291042,0.295225,-0.992045,-0.140066
6523842921,262.778198,10.395457,-0.679575,0.279602,-0.983037,0.004190
6523862950,258.924286,11.744896,-1.587457,0.318199,-0.983954,0.136820
6523882980,253.247635,11.818128,-0.066813,0.412230,-1.165865,0.242292
6523903010,253.339706,10.731544,0.647491,0.292714,-0.885856,-0.024095
6523923039,259.113892,17.040813,-4.126347,0.154248,-0.902069,-0.001480
6523943069,267.146637,21.128559,-14.074184,0.158317,-0.870986,0.147500
6523963100,273.141083,24.081671,-18.304152,0.341699,-1.086728,0.399634
6523983130,278.189331,24.972128,-19.446505,0.305773,-0.836293,0.447378
6524003160,276.575348,29.010269,-27.647123,0.184013,-0.690807,0.700359
6524023189,267.790375,28.876526,-36.005733,0.186284,-0.319576,0.909150
6524043219,245.598526,26.386547,-37.284519,0.185277,0.232120,1.212036
6524063249,208.411331,15.778136,-24.930405,0.124076,0.716824,1.350822
6524083278,164.049164,5.664060,-12.690067,0.165931,0.733582,1.416476
6524103308,134.612137,4.908865,-12.007988,0.320059,0.020427,1.037167
6524123336,120.051781,7.455290,-13.363280,0.346715,0.157331,1.008374
6524143366,103.918411,4.147410,-8.369441,0.197836,0.086226,0.957825
6524163395,93.249535,0.988119,-9.447479,0.168530,-0.026364,1.021947
6524183425,86.460022,-1.826618,-8.335305,0.248899,-0.140338,0.939852
6524203455,84.152252,-2.353155,-12.373263,0.277263,-0.217414,0.896692
6524223484,84.829788,-1.433125,-18.408438,0.344318,-0.246609,0.880075
6524243514,86.655067,-0.045084,-26.069561,0.386961,-0.267372,0.849171
6524263543,91.067291,2.924738,-32.355186,0.369942,-0.209751,0.889596
6524283573,93.453896,3.554426,-40.555576,0.313745,-0.157811,0.930519
6524303603,95.089478,2.642406,-51.169662,0.270975,-0.102891,0.961737
6524323632,96.824127,0.086536,-59.267807,0.187085,-0.110663,0.946699
6524343662,100.799438,-5.757975,-70.734039,0.087866,-0.176235,0.956897
6524363692,107.293114,-11.273249,-73.110870,0.140091,-0.121698,1.015126
6524383723,112.241531,-18.483376,-86.233231,0.161785,-0.002123,1.011380
6524403752,114.061028,-26.314688,-96.599579,0.119572,0.160866,1.003529
6524423782,110.051407,-33.804241,-109.595024,0.201421,0.615723,0.810776
6524443812,88.651367,-37.774124,-101.504677,0.264879,0.853889,0.825787
6524463841,78.770958,-45.659760,-123.848373,0.373514,0.511343,0.876787
6524483871,69.740166,-50.566078,-123.508263,0.212792,0.584701,0.760371
6524503901,58.341351,-60.860401,-133.367462,0.138668,0.733760,0.801444
6524523930,48.114460,-70.657333,-138.324692,0.133703,0.691021,0.762808
6524543968,37.085049,-75.691505,-136.142014,0.201971,0.833783,0.653220
6524563988,22.096703,-76.885254,-129.921906,0.320744,0.976345,0.570926
6524584018,4.065100,-70.707901,-116.311958,0.365587,1.040106,0.507152
6524604048,-14.983579,-61.446621,-99.430168,0.345742,0.888389,0.569789
6524624077,-24.741165,-60.879662,-95.587929,0.253308,0.527952,0.733116
6524644107,-24.110264,-65.751709,-101.544167,0.409032,0.323283,0.848510
6524664137,-18.953884,-74.708389,-117.631531,0.550559,0.379441,0.845670
6524684167,-18.469112,-78.270935,-121.468269,0.297212,0.714069,0.744224
6524704196,-29.686501,-77.275703,-114.794617,0.243872,0.938799,0.546415
6524724226,-45.462093,-69.740135,-101.172226,0.286691,0.950850,0.495824
6524744256,-61.983280,-55.107124,-80.960274,0.473561,0.965681,0.518261
6524764285,-80.425316,-40.038773,-63.345993,0.438479,0.980389,0.422608
6524784315,-98.176292,-24.468554,-40.253723,0.589458,1.035371,0.313826
6524804346,-117.204773,-4.672300,-14.202621,0.327349,1.163856,0.412913
6524824376,-141.555023,5.682076,9.294191,0.121854,1.051891,0.463679
6524844405,-157.497620,1.026656,0.901847,0.945546,0.451502,0.624429
6524864435,-166.719452,3.153020,-15.133883,0.177758,0.812569,0.897845
6524884464,-185.563675,2.431977,-5.697213,-0.025788,0.996882,0.731000
6524904494,-205.566223,-2.262418,-0.352410,0.169057,0.596223,0.752372
6524944553,-225.123489,0.089897,-15.272882,0.531257,0.397548,0.822426
6524984611,-255.065765,8.772213,-15.731786,0.467044,0.276453,0.804104
6525004641,-264.290741,11.552207,-16.184185,0.571533,-0.182776,1.347309
6525024671,-272.807892,18.331747,-32.675659,0.154801,0.238022,0.665841
6525044700,-288.057770,19.656487,-36.250160,0.394165,-0.024288,0.893257
6525064730,-293.123627,22.437183,-34.463837,0.563663,-0.376423,0.600158
6525084760,-296.440094,27.821573,-36.588150,0.246364,-0.182758,0.623451
6525104789,-305.418640,17.039307,-20.170094,0.281079,-0.323131,0.807860
6525124819,-318.024994,21.340895,-21.652908,0.606141,-0.504199,0.787367
6525144849,-328.208466,44.242107,-34.019409,0.457309,-0.537115,0.669614
6525164878,-339.296387,43.562511,-29.477381,0.389007,-0.577271,0.583411
6525184908,-346.406921,36.326241,-21.784874,0.283699,-0.907514,0.375152
6525204938,-346.336334,54.108879,-21.251760,0.690670,-0.947153,0.161563
6525224967,-347.948700,68.410233,-21.903368,0.311730,-0.779938,0.178406
6525244999,-350.369446,40.575928,-6.938790,0.595923,-0.950786,0.041217
6525265028,-354.104004,44.074993,-2.200828,0.471722,-0.943420,-0.106621
6525305088,-351.801086,39.570076,8.627454,0.423693,-1.027652,-0.499649
6525325117,-342.304077,41.949585,13.654171,0.449143,-0.857797,-0.837734
6525345147,-317.344543,41.979218,21.058548,0.583654,-0.712550,-1.211796
6525365177,-249.799088,37.814480,20.754658,0.407989,-1.421658,-0.300054
6525385206,10.848885,4.062590,19.056255,0.212721,-1.787635,0.725921
6525405234,167.068619,-18.833773,-20.156008,0.372708,-1.068423,-0.136501
6525425263,149.787521,-45.455170,-27.871727,0.358685,-0.591804,-0.901380
6525445293,95.834579,-44.433010,-21.658739,0.360735,-0.412776,-1.335710
6525465323,74.211098,-42.169998,-18.814573,0.192330,-0.674858,-0.710122
6525485353,72.064827,-45.687492,-20.181187,0.145995,-0.674593,-0.690422
6525505382,48.532623,-54.313042,-21.439430,0.068411,-0.544425,-1.378926
6525525412,13.881907,-51.450195,-16.923376,0.206704,-0.397195,-1.517279
6525545442,-15.363760,-36.195442,-10.719376,0.162083,-0.461924,-1.380840
6525565471,-36.973881,-30.147465,-9.559885,0.186912,-0.605338,-1.116920
6525585501,-27.070570,-29.654055,-12.478354,0.212927,-0.657659,-0.823745
6525605531,-24.783018,-27.097137,-11.331071,0.244634,-0.590584,-1.068281
6525625560,-34.645393,-23.214294,-8.509986,0.237042,-0.555135,-1.141659
6525645590,-30.982254,-16.682114,-6.894997,0.257600,-0.639893,-0.856725
6525665621,-20.897020,-13.383968,-6.189930,0.299628,-0.744913,-0.729293
6525685650,-6.805834,-13.186402,-6.730687,0.322599,-0.757399,-0.595381
6525705680,2.370025,-10.077454,-4.864408,0.320973,-0.705021,-0.688590
6525725710,2.362220,-6.095096,-2.198619,0.308539,-0.693035,-0.747384
6525745740,4.258195,-1.575600,0.220954,0.310323,-0.716704,-0.657193
6525765769,7.834609,2.613785,2.189184,0.290533,-0.757082,-0.599916
6525785799,11.994200,4.815085,2.392594,0.282441,-0.759371,-0.542006
6525805829,14.902486,5.491197,2.047128,0.314682,-0.809334,-0.489724
6525825857,17.714840,2.358653,0.732757,0.319598,-0.847869,-0.525514
6525845886,22.510431,2.121150,1.040354,0.297792,-0.815870,-0.585552
6525865916,30.168268,-0.450958,-0.276380,0.312424,-0.804182,-0.621998
6525885946,40.424278,-0.504887,-0.157236,0.303855,-0.786851,-0.664246
6525905976,52.925129,0.413280,0.576563,0.309639,-0.767119,-0.711807
6525926005,71.111038,3.481594,2.288315,0.422008,-0.716245,-0.809204
6525946035,93.307831,5.637932,3.956589,0.238062,-0.713257,-0.813169
6525966064,114.988625,5.632774,0.350449,0.235328,-0.765000,-0.777723
6525986095,129.086609,4.768679,-1.258050,0.309810,-0.815153,-0.785284
6526006124,144.367889,0.668217,-1.398203,0.425666,-0.899817,-0.760265
6526026154,163.037476,-0.535482,0.546787,0.350479,-0.901419,-0.701887
6526046183,180.855530,-0.588199,3.891975,0.335288,-0.983475,-0.609134
6526066213,198.584732,-5.916798,0.025337,0.230811,-1.014641,-0.636226
6526086244,219.019104,-4.379616,-4.132685,0.161400,-1.066042,-0.604051
6526106273,239.050354,-3.237362,-4.125009,0.339942,-1.160258,-0.475487
6526126303,257.288788,0.266958,-3.963643,0.366865,-1.137778,-0.375331
6526146333,273.528625,1.549091,-4.550378,0.388100,-1.157946,-0.250009
6526166363,289.869232,13.681571,-8.473312,0.268898,-1.181613,-0.156215
6526186392,307.280151,7.306881,-4.741627,0.322663,-1.173957,-0.025907
6526206422,323.005554,14.428221,-8.129946,0.343320,-1.141153,0.044115
6526226452,335.266327,11.163648,-8.923058,0.206469,-0.906220,0.344695
6526246480,336.429718,5.226536,-7.052937,0.130502,-0.602325,0.672920
6526266509,328.644867,-2.230445,-4.954501,0.169163,-0.440120,0.776476
6526286539,322.120880,-8.392911,10.629831,0.232302,-0.290559,0.882321
6526306569,313.850433,-22.641701,36.304764,0.399575,-0.220107,0.742908
6526346628,302.481079,-3.962462,-6.658585,0.431987,-0.000002,0.685490
6526366658,295.230133,-2.679945,5.693563,0.513430,0.148000,0.915139
6526386687,286.015076,3.200408,-0.850553,0.424696,0.280176,0.820065
6526406717,276.149017,-0.457252,-10.810253,0.159253,0.310089,0.768099
6526426747,269.358490,-0.732778,5.247688,0.248278,0.379508,0.906763
6526446776,263.126007,-4.141614,-6.486558,0.299809,0.412967,0.877783
6526466806,258.961212,-1.178197,3.540426,0.257158,0.451363,0.789164
6526486836,255.771667,-4.115412,-1.213184,0.273707,0.474470,0.792203
6526506867,253.463486,1.366429,6.882858,0.373074,0.591112,0.708350
6526526896,249.144470,1.359165,4.704765,0.397447,0.612401,0.529094
6526546926,243.805389,7.121741,10.014350,0.375482,0.748566,0.491471
6526566956,236.875961,16.876196,18.330074,0.364018,0.803483,0.442311
6526586985,230.979279,8.718049,7.265186,0.431328,0.633964,0.497070
6526607015,232.740143,9.995894,9.764987,0.262306,0.783705,0.411900
6526627045,230.178970,4.459506,7.217152,0.266822,0.781236,0.377350
6526647075,228.568787,11.429312,10.698699,0.465035,0.794224,0.265479
6526667115,229.823853,1.638713,3.070504,0.450662,0.750649,0.381424
6526687132,233.451111,2.199622,1.285752,0.318513,0.796284,0.271516
6526707162,236.274078,-3.618655,0.357878,0.360382,0.968803,0.226501
6526727191,240.801682,-7.536818,-0.994561,0.343934,0.873484,0.172676
6526747221,240.172073,-13.129594,-1.417997,0.391534,0.959486,-0.179975
6526767251,234.631989,-7.156530,-1.751366,0.246527,0.906521,-0.284340
6526787281,229.751877,-14.224231,0.716729,0.338029,0.976436,-0.391485
6526807310,223.626572,-8.714634,-2.554891,0.535818,0.934282,-0.245147
6526847369,229.490967,-7.670423,0.312797,0.353063,0.679063,-0.506374
6526867399,227.526001,2.691732,-4.324424,0.400421,0.866814,-0.419147
6526887429,229.200745,-4.931454,-0.529209,0.347682,0.709282,-0.654078
6526907459,220.494354,-8.422872,2.324024,0.313826,0.601894,-1.011667
6526927490,197.969162,-16.644144,7.447012,0.388794,0.279300,-1.522943
6526947519,161.377686,-1.380484,-2.100659,0.200715,0.325091,-1.300811
6526967549,145.369766,-5.525924,3.014004,0.332489,0.349146,-1.018906
6526987579,127.269958,-0.686862,-1.220704,0.358017,0.246211,-1.060799
6527007608,109.930717,-5.489395,3.322592,0.341376,0.290954,-1.062116
6527027638,96.604996,-4.656778,3.574531,0.285594,0.367699,-1.042319
6527047667,84.433319,-6.366038,5.789392,0.353752,0.307847,-1.003878
6527067697,73.852524,-5.433578,6.102477,0.268341,0.311308,-0.928000
6527107755,59.978989,-2.236064,4.779963,0.355202,0.327686,-0.860888
6527127785,55.959412,-1.109028,3.115655,0.320088,0.346478,-0.859550
6527147814,52.226730,-1.762142,4.476532,0.357247,0.335094,-0.883883
6527167844,47.818867,-1.939424,3.664604,0.352220,0.301054,-0.914590
6527187874,41.750504,-2.807856,5.223294,0.340267,0.262583,-0.974754
6527207903,34.182999,-2.497758,4.026640,0.317929,0.230024,-1.006732
6527227933,25.709839,-3.458161,6.138433,0.332093,0.205852,-1.000244
6527247963,17.557880,-3.084813,4.721084,0.333320,0.206023,-0.968269
6527267992,10.563972,-2.826938,4.745865,0.331642,0.226415,-0.932960
6527288022,5.187664,-1.375981,2.198658,0.327401,0.255876,-0.903816
6527308052,1.142215,-0.727221,0.871967,0.335148,0.280822,-0.894422
6527328082,-1.918918,0.516551,-0.785274,0.321594,0.306980,-0.898326
6527348113,-4.484807,1.374569,-0.930197,0.322893,0.317463,-0.901220
6527368142,-6.767747,1.916037,-1.959432,0.330290,0.336421,-0.895356
6527388172,-8.311981,1.970927,-1.649773,0.327829,0.359690,-0.884225
6527408202,-9.113725,1.711157,-0.935261,0.338569,0.371410,-0.874813
6527428231,-9.158714,1.473808,-1.418545,0.346248,0.391177,-0.851773
6527448265,-8.716970,0.652950,-0.357526,0.346823,0.399781,-0.844016
6527468290,-7.744984,0.503793,-0.173833,0.341715,0.406436,-0.839472
6527488320,-6.757916,0.262962,-0.065184,0.338503,0.410350,-0.835471
6527508350,-5.665640,-0.053601,0.324690,0.335949,0.418810,-0.830870
6527528378,-4.221889,0.077162,0.741306,0.335150,0.422943,-0.835957
6527548408,-2.957058,-0.474901,1.542675,0.335007,0.422175,-0.844640
6527568437,-1.875875,-0.428719,1.133376,0.338234,0.408364,-0.854027
6527588467,-1.970669,-0.118964,0.289115,0.330528,0.380764,-0.861437
6527608497,-2.598535,0.293862,-0.169582,0.326235,0.381542,-0.865243
6527628526,-3.424028,0.646536,-0.718854,0.342743,0.380855,-0.858773
6527648556,-3.899006,1.004202,-1.495462,0.341650,0.383132,-0.857491
6527668586,-4.379842,1.543561,-2.576883,0.330184,0.390131,-0.858435
6527688615,-4.789442,1.774053,-2.586598,0.337607,0.392802,-0.855824
6527708645,-5.123180,1.675648,-2.949875,0.347158,0.396202,-0.855455
6527728675,-5.422451,1.359021,-2.507599,0.338287,0.402898,-0.854077
6527748704,-5.425281,1.132620,-1.929459,0.330303,0.411036,-0.850753
6527768735,-5.234658,0.343895,-0.762681,0.341919,0.415959,-0.848237
6527788765,-5.069657,0.016663,-0.479316,0.341412,0.416214,-0.844682
6527808795,-4.691809,-0.143503,0.022631,0.332541,0.421969,-0.837926
6527828824,-4.151999,-0.024067,0.173531,0.334492,0.423575,-0.834227
6527848854,-3.468824,-0.080075,0.439706,0.337685,0.424924,-0.834620
6527868884,-2.967328,-0.143573,0.455646,0.332365,0.424425,-0.837176
6527888913,-2.505169,-0.388956,0.647482,0.335051,0.420885,-0.842186
6527908943,-2.261108,-0.245806,0.593324,0.348986,0.416784,-0.841084
6527928973,-1.863604,-0.059020,0.174931,0.336031,0.429254,-0.825568
6527949001,-0.675064,-0.656272,0.999389,0.327815,0.451556,-0.830060
6527969031,0.459015,-1.305475,2.135123,0.358924,0.423337,-0.835019
6527989060,-0.177159,-0.960677,1.805889,0.323799,0.366209,-0.873184
6528009090,-3.542360,0.284654,0.133323,0.330545,0.327190,-0.921730
6528029120,-6.395498,1.157668,-2.802081,0.338891,0.401009,-0.858740
6528049149,-6.171735,0.778726,-1.957177,0.347166,0.431229,-0.816787
6528069179,-5.458160,0.707282,-1.706022,0.325166,0.432603,-0.825988
6528089208,-4.972275,0.942373,-1.199760,0.327928,0.426365,-0.837047
6528129268,-5.286863,0.702375,-0.629238,0.342853,0.417689,-0.849118
6528149297,-5.875849,0.166443,-0.215589,0.339919,0.417514,-0.847342
6528169327,-6.471204,-0.049691,0.218118,0.337540,0.417670,-0.840258
6528189358,-6.714960,-0.093790,0.301773,0.339301,0.427269,-0.832381
6528209388,-6.776114,-0.131346,0.355134,0.343330,0.433673,-0.825865
6528229418,-6.351558,-0.239368,0.591292,0.331768,0.440581,-0.826537
6528249447,-6.368179,-0.352488,0.880354,0.331652,0.435881,-0.832882
6528269477,-6.451686,-0.291026,0.917708,0.334011,0.433538,-0.839621
6528309536,-7.499653,-0.141517,0.718811,0.336828,0.425981,-0.843205
6528329566,-8.471546,0.030475,0.534926,0.340988,0.426948,-0.841760
6528349594,-9.193042,0.018207,0.276888,0.340212,0.429842,-0.837272
6528369624,-10.111409,0.227821,0.047221,0.337231,0.431229,-0.837581
6528389653,-10.923535,0.314781,-0.272350,0.336854,0.433588,-0.835649
6528409683,-11.751099,0.486136,-0.418249,0.338175,0.439958,-0.835933
6528429713,-12.517849,0.580747,-0.654460,0.339132,0.447023,-0.830101
6528449742,-13.102989,0.537692,-0.798442,0.339834,0.455185,-0.824810
6528469772,-13.459692,0.768235,-0.709564,0.335341,0.460103,-0.819725
6528489802,-13.802080,0.823812,-0.566137,0.340091,0.468260,-0.817929
6528509831,-14.106173,0.733676,-0.686841,0.337351,0.471905,-0.815201
6528529861,-14.182041,0.749200,-0.717336,0.334872,0.476634,-0.811272
6528549891,-14.463544,0.758531,-0.649311,0.338870,0.480427,-0.809803
6528569920,-14.548591,0.584626,-0.435593,0.337626,0.485680,-0.803293
6528589950,-14.519313,0.570342,-0.109428,0.339564,0.490949,-0.802938
6528609981,-14.809130,0.228846,-0.258343,0.341018,0.487727,-0.798654
6528630011,-15.233013,0.458472,-0.548597,0.342231,0.489730,-0.799894
6528650041,-15.802268,0.575152,-0.701494,0.339567,0.492403,-0.802469
6528670070,-16.333111,0.691221,-0.975681,0.346486,0.500725,-0.799906
6528690100,-16.748690,0.950665,-1.440569,0.338978,0.507892,-0.786815
6528710129,-16.946169,1.012655,-1.426021,0.333075,0.514445,-0.795341
6528730159,-17.460526,1.410139,-1.740474,0.339017,0.517445,-0.784991
6528750189,-17.613140,1.373296,-1.618924,0.343964,0.528333,-0.782893
6528770217,-17.842264,1.115690,-1.624454,0.332276,0.529232,-0.783988
6528790246,-18.380074,1.491023,-1.771926,0.332401,0.530936,-0.779588
6528810276,-18.602625,2.250895,-2.513878,0.330327,0.544968,-0.762511
6528830306,-18.435442,2.395317,-2.310293,0.332386,0.556540,-0.749589
6528850336,-18.065727,2.228091,-1.656649,0.343375,0.564105,-0.746419
6528870365,-17.673426,2.664690,-2.494157,0.357431,0.563012,-0.745836
6528890395,-17.346336,2.464063,-2.788017,0.344788,0.570259,-0.741045
6528910425,-17.175266,2.061930,-2.132496,0.341770,0.578479,-0.741748
6528930454,-16.799240,2.499708,-2.643991,0.340248,0.587548,-0.733198
6528970513,-15.807537,1.864422,-2.122594,0.347001,0.598808,-0.718651
6528990543,-14.710487,2.169722,-2.412747,0.333901,0.612052,-0.710982
6529010573,-13.588659,1.808020,-1.817763,0.327182,0.616966,-0.702920
6529050634,-10.565953,0.519011,-0.091922,0.341766,0.628186,-0.689890
6529070663,-9.144014,-0.413447,1.016001,0.331811,0.630769,-0.684915
6529090693,-7.451737,-0.862482,1.437606,0.345700,0.633771,-0.683475
6529110723,-5.906383,-1.675105,2.157895,0.340854,0.632154,-0.682017
6529130752,-4.214863,-2.230369,2.678958,0.347108,0.632054,-0.687211
6529150782,-2.782562,-2.775885,3.427278,0.338976,0.636479,-0.687667
6529170811,-1.502725,-3.480692,4.101041,0.338593,0.631932,-0.688446
6529190840,-0.243620,-3.782407,4.642513,0.333674,0.624904,-0.696442
6529210869,0.558141,-4.317455,5.246380,0.339130,0.617184,-0.706285
6529230899,0.997211,-4.600647,5.476433,0.335515,0.608071,-0.717292
6529250928,0.974758,-4.379232,5.641369,0.339555,0.603884,-0.722103
6529270958,0.825049,-4.128604,5.237341,0.340470,0.592252,-0.727856
6529290988,0.161188,-3.320191,4.653992,0.342077,0.587451,-0.734083
6529311018,-0.479017,-2.604489,3.699909,0.340827,0.589613,-0.728605
6529331048,-1.015149,-2.223232,3.051969,0.346733,0.589941,-0.728780
6529351077,-1.495954,-1.431673,2.271715,0.340072,0.591061,-0.726139
6529371107,-1.699295,-1.226202,1.936278,0.341221,0.595402,-0.722155
6529391136,-1.866067,-1.080597,1.965304,0.341821,0.604743,-0.715668
6529411166,-1.685847,-1.453782,2.188406,0.347834,0.606588,-0.710349
6529431197,-1.256823,-2.193032,2.596672,0.352246,0.606944,-0.713652
6529451227,-1.130590,-2.710374,2.874033,0.345549,0.607084,-0.714947
6529471256,-0.758625,-2.719396,3.041095,0.339536,0.608840,-0.712837
6529491286,-0.470106,-2.865748,2.981806,0.342227,0.605086,-0.712463
6529511315,-0.177603,-2.320634,2.567937,0.346883,0.603977,-0.714589
6529531345,0.001951,-1.806616,1.782750,0.343889,0.604359,-0.714542
6529551375,0.336059,-0.867928,0.766609,0.338043,0.598635,-0.726467
6529571405,-0.073483,0.310174,-0.395961,0.337333,0.592411,-0.736214
6529591435,-0.566863,1.481286,-1.505439,0.337221,0.594402,-0.733915
6529611463,-1.002411,2.196540,-2.269866,0.340877,0.594083,-0.729841
6529631492,-1.339239,3.071904,-2.800545,0.343799,0.598307,-0.723181
6529651522,-1.360870,3.078460,-3.149387,0.346411,0.601520,-0.714528
6529671551,-1.307450,3.016826,-3.285322,0.346584,0.604241,-0.712765
6529691581,-1.192571,3.061226,-3.482774,0.348311,0.603959,-0.713014
6529711611,-1.101504,3.007412,-3.497442,0.341659,0.606932,-0.715924
6529731641,-0.997400,2.680578,-3.191363,0.337033,0.614593,-0.712733
6529751670,-0.696467,2.353568,-2.627396,0.339661,0.616846,-0.711392
6529771700,-0.274392,1.835346,-2.145168,0.338162,0.621256,-0.700603
6529791729,0.520284,1.445032,-1.519773,0.334328,0.623328,-0.692521
6529811759,1.605612,1.380070,-1.018284,0.337768,0.622849,-0.692104
6529831789,2.493699,1.178127,-0.819024,0.346936,0.618101,-0.699941
6529851820,2.926780,1.007971,-0.938699,0.365871,0.605466,-0.708971
6529871849,3.029587,0.980446,-2.174302,0.352035,0.600847,-0.714534
6529891879,2.969817,1.017905,-2.447602,0.347855,0.604688,-0.712558
6529911909,3.056496,0.540560,-1.655013,0.330899,0.615282,-0.714926
6529931938,3.360501,-0.293952,-0.343736,0.328459,0.609975,-0.723871
6529951968,3.222065,-0.276317,0.156469,0.320252,0.600779,-0.731575
6529971998,2.516504,-0.854910,1.283138,0.333693,0.585889,-0.738615
6529992027,1.332925,-0.346709,1.149403,0.338488,0.571863,-0.743871
6530012056,-0.178161,-0.088414,0.881129,0.347003,0.569316,-0.738005
