Timestamp (us),Gyroscope X (deg/s),Gyroscope Y (deg/s),Gyroscope Z (deg/s),Accelerometer X (g),Accelerometer Y (g),Accelerometer Z (g)
5969019243,0.068882,-0.019584,-0.060221,0.992949,0.008343,-0.106166
5969039289,0.068864,-0.050067,-0.060119,0.992048,0.008161,-0.105515
5969059335,-0.051747,-0.004154,0.033766,0.994027,0.009252,-0.107093
5969079380,-0.059740,-0.133747,0.019069,0.993955,0.009163,-0.106094
5969099426,0.114733,-0.034815,-0.061060,0.992864,0.010254,-0.105714
5969119472,0.055255,-0.011751,0.031715,0.993388,0.007796,-0.107171
5969139518,0.033036,0.026438,0.070226,0.991404,0.008250,-0.105776
5969159563,0.077797,0.033926,0.008201,0.993234,0.006434,-0.105714
5969179609,-0.059808,-0.011830,0.011023,0.993418,0.008072,-0.105538
5969199655,0.077099,0.018594,-0.029942,0.991812,0.008792,-0.108326
5969219702,0.030972,0.033790,-0.044380,0.991801,0.008154,-0.108960
5969239748,0.122234,-0.042452,-0.068822,0.992992,0.008975,-0.108709
5969259794,-0.065663,-0.019220,0.110500,0.992843,0.010616,-0.106803
5969279839,0.278301,0.011340,0.103724,0.991847,0.009432,-0.106421
5969299885,-0.120496,0.064419,0.034871,0.991385,0.008430,-0.106775
5969319930,0.053186,-0.012020,-0.082866,0.992918,0.010250,-0.107712
5969339976,-0.082444,0.018684,0.026644,0.992205,0.008250,-0.106879
5969360021,0.176234,0.102411,-0.047427,0.992520,0.008345,-0.104706
5969380067,0.061155,-0.164383,-0.059589,0.991128,0.007067,-0.105951
5969400112,0.056078,-0.019264,0.077572,0.992663,0.007522,-0.106886
5969420158,-0.104374,0.079772,0.080356,0.993319,0.008708,-0.105900
5969440204,0.225324,-0.034325,0.135470,0.993331,0.007162,-0.105353
5969460249,0.039447,0.041520,0.001278,0.992308,0.011435,-0.106069
5969480294,0.138637,-0.019443,-0.008085,0.992977,0.007982,-0.104713
5969500341,-0.052725,-0.027142,-0.019629,0.991280,0.009612,-0.107410
5969520386,0.092346,-0.049990,-0.030009,0.992303,0.008523,-0.106518
5969540432,-0.054135,-0.080668,-0.095838,0.994121,0.009799,-0.106914
5969560478,-0.090519,-0.011855,0.003978,0.991413,0.007432,-0.105321
5969580525,-0.091532,-0.095811,-0.049213,0.992281,0.009613,-0.107609
5969600570,0.146435,0.011060,-0.000696,0.995480,0.009891,-0.107482
5969620616,0.130882,0.026263,-0.015728,0.995490,0.010529,-0.106939
5969640662,0.000288,0.079491,-0.051578,0.993096,0.010159,-0.107987
5969660708,0.100922,0.133021,0.015064,0.993240,0.008709,-0.105264
5969680754,-0.066433,0.079744,0.064337,0.991830,0.008066,-0.107417
5969700799,0.155479,0.049346,0.075415,0.990635,0.007973,-0.107850
5969720843,0.039119,-0.049967,-0.013694,0.992071,0.008791,-0.109147
5969740889,0.009106,-0.034660,0.017403,0.993232,0.008071,-0.105716
5969760936,0.061066,-0.080571,-0.067508,0.991285,0.007247,-0.107316
5969780981,0.175159,-0.088238,-0.100262,0.992791,0.007890,-0.104891
5969801026,0.207546,-0.049893,-0.001679,0.994765,0.007344,-0.106831
5969821072,0.077438,-0.110907,-0.006593,0.995141,0.009802,-0.106115
5969841118,0.022871,-0.042475,-0.066894,0.994778,0.011894,-0.105840
5969861163,0.009404,0.003481,0.032554,0.993072,0.009529,-0.104445
5969881209,-0.052276,0.033879,0.003083,0.990941,0.007703,-0.106131
5969901255,0.146302,0.018663,-0.008361,0.992764,0.007523,-0.106343
5969921301,0.130873,0.011021,-0.015677,0.992309,0.009616,-0.106157
5969941348,0.054316,0.033849,-0.021909,0.992639,0.009067,-0.108068
5969961394,0.025198,-0.072653,0.063066,0.991486,0.010251,-0.106144
5969981439,-0.135645,0.064433,0.042807,0.992394,0.007250,-0.106608
5970001485,-0.082871,-0.004232,0.003804,0.992672,0.008433,-0.106343
5970021531,-0.036749,-0.027049,0.018268,0.992271,0.008611,-0.108243
5970041576,0.185497,-0.186944,0.052697,0.992108,0.010068,-0.107062
5970061622,-0.075762,-0.087929,-0.026531,0.994385,0.009980,-0.107464
5970081666,0.010647,0.034383,0.093506,0.993401,0.008616,-0.106446
5970101712,-0.081394,0.079852,0.072043,0.991662,0.009068,-0.106599
5970121758,-0.089955,0.003367,0.011209,0.992742,0.007248,-0.107522
5970141804,0.047159,0.102361,-0.022327,0.992026,0.008159,-0.106694
5970161849,-0.051702,0.033580,0.010408,0.992137,0.007706,-0.105697
5970181895,0.145987,-0.012184,-0.046708,0.991826,0.007429,-0.107688
5970201941,0.016912,-0.004476,0.016976,0.992846,0.010252,-0.106712
5970221987,0.183929,-0.057853,-0.039632,0.992118,0.008887,-0.106606
5970242032,-0.015313,0.071749,-0.043746,0.992549,0.009249,-0.107976
5970262078,-0.007913,-0.073190,-0.058501,0.992019,0.008795,-0.107058
5970282124,0.122077,-0.019682,-0.061101,0.991014,0.008702,-0.107041
5970302171,0.054518,0.011014,0.024290,0.990672,0.006429,-0.105942
5970322217,0.155028,-0.026951,0.098641,0.992115,0.008704,-0.106788
5970342263,0.066958,-0.034949,-0.105914,0.994211,0.007888,-0.107094
5970362308,0.060985,0.072026,0.000981,0.993448,0.007702,-0.108806
5970382354,0.189947,0.086922,-0.047364,0.994285,0.009979,-0.107916
5970402399,0.113753,0.109630,-0.000181,0.994842,0.011073,-0.107383
5970422446,0.076998,0.147612,0.084423,0.989890,0.009426,-0.108476
5970442491,-0.002378,0.070722,-0.066652,0.989651,0.006154,-0.106832
5970462535,0.211465,-0.074034,-0.062511,0.988116,0.007609,-0.105810
5970482581,0.044037,-0.157469,0.002297,0.990563,0.008338,-0.106761
5970502626,0.030724,-0.080664,0.116682,0.990916,0.007428,-0.107491
5970522673,0.143147,-0.187267,0.007771,0.992134,0.008797,-0.105790
5970542718,0.318473,-0.148709,-0.003438,0.993042,0.008525,-0.106077
5970562764,0.117619,-0.133344,-0.075916,0.994043,0.008708,-0.106276
5970582809,0.072089,-0.094834,-0.044486,0.993769,0.008708,-0.106271
5970602855,0.088623,-0.003075,0.031361,0.995054,0.010075,-0.105841
5970622901,-0.049296,0.111011,0.010640,0.993236,0.007889,-0.105535
5970642946,0.080527,0.095515,0.008184,0.990865,0.008341,-0.105313
5970662992,0.057511,0.057168,0.008653,0.991366,0.008611,-0.107773
5970683039,0.064695,-0.064704,0.001349,0.990454,0.007973,-0.107757
5970703085,0.095169,0.003982,0.000526,0.991665,0.009159,-0.106418
5970723131,-0.041685,-0.041710,0.049087,0.992186,0.008794,-0.107878
5970743177,0.103202,-0.087161,0.038706,0.994126,0.007161,-0.106819
5970763230,0.108633,-0.056811,-0.076102,0.994653,0.007342,-0.107918
5970783268,-0.179940,-0.003204,0.036318,0.994291,0.010162,-0.107553
5970803314,-0.174120,0.019357,-0.093680,0.992832,0.008704,-0.107526
5970823358,-0.011882,-0.010931,-0.020124,0.994124,0.007615,-0.106911
5970843404,-0.026474,0.057660,0.018093,0.992052,0.007888,-0.105333
5970863450,0.080464,-0.102325,0.016557,0.990868,0.007068,-0.105220
5970883495,-0.026750,-0.010738,0.010624,0.991795,0.007707,-0.104420
5970903541,0.125945,-0.140144,0.008062,0.993318,0.010072,-0.105903
5970923587,0.048941,-0.109231,0.001765,0.994914,0.011625,-0.103481
5970943632,-0.501638,0.004896,-0.041281,0.993488,0.017168,-0.106099
5970963678,-0.445014,0.043200,0.056893,0.991762,0.005976,-0.106323
5971003770,-0.291513,-0.063179,0.023189,0.999558,0.022913,-0.103579
5971023815,-0.781092,0.050869,-0.059297,0.995086,0.014627,-0.103852
5971043863,-0.869208,0.066126,0.026554,0.986951,0.008883,-0.104521
5971063908,-0.995479,-0.032917,0.097991,0.990122,0.017264,-0.100504
5971083954,-1.113695,-0.146786,0.192013,0.990875,0.014083,-0.099513
5971104000,-1.393945,-0.146534,0.158929,0.996738,0.010627,-0.103692
5971124046,-1.383789,0.082065,0.104187,0.995724,0.007622,-0.104396
5971144091,-1.378802,0.036320,0.180431,0.995582,0.006889,-0.107116
5971164137,-1.245763,0.104822,0.169481,0.996685,0.005618,-0.106860
5971184183,-1.144952,0.127172,0.075548,0.992978,0.000967,-0.109967
5971204227,-0.851745,0.104087,0.077439,0.993757,-0.000491,-0.112338
5971224273,-0.277255,0.081057,0.051004,0.994117,-0.001583,-0.112705
5971244319,0.050361,0.164528,-0.032096,0.993416,0.000321,-0.115874
5971264364,0.624213,0.202443,0.025423,0.989846,-0.000049,-0.116266
5971284410,0.797548,0.239957,-0.008771,0.993417,0.004597,-0.115518
5971304456,1.145952,0.239356,-0.061313,0.994526,0.006602,-0.114723
5971324502,1.303480,0.353003,-0.056984,0.991214,0.006785,-0.111126
5971344547,1.201510,0.374982,-0.032101,0.987807,0.007960,-0.112523
5971364593,1.427079,0.183718,-0.051125,0.989539,0.007607,-0.107831
5971384639,1.346818,0.183180,-0.064743,0.989729,0.007699,-0.107471
5971404684,1.222346,0.167649,-0.001090,0.991314,0.011617,-0.105508
5971424732,1.071733,0.083112,-0.142988,0.990319,0.012162,-0.104947
5971444777,0.779944,0.143846,-0.076148,0.991593,0.010253,-0.105329
5971464823,0.709605,0.044619,-0.051499,0.991234,0.011890,-0.104872
5971484869,0.730648,0.059660,-0.059353,0.988945,0.015526,-0.104929
5971504914,0.497856,0.036434,-0.161604,0.996802,0.006249,-0.110313
5971524960,0.537729,0.135669,-0.009609,0.998765,0.004064,-0.112885
5971545006,0.925371,0.150604,-0.032462,0.995968,0.004054,-0.115923
5971565050,1.159743,0.416708,-0.045432,0.992650,0.001499,-0.117678
5971585096,0.893639,0.323824,-0.215627,1.003266,0.044941,-0.099322
5971605141,-0.669906,0.772327,0.019906,1.003740,0.059236,-0.092636
5971625187,-2.572498,0.922831,0.338771,1.004389,0.123795,-0.058985
5971645233,-8.049252,1.462418,0.557683,1.010751,0.171973,-0.033393
5971665278,-12.992228,1.333049,1.204213,0.981384,0.090488,-0.045738
5971685325,-15.994259,0.670632,1.807213,0.979933,0.071992,-0.060933
5971705370,-18.758385,0.388418,2.022259,0.994879,0.069629,-0.072622
5971725416,-21.097448,0.471691,2.052086,1.012089,0.073760,-0.065479
5971745461,-23.689981,1.134883,2.421125,1.037690,0.099300,-0.047984
5971765507,-27.865835,1.927117,2.751684,1.031657,0.122781,-0.037026
5971785554,-32.153851,2.491038,3.230368,0.998320,0.120359,-0.041901
5971805600,-36.518909,1.995637,3.714073,0.980061,0.147073,-0.044629
5971825646,-41.111778,1.339359,3.866510,0.959968,0.145216,-0.049458
5971845691,-45.242882,0.303570,4.622567,0.975715,0.134200,-0.067682
5971865737,-49.194283,-0.275444,5.152014,0.978397,0.122362,-0.076332
5971885783,-52.763168,-0.701919,5.688813,0.981961,0.113781,-0.096259
5971905829,-56.114239,-0.877374,5.998949,0.986682,0.105588,-0.103134
5971925874,-59.462025,-0.702857,6.055687,0.989765,0.103035,-0.109355
5971945919,-62.285896,-0.718192,6.339777,0.993781,0.069533,-0.126162
5971965965,-64.062706,-0.824744,6.603853,0.984028,0.052854,-0.135863
5971986011,-65.543732,-0.885809,6.732132,0.987925,0.072137,-0.141135
5972006056,-66.993103,-0.954344,6.920955,0.985317,0.079134,-0.143372
5972026102,-68.952377,-1.060811,7.242062,0.980656,0.071766,-0.139104
5972046148,-70.126801,-1.266479,7.418364,0.993515,0.068880,-0.135506
5972066193,-71.113914,-0.991524,7.788110,0.995149,0.056243,-0.131973
5972086239,-72.038010,-0.892568,7.843919,0.990959,0.054692,-0.131445
5972106285,-72.906097,-1.014267,8.044563,0.978423,0.068410,-0.131799
5972126330,-74.456116,-1.174437,8.166871,0.986521,0.083720,-0.122794
5972146376,-76.330620,-0.777852,8.507582,1.013906,0.087199,-0.133252
5972166423,-78.603462,-0.511018,8.810606,1.002359,0.089999,-0.135057
5972186469,-80.762634,0.228175,9.041078,1.003171,0.087915,-0.130891
5972206514,-83.080826,0.318805,8.955854,0.990078,0.100838,-0.117164
5972226560,-84.831146,0.295552,8.989895,0.998691,0.088363,-0.131088
5972246610,-86.400993,0.486316,9.271889,0.998860,0.092365,-0.131551
5972266652,-88.777901,0.744896,9.317150,0.993686,0.110441,-0.143294
5972286698,-91.632713,0.828573,9.578586,0.994389,0.117684,-0.163743
5972306754,-95.456497,0.903643,9.530271,0.976401,0.143961,-0.156944
5972326787,-98.919930,0.408407,9.981197,0.955779,0.129094,-0.161561
5972346833,-101.843147,-0.529007,10.300850,0.970081,0.108797,-0.179472
5972366879,-104.787651,-0.765142,10.687354,0.996476,0.128115,-0.183313
5972386925,-108.015785,-0.056527,10.999803,1.000995,0.104635,-0.192157
5972406970,-110.000801,-0.010958,11.160431,0.994773,0.106470,-0.178074
5972427016,-112.181732,0.362607,11.468956,0.980979,0.126292,-0.172062
5972447062,-114.086121,0.156275,11.445467,0.974981,0.099040,-0.196424
5972467108,-114.948112,-0.247575,11.570517,0.978699,0.093428,-0.183588
5972487153,-115.225288,-1.116617,11.494733,0.941267,0.041887,-0.180958
5972507199,-113.059914,-1.274866,12.011068,1.007547,-0.029360,-0.245514
5972527244,-109.336288,-1.175788,11.586977,0.969487,-0.023198,-0.175521
5972547292,-104.861435,-1.091497,11.270622,0.986682,-0.057315,-0.191008
5972567337,-101.651596,-1.418499,11.201785,0.903634,0.069076,-0.208411
5972587383,-105.029083,-3.475643,11.809074,0.955057,0.281928,-0.316941
5972607429,-110.889511,-2.950892,12.012739,1.037356,0.152799,-0.252043
5972647521,-114.687386,0.729981,12.425687,1.040386,0.060921,-0.252033
5972667566,-114.651009,1.606089,12.292160,0.958747,0.051498,-0.266058
5972687610,-114.325897,0.950352,12.112282,0.935133,0.060888,-0.287457
5972707656,-114.730354,0.057775,11.763951,0.944042,0.064371,-0.279808
5972747747,-116.494499,-1.635139,11.513446,0.959640,0.056163,-0.252283
5972767793,-117.203575,-2.191355,11.643678,0.963291,0.053868,-0.267138
5972787839,-117.491837,-2.465467,11.780089,0.967717,0.061587,-0.279027
5972807885,-117.647934,-1.984848,12.010761,0.990699,0.062262,-0.276061
5972827931,-116.965317,-2.082461,12.555667,0.978527,0.030688,-0.269538
5972847977,-115.522240,-2.067095,12.443558,0.976468,0.005123,-0.268916
5972868022,-113.591415,-1.853673,12.237269,0.998797,-0.017387,-0.258366
5972888068,-110.655052,-1.182253,12.231546,0.989613,-0.039314,-0.252635
5972908115,-108.611824,-1.296773,11.909547,0.943403,0.041030,-0.256883
5972928161,-108.357025,-2.088897,12.075352,0.978547,0.043311,-0.282268
5972948206,-108.158951,-1.691689,12.444616,1.011433,0.038819,-0.277556
5972968252,-107.427826,-0.487852,12.243027,0.974123,-0.020469,-0.283448
5972988304,-102.428497,-1.638318,11.798344,0.917700,-0.171820,-0.325445
5973028389,-96.834473,-0.076002,11.164975,1.036500,0.026431,-0.203344
5973048447,-98.490005,0.929910,11.331297,1.015637,0.100814,-0.152095
5973068479,-102.682793,1.821982,11.990436,0.982559,0.104370,-0.171962
5973088525,-104.683479,0.709206,12.170507,0.897988,0.018418,-0.196067
5973108571,-103.217186,-1.981595,11.746017,0.923207,-0.037632,-0.223365
5973128616,-99.597244,-2.811790,11.540993,0.973689,-0.057418,-0.187337
5973148662,-96.463203,-2.629155,11.066932,1.025579,-0.012379,-0.174408
5973168708,-94.742607,-1.127453,11.028547,1.042505,0.022585,-0.170760
5973188753,-94.928947,0.404808,11.241021,1.011893,0.040355,-0.180072
5973208799,-96.545631,1.052654,11.453630,0.981665,0.064231,-0.183136
5973228845,-98.416809,0.900016,11.574503,0.984106,0.077589,-0.193367
5973248891,-99.491188,0.671596,11.787148,0.977770,0.049919,-0.196844
5973268936,-99.656471,0.870061,11.942522,0.986606,0.022362,-0.199854
5973288984,-99.253838,0.420231,11.813944,0.974699,0.003508,-0.202706
5973309029,-97.912354,0.160954,11.590099,0.963891,-0.014144,-0.195684
5973329075,-96.724030,-0.090772,11.353917,0.972616,-0.020032,-0.188652
5973349121,-95.320114,-0.266044,11.197354,0.980226,-0.022558,-0.182423
5973369166,-94.132835,0.023135,10.882978,0.996343,-0.022274,-0.189960
5973389212,-92.567627,0.015648,10.760934,0.982329,-0.015813,-0.177023
5973409258,-90.828491,-0.129209,10.536634,0.972445,-0.015795,-0.158609
5973429302,-89.199707,-0.936500,10.576489,0.967881,-0.027703,-0.149433
5973449348,-86.239410,-1.508052,10.245858,0.967060,-0.027696,-0.144517
5973469393,-84.533272,-2.255237,9.909581,0.935197,0.056540,-0.172527
5973489439,-86.350273,-3.572698,10.529976,0.933413,0.121543,-0.195390
5973509485,-89.425644,-4.364275,11.310583,0.983765,0.096987,-0.181138
5973529531,-91.505692,-3.716157,11.692652,1.019682,0.093229,-0.175481
5973549576,-93.979996,-2.931541,11.829747,1.025897,0.086017,-0.195183
5973569622,-95.881607,-1.674408,11.908312,1.004919,0.058072,-0.238987
5973589668,-96.688240,-0.859742,11.669083,0.992826,0.038100,-0.256722
5973609714,-97.085106,-0.090101,11.681863,1.000237,0.011264,-0.262614
5973629759,-97.606239,1.090755,11.573421,1.015909,0.014667,-0.254716
5973649807,-98.223900,2.537676,11.190876,1.041296,0.017615,-0.254882
5973669852,-98.703331,4.388590,10.827229,1.023211,0.011362,-0.226059
5973689898,-98.212738,4.380274,10.473870,0.956786,-0.023384,-0.219513
5973709944,-97.473099,3.717240,10.385311,0.959902,-0.003752,-0.232307
5973729990,-96.447769,3.183200,10.023329,0.962845,-0.025010,-0.217980
5973750035,-94.816895,2.550456,9.749262,0.968126,-0.033059,-0.195090
5973770081,-93.064964,2.138566,9.395699,0.979320,-0.045221,-0.188270
5973790127,-90.980949,1.948186,9.218347,0.970236,-0.026678,-0.189326
5973810171,-89.660202,1.437719,9.125646,0.956113,0.000491,-0.195485
5973830216,-89.900208,0.667614,8.987679,0.965413,0.027954,-0.209306
5973850262,-89.690048,0.073767,9.214821,0.991531,0.015047,-0.224980
5973870308,-89.106094,0.607719,9.354542,1.004807,0.006816,-0.209216
5973890354,-88.107628,0.996214,9.165762,1.003902,-0.006005,-0.204731
5973910400,-86.778297,0.920229,9.109654,0.966864,-0.035880,-0.194337
5973930445,-84.837357,0.287125,8.646179,0.945755,-0.071585,-0.201906
5973950491,-81.239922,-0.871686,8.052971,0.923326,-0.097319,-0.176971
5973970537,-79.380844,-0.924385,8.116411,1.040320,0.029267,-0.145679
5973990582,-81.930809,0.980506,8.258888,1.054929,0.140643,-0.090467
5974010628,-86.638405,1.719704,8.783338,0.977593,0.073130,-0.136785
5974030675,-88.779091,0.820944,9.248148,0.967273,0.055852,-0.176613
5974050721,-89.980621,0.325156,9.204340,0.983576,0.051430,-0.169712
5974070780,-89.740021,0.196138,9.406420,0.999901,0.015184,-0.153863
5974090812,-89.002144,0.654058,9.604538,0.997152,0.020524,-0.115063
5974110858,-89.143036,0.653597,9.423879,1.012192,0.033263,-0.125689
5974130904,-89.628677,1.027343,9.615453,0.978041,0.034835,-0.134732
5974150949,-90.374588,0.486539,9.822763,0.970438,0.035698,-0.155301
5974170994,-91.951157,0.136378,10.175461,0.979157,0.057906,-0.156576
5974191040,-93.677948,-0.077303,10.247888,0.970568,0.080010,-0.150475
5974211085,-95.560799,-0.412362,10.575913,0.987541,0.089842,-0.160494
5974231131,-97.791847,-0.252731,10.656880,0.986523,0.080386,-0.156920
5974251177,-99.487671,-0.710203,10.760083,0.961049,0.062534,-0.147742
5974271222,-100.588692,-1.160099,10.775304,0.983404,0.045872,-0.174330
5974291268,-100.518631,-1.106576,10.842539,0.979844,0.004851,-0.167030
5974311314,-100.064461,-0.870818,10.580773,1.001341,-0.005577,-0.166017
5974331359,-98.544777,-0.450542,10.886109,0.999004,-0.005279,-0.149366
5974351405,-96.592651,-0.191604,10.587559,0.956065,-0.000529,-0.154360
5974371451,-94.716599,-1.494808,10.364458,0.922321,0.091655,-0.213942
5974391498,-97.276123,-3.300280,10.955036,0.943632,0.107477,-0.235755
5974411544,-99.498299,-3.299523,11.533053,1.002862,0.098205,-0.229306
5974431590,-101.862007,-2.355380,11.438232,1.013703,0.094422,-0.216503
5974451635,-103.444542,-1.486073,11.840476,1.024877,0.063820,-0.245964
5974471681,-104.671249,-0.289452,12.036048,0.991415,0.077217,-0.256491
5974491727,-106.160355,-0.129584,12.133184,0.960461,0.068794,-0.261305
5974511772,-107.474686,-0.564197,12.190701,0.948082,0.050584,-0.260065
5974531818,-109.109550,-0.969329,11.856983,0.964042,0.052896,-0.251535
5974551863,-110.284393,-1.426523,12.018848,0.967522,0.049345,-0.256128
5974571908,-111.953224,-1.266211,12.325789,0.981068,0.061261,-0.268543
5974591954,-113.778419,-1.014950,12.436784,0.995698,0.075178,-0.281433
5974612000,-115.818321,-0.977192,12.522089,0.980648,0.077623,-0.275280
5974632046,-117.012550,-1.030053,12.866379,0.978133,0.045325,-0.275002
5974652091,-117.258751,-0.594965,13.190649,0.998358,0.011686,-0.279921
5974672137,-116.908791,-0.084537,13.075179,0.995499,0.027982,-0.270640
5974692182,-117.059326,0.593941,13.182820,0.999519,0.002902,-0.257595
5974712228,-116.107529,1.066148,12.948819,0.979444,-0.030564,-0.234230
5974732274,-114.398582,1.096601,12.739803,0.959933,-0.036867,-0.232707
5974752320,-113.004601,0.776243,12.461654,0.948054,0.012468,-0.259093
5974772367,-112.957695,0.448716,12.530606,0.950121,0.055923,-0.277628
5974792412,-114.856857,-0.603786,12.402850,0.976128,0.073558,-0.307059
5974812458,-115.753082,0.158784,12.708077,1.021485,0.031340,-0.297232
5974832504,-115.665855,0.837422,12.856956,1.001631,0.021160,-0.275272
5974852554,-114.670311,1.058883,12.936239,0.960051,-0.008909,-0.268431
5974872596,-113.577103,0.616184,12.519144,0.925396,-0.043818,-0.277404
5974892641,-110.280846,-1.006943,12.200777,0.881654,-0.080075,-0.269336
5974912698,-108.032547,-1.821663,12.251560,1.037434,-0.040366,-0.269516
5974932731,-107.730682,-0.404716,11.981177,1.030464,0.066695,-0.167179
5974952777,-112.043846,0.523697,11.901308,1.021073,0.128906,-0.167303
5974972822,-115.831146,0.432887,12.609341,0.938882,0.064362,-0.228703
5974992868,-116.984085,-0.839811,12.742929,0.937434,0.042292,-0.258508
5975012914,-116.799805,-1.533111,12.810436,0.970765,0.007727,-0.231967
5975032960,-115.702095,-1.327495,12.620339,1.019667,-0.004157,-0.201735
5975053005,-114.369453,0.014331,12.696993,1.026470,-0.007021,-0.180151
5975073051,-114.266533,0.821580,12.440140,0.997225,0.022760,-0.188870
5975093097,-115.079918,1.019112,12.271872,0.981458,0.029331,-0.215755
5975113143,-116.344872,0.485904,12.527435,0.949097,0.050870,-0.201168
5975133188,-117.573158,-0.832393,12.723770,0.931623,0.022447,-0.209265
5975153235,-118.517532,-2.006688,12.547327,0.965954,0.053719,-0.198374
5975173281,-119.370018,-2.288368,12.771126,0.996603,0.025886,-0.221726
5975193327,-119.070717,-1.609933,12.808908,0.990328,0.008718,-0.201892
5975213372,-117.878136,-1.434369,12.792824,1.002070,-0.043857,-0.207361
5975253464,-112.418777,0.135913,12.322514,0.999005,-0.034080,-0.180273
5975273510,-109.338097,0.441472,12.277001,0.993450,-0.041391,-0.194418
5975293554,-106.957878,-0.137723,12.003499,0.914977,0.044893,-0.209019
5975313600,-108.777504,-2.508122,12.092548,0.885684,0.131755,-0.245973
5975333645,-111.582687,-4.268067,12.626610,0.988182,0.088499,-0.252823
5975353691,-113.359383,-3.711636,12.873193,1.031559,0.101870,-0.237971
5975373737,-115.292961,-2.246957,13.715830,0.993703,0.073442,-0.232195
5975393782,-116.669128,-2.917903,13.744768,0.967404,0.093873,-0.283977
5975413828,-117.330170,-3.175640,14.407976,0.942213,0.060050,-0.304461
5975433874,-117.901146,-3.556491,14.557868,0.958206,0.031241,-0.300964
5975453920,-118.511742,-3.747024,14.623841,0.981626,0.020551,-0.294810
5975473966,-118.785812,-3.289723,14.673485,0.990586,0.017935,-0.289693
5975494012,-118.563728,-2.535204,14.666665,0.986630,0.013832,-0.291435
5975514058,-117.301086,-1.841277,14.700987,0.990095,0.003539,-0.302097
5975534104,-116.054527,-0.857885,14.681165,1.003647,0.001387,-0.295607
5975554150,-114.731018,0.559952,14.673687,1.012341,-0.009566,-0.271137
5975574195,-113.219185,2.457555,14.492846,1.043974,-0.015877,-0.265130
5975594241,-112.499084,5.056462,14.477861,1.040444,0.035756,-0.284491
5975614287,-113.908905,7.669473,14.221426,1.053499,0.060050,-0.293105
5975634333,-115.602798,10.465144,13.893480,1.034048,0.017735,-0.232246
5975654381,-116.824440,7.368207,12.827127,0.875511,0.041790,-0.233849
5975674423,-116.355827,4.046153,13.065979,0.885255,-0.010581,-0.277592
5975694469,-114.567909,1.462187,12.665457,0.889023,-0.070226,-0.314050
5975714514,-110.205627,-1.220454,12.138897,0.846179,-0.200939,-0.322362
5975734560,-103.386581,-3.558212,12.159550,0.983689,-0.081330,-0.239937
5975754605,-103.742310,-1.258478,11.432858,1.053450,0.055558,-0.208493
5975774651,-106.737854,1.476634,11.428389,1.072546,0.122899,-0.160273
5975794697,-111.801537,3.145843,12.101838,0.997692,0.115200,-0.182586
5975814743,-115.426598,2.597081,12.494948,0.916377,0.035649,-0.242070
5975834788,-114.996185,0.303768,12.700550,0.945928,0.002545,-0.261038
5975854834,-113.541275,-0.176633,12.414107,0.983556,-0.022145,-0.209350
5975874881,-111.730377,0.296159,12.331547,1.008227,-0.041246,-0.176061
5975894927,-109.853477,0.730504,12.095002,1.028735,-0.027871,-0.192137
5975914973,-109.464546,1.979220,11.571322,0.990707,0.008298,-0.181745
5975935018,-110.249939,2.024019,11.265471,0.962682,0.010699,-0.190440
5975955064,-110.462837,1.300182,11.356069,0.944438,0.008681,-0.184406
5975975110,-111.165009,0.172347,11.465146,0.966445,0.043542,-0.192283
5975995155,-112.242180,-0.574617,11.542024,0.955535,0.049825,-0.179490
5976015201,-112.926880,-1.016335,11.747817,0.977311,0.027983,-0.203154
5976035246,-113.095825,-0.963133,11.705070,0.991828,0.003355,-0.200184
5976055291,-112.258812,-1.009155,11.482662,0.973397,0.003265,-0.184528
5976075337,-111.417877,-0.947983,11.473783,0.992033,0.006551,-0.193929
5976095383,-110.394600,-0.383969,11.383275,0.979608,0.007806,-0.193991
5976115429,-109.436775,-0.474884,11.502540,0.984143,-0.002099,-0.191420
5976135474,-107.859840,-0.452350,11.181489,0.969605,-0.037090,-0.160340
5976155520,-104.856140,-1.084179,11.140591,0.945218,-0.003323,-0.182493
5976175566,-105.759018,-3.050556,11.172299,0.904181,0.118711,-0.229745
5976195611,-108.963486,-5.015585,12.043373,0.940502,0.113947,-0.226907
5976215657,-111.324463,-4.969294,12.555160,1.027882,0.056323,-0.217771
5976235704,-111.903252,-3.383130,13.050164,1.044487,0.045081,-0.209775
5976255750,-112.746590,-2.111056,12.878898,1.008770,0.044813,-0.229318
5976275796,-112.785164,-1.059505,12.822656,0.984689,0.021910,-0.248386
5976295842,-112.613998,-0.129394,12.953783,0.998066,0.023199,-0.250977
5976315887,-112.436707,0.068968,13.026097,0.983565,0.006191,-0.236268
5976335933,-111.663536,0.259806,13.071591,1.002224,0.003310,-0.235129
5976355979,-110.861855,0.678991,12.993507,0.999269,-0.002049,-0.227444
5976376024,-109.947678,0.922652,12.799206,0.976553,-0.010731,-0.231309
5976396068,-108.873001,0.724372,12.618541,0.969966,0.005601,-0.250287
5976416114,-108.372238,0.541117,12.410756,0.969631,0.026149,-0.257124
5976436160,-108.801025,0.403756,12.381328,0.982165,0.049881,-0.274080
5976476251,-109.609398,1.409696,12.462436,1.010536,0.007538,-0.268865
5976496297,-109.026085,1.919711,12.143762,0.985497,-0.007221,-0.260698
5976516343,-107.674461,1.691242,12.057164,0.961994,-0.032469,-0.268606
5976536389,-106.642593,1.164681,11.633898,0.947875,-0.006439,-0.250344
5976556434,-105.730103,0.417481,11.381794,0.943009,-0.029840,-0.257938
5976576480,-103.915993,-0.473349,11.525311,0.953863,-0.047749,-0.259909
5976596525,-100.983406,-0.725474,10.919062,0.918999,-0.168985,-0.265831
5976616573,-93.235466,-2.447234,10.277758,0.953587,-0.259829,-0.273078
5976636618,-86.470612,-2.035146,9.740121,1.039728,-0.119975,-0.171838
5976656664,-82.471153,-0.754765,9.306746,1.024989,-0.102372,-0.133580
5976676710,-78.361458,-0.578890,9.088870,0.964314,-0.132148,-0.151287
5976696755,-73.854637,-1.295539,8.453620,0.962305,-0.131522,-0.156065
5976716801,-68.590271,-1.707093,7.840861,0.976517,-0.162331,-0.150265
5976736847,-62.510944,-1.744451,7.463212,0.996079,-0.146991,-0.133921
5976756891,-57.988789,-1.424725,6.793649,1.000871,-0.053823,-0.130798
5976776937,-55.211430,-1.348523,6.472052,1.009888,-0.052695,-0.117519
5976796983,-52.506325,-0.250671,6.347133,1.042073,-0.084471,-0.108029
5976817028,-49.667751,1.136251,5.981778,1.032119,-0.108141,-0.109364
5976837074,-46.403107,2.012452,5.518157,0.996559,-0.092547,-0.109873
5976857120,-43.896469,1.539512,5.043171,0.973424,-0.062377,-0.109347
5976877166,-42.426952,1.097129,4.718113,0.984965,-0.030604,-0.105693
5976897211,-40.592388,0.693684,4.706783,0.985301,-0.029597,-0.102341
5976917257,-39.559574,0.716902,4.740154,1.008483,-0.012915,-0.102310
5976937303,-38.859383,1.029104,4.549775,1.001472,-0.008465,-0.100837
5976957348,-38.524296,1.310973,4.465920,0.992784,-0.002028,-0.105873
5976977395,-38.510391,1.303177,4.389262,0.985083,0.005419,-0.106935
5976997441,-38.686703,1.364033,4.361914,0.997551,0.005788,-0.114228
5977017487,-38.595062,1.470728,4.352140,0.990529,-0.007777,-0.114449
5977037533,-38.024826,1.279957,4.181239,0.975378,-0.026177,-0.114977
5977057578,-36.926418,0.776971,4.054620,0.971746,-0.035113,-0.124069
5977077624,-35.438965,0.136807,3.882701,0.969156,-0.024592,-0.139747
5977097670,-34.496010,-0.313207,3.613734,0.987726,-0.021122,-0.147785
5977117714,-33.457985,0.037371,3.500727,1.004022,-0.016909,-0.145529
5977137760,-32.810455,0.380152,3.357116,1.022534,-0.016711,-0.152017
5977157806,-31.770760,1.226269,3.318842,1.014982,-0.033179,-0.146596
5977177851,-30.190489,1.554052,3.172465,0.990924,-0.048295,-0.134814
5977197897,-28.174570,1.363745,3.034643,0.980227,-0.063571,-0.121716
5977217943,-25.503403,0.929466,2.777938,0.970599,-0.078930,-0.105186
5977237989,-23.026585,0.570923,2.341357,0.986446,-0.051748,-0.076816
5977258034,-21.798223,0.578532,2.195233,0.999180,-0.020386,-0.048581
5977278080,-19.795719,0.045550,2.173433,0.958724,-0.130046,-0.088922
5977298125,-13.599357,-0.967865,1.536953,0.946086,-0.236485,-0.131286
5977318171,-4.041585,-1.791226,0.314996,0.978160,-0.254923,-0.141424
5977338218,3.156125,-1.707080,-0.375134,0.978037,-0.071466,-0.160972
5977358264,1.780110,-3.200011,0.115024,0.906851,0.211277,-0.256905
5977378310,-3.554867,-3.550741,0.655275,1.031975,0.008934,-0.216764
5977398355,-3.082136,-2.330540,0.962981,1.048958,-0.032777,-0.205092
5977418401,-2.241440,-1.104478,0.476457,1.024933,-0.037484,-0.171450
5977438447,-0.123713,0.221011,-0.004611,1.016378,-0.018372,-0.212367
5977458493,1.689254,1.074098,-0.409420,0.973248,-0.021681,-0.247484
5977478538,2.601767,0.716530,-0.250183,0.942981,-0.016286,-0.258596
5977498583,2.601630,-0.479880,-0.215631,0.946540,-0.003882,-0.243427
5977518628,1.598015,-1.448192,-0.292272,0.963245,0.012907,-0.228398
5977538674,0.348655,-2.171866,-0.013452,0.968031,0.023762,-0.216061
5977558720,-0.896448,-3.749456,0.107658,0.920211,0.026095,-0.194189
5977578765,-2.371206,-6.188241,0.243732,0.915869,0.028979,-0.206284
5977598811,-3.530352,-8.329473,0.487314,0.914726,0.037798,-0.208276
5977638902,-4.743438,-11.712888,0.751360,1.061873,0.013212,-0.292716
5977658948,-5.276997,-8.679922,0.736333,1.067081,0.011161,-0.273285
5977678994,-5.589686,-6.187061,1.116174,1.034701,0.022525,-0.250693
5977699040,-6.462687,-3.337467,0.940232,1.032154,0.019918,-0.230855
5977719087,-6.754753,-0.060007,1.164232,1.037574,-0.004116,-0.245251
5977739132,-6.860877,2.912015,1.110548,1.032328,-0.006510,-0.257231
5977759178,-7.076316,4.984513,0.962641,1.015288,-0.012661,-0.274904
5977779224,-7.197699,6.325784,0.968172,0.979322,-0.006351,-0.278114
5977799270,-7.422488,6.150059,0.805007,0.955894,-0.011732,-0.266267
5977819316,-6.635485,4.991910,0.816516,0.968975,-0.042966,-0.242836
5977839361,-5.540625,3.833114,0.516395,0.986826,-0.037179,-0.225812
5977859405,-4.769045,3.771281,0.058425,1.010464,-0.051115,-0.203407
5977879451,-3.212146,5.005821,-0.144007,1.042872,-0.051804,-0.155846
5977899497,-1.768693,8.328464,-0.351190,1.099072,-0.039204,-0.124599
5977919543,-0.700453,13.563637,-0.656798,1.141635,-0.024659,-0.114093
5977939588,-0.361442,20.429985,-0.755009,1.123545,0.043814,0.040605
5977959634,-2.695058,7.273476,-1.651673,0.474321,0.023186,0.075311
5977979680,-1.880986,2.970656,-0.453437,0.972572,0.014031,-0.218029
5977999725,-2.172269,0.654892,0.010771,0.983376,0.043974,-0.219715
5978019772,-3.685052,-0.252189,0.104277,0.981610,0.049836,-0.143169
5978039817,-4.651989,-0.434806,0.337608,0.994729,-0.004379,-0.099730
5978059863,-4.905418,-0.502609,0.701899,0.965631,-0.023514,-0.040469
5978079910,-4.719385,-0.648009,0.423681,0.961826,-0.037618,-0.039654
5978099956,-3.671696,-0.732518,0.013919,0.992134,-0.043731,-0.075020
5978120001,-2.215505,-0.641226,-0.220960,0.991175,-0.021472,-0.090654
5978140047,-1.185152,-0.587847,-0.325187,0.996291,-0.006080,-0.084775
5978160092,-0.985165,-1.509699,-0.226660,0.966262,0.015359,-0.077400
5978180138,-1.244084,-2.492657,-0.134307,0.976101,0.023841,-0.073406
5978200184,-1.562146,-2.629510,0.040432,1.013933,0.012806,-0.068314
5978220230,-1.777453,-2.004859,-0.049167,1.039272,-0.004787,-0.057733
5978240274,-0.765600,-0.724035,0.049198,1.040462,-0.039589,-0.035455
5978260320,0.589592,0.357666,-0.309282,1.020449,-0.061238,-0.017830
5978280366,2.909160,0.388148,-0.575995,1.001425,-0.072806,-0.010133
5978300411,5.418569,0.418511,-0.915164,0.985264,-0.065178,-0.004424
5978320457,8.129687,-0.114598,-1.072977,0.974267,-0.022254,-0.003672
5978340502,5.392734,-1.517437,-1.007557,0.906657,0.258306,-0.050461
5978360548,-6.069881,-3.841917,0.269483,0.959586,0.379118,-0.094230
5978400640,-5.402073,-5.265409,0.887863,1.043436,-0.086318,-0.176587
5978420686,-4.744058,-2.240891,0.383614,1.128410,-0.005439,-0.141042
5978440731,-4.677313,0.061192,0.611540,1.038408,0.043517,-0.110449
5978460778,-6.081704,1.326110,0.703353,1.011257,0.034184,-0.170519
5978480824,-8.384226,1.478748,1.060823,0.946092,0.019420,-0.183181
5978500870,-9.736820,0.015376,1.153072,0.967492,0.011172,-0.235820
5978520916,-10.254310,-0.144474,1.293551,0.999698,0.025335,-0.227225
5978540961,-10.968203,0.374143,1.542562,1.003056,0.022006,-0.209121
5978561007,-11.603676,0.648193,1.485207,1.001281,0.014084,-0.211710
5978581053,-12.038064,0.953076,1.553753,0.982136,0.005416,-0.210280
5978601100,-11.948868,1.464323,1.817771,0.986178,-0.006503,-0.214686
5978621143,-11.649326,1.594124,1.887940,0.980309,-0.005587,-0.206145
5978641188,-12.082078,1.524831,1.636759,0.969330,-0.017796,-0.207844
5978661234,-11.842520,0.937466,1.374257,0.972527,-0.049115,-0.224368
5978681280,-10.940065,0.693888,1.395764,0.987370,-0.057957,-0.246756
5978701326,-10.111849,0.807742,1.104221,0.986894,-0.050721,-0.218165
5978721371,-8.739738,0.891394,0.870999,1.007333,-0.078946,-0.196771
5978741417,-6.184106,2.034384,0.511946,1.038639,-0.089852,-0.164698
5978761462,-3.235960,3.330219,0.289955,1.032820,-0.083669,-0.109416
5978781508,-1.053563,4.549496,0.006663,0.985434,-0.014760,-0.045723
5978801554,-1.802327,3.109121,0.087119,0.906697,0.105792,-0.023702
5978821600,-5.970310,0.700845,0.542803,0.879744,0.156461,-0.055008
5978841647,-11.052773,-1.547256,1.160885,0.937918,0.112084,-0.145796
5978861692,-12.937925,-2.689380,1.812584,0.989458,0.027622,-0.159515
5978881739,-13.611176,-1.889479,1.761853,1.059308,-0.063409,-0.147120
5978901784,-11.746502,-0.084072,1.222965,1.070893,-0.102968,-0.096961
5978921830,-8.707102,0.884049,0.985012,0.992029,-0.152894,-0.072749
5978941876,-5.400749,0.769077,0.325204,0.963693,-0.128761,-0.086921
5978961921,-2.484855,0.586342,0.062913,0.981875,-0.085907,-0.098558
5978981965,-0.935286,0.341583,-0.493600,0.981570,-0.015010,-0.081242
5979002011,-0.322946,-0.046803,-0.443058,1.016348,0.020885,-0.080260
5979022057,-0.986363,0.242822,-0.354734,1.000803,0.049463,-0.059981
5979042103,-2.411789,0.006776,-0.104687,0.998161,0.055275,-0.064121
5979062148,-3.862394,0.174309,0.006959,0.989738,0.035022,-0.037255
5979082194,-4.639741,-0.442818,0.169285,0.978996,0.004838,-0.017686
5979102240,-4.325144,-0.953151,0.248935,1.012545,-0.006028,-0.016970
5979122285,-4.425496,-0.275092,0.172211,1.025927,0.008513,0.015549
5979142331,-5.299555,0.357839,0.439232,1.054006,0.031055,0.033460
5979162377,-7.401709,1.347980,0.430877,0.997054,0.040233,0.075357
5979182423,-3.022551,0.365878,0.356814,0.891555,-0.327658,-0.044511
5979202470,6.088718,-4.845326,-0.031877,0.770503,-0.009386,-0.278905
5979222515,-0.049575,-6.989100,-0.302987,1.099345,0.126643,-0.226187
5979242561,-0.943235,-2.484611,0.012657,1.141271,0.065137,-0.161985
5979262607,-2.126038,-0.137564,0.058361,1.085941,-0.015870,-0.087922
5979282653,-2.376748,1.782902,0.079756,1.004088,-0.019070,-0.132454
5979302698,-1.547795,2.080731,0.246074,0.949973,0.021125,-0.200135
5979322744,-1.624286,1.021480,0.281651,0.936346,0.031854,-0.244129
5979362834,-2.443218,0.060992,0.270173,0.983465,-0.019392,-0.248025
5979382880,-2.410395,-0.686494,-0.003067,0.950899,-0.029683,-0.226937
5979402925,-2.174668,-1.837269,-0.034376,0.941574,-0.018268,-0.246132
5979422971,-1.926805,-2.714119,-0.250227,0.931712,-0.002442,-0.240090
5979443017,-2.119196,-3.552569,-0.289551,0.963749,0.012944,-0.259906
5979463062,-2.425167,-3.147799,0.112394,0.986438,0.016000,-0.248043
5979483108,-2.829136,-2.873411,0.172809,1.012527,0.030808,-0.229540
5979503154,-3.507754,-1.371152,0.647104,1.067284,0.053961,-0.196652
5979523200,-4.600657,1.273863,1.003371,1.088118,0.040845,-0.119280
5979543245,-5.443427,3.392859,1.257196,1.017345,0.015464,-0.008100
5979563291,-6.108143,2.966997,1.722358,0.940266,0.001796,-0.008216
5979583338,-6.366818,0.626659,1.452435,0.829260,0.018279,-0.061997
5979603384,-6.791630,-3.245141,1.351305,0.943025,0.032552,-0.214378
5979623430,-7.544300,-3.221928,1.587435,1.130501,-0.003298,-0.219240
5979643476,-7.658203,-0.486156,1.534688,1.141528,-0.039027,-0.110981
5979683567,-7.330392,3.688760,0.910753,0.966175,-0.049906,-0.047152
5979703613,-6.712126,2.949615,0.878293,0.928376,-0.035056,-0.055065
5979723657,-6.202397,1.843481,0.352466,0.963780,-0.034405,-0.076458
5979743703,-5.718235,1.530506,0.076662,0.992008,-0.030335,-0.061423
5979763749,-5.122587,1.576292,0.034386,0.987753,-0.005582,-0.053040
5979783794,-5.020811,0.738391,0.195671,0.984171,-0.000792,-0.068328
5979803840,-5.244175,-0.077256,0.133948,0.959092,0.011739,-0.060569
5979823886,-5.414485,-0.953913,0.048474,0.976961,-0.011439,-0.063830
5979843932,-4.854444,-0.686806,0.143697,1.014932,-0.017522,-0.036508
5979863977,-4.277934,-0.282376,0.299276,1.009993,-0.012400,-0.017097
5979884023,-3.541741,-0.114247,0.414336,1.027002,-0.001481,-0.029932
5979904069,-3.109835,0.884617,0.586025,1.036245,-0.003129,-0.043704
5979924114,-2.673442,1.669703,0.590226,1.002961,0.000352,-0.001657
5979944161,-2.632411,1.289061,0.758809,0.998541,0.007084,0.001766
5979964207,-2.854516,1.944302,0.715088,1.075352,0.015469,0.050461
5979984253,-4.423563,3.157286,1.429227,0.882321,0.177113,-0.004069
5980004299,-9.550770,-2.292213,1.799026,0.800639,-0.092393,-0.274652
5980024344,-4.065980,-4.372731,1.172265,1.067087,-0.067840,-0.190365
5980044390,-2.855409,-1.423011,1.207728,1.093125,-0.088600,-0.118425
5980064436,-1.129748,0.526965,0.587000,1.073156,-0.022778,-0.073622
5980084480,-0.525527,2.188385,0.539179,1.009083,-0.013887,-0.138539
5980104526,-0.689435,2.751812,0.334165,0.954391,-0.012916,-0.161573
5980124571,-0.483737,1.105779,0.350936,0.908193,-0.012139,-0.199277
5980144617,-0.002888,-0.547814,0.362394,0.961022,-0.020481,-0.227215
5980164663,0.817449,-0.845491,0.072375,0.996414,-0.034957,-0.211273
5980184709,1.730363,-0.609612,-0.190651,0.990936,-0.029687,-0.210825
5980204754,3.119104,-0.586744,-0.347580,0.970880,-0.019605,-0.203238
5980224800,4.257792,-0.724669,-0.797137,0.987466,-0.034208,-0.191605
5980244846,5.681011,-0.008827,-1.186285,1.029403,-0.025900,-0.209944
5980264891,6.971315,1.622030,-1.346656,1.002029,-0.025935,-0.154920
5980284937,7.484952,1.316538,-1.684188,1.002114,0.011774,-0.128659
5980304984,6.382583,1.887592,-1.779320,1.006402,0.041474,-0.107630
5980325030,5.098825,2.528446,-1.336264,1.022960,0.083065,-0.059960
5980345076,2.624662,2.231986,-0.729442,0.954323,0.076694,-0.004132
5980365121,1.171204,0.555027,-0.710939,0.879614,0.005617,-0.061473
5980385167,2.642218,-1.837967,-0.884345,0.926226,-0.083860,-0.182217
5980405213,5.114074,-2.469504,-0.739171,1.056167,-0.044578,-0.196481
5980425258,6.930055,-0.586288,-0.589641,1.091529,-0.025829,-0.116868
5980445304,8.751857,1.859605,-0.984642,1.072095,0.006031,-0.089447
5980465349,9.608398,2.964809,-1.012583,0.980293,0.016278,-0.084086
5980485394,9.907404,2.164860,-0.939307,0.903861,0.015119,-0.058725
5980505440,9.269135,-0.022822,-1.064826,0.937590,0.033662,-0.095188
5980545531,6.927991,-0.578936,-0.704248,1.021710,0.072932,-0.078532
5980565577,5.249848,-0.708418,-0.480217,0.979011,0.047459,-0.043447
5980585623,4.113790,-1.615129,-0.271760,0.966613,0.037137,-0.057380
5980605668,3.931911,-1.782615,-0.175975,0.994553,0.001421,-0.060158
5980625715,4.243839,-1.760864,-0.686436,1.007313,-0.020820,-0.043544
5980645760,5.085279,-1.295748,-0.681388,1.040301,-0.024492,-0.038200
5980665806,5.752654,-0.320875,-1.018524,1.046524,-0.017369,-0.027425
5980685853,6.293032,0.486704,-1.184527,1.028219,-0.008036,-0.033664
5980705899,7.018527,1.440320,-0.842632,1.044460,-0.009015,-0.034666
5980725944,6.922247,1.660696,-1.101306,1.006214,0.037250,-0.025557
5980745990,6.620214,2.095467,-0.905857,1.019277,0.021191,-0.011864
5980766036,6.948793,2.674676,-0.937085,1.025995,0.032828,0.030395
5980786081,4.658069,2.514430,-0.762198,0.940380,0.260850,0.023578
5980806127,-3.632243,-0.396062,0.493445,0.840008,0.141238,-0.143539
5980826171,-1.908569,-4.227203,1.236898,0.893742,-0.159388,-0.219120
5980846217,-0.666509,-3.353064,0.124801,1.151616,0.011020,-0.164068
5980886309,0.038486,1.722473,0.033092,1.024460,-0.035101,-0.108991
5980906354,0.196103,2.209834,-0.147343,0.933943,-0.016160,-0.127087
5980926400,0.054759,0.456637,-0.291592,0.909743,0.002909,-0.179085
5980946445,-0.600618,-0.960640,-0.121328,0.969408,0.015766,-0.211351
5980966492,-1.292662,-1.600449,0.108192,0.961334,0.044206,-0.172589
5980986537,-2.592650,-1.745607,0.103334,0.980808,0.039869,-0.171916
5981006583,-3.663966,-1.676435,0.475399,0.984818,0.035944,-0.182326
5981026629,-4.018604,-1.599714,0.734192,0.995263,-0.001406,-0.168372
5981046676,-2.907930,-1.736321,0.850642,0.994708,-0.023382,-0.145813
5981066721,-1.907904,-1.256178,0.745583,1.042461,-0.035332,-0.152417
5981086767,-0.458471,-0.105545,0.522591,1.013240,-0.050540,-0.084809
5981106813,0.350232,-0.044595,0.422639,0.958242,0.010967,-0.032956
5981126859,-0.785832,-1.546685,0.228083,0.910004,0.061241,-0.064353
5981146904,-2.258624,-3.444172,0.454014,0.938780,0.030785,-0.129245
5981166950,-3.042425,-3.192427,0.651780,1.078488,0.025474,-0.161211
5981186995,-4.070586,-1.111827,0.802350,1.113320,0.034239,-0.120153
5981207040,-4.917519,1.921068,0.793404,1.106457,-0.005571,-0.094098
5981227086,-4.839831,3.864434,0.793068,1.014065,-0.035046,-0.069144
5981247132,-4.378657,3.208531,0.526494,0.908610,-0.054342,-0.038719
5981267177,-3.625151,0.564030,0.428979,0.902803,-0.025557,-0.064086
5981287223,-2.733809,-1.394576,0.318865,0.971434,-0.017424,-0.100673
5981307269,-2.231786,-1.067105,0.162846,1.007524,-0.009330,-0.080241
5981327314,-1.670116,-0.709335,-0.078487,1.018519,-0.024934,-0.064789
5981347360,-1.093790,-0.488808,-0.350214,0.990204,-0.023346,-0.069483
5981367406,-0.935479,-0.473818,-0.475599,0.994495,-0.019636,-0.083996
5981387451,-0.229316,0.159215,-0.346221,0.997980,-0.010406,-0.063192
5981407498,0.330780,-0.198538,-0.225994,1.002623,0.007250,-0.062937
5981427544,0.158011,-2.642328,0.878222,0.839644,-0.004168,0.046887
5981447590,1.337175,-4.364980,0.608908,1.080708,0.035321,-0.202842
5981467636,0.595738,0.015550,0.043244,1.057075,0.046131,-0.035608
5981487682,1.041240,-0.006927,0.156938,1.087518,-0.047272,-0.098336
5981507728,1.746503,6.422089,-1.238329,1.130037,-0.009605,0.076531
5981527774,4.139416,2.935558,0.140514,0.928972,-0.098369,0.050513
5981547819,2.211579,2.690061,-0.333238,0.879316,0.234386,-0.024356
5981567863,-4.853081,-2.185851,1.119126,0.843636,0.084358,-0.211590
5981587909,-2.782370,-5.028845,0.721621,0.960698,-0.187330,-0.230473
5981607955,-0.022503,-3.384137,-0.200892,1.157959,-0.024168,-0.159216
5981628001,2.010993,0.891375,-0.369206,1.125886,-0.045981,-0.068854
5981648046,2.433414,3.618823,-0.783838,1.067035,-0.010331,-0.077805
5981668092,1.906811,4.738996,-0.769708,0.960226,-0.002096,-0.117755
5981688137,1.644131,3.450736,-0.874944,0.942190,-0.003337,-0.188070
5981708183,1.764238,2.528418,-0.965901,0.971357,0.011348,-0.190498
5981728229,1.534592,1.682465,-0.950987,0.962871,0.029072,-0.140364
5981748274,1.089175,0.653346,-1.022974,0.970578,0.004439,-0.135190
5981768320,1.300572,0.768351,-0.752367,1.000582,0.004808,-0.157125
5981788367,1.303374,1.461174,-1.045103,1.002388,-0.003056,-0.129547
5981808413,1.976612,2.078654,-1.044939,1.004187,-0.016735,-0.097873
5981828459,2.623434,2.390861,-1.226642,1.002410,-0.007683,-0.070353
5981848504,3.143526,2.520568,-1.221882,0.990236,0.013140,-0.065550
5981868550,3.243178,2.887396,-0.797116,0.961140,0.003375,-0.059046
5981888596,3.817316,1.325471,-0.703718,0.949822,0.024274,-0.115624
5981928686,2.346534,0.389401,0.023310,1.040657,0.071480,-0.144575
5981948732,1.297113,2.256843,0.274341,1.071818,0.028040,-0.093110
5981968777,1.184122,2.980965,0.342896,1.006339,-0.003310,-0.069973
5981988823,1.703539,2.417134,0.334694,0.934574,-0.015529,-0.078896
5982008869,2.398818,1.387518,-0.080367,0.945759,-0.019836,-0.106131
5982028914,2.830666,0.503160,-0.269197,0.940726,-0.014608,-0.077096
5982048960,3.485836,-0.838152,-0.353859,0.969101,-0.007729,-0.068695
5982069006,3.738024,-0.906684,-0.358524,1.012839,-0.011587,-0.074609
5982089052,4.029862,-0.159645,-0.313184,1.032008,0.000168,-0.079403
5982109097,4.123096,0.076803,-0.239366,0.979839,0.030049,-0.063676
5982129143,3.757848,-0.448871,-0.123548,0.985143,0.042497,-0.077131
5982149190,3.368755,-0.646994,-0.069490,1.015436,0.036707,-0.084084
5982169236,2.834290,0.092133,-0.053938,1.024230,0.026384,-0.063973
5982189282,2.404983,-0.464414,-0.097245,0.977985,0.006431,-0.042273
5982209327,2.318230,-1.043926,-0.223537,0.973383,-0.009336,-0.054786
5982229373,2.806168,-1.264967,-0.293401,0.985412,-0.020420,-0.056970
5982249419,3.312492,-1.235122,-0.624266,0.995733,-0.011481,-0.051623
5982269464,3.495278,-1.410434,-0.657795,0.998089,0.004360,-0.046788
5982289509,3.602789,-1.250317,-0.637490,1.016522,0.004022,-0.047737
5982309554,4.160151,-0.846392,-0.695498,1.002322,-0.004547,-0.045665
5982329600,4.859330,-0.130444,-0.955975,0.979713,0.037270,0.007847
5982349646,3.025404,-1.530952,0.001247,0.897156,0.172709,-0.089827
5982369692,-4.920504,-4.092757,0.416128,1.004428,0.169080,-0.122151
5982409783,-3.307765,-2.529235,0.754060,0.970169,-0.196173,-0.145017
5982429829,1.444954,-2.507478,-0.262851,1.073794,-0.006832,-0.111604
5982449874,2.201738,-0.891785,-0.328763,1.022373,-0.016104,-0.116794
5982469920,1.766723,-0.000218,-0.315649,0.999265,0.017955,-0.129165
5982489966,0.433494,0.250527,-0.481650,0.999403,0.021366,-0.155680
5982510013,-0.965644,0.234920,-0.477373,0.971015,0.017795,-0.145114
5982530059,-0.748959,-0.869633,-0.294506,0.953577,0.005215,-0.145431
5982550104,-0.153438,-1.524934,-0.319162,0.977351,0.009784,-0.153560
5982570150,0.327632,-1.013332,0.051872,0.988997,0.005844,-0.127064
5982590196,0.608047,-1.326013,-0.074791,1.004656,0.018750,-0.095036
5982610242,0.559307,-0.579604,-0.259725,1.011452,-0.000747,-0.065072
5982630287,0.569317,-0.061112,-0.147024,1.000852,0.016615,-0.064284
5982650347,0.572004,-0.526595,-0.405336,0.952763,-0.025427,-0.083729
5982670377,0.672062,-2.195336,-0.310024,0.976689,0.011526,-0.144928
5982690423,0.727405,-2.111261,-0.212039,1.052625,-0.000469,-0.148926
5982710469,1.048526,-0.251814,-0.277951,1.118234,0.004758,-0.127813
5982730514,1.065051,2.621217,-0.310761,1.077621,-0.004229,-0.082806
5982750560,1.588525,3.733395,-0.576789,0.981416,-0.003527,-0.069275
5982770606,2.138780,2.910513,-0.561802,0.940021,-0.005070,-0.084907
5982790652,2.361117,2.179099,-0.502550,0.950994,0.015591,-0.087852
5982810697,2.381303,0.869042,-0.185281,0.965900,0.024812,-0.081494
5982830743,2.023581,0.617687,-0.085805,0.991100,0.032417,-0.071860
5982850789,1.486232,0.282964,0.231394,0.990570,0.032409,-0.075755
5982870835,0.926609,0.503612,0.142179,0.972603,0.026042,-0.060096
5982890882,0.484178,-0.128860,0.221643,0.972922,0.004766,-0.054166
5982910927,0.724819,-0.990416,0.028806,0.985337,-0.010792,-0.065245
5982930973,1.079563,-0.884235,-0.230599,1.013229,-0.006944,-0.072989
5982951019,1.154825,-0.282364,-0.318119,1.029032,0.002649,-0.062654
5982971065,0.881664,0.312221,-0.223101,1.014268,0.008735,-0.055604
5982991110,0.543444,0.814839,-0.340474,1.022088,0.019644,-0.066558
5983011156,0.295570,1.432596,-0.116119,1.015295,0.030822,-0.067641
5983031200,-0.513207,2.202252,-0.049498,1.009313,0.021935,-0.046282
5983051246,-0.671349,1.760545,0.100229,0.975263,0.022160,-0.045157
5983071291,-1.165596,1.425472,0.263764,0.963280,0.008940,-0.051739
5983091337,-1.061047,0.510736,0.157800,0.973862,-0.000542,-0.072510
5983111383,-1.026409,0.281670,-0.033146,0.978544,-0.004055,-0.056880
5983131429,-0.865096,-0.236373,0.026581,0.975940,0.003241,-0.044320
5983151474,-0.948369,-0.998321,0.099506,0.981412,-0.006339,-0.064823
5983171520,-0.444540,-1.127835,0.059595,0.984418,-0.009901,-0.075217
5983191566,-0.354938,-1.211914,-0.056485,1.000857,-0.001242,-0.079687
5983211612,-0.096345,-1.036754,-0.138501,1.005875,0.001858,-0.079778
5983231658,0.226007,-0.632631,-0.084970,1.013566,-0.001413,-0.083898
5983251705,0.463060,-0.198205,-0.098657,1.007013,0.012855,-0.086624
5983271751,0.693570,-0.007488,-0.042633,1.017316,0.017921,-0.111590
5983291796,0.531239,0.762886,0.255968,1.001383,0.017854,-0.084539
5983311841,0.443598,0.556654,0.067319,0.990539,0.003011,-0.084057
5983331888,0.465446,0.594620,0.005637,0.991219,-0.003899,-0.082332
5983351933,0.243619,0.533586,0.002504,0.995254,0.010557,-0.090323
5983371979,-0.132663,0.586616,-0.089710,0.990127,0.025851,-0.080275
5983392023,-1.097075,0.136624,-0.130630,0.971548,0.020643,-0.077680
5983412069,-1.531554,-0.678695,-0.027788,0.986294,0.014811,-0.095351
5983432114,-1.958397,-0.785322,0.049623,0.977849,0.012603,-0.102557
5983452160,-2.622815,-1.036870,0.101560,0.990789,0.021336,-0.113413
5983472206,-3.335800,-0.617199,0.404373,1.014241,0.041393,-0.108490
5983492251,-3.834872,-0.128910,0.695165,1.003800,0.031102,-0.105753
5983512297,-4.262534,-0.220403,0.726692,0.976574,0.013147,-0.102354
5983532343,-4.324680,-0.761590,0.691493,0.986621,-0.000338,-0.122656
5983552389,-4.036245,-0.074965,0.973985,1.003603,0.001549,-0.098620
5983572434,-4.227105,0.069808,0.984848,1.008199,0.015396,-0.091368
5983592480,-4.213504,-0.119924,1.321440,0.984307,0.006366,-0.084955
5983612527,-4.540755,-0.546553,1.420907,0.983995,-0.005847,-0.097456
5983632573,-3.975250,-0.234006,1.393611,1.001778,-0.027543,-0.085741
5983652619,-3.378571,-0.417687,0.992930,1.013984,-0.038511,-0.073676
5983672664,-2.231463,-0.403102,0.580909,1.004644,-0.057434,-0.066314
5983692710,-0.181615,-0.372967,0.197168,1.007473,-0.064163,-0.066896
5983712756,1.607675,-0.099128,-0.228178,1.009640,-0.059332,-0.063037
5983732802,3.123091,0.487250,-0.588118,1.032048,-0.014474,-0.024732
5983752856,2.451787,1.554116,-0.540436,1.083944,0.117754,0.061945
5983772892,-4.209779,3.785824,-0.303982,1.040480,0.237725,0.138196
5983792937,-10.533508,2.931571,0.119585,0.889337,0.064296,-0.016801
5983812983,-11.938339,-0.542425,0.777368,0.885085,0.082320,-0.110713
5983833029,-16.507217,-1.991075,1.016034,0.982847,0.112168,-0.083199
5983853074,-19.876045,-1.312384,1.583480,1.104209,0.091469,-0.003535
5983873120,-23.810360,1.720878,2.085286,1.125133,0.064166,0.024295
5983893166,-27.006359,4.197622,2.421790,1.050912,0.027907,0.004742
5983913212,-28.702509,4.136366,2.493113,0.988862,-0.003859,-0.057056
5983933257,-29.031235,3.534277,2.516779,0.950707,-0.022961,-0.076345
5983953303,-28.866669,2.101226,2.365528,0.930808,-0.048447,-0.067430
5983973349,-28.570499,0.683661,2.303369,0.957306,-0.039318,-0.071256
5984013442,-28.993336,-1.327529,2.669776,0.963497,0.011284,-0.064365
5984033487,-30.503540,-1.586547,2.883337,0.970857,0.044085,-0.093593
5984053533,-33.119495,-2.364659,2.852633,0.946549,0.075418,-0.155414
5984073579,-35.266556,-3.209913,3.386161,0.969096,0.014955,-0.155062
5984093625,-36.214115,-2.995737,3.831756,1.035718,-0.003341,-0.164156
5984113670,-36.542957,-1.631793,3.780106,1.065424,-0.075882,-0.157825
5984133715,-35.429955,-0.466012,3.555950,1.020716,-0.099300,-0.142045
5984153760,-33.222176,0.464016,3.418316,1.008937,-0.108961,-0.142464
5984173806,-30.806965,0.021575,2.960286,0.978105,-0.081335,-0.133632
5984193852,-29.071039,0.403097,2.963539,1.006594,-0.054130,-0.103299
5984213898,-28.681606,0.471718,2.932829,1.003425,-0.006845,-0.060023
5984233943,-30.326748,0.731196,3.277188,1.081474,0.208434,0.052759
5984253989,-47.081711,4.254561,3.002182,1.077822,0.626459,0.268269
5984274034,-59.854984,2.099937,5.366251,0.808413,-0.066250,-0.053785
5984294080,-61.845066,-2.479704,5.832751,0.891233,0.042763,-0.106849
5984314126,-63.483585,-3.043354,6.149156,1.011961,0.067479,-0.067826
5984334172,-66.922333,-1.945708,6.640149,1.101677,-0.008530,-0.013220
5984354219,-69.297928,-0.353397,6.711510,1.046925,-0.004500,0.048164
5984374265,-72.176788,0.788363,6.450271,1.053777,-0.016726,-0.030273
5984394310,-75.198357,1.123654,6.782878,0.984962,-0.011430,-0.065782
5984414356,-78.284248,0.362182,7.403118,0.961608,0.011995,-0.072504
5984434402,-82.716927,-0.011157,7.948861,0.974579,0.085345,-0.067945
5984454447,-87.773972,-0.682512,8.224977,0.952247,0.092397,-0.074747
5984474493,-92.496910,-0.987310,8.783766,0.991646,0.093151,-0.092486
5984494539,-97.708748,-1.307422,9.367374,0.961569,0.094543,-0.103504
5984514583,-101.742050,-2.296676,10.457603,0.971321,0.086018,-0.148954
5984534628,-106.408058,-2.159037,11.189566,0.997382,0.110698,-0.155613
5984554674,-111.939835,-2.296194,11.832263,0.982780,0.067171,-0.167365
5984574720,-115.840881,-2.098330,12.159469,1.014397,0.010685,-0.189597
5984594766,-118.771545,-1.511654,12.435986,1.007388,0.018857,-0.192668
5984614812,-121.500443,-1.343654,12.893375,0.968474,0.009974,-0.193351
5984634857,-123.706871,-1.130456,13.065385,1.004293,0.004154,-0.222184
5984654903,-125.954239,-0.756603,13.505104,0.982689,0.009594,-0.214653
5984674949,-128.366394,-0.018557,13.274360,1.021563,-0.013141,-0.242330
5984694994,-129.584198,0.500020,13.563715,0.996354,-0.056013,-0.235202
5984715040,-130.172745,0.354107,13.155340,0.986417,-0.052179,-0.219335
5984735087,-130.645935,0.246414,12.782809,0.991249,-0.033300,-0.247862
5984755133,-131.211029,0.452106,12.816013,0.975593,-0.035137,-0.245050
5984775179,-132.177948,0.277111,13.049319,0.974091,-0.004729,-0.230732
5984795224,-133.640488,-0.210273,13.369697,0.964944,-0.008673,-0.241372
5984815270,-134.861572,-0.362713,13.500878,0.978275,-0.015577,-0.246944
5984835316,-136.126633,-0.126281,13.723316,0.988717,-0.039422,-0.261425
5984855362,-136.570694,0.362216,14.097095,0.951826,-0.045585,-0.217485
5984875406,-136.463364,-0.177770,14.555299,0.966905,-0.051155,-0.241698
5984895451,-136.472198,-0.810414,14.511726,0.937976,-0.028111,-0.253498
5984915497,-136.797729,-1.373986,14.710958,0.954446,-0.042658,-0.262560
5984935543,-136.959030,-2.265704,14.701773,0.971840,-0.029801,-0.259701
5984955589,-137.604462,-2.570112,14.959836,0.969820,-0.014577,-0.239902
5984975635,-139.828629,-2.517261,15.002819,0.981529,-0.015345,-0.273053
5984995680,-139.778152,-2.646197,15.262076,0.965826,-0.049818,-0.308767
5985015726,-139.052063,-2.455530,15.239713,0.984386,-0.029981,-0.321189
5985035772,-138.000717,-1.822260,15.431165,0.985069,-0.077832,-0.321848
5985055817,-136.474136,-1.608820,15.278568,0.965405,-0.094553,-0.295068
5985075863,-135.209839,-1.692941,15.009789,0.962203,-0.095013,-0.295376
5985095910,-134.627274,-1.425883,15.081652,1.004485,-0.087534,-0.319712
5985115956,-135.897354,-0.457559,15.424014,0.989569,-0.031850,-0.249651
5985136002,-137.277069,-0.228774,15.648703,0.999686,-0.035121,-0.255900
5985156047,-136.946350,0.128730,15.320153,0.975608,-0.081363,-0.251964
5985196139,-127.632065,0.114205,14.558716,0.953500,-0.185826,-0.248871
5985216184,-122.524818,-0.503686,13.720449,0.963770,-0.176163,-0.246158
5985236230,-117.679741,-1.181904,13.185489,0.979005,-0.159286,-0.231558
5985256274,-113.868958,-1.242434,12.935992,1.001157,-0.113095,-0.211587
5985276320,-112.220909,-0.754740,12.726636,0.988847,-0.051170,-0.216382
5985296366,-111.904747,0.007725,12.847868,1.001384,-0.056526,-0.220309
5985316412,-111.410843,0.479920,12.660957,0.960883,-0.016869,-0.190636
5985336457,-111.110832,0.457375,12.762192,0.991672,-0.037089,-0.230434
5985356503,-110.651886,0.830919,12.759683,0.979120,-0.043133,-0.242555
5985376549,-110.072678,0.777487,12.656926,0.969619,-0.055611,-0.243371
5985396594,-109.079239,0.472872,12.638662,0.959693,-0.072753,-0.257425
5985416640,-107.073158,-0.747457,11.992483,0.937813,-0.125684,-0.282745
5985436686,-104.637703,-1.212111,11.809227,0.997741,-0.118235,-0.286775
5985456732,-104.059692,-0.214091,11.603651,1.023219,-0.047381,-0.263271
5985476779,-104.636086,0.776015,11.405220,0.994481,-0.031645,-0.241021
5985496824,-105.093094,0.661814,11.506166,0.974066,-0.048295,-0.225031
5985516870,-104.686493,0.295332,11.170914,0.972530,-0.071636,-0.201273
5985536916,-103.289932,0.386807,11.021246,1.020481,-0.062980,-0.181499
5985556962,-102.623810,1.926414,11.018478,1.040379,-0.078351,-0.144322
5985577007,-98.373734,1.370141,10.555788,0.905068,-0.321766,-0.224309
5985597053,-85.284142,-0.282968,9.329194,0.910780,-0.502717,-0.232911
5985617097,-67.525467,-0.413074,7.059388,1.061202,-0.628312,-0.076407
5985637143,-48.410702,0.775861,4.896424,0.895220,-0.288329,-0.187341
5985677234,-41.955738,-2.203709,4.253830,1.086924,-0.191571,-0.211739
5985697280,-36.557228,-0.687735,3.379884,1.051128,-0.230361,-0.150425
5985717326,-30.425173,0.814127,2.904390,1.037705,-0.158100,-0.174917
5985737372,-24.692198,1.437366,1.530233,0.975757,-0.106804,-0.182388
5985757417,-18.790052,0.675858,1.104942,0.942068,-0.161126,-0.160573
5985777463,-12.582407,-1.442032,0.708805,0.903811,-0.208258,-0.133517
5985797509,-6.750177,-4.642210,0.308273,0.885836,-0.215933,-0.137827
5985817555,-1.374866,-8.384308,-0.394889,0.858020,-0.130390,-0.149659
5985837602,1.330158,-13.040810,-0.745174,0.847785,-0.029838,-0.177702
5985857648,2.233013,-17.964214,-0.960263,0.855244,-0.000858,-0.206744
5985877693,2.788654,-23.672024,-0.898552,1.066817,-0.010858,-0.327619
5985897739,3.529616,-17.712811,-1.146730,1.102298,-0.045685,-0.400516
5985917785,5.977398,-12.795905,-0.836166,1.095656,-0.121893,-0.379579
5985937830,9.617398,-9.131460,-1.782480,1.018492,-0.102477,-0.396723
5985957876,12.909944,-5.474178,-2.492786,1.028067,-0.054665,-0.375179
5985977920,15.479300,-1.670900,-2.608794,1.028396,-0.049789,-0.396253
5985997966,18.091438,1.575705,-2.876608,0.990473,-0.036332,-0.420593
5986018012,19.547926,2.901530,-3.138528,0.937653,-0.013318,-0.430170
5986038058,20.152422,2.750339,-2.683626,0.923337,0.027630,-0.411748
5986058103,20.186329,0.396095,-2.416637,0.835938,0.090020,-0.348723
5986078149,18.798212,-3.681703,-2.506030,0.905029,0.124407,-0.354406
5986098195,16.740513,-6.950509,-2.019657,0.876149,0.068839,-0.373248
5986118240,15.379383,-9.997046,-1.073770,0.933428,0.003476,-0.342889
5986138286,16.393459,-10.089576,-1.650965,1.035190,-0.038309,-0.340197
5986158332,17.652958,-6.569905,-2.313722,1.076616,-0.073484,-0.252337
5986178377,20.826370,-1.014775,-2.913412,1.176916,-0.092322,-0.131648
5986198425,24.902987,7.728009,-2.723605,1.253668,-0.004783,0.025758
5986218470,22.464901,16.315599,-2.972337,1.075429,0.293148,-0.035242
5986238516,16.740004,20.667503,-2.172725,0.950512,0.147048,-0.294943
5986258562,13.492726,18.990452,-1.989509,0.872762,0.171259,-0.274958
5986278607,11.568565,12.772079,-1.625812,0.988142,0.048605,-0.228246
5986298653,12.054932,11.943192,-0.914194,1.014310,-0.074708,-0.068266
5986318699,14.323941,13.290379,-1.910247,1.175509,-0.167590,-0.045896
5986338745,18.816559,16.848875,-2.635868,1.061990,-0.159529,0.028557
5986358789,22.742006,18.402893,-3.366735,1.013889,-0.058020,0.007604
5986378835,25.861300,19.766748,-3.852083,1.081861,-0.090548,0.025744
5986398880,31.075268,24.506931,-4.473373,1.217114,-0.059856,0.245065
5986418926,29.115284,13.027854,-5.061931,0.301417,0.664578,0.397276
5986438971,-5.385333,3.562784,-1.036932,0.854639,0.908313,0.050563
5986459017,-16.495737,-3.096515,0.843738,0.897476,0.010009,-0.374513
5986479063,-21.078993,-4.744171,0.716556,1.043409,0.040085,-0.204211
5986499109,-22.807112,0.988815,1.777881,1.087578,0.123090,-0.167247
5986519154,-28.315237,0.204030,2.483407,1.042007,0.147609,-0.102059
5986539200,-35.998943,1.216524,2.896583,0.931477,0.195230,-0.089723
5986559247,-43.557907,0.463429,4.352454,0.947229,0.176793,-0.137256
5986579293,-51.585331,-0.556769,5.703682,0.974340,0.162727,-0.192525
5986599339,-58.979652,-0.464426,6.931942,1.007054,0.126943,-0.237777
5986619384,-65.979210,-0.242797,7.999282,0.970617,0.033461,-0.238271
5986639430,-69.075890,-0.478876,8.426947,0.990223,-0.058928,-0.284567
5986659476,-69.376953,-0.408762,9.112644,0.957196,-0.158579,-0.225468
5986679522,-67.256256,-0.745113,8.430731,1.037099,-0.207396,-0.219941
5986699568,-60.279331,1.471800,7.294580,1.000716,-0.386735,-0.208221
5986719612,-50.024364,2.232847,5.671747,1.042915,-0.422239,-0.205613
5986739657,-41.670425,3.215731,4.619966,0.936481,-0.236082,-0.204925
5986759703,-39.525101,1.086845,3.248171,0.930999,-0.079117,-0.282797
5986779749,-38.550896,-0.002191,3.462136,0.927153,-0.080994,-0.312594
5986799795,-36.581249,-1.525127,3.772852,0.956170,-0.190173,-0.291757
5986819840,-32.121037,-2.104718,3.092202,0.990608,-0.232657,-0.216474
5986839886,-24.675533,-1.235205,2.547478,1.026587,-0.292353,-0.152627
5986859931,-16.501087,-0.063325,0.864310,1.063039,-0.319196,-0.134504
5986879977,-7.846023,1.071435,-0.453630,1.041537,-0.275673,-0.094903
5986900045,-1.411718,2.891975,-1.562649,1.035583,-0.153938,-0.029916
5986920069,0.915270,3.493955,-1.861975,0.994015,-0.015323,0.041459
5986940116,-0.024976,2.692601,-2.246059,0.960865,0.032253,0.015620
5986960161,1.749875,2.144542,-2.171694,0.875923,-0.122634,-0.047126
5986980207,9.038507,-0.283130,-1.548538,0.990255,-0.244524,-0.187400
5987000253,19.029099,-0.951381,-1.671399,0.987238,-0.275852,-0.204090
5987020299,28.800877,-0.585922,-2.939674,1.026960,-0.096334,-0.115831
5987040344,36.566978,0.039757,-3.505090,1.043797,-0.060158,-0.043920
5987060390,40.683781,1.206208,-3.787534,1.021750,-0.007439,0.001304
5987080435,41.608299,1.273964,-4.248903,0.981061,0.087543,0.038968
5987100480,38.816444,0.900669,-3.872546,1.000517,0.193747,0.045540
5987120526,34.125759,0.777993,-3.651214,1.015894,0.161161,0.074381
5987140572,31.014448,1.197344,-3.210165,1.047587,0.069500,0.122014
5987160617,28.411621,2.186873,-3.422763,1.030558,0.237077,0.140000
5987180663,15.318924,-0.410587,-1.371963,0.716725,0.903047,-0.036583
5987200709,-8.675611,-4.372865,1.643784,1.050074,0.179368,-0.103430
5987220754,-13.393634,-2.159652,0.268448,1.002091,0.000514,-0.324991
5987240800,-2.198730,-4.183493,0.409465,0.804488,-0.531274,-0.451822
5987260846,5.088842,-4.586277,0.055436,1.172371,0.094201,-0.371714
5987280891,1.765508,-0.434735,-0.367669,0.980585,0.182801,-0.267284
5987300937,-6.592066,-1.617212,0.065890,1.032644,0.117240,-0.398056
5987320984,-11.697625,0.502105,0.944973,0.944635,-0.012793,-0.447447
5987341030,-12.180430,-1.515574,1.801619,0.921042,-0.066725,-0.471646
5987361076,-11.292980,-2.223959,1.855530,0.964833,0.011283,-0.430765
5987381121,-11.066303,-1.715670,0.840768,0.983772,0.010505,-0.370811
5987401167,-7.748509,-2.073006,0.823427,0.948685,-0.112635,-0.320716
5987421213,-2.104147,-3.040050,0.526086,1.005204,-0.206238,-0.259614
5987441258,5.687867,0.131214,0.035748,1.078496,-0.233106,-0.026069
5987461303,8.086653,-0.028434,-0.071399,0.867304,0.254999,0.120332
5987481349,-3.075577,-3.224242,0.087062,0.816319,0.316693,-0.037126
5987501394,-9.030788,-6.909989,1.964781,0.917591,0.139623,-0.195332
5987521440,-12.888291,-8.594640,2.228636,1.075465,0.027318,-0.249035
5987541486,-12.968181,-7.514010,1.577065,1.121981,-0.190027,-0.086250
5987561531,-7.352110,-8.351218,1.402104,0.971176,-0.253918,0.075106
5987581577,-1.291903,-9.976091,0.021439,0.946677,-0.194951,0.053458
5987601623,3.713233,-11.575401,-0.085640,0.925964,-0.134999,0.019398
5987621669,5.975638,-13.115196,-0.498845,0.981999,-0.005713,-0.018991
5987641714,5.804197,-12.361248,-0.704347,1.061698,0.077540,-0.025844
5987661760,4.143826,-9.366067,-0.452857,1.128925,0.078864,-0.001484
5987681807,2.650718,-4.801173,-0.309177,1.177969,0.031203,0.014643
5987701853,3.553941,1.089719,-0.460938,1.256983,-0.092241,0.055803
5987721899,7.025869,10.028400,-1.161741,1.422654,0.020216,0.134401
5987741944,5.231380,25.513731,-1.155550,1.372307,-0.009047,-0.014203
5987761991,12.627002,39.499290,-1.536653,1.186179,-0.344101,-0.485511
5987782036,19.964367,47.788181,-0.285314,0.194217,0.361238,0.151966
5987802082,1.629192,-13.895090,-1.091998,0.679053,0.311945,-0.400883
5987822127,0.772180,12.650190,-0.369033,1.210581,-0.013446,-0.522696
5987842171,1.282331,0.496608,0.364544,0.820557,0.004288,-0.200351
5987862217,-1.895259,2.782260,0.456800,0.745921,0.060729,-0.532779
5987882263,-4.150438,-3.359295,1.117040,0.923147,-0.000445,-0.652076
5987902309,-4.383996,-1.689063,1.673837,0.925945,0.020148,-0.531061
5987922354,-4.858679,-2.052073,2.922171,0.967227,0.055559,-0.344369
5987942400,-4.603086,-1.543993,1.815152,0.984249,-0.154535,-0.224393
5987962445,-0.928184,-2.072148,0.408348,0.885279,-0.204435,-0.064670
5987982492,4.589657,-5.700258,-0.450788,1.003722,-0.161632,0.019115
5988002537,7.027584,-3.600189,1.107261,0.961205,0.323174,0.114896
5988022583,-4.814709,-5.544406,2.092386,0.839865,0.345515,-0.065626
5988042629,-13.240067,-10.218866,1.858797,0.850234,0.121979,-0.188707
5988062676,-16.098801,-14.434563,1.630286,0.980114,-0.088232,-0.177864
5988082721,-14.148772,-16.873495,1.310192,1.133076,-0.212803,-0.114542
5988102767,-8.037312,-15.522751,1.393427,1.030656,-0.319192,-0.000963
5988122813,-2.340626,-15.014567,-0.292944,0.956088,-0.254391,0.025618
5988142859,1.848792,-16.645256,-0.689748,0.892652,-0.085172,-0.019787
5988162904,3.689399,-19.077902,-1.565565,0.919468,0.065925,-0.046548
5988182950,3.096107,-20.196857,-0.931370,1.038049,0.076611,-0.069194
5988202994,1.817858,-9.152536,-0.125701,1.505304,0.102227,-0.221086
5988223040,-0.282413,4.084721,-0.037319,1.279020,0.035722,0.069830
5988243086,-0.913973,11.508146,0.294087,1.091305,0.006154,0.121101
5988263132,-0.080484,13.596352,0.225113,1.141364,-0.031501,0.031439
5988283177,0.233727,20.225233,-0.391445,1.428864,0.066254,-0.023280
5988303223,0.819429,35.414307,-0.247058,1.494996,-0.121612,-0.083465
5988323269,5.238565,51.266754,-0.393226,1.135074,-0.186432,-0.278836
5988343314,4.492165,10.701587,-3.040463,-0.648291,0.030662,0.449289
5988363360,3.586922,1.369016,-1.608725,1.598962,0.044125,-0.699349
5988383406,2.934418,6.491354,-1.085857,0.750377,0.127434,-0.106766
5988403451,-0.186907,2.071481,-0.605579,0.912990,0.025387,-0.437530
5988423499,-1.931205,-0.535275,-0.570695,0.908345,0.077643,-0.516241
5988443544,-4.441315,-2.057331,0.629297,0.783900,0.072303,-0.552509
5988463590,-6.997369,-2.871709,1.376978,0.879337,0.094265,-0.454772
5988483636,-9.733790,-2.628486,1.413983,1.057837,0.062967,-0.397487
5988503681,-11.462190,-0.227607,1.729904,0.988078,-0.024193,-0.187547
5988523727,-11.563317,-2.818773,1.725210,1.000186,-0.082555,-0.173858
5988543773,-9.896101,0.336546,1.636505,1.147820,-0.105650,-0.081656
5988563818,-8.827116,1.694057,1.932184,0.883604,-0.033586,0.094934
5988583863,-9.989096,-2.361239,1.662574,0.788993,-0.015753,-0.189704
5988603908,-11.028484,-5.418204,1.371979,1.057400,0.041522,-0.383192
5988623954,-12.340881,-0.936457,1.787521,1.210926,0.039676,-0.214238
5988644000,-13.923190,2.049350,1.281024,1.120969,-0.045191,-0.029102
5988664046,-12.692118,4.130042,1.212002,0.937248,-0.142129,0.094472
5988684091,-10.967113,0.487598,1.175373,0.881466,-0.120068,0.063342
5988704137,-9.689889,-0.997979,1.247233,0.962882,-0.028878,-0.036419
5988724183,-8.970819,-0.906296,1.263540,1.003860,-0.028696,-0.018781
5988744228,-8.271385,0.115491,1.429962,1.057367,-0.047476,0.017920
5988764274,-7.309784,0.609847,0.890038,0.993367,-0.065752,0.076776
5988784320,-5.758523,0.053867,0.861788,0.997310,-0.081900,0.047414
5988804367,-3.722673,-0.448265,0.992068,0.960864,-0.025982,0.060561
5988824413,-1.943395,-2.033106,0.924611,1.005323,-0.060518,0.042522
5988844459,1.498078,0.261643,0.888400,1.139936,-0.169756,0.097597
5988864504,4.734823,3.178450,-0.345618,1.093478,-0.018873,0.113662
5988884550,5.197377,5.403214,-0.637092,1.103648,0.019144,0.151734
5988904596,6.077957,7.132442,-1.049650,0.961460,-0.059375,0.265218
5988924641,4.292387,0.618032,-0.198604,0.727481,0.101561,-0.369224
5988944686,3.144759,0.005026,-1.488624,1.149386,-0.053916,-0.568699
5988964731,4.463677,5.422942,-1.891402,1.059534,0.023797,-0.324194
5988984777,3.426954,2.206295,-2.028688,0.968566,-0.041882,-0.298569
5989004823,4.709896,4.668796,-1.779047,0.948884,-0.019193,-0.469658
5989024868,4.452454,3.617447,-1.602440,0.919559,-0.014351,-0.537612
5989044914,3.676030,3.304262,-1.823216,0.909939,-0.014431,-0.471090
5989064960,3.986790,1.635139,-1.915387,0.934604,-0.001891,-0.343808
5989085006,6.895992,1.873628,-1.292542,0.950043,-0.028970,-0.287018
5989105051,6.933894,-0.079194,-2.089128,0.906718,0.162611,-0.150340
5989125097,3.095865,-0.747808,-0.782155,0.785159,0.159742,-0.076639
5989165188,-1.625269,-13.740231,0.323173,1.059091,-0.032063,-0.273440
5989185235,-1.735870,-11.735581,0.479116,1.298202,0.064876,-0.234649
5989205281,-1.636511,-3.725595,0.618633,1.305452,0.053589,-0.087695
5989225327,-2.542534,-0.235225,0.708649,1.050635,-0.064975,0.057189
5989245372,-1.844720,-0.900719,-0.425969,0.891365,-0.062547,0.122174
5989285464,-0.141692,-10.183084,-0.634431,0.836634,-0.029331,0.069856
5989305510,-0.828335,-12.668297,-0.887926,0.924264,0.014585,0.035428
5989325554,-1.388596,-13.932705,-0.536621,0.985594,0.042536,0.048951
5989345600,-2.255584,-13.710354,0.136627,1.019475,0.065265,0.064584
5989365645,-3.315704,-13.594003,1.127275,1.066707,0.054433,0.074055
5989385691,-4.963193,-13.478625,1.770175,1.072000,0.102198,0.071888
5989405737,-7.037330,-12.754529,2.052537,1.071119,0.151421,0.076633
5989425783,-9.808572,-10.681993,2.214033,1.126423,-0.089950,0.122296
5989445828,-6.855907,-5.605882,2.109273,1.265769,-0.106293,0.128753
5989465874,-6.330597,5.957667,-0.117231,1.259257,-0.219657,-0.185946
5989485920,3.445880,17.652515,0.594029,1.185442,-0.207270,-0.584310
5989505966,-1.630176,27.878746,0.704329,1.644600,0.122529,-0.589327
5989526011,-1.673415,55.621742,-1.396896,1.811541,0.133433,-0.371603
5989546058,-5.345204,29.770363,-1.430620,-0.836362,-0.160057,0.739034
5989566104,-1.438698,4.791883,-0.582704,0.978203,0.022364,-0.608118
5989586150,-0.548267,-1.180775,0.245179,0.821820,-0.006757,-0.639354
5989606195,-0.665363,1.996561,-0.000012,0.990246,0.078725,-0.746399
5989626241,-1.607803,-1.318796,0.006389,0.831671,-0.036581,-0.534988
5989646287,-1.280162,-3.602972,0.871119,0.828123,0.021284,-0.423730
5989666332,-2.096045,-3.816271,1.002283,0.920566,-0.065592,-0.239250
5989686378,-1.036083,-5.374869,-0.793554,0.909822,-0.013664,0.072032
5989706422,-1.144108,-8.003050,-0.331862,0.736094,-0.084182,0.208917
5989726468,-1.977610,-16.555286,-0.883250,0.587266,0.002131,0.061892
5989746514,-0.687204,-20.502502,-0.841658,1.345684,-0.083575,-0.473140
5989766560,-0.652296,-11.661350,-0.489697,1.325757,-0.006476,-0.274670
5989786606,-0.957156,-8.676117,-1.387769,1.287818,0.031389,-0.074739
5989806651,1.009135,-6.578838,-0.966777,1.067134,0.036360,0.090781
5989826697,0.136288,-4.451171,-0.261552,0.910259,0.023904,0.121889
5989846743,1.691224,-6.186834,0.378860,0.886282,0.072501,-0.003872
5989866788,0.889736,-6.886955,0.901079,0.984284,0.069408,-0.033679
5989886834,0.084723,-4.744157,1.551448,1.047730,0.023924,-0.033596
5989906880,-0.882768,-1.573898,1.636081,1.117590,0.021445,-0.000651
5989926927,-1.353494,2.372749,1.257645,1.162751,-0.028796,0.051767
5989946973,-0.708604,6.517735,0.833976,1.247927,-0.040586,0.053421
5989967018,-1.038637,11.562144,0.586701,1.370604,0.043767,0.224120
5989987064,-3.399062,23.451500,1.135464,1.309478,-0.041073,0.140154
5990007110,2.864971,30.496616,1.846303,0.951101,-0.192670,-0.206789
5990027155,1.004139,23.474125,-2.724928,-0.102034,0.042903,0.125956
5990047201,4.066650,-8.540524,-2.639563,1.342599,-0.185588,-0.541546
5990067246,6.342916,7.654997,-2.485482,0.859864,-0.074886,-0.145334
5990087291,5.899467,4.021965,-1.509601,1.069648,0.198279,-0.334188
5990107337,4.133971,2.956720,-0.585388,0.857962,0.062949,-0.344969
5990127383,1.766934,0.981841,-0.762127,0.833923,0.045100,-0.439301
5990147429,0.998486,-0.192397,-0.934343,0.968466,0.012056,-0.407499
5990167474,1.520464,-1.098811,-0.788625,0.860274,0.038353,-0.053300
5990207566,-0.534847,-7.407821,-0.062933,0.795663,-0.000695,-0.115768
5990227611,0.768235,-9.692155,0.622401,1.216348,-0.013127,-0.449084
5990247657,0.083515,-3.766251,-0.667805,1.283835,0.063349,-0.367391
5990267703,0.547925,2.269914,-0.567008,1.283795,-0.011828,-0.126251
5990287750,1.566974,6.370206,-0.592791,1.019316,-0.039130,0.088544
5990307795,2.864946,6.126465,-0.685939,0.876871,-0.076148,0.263874
5990327841,4.546045,4.442691,-0.682388,0.969368,0.113742,0.152323
5990347887,1.110068,3.379183,-2.079333,0.925255,0.095297,0.098004
5990367932,-2.313264,2.148003,-0.228349,1.015874,-0.053229,0.040605
5990387978,-2.781027,3.092623,-0.337039,1.063998,-0.006944,0.144828
5990408024,1.632361,5.321148,0.525085,1.042322,-0.077897,0.270225
5990428069,-6.252187,-2.111994,0.274903,0.443214,0.615467,-0.337997
5990448114,-14.856085,-9.164394,-0.023719,1.089586,-0.334606,-0.594174
5990468159,-10.115834,-4.650921,0.228422,0.998958,-0.020879,-0.434743
5990488205,-8.263226,-4.810153,0.361116,1.232764,-0.033603,-0.310712
5990508251,-8.024776,1.272116,0.649539,1.040921,-0.046043,-0.293350
5990528297,-7.201582,2.898111,1.720880,0.972739,-0.032044,-0.294662
5990548342,-9.005974,0.923966,1.793031,0.944266,0.011422,-0.125312
5990568388,-12.782120,0.403901,1.440114,0.959948,0.101759,-0.033772
5990588434,-13.709319,-3.231513,1.454926,0.640789,-0.114375,-0.018439
5990608479,-12.771270,-11.149102,1.600629,0.883749,-0.067013,-0.293177
5990628525,-10.565644,-7.047311,2.079077,1.374493,-0.061088,-0.435814
5990648571,-7.910629,0.094892,2.355287,1.176621,-0.076474,-0.068579
5990668618,-5.316401,2.409487,1.128100,1.022080,-0.121613,0.050689
5990688664,-3.992491,1.196376,0.388153,0.913695,-0.053882,0.168710
5990708709,-2.850541,-0.701422,0.181277,1.016429,-0.052670,0.099327
5990728755,-2.202903,1.852262,0.389451,1.158194,-0.090175,0.019358
5990748801,-1.600156,5.746249,0.181397,1.132254,-0.066259,0.035465
5990768847,-0.352869,5.365697,0.250159,0.985498,0.149907,0.167148
5990788892,-4.984425,6.874516,0.724721,1.124265,0.206360,0.288236
5990808938,-3.596620,5.681977,2.252976,0.738622,-0.455985,0.519768
5990828982,3.838070,-2.827574,2.710151,0.709244,0.355472,-0.089377
5990849028,-7.288543,-7.160450,-1.048358,0.913791,-0.024796,-0.835519
5990869074,1.541317,-1.515895,3.346384,1.216974,-0.176333,-0.659155
5990889119,4.071012,-2.491078,-0.069336,0.876358,-0.172655,-0.143729
5990909165,7.531081,-0.611361,-1.602250,1.140373,-0.070255,-0.227830
5990929211,9.351785,0.645617,-2.016196,1.071169,-0.074771,-0.255510
5990949256,10.887025,2.169890,-2.158041,0.871172,-0.118660,-0.163610
5990969302,10.297449,0.248306,-2.560483,0.823055,0.149723,-0.063289
5990989348,6.964774,-6.330799,-3.123435,0.744088,0.045088,-0.111152
5991009394,6.232275,-6.236380,-1.772282,1.312890,0.063312,-0.308608
5991029440,6.621572,2.093660,-1.677664,1.279510,0.091787,-0.124262
5991049487,7.594177,6.584487,-0.901493,1.055850,0.079980,-0.030650
5991069533,7.551069,4.685387,-1.528575,0.898734,0.084941,0.076233
5991089578,7.102049,1.196415,-0.866365,0.812167,0.057351,0.134218
5991109624,5.973450,-1.950697,-0.589461,0.994866,0.045130,-0.035907
5991149715,0.977810,1.912095,-0.459536,1.098218,0.091646,-0.001526
5991169761,-1.213311,5.631647,0.013802,1.174967,0.047473,0.113524
5991189806,-5.662569,8.411963,-0.046667,1.239082,0.019399,0.393343
5991209851,-4.476880,8.994476,1.235075,0.415795,0.035006,0.276635
5991229896,-14.180509,-16.564873,2.929768,1.013530,0.210398,-0.797033
5991249942,-14.015935,7.351957,0.615647,1.029359,0.058914,-0.610503
5991269988,-16.570503,-2.629491,1.768250,0.641544,-0.068521,-0.276790
5991290033,-15.636243,-6.104917,1.547731,1.320629,-0.055557,-0.453424
5991310079,-13.215525,0.467044,2.418777,0.778539,-0.173733,-0.002353
5991330125,-11.284641,-4.989057,2.414758,0.893865,-0.074824,-0.085820
5991350170,-14.702488,-7.476202,1.648799,0.705727,0.072651,-0.080133
5991370216,-18.693584,-13.123933,1.852026,0.943429,-0.083786,-0.258401
5991390262,-18.123957,-11.193354,2.843217,1.338025,0.016076,-0.237789
5991410308,-17.546167,-5.546958,2.461701,1.257010,-0.069779,-0.053167
5991430355,-15.741601,2.829283,2.597476,1.385145,-0.163621,-0.084245
5991450400,-10.844830,7.737540,2.188101,0.873969,-0.179947,0.214804
5991470446,-6.237802,1.426704,1.370853,0.907352,-0.198559,0.104153
5991490492,-0.853275,1.480732,1.044589,0.966478,-0.155952,0.020739
5991510538,1.585619,1.388930,0.615497,0.953676,-0.073836,0.117408
5991530583,3.281683,-1.438925,0.217570,1.113889,-0.026403,-0.151925
5991550629,3.849190,6.361697,-1.233080,1.068714,0.033527,0.082316
5991570673,1.007635,6.742305,-1.095153,1.049481,0.133333,0.416357
5991590719,-1.831183,8.869319,-0.443475,1.044731,-0.014021,0.275978
5991610765,1.228344,5.583265,1.854023,0.655661,0.015719,-0.132834
5991630811,-0.253340,-6.682325,-2.707111,0.940656,-0.386086,-0.828115
5991650856,13.630545,4.821649,0.637798,1.261029,0.107947,-0.596380
5991670902,9.236787,1.203815,-1.205829,0.859202,0.118029,-0.061674
5991710993,3.571769,4.141163,0.842887,0.823330,0.080542,0.068630
5991731039,2.393317,-0.811506,1.386578,0.804630,0.041842,-0.092843
5991751084,1.219245,-4.212034,0.847573,0.890233,-0.002538,-0.260080
5991771130,1.061439,-4.618572,-0.256022,1.100705,-0.127596,-0.315385
5991791176,5.769538,-0.971368,-2.178187,1.173399,-0.270701,-0.222887
5991811223,12.308872,2.793116,-3.043548,1.219615,-0.271916,-0.228030
5991831269,17.921711,6.169534,-3.545774,0.993481,-0.071654,-0.073090
5991851315,19.809364,3.265584,-3.916600,0.770990,0.083562,-0.033334
5991871361,18.788767,-2.192321,-4.352395,0.904088,0.200517,-0.112958
5991891406,16.544260,-2.107666,-3.743657,0.917983,0.215603,-0.028797
5991911452,12.466267,-4.230227,-1.701249,0.887452,0.246690,-0.018343
5991931498,7.156741,-4.648215,-0.595800,0.936849,0.286306,0.017060
5991951542,1.283789,-6.559633,0.693665,0.992743,0.209689,0.011968
5991971588,-3.933803,-6.195655,0.510963,1.073146,0.132249,-0.015963
5991991633,-6.122179,-3.594945,1.599289,1.087362,0.016011,0.038272
5992011679,-6.764896,-3.823787,1.581956,1.047230,-0.015829,0.019946
5992031725,-6.039923,0.228262,0.515161,1.163436,-0.111570,0.005324
5992051770,-4.097541,1.958640,0.471710,1.209051,-0.128175,-0.008407
5992071816,-1.055917,6.418156,0.657652,1.061983,-0.188692,0.050665
5992091862,0.581589,5.966186,-0.526477,0.937517,0.031650,0.002857
5992111908,-0.326014,4.312622,-0.342890,0.851040,0.019343,0.008255
5992131954,-0.706745,0.807369,-0.132796,1.013161,0.034865,-0.146950
5992151999,-0.973269,1.913378,0.311898,0.886107,0.033081,-0.020507
5992172046,-2.275297,-1.675445,0.738824,0.899497,0.072953,-0.068641
5992192092,-4.259244,-3.818758,0.188424,0.955279,0.063650,-0.129036
5992212137,-5.438238,-3.855389,0.952644,1.010127,0.015579,-0.144325
5992232183,-6.008254,-4.236114,1.156008,1.011142,0.011646,-0.105120
5992252229,-5.640292,-1.629736,1.117267,1.106580,-0.057752,-0.124787
5992272274,-4.933873,-0.654747,0.825221,1.031361,-0.096795,-0.071243
5992292320,-2.357459,-0.129279,0.368482,1.019155,-0.122549,-0.066181
5992312366,-0.963031,-0.496293,-0.306878,0.995188,-0.009994,-0.085386
5992332410,-0.421918,0.015180,0.001861,0.999461,0.013691,-0.070429
5992352456,-1.104583,-0.587292,-0.097509,1.019675,0.027146,-0.092401
5992372502,-1.278743,1.502838,0.770038,1.017258,0.045272,-0.025487
5992392548,-1.968641,1.236704,1.105251,1.019749,-0.005334,-0.041876
5992412593,0.533116,2.075811,1.160894,1.036202,-0.122457,0.024396
5992432639,5.988440,2.295779,0.091482,1.003974,-0.176719,0.026761
5992452685,10.959941,1.502828,-0.636586,0.915183,-0.107430,0.030701
5992472730,14.486610,-1.072646,-0.864556,0.944402,-0.032490,-0.057612
5992492776,15.371762,-1.432778,-1.797506,0.947883,0.028517,-0.028996
5992512822,16.860544,-2.657551,-1.027607,1.049152,-0.015037,-0.101276
5992532867,18.599749,-0.623974,-1.748214,1.037372,0.040388,-0.078291
5992552915,20.539091,0.754482,-2.371185,1.064879,-0.021208,-0.105709
5992572960,23.203138,2.194871,-2.664559,1.003153,0.044651,-0.056745
5992593006,24.424820,0.038428,-2.681085,0.927490,0.067941,-0.149357
5992613052,24.320318,-0.059343,-2.113265,0.979348,0.095732,-0.114884
5992633097,24.037159,-1.056724,-1.668887,1.008862,0.075058,-0.101010
5992653143,24.420216,0.146498,-2.092964,1.037143,0.048639,-0.041354
5992673189,25.271282,0.467087,-1.972999,1.016888,0.109365,0.002554
5992693234,19.573561,3.498257,-2.162906,1.177243,0.591957,0.380102
5992713279,3.562389,7.629066,-0.223063,1.076232,0.304493,0.625585
5992733325,0.876286,3.635972,0.209142,0.762167,-0.181774,0.355694
5992753370,7.396692,-0.372763,-0.584124,0.836373,-0.005431,0.159509
5992773416,8.357004,-2.735209,-0.671308,0.997884,-0.080829,0.243300
5992793462,12.259684,-0.662991,-1.411099,1.286540,-0.123707,0.401849
5992813507,16.370518,3.658495,-1.711573,1.221385,-0.217438,0.282745
5992833553,19.409765,5.320046,-1.982398,1.160174,-0.032646,0.089399
5992853599,17.672243,7.781694,-1.750559,1.076292,0.105374,0.115746
5992873644,14.227562,5.977206,-0.638473,0.870036,0.068491,0.161808
5992893690,12.704795,2.677032,-0.590297,0.878863,-0.007946,0.038690
5992913736,14.468742,1.152153,-1.085576,0.956358,-0.036749,-0.058354
5992933783,16.407873,1.304700,-1.253616,0.993940,0.020008,-0.043021
5992953829,16.738052,0.968684,-1.587487,0.929386,-0.031588,-0.049732
5992973874,18.743923,-0.044933,-1.829354,0.921138,-0.089863,-0.020718
5992993920,20.423000,-1.888996,-1.932210,0.922187,-0.020410,0.053949
5993013966,19.942785,-2.863344,-1.392388,1.014974,0.105483,0.177521
5993034011,15.134986,-2.375748,-0.903364,1.065992,0.365261,0.269085
5993054057,5.796486,-1.585112,-0.663659,1.024461,0.325198,0.127249
5993074101,2.341522,-2.059363,-1.015319,0.899431,0.114246,0.134542
5993094147,3.176581,-4.808874,-0.403412,0.947488,-0.151176,0.322890
5993114193,8.822803,-3.877220,-0.240981,1.247404,-0.142646,0.320666
5993134239,11.155528,2.043508,-0.833218,1.257515,0.056600,0.321797
5993154284,9.519402,5.060735,-0.933778,1.121650,0.054392,0.212643
5993174330,7.521636,5.198074,-0.635661,1.013665,0.060340,0.114801
5993194376,5.635686,4.245363,-0.458348,0.999962,0.078770,0.052640
5993214421,4.213727,3.323937,0.007875,0.934694,0.086370,0.031046
5993254513,2.005402,0.008673,0.199309,0.942433,0.043805,-0.021576
5993274558,1.017738,-0.761419,0.152264,0.947849,0.046926,-0.010235
5993294605,-0.442811,-1.478146,0.167708,0.963403,0.048327,0.049592
5993314651,-1.720448,-2.149178,0.148885,0.960645,0.015498,0.163256
5993334697,-0.104804,-3.070500,0.311638,0.958903,-0.162991,0.059551
5993354742,0.905569,-4.601771,0.427035,0.961887,0.135868,-0.142340
5993374788,-1.537343,-3.552314,-0.247352,1.054535,0.003905,-0.042121
5993394834,-2.016670,-2.743388,0.278874,0.990439,0.021429,0.096470
5993414880,-2.962252,-3.505349,0.444947,1.059497,-0.017729,0.171974
5993434925,-2.119098,-1.736932,0.499113,1.103169,-0.014909,0.187292
5993454969,-1.520060,0.022878,0.160690,1.092557,0.000606,0.172832
5993475016,-1.156810,1.150299,-0.086997,1.081107,-0.010996,0.102331
5993495061,-0.256123,1.912375,-0.198709,1.003291,-0.033195,0.062482
5993515107,0.668628,1.287703,-0.199290,0.992133,-0.038003,0.027368
5993535153,1.264475,0.960119,-0.217403,0.991098,-0.003758,-0.001266
5993555198,1.493002,0.579053,-0.251135,0.971528,-0.000456,-0.021726
5993615336,1.841253,-1.287293,0.046338,0.965185,0.016468,-0.066581
5993635381,1.715378,-1.524016,-0.141468,0.996594,0.016743,-0.091536
5993655427,1.172989,-1.272630,-0.124139,1.010040,0.015690,-0.080870
5993675474,0.893568,-1.150328,0.064271,1.005021,0.008083,-0.056807
5993695520,0.756029,-1.081771,0.066712,1.011016,0.004409,-0.029670
5993715565,0.808383,-0.921881,-0.003610,1.013882,-0.004656,-0.013817
5993735611,0.835049,-0.762355,-0.226260,1.022400,0.000089,-0.012246
5993755657,0.784162,-0.289566,-0.096942,1.018147,0.000650,-0.000373
5993775703,0.883728,-0.175212,-0.091613,1.006512,-0.001355,0.007363
5993795748,0.934427,-0.015538,-0.253599,1.013176,-0.002710,0.007070
5993835838,0.268899,0.441461,-0.288055,1.015672,0.017957,0.014800
5993855884,-0.166212,0.685286,-0.257500,1.010786,0.005135,0.021350
5993875930,-0.463014,0.761590,-0.183222,1.001834,-0.000255,0.016156
5993895975,-0.256242,0.746448,-0.164259,1.007069,0.005314,0.022865
5993916021,-0.411736,0.730832,-0.306377,1.000479,0.010150,0.037040
5993936067,-0.328036,0.555534,-0.322701,1.005342,-0.008856,0.036989
5993956112,0.269659,0.563485,-0.250269,1.016252,-0.021516,0.018941
5993976158,0.530114,0.860812,-0.233389,1.005821,-0.012626,0.013657
5993996204,1.138987,0.677724,-0.382140,0.988274,-0.016482,0.008062
5994016249,1.973328,-0.068724,-0.304147,0.975666,-0.003672,0.008710
5994036297,1.997342,-0.442966,-0.654874,0.992631,0.005159,-0.001761
5994056342,2.251196,-0.732272,-0.559498,0.995248,-0.009349,-0.028652
5994076388,2.550303,-0.876859,-0.503689,0.993016,-0.015551,-0.036047
5994096434,2.970723,-1.044407,-0.503647,0.997164,-0.002275,-0.042948
5994116489,3.019207,-1.036435,-0.359427,0.994782,-0.001660,-0.052985
5994136525,2.963761,-1.539642,-0.448373,0.990911,0.009150,-0.059019
5994156571,2.517729,-1.615306,-0.164374,0.993775,0.017692,-0.066526
5994176616,2.421520,-1.989307,-0.398147,0.975935,0.020328,-0.053245
5994196661,2.505209,-2.079791,0.005527,0.989605,-0.011507,-0.061776
5994216706,2.560734,-2.399570,0.127777,1.006999,0.007693,-0.073089
5994236752,2.172587,-1.775565,-0.218275,1.012885,0.024745,-0.055335
5994256798,1.562488,-1.806006,-0.129921,0.988494,0.014089,-0.041557
5994276844,1.407400,-1.356730,-0.265953,1.015060,-0.000291,-0.067494
5994296889,1.373012,-1.173352,-0.059577,0.997475,-0.002851,-0.060473
5994316935,1.181841,-1.089583,-0.063788,0.987550,0.009428,-0.053152
5994336981,1.111738,-1.455545,-0.122341,0.992171,0.003063,-0.055581
5994357026,1.057088,-1.531909,-0.182158,1.004236,-0.000658,-0.060228
5994377072,0.836515,-1.089839,-0.133501,1.005331,0.010262,-0.059630
5994397118,0.507801,-0.945133,-0.135246,1.004903,0.014523,-0.067527
5994417165,-0.083733,-0.892312,-0.292055,1.005282,0.023995,-0.061376
5994437211,-1.025615,-0.495501,0.038199,1.016246,0.018089,-0.066456
5994457257,-1.684789,0.221415,0.346620,1.021202,0.023922,-0.064825
5994477302,-2.740271,0.419216,0.320594,0.991505,0.036450,-0.054899
5994497348,-3.871587,0.220820,0.343206,1.000053,0.030983,-0.067018
5994517394,-4.463547,0.594631,0.575050,1.004808,0.017169,-0.062719
5994537439,-4.878820,0.738996,0.437440,1.001808,0.016430,-0.066842
5994557484,-5.003664,1.096793,0.285843,0.996377,0.006436,-0.055113
5994577529,-4.461065,0.251047,0.301054,0.981355,-0.027453,-0.069144
5994597575,-3.424616,0.250884,0.112831,0.986307,-0.032126,-0.092732
5994617620,-2.004620,-0.457705,0.018863,0.987708,-0.008557,-0.089618
5994637666,-2.096695,-0.358707,-0.002604,1.018546,0.023701,-0.084660
5994657712,-2.787665,-0.091557,0.254441,0.985334,0.031844,-0.082201
5994677758,-4.227625,-0.800962,0.139556,0.963952,0.060065,-0.105213
5994697803,-5.901452,-1.097530,0.608585,0.994416,0.028882,-0.119206
5994717849,-5.875484,-1.089510,0.776167,0.995707,-0.006126,-0.111000
5994737895,-5.149346,-0.799772,0.753470,0.994339,-0.000843,-0.105720
5994757940,-4.216118,-0.692781,0.773213,0.992047,-0.000227,-0.115849
5994777988,-3.077173,-0.997328,0.767409,0.991896,-0.007065,-0.124278
5994798033,-2.214728,-0.280985,0.656592,0.986151,-0.003763,-0.104123
5994818079,-1.764428,-0.936318,0.634753,1.014396,0.004634,-0.112244
5994838125,-1.893860,-0.059943,0.634347,1.012185,0.003628,-0.113294
5994858170,-2.468546,0.069287,0.561012,1.006911,0.029123,-0.095908
5994878216,-3.116384,0.389436,0.664215,0.988727,-0.000383,-0.098091
5994898262,-3.203017,0.259539,0.528782,0.988605,-0.013049,-0.110232
5994918306,-3.014724,-0.274205,0.389359,0.969619,-0.020900,-0.109986
5994938352,-2.099425,-0.205663,0.264390,0.991040,-0.020318,-0.107447
