Timestamp (us),Gyroscope X (deg/s),Gyroscope Y (deg/s),Gyroscope Z (deg/s),Accelerometer X (g),Accelerometer Y (g),Accelerometer Z (g)
5322878956,-0.547163,1.194916,-0.190150,0.964833,0.217881,0.187727
5322898917,-0.861411,0.694102,-0.137315,0.957321,0.211228,0.181233
5322918878,-0.493431,1.148824,-0.334103,0.961825,0.199585,0.177682
5322938839,0.158714,2.089062,-0.674876,0.961181,0.195542,0.186751
5322958800,0.020555,1.998612,-0.493052,0.957677,0.203888,0.183090
5322978761,-0.327038,1.224925,-0.045269,0.957017,0.212094,0.178117
5322998722,-0.466633,0.883702,0.227998,0.960318,0.206805,0.179266
5323018683,-0.862634,0.877498,0.295004,0.957637,0.208243,0.182472
5323038645,-1.532386,1.032083,0.467116,0.957564,0.205741,0.185425
5323058606,-2.089098,1.087752,0.791538,0.957331,0.200382,0.185509
5323078566,-1.643015,0.584759,0.968320,0.958367,0.198496,0.187835
5323098528,-1.187947,0.538247,1.250701,0.959623,0.197584,0.188511
5323118489,-1.470050,0.516546,1.356053,0.959602,0.198428,0.190227
5323138451,-1.650193,0.995999,1.240900,0.956068,0.200831,0.190487
5323158412,-1.840038,1.004056,1.164367,0.954323,0.200038,0.190923
5323178373,-1.779768,0.661290,0.990522,0.957776,0.197625,0.190024
5323198334,-1.529872,0.485796,1.097862,0.959389,0.196166,0.190806
5323218295,-1.133609,0.598545,1.068645,0.961460,0.195889,0.192032
5323238257,-1.231520,0.590792,0.840651,0.958289,0.196825,0.191595
5323258217,-1.199143,0.719343,0.529400,0.954610,0.198465,0.189224
5323278179,-1.114420,0.886227,0.453536,0.956892,0.196684,0.193393
5323298140,-1.078677,0.567153,0.674224,0.957626,0.198412,0.194015
5323318101,-1.178611,0.308889,0.666690,0.960477,0.197625,0.191895
5323338062,-1.106852,0.825272,0.408116,0.957788,0.195038,0.193345
5323358023,-1.532098,0.856725,0.247286,0.953586,0.190866,0.197252
5323377988,-1.183671,0.467765,0.249019,0.954487,0.192251,0.193148
5323397944,-0.220177,0.016449,0.472970,0.958192,0.189958,0.188154
5323417905,0.265574,-0.045509,0.687171,0.954221,0.194916,0.188728
5323437866,-0.463490,-0.051419,0.373605,0.958661,0.199197,0.192473
5323457827,-2.076393,-0.191108,0.201517,0.963500,0.198024,0.196497
5323477788,-2.359633,-0.364673,0.420933,0.956712,0.194381,0.197434
5323497749,-1.701467,-1.020286,0.674538,0.954081,0.185876,0.192061
5323517710,-0.627228,-0.902430,0.480588,0.955635,0.183380,0.190309
5323537671,0.244248,-0.305142,0.125873,0.959679,0.185769,0.194897
5323557633,0.675215,-0.282444,0.749594,0.962833,0.192020,0.189480
5323577593,0.471588,1.352031,0.139326,0.954183,0.173046,0.178796
5323597554,-1.751860,1.818690,-5.773281,0.956282,0.146375,0.196391
5323617515,-0.292922,2.380401,-11.514483,0.971317,0.201851,0.221346
5323637476,1.274192,4.226877,-9.789268,0.935199,0.263119,0.220682
5323657437,-1.377646,3.413421,-6.320865,0.913989,0.235209,0.199169
5323677398,-4.251990,0.297278,-6.173919,0.921227,0.188333,0.224929
5323697359,-8.486190,1.196179,-4.587889,0.969741,0.184514,0.240633
5323717320,-12.525598,6.374118,-0.184349,1.003752,0.201660,0.231233
5323737282,-19.103458,12.076927,4.035460,0.993587,0.228211,0.249461
5323757244,-29.116793,18.814175,6.671364,0.974393,0.248257,0.270271
5323777205,-40.113605,28.970289,6.096176,0.975831,0.262947,0.312401
5323797166,-47.645386,38.607803,2.747899,1.007828,0.240990,0.325459
5323817127,-49.637409,51.903008,4.254508,1.020677,0.150198,0.323357
5323837088,-51.385902,65.795044,7.954369,0.950663,0.137295,0.386118
5323857049,-55.469624,70.103996,11.288953,0.924508,0.146154,0.370377
5323877011,-52.165340,69.344223,16.864046,0.931906,0.117705,0.369613
5323896972,-47.599785,64.646599,17.652685,0.895483,0.121485,0.409679
5323916933,-39.733955,54.541943,12.396372,0.889612,0.111925,0.379586
5323936894,-28.663811,44.039742,14.937976,0.925219,0.047561,0.354613
5323956855,-12.553384,43.101791,20.327974,0.905365,-0.010209,0.349731
5323976816,7.282951,39.410320,23.814278,0.857839,-0.041066,0.331881
5323996775,30.922001,31.231091,25.361786,0.844267,-0.019041,0.311602
5324016737,47.640350,22.134491,28.656130,0.881528,0.057953,0.331877
5324036698,48.886868,17.752903,30.055660,0.891792,0.144086,0.348776
5324056659,38.158104,10.163484,28.293573,0.862079,0.227417,0.369540
5324076620,16.318480,3.837811,24.679008,0.893437,0.227349,0.405813
5324096581,-3.865966,2.595181,21.381073,0.926865,0.173679,0.408216
5324116542,-13.768330,2.799192,23.890499,0.890284,0.090397,0.387327
5324136503,-6.826445,0.915231,28.356062,0.889617,0.011236,0.394075
5324156464,11.613784,-1.028857,32.533363,0.904755,-0.046413,0.409776
5324176425,34.454048,-1.700362,37.406353,0.891979,-0.037986,0.405124
5324196386,48.255211,-0.971780,43.431332,0.941905,0.058792,0.463280
5324216347,38.599667,5.707534,44.307762,0.962456,0.196259,0.498195
5324236308,11.096953,15.764112,32.362362,0.886453,0.293809,0.501213
5324256269,-27.825209,8.833803,14.894701,0.867477,0.359404,0.485312
5324276230,-48.284973,-25.163385,-3.974200,0.834707,0.329394,0.293153
5324296191,-25.927540,-39.856018,-32.573917,0.827345,0.088597,0.206993
5324316152,-25.565248,-29.328510,-45.915462,1.016563,-0.101860,0.489227
5324336113,-9.582708,-9.907883,-44.388966,1.013299,-0.037389,0.469808
5324356075,45.657711,-13.649628,-47.449097,0.914101,0.237840,0.379430
5324376037,25.275526,-28.132092,-50.894859,0.974293,0.272978,0.344626
5324395998,0.816988,-32.673611,-52.608215,0.909534,0.165941,0.214609
5324415959,-4.005530,-31.318010,-51.753395,0.926942,0.173067,0.223189
5324435920,-18.957802,-28.654177,-59.289944,0.905194,0.293486,0.262069
5324455881,-45.833427,-36.803738,-66.462677,0.930470,0.327672,0.261791
5324475842,-68.946907,-45.445107,-66.442657,0.976512,0.254387,0.212203
5324495803,-69.803635,-49.715286,-65.923027,0.954525,0.201542,0.206929
5324515764,-63.646015,-53.766109,-69.956963,0.940473,0.200225,0.218804
5324535725,-62.535534,-60.777786,-79.459946,0.962662,0.227353,0.181249
5324555686,-58.099239,-65.436073,-81.995941,0.973217,0.266188,0.165235
5324575647,-58.034821,-64.405952,-80.183403,0.956452,0.317167,0.183306
5324595608,-63.643826,-66.492783,-86.809196,0.903371,0.376582,0.155771
5324615568,-69.386497,-76.695374,-98.060432,0.930556,0.391927,0.074245
5324635529,-68.669434,-82.808640,-103.915543,0.958170,0.390027,0.044641
5324655490,-76.394409,-86.120956,-103.139236,0.965224,0.406505,0.051330
5324675451,-83.641754,-93.533722,-102.302094,0.967169,0.421129,0.008418
5324695412,-89.430176,-105.118523,-101.400764,0.969347,0.437723,-0.036434
5324715373,-94.760460,-119.284843,-101.488289,1.025872,0.429482,-0.050287
5324735335,-99.495827,-117.110779,-105.673767,0.986219,0.379066,-0.032432
5324755296,-111.253464,-107.123299,-93.053238,1.061162,0.607535,0.122646
5324775270,-142.731873,-102.890816,-84.314323,1.067974,0.670707,0.208063
5324795218,-176.956909,-84.754837,-86.594742,1.017569,0.457745,0.130128
5324815179,-181.199585,-66.203911,-80.762291,0.953450,0.108286,0.132036
5324835140,-152.288651,-48.447735,-65.818031,0.929815,-0.131561,0.142998
5324855101,-106.104950,-24.536919,-33.742146,0.918814,-0.167203,0.209309
5324875062,-78.339264,-6.744112,8.808542,0.891863,-0.068277,0.335136
5324895024,-64.848267,5.738509,46.644913,0.871395,-0.037644,0.345460
5324914985,-62.349716,16.021160,88.622429,0.875271,0.007662,0.487756
5324934946,-86.957581,36.707592,125.508568,0.965010,0.143876,0.523231
5324954907,-97.909157,55.951958,136.478622,0.959868,0.247707,0.365447
5324974868,-76.393394,58.406090,124.213257,0.863649,0.250977,0.272202
5324994830,-60.830669,46.371140,112.982040,0.893721,0.177179,0.213498
5325014792,-18.648439,50.060863,135.163162,1.061772,0.043903,0.126244
5325034753,32.595196,53.209869,163.757736,1.115692,0.086889,0.138822
5325054714,66.373741,38.408688,163.474060,1.057160,0.391370,0.269081
5325074674,35.931347,20.633026,113.886711,1.026255,0.848630,0.417104
5325094635,-68.775650,8.249640,52.472031,0.925713,1.150332,0.476611
5325114596,-203.015335,-19.605049,-0.608056,0.933338,1.056825,0.322203
5325134557,-258.542053,-55.739693,-48.801285,1.073545,0.823963,-0.062067
5325154518,-181.655518,-95.505775,-115.403595,1.038160,0.676075,-0.354332
5325174479,-90.061523,-89.510849,-157.671295,1.161878,0.358133,0.021854
5325194440,-93.989098,-45.890953,-138.487549,1.239976,-0.160387,0.318625
5325214402,-98.337624,-37.968941,-108.877106,1.076930,-0.321993,0.241517
5325234361,-12.127232,-53.554008,-139.465408,0.880644,0.068125,-0.024175
5325254322,-39.678688,-114.537567,-149.005203,0.673812,0.337279,-0.052866
5325274283,-109.283234,-136.303711,-139.032883,0.882544,0.508600,-0.230508
5325294244,-144.176193,-134.138519,-127.547218,1.288566,0.633577,-0.223560
5325314205,-189.745941,-133.494476,-125.490257,1.220028,0.485177,-0.144802
5325334166,-221.472855,-150.067261,-127.543571,1.060728,0.231566,-0.213960
5325354128,-195.974808,-153.874435,-130.967529,1.074996,0.141583,-0.240545
5325374089,-156.780380,-156.300797,-133.179504,1.091194,0.285677,-0.203087
5325394050,-144.158127,-157.140625,-133.675385,1.110785,0.433587,-0.175829
5325414011,-151.391281,-154.994949,-125.748802,1.082374,0.489694,-0.188287
5325433972,-161.883667,-146.760529,-116.832687,1.089236,0.479823,-0.168421
5325453933,-179.577438,-140.054123,-115.261856,1.086146,0.443124,-0.112875
5325473894,-189.928909,-133.576736,-113.795456,1.077877,0.447720,-0.084145
5325493855,-189.311279,-122.402710,-104.103271,1.118486,0.407587,-0.002426
5325513816,-204.850662,-114.271385,-86.445480,1.108864,0.233831,0.062439
5325533777,-203.440308,-104.252647,-71.413582,0.904091,-0.050551,0.076181
5325553738,-174.649292,-103.668564,-60.512001,0.751410,-0.210804,0.099045
5325573699,-134.863297,-96.452477,-31.976549,0.876868,-0.163359,0.231151
5325593661,-102.077179,-79.296387,12.018490,0.858178,0.064942,0.327055
5325613623,-100.323318,-60.931732,44.289787,0.827257,0.158904,0.371572
5325633584,-117.177292,-45.800529,72.815964,0.856064,0.058921,0.330302
5325653545,-109.830177,-28.965109,113.608170,0.830645,-0.036849,0.321205
5325673506,-85.001343,-18.175566,148.183151,0.844630,-0.084194,0.269877
5325693467,-39.840878,-6.085738,177.184418,0.963061,0.017014,0.269116
5325713428,-10.496457,12.792465,194.845459,1.097041,0.240752,0.316353
5325733389,-24.288029,28.876549,191.702118,1.171162,0.499220,0.390062
5325753350,-70.350967,38.592075,169.814468,1.215445,0.583407,0.397418
5325773312,-119.473671,49.157536,157.242859,1.062727,0.648030,0.400661
5325793273,-154.133713,39.731960,142.327881,0.801924,0.641746,0.314571
5325813234,-164.626816,-0.847754,99.466087,0.982314,0.615552,0.229797
5325833194,-179.437042,-23.152105,50.149662,1.281521,0.455253,0.159051
5325853154,-155.381775,-25.919794,31.973167,1.179763,0.355078,0.192609
5325873115,-126.835365,-33.116386,4.437623,1.087225,0.398684,0.212326
5325893076,-120.602707,-29.836899,-26.230671,1.153041,0.359335,0.241041
5325913037,-140.545258,-16.271317,-66.070183,1.066143,0.364159,0.441343
5325932998,-173.184402,-47.422718,-129.768692,0.858900,0.589047,-0.029373
5325952959,-120.863571,-95.391731,-196.197098,0.977321,0.530645,-0.265920
5325972921,-110.846397,-82.756409,-182.377716,1.399864,-0.051311,-0.022804
5325992882,-137.987579,-46.752872,-115.225922,1.198321,-0.486128,0.155461
5326012843,-99.222343,-57.147320,-117.192131,0.854669,-0.263457,0.108539
5326032804,-68.774704,-104.768349,-143.841324,0.755705,0.143877,0.001432
5326052765,-128.981552,-142.466644,-141.524979,0.853608,0.337126,-0.147549
5326072726,-151.404068,-134.495789,-131.365280,1.155488,0.586317,-0.199092
5326092687,-176.842026,-122.213104,-133.569946,1.278300,0.625152,-0.191557
5326112648,-193.793549,-127.644928,-138.733124,1.199065,0.302094,-0.191361
5326132609,-181.222565,-132.742645,-135.116943,1.185579,0.050936,-0.150978
5326152570,-145.340195,-126.625404,-125.892639,1.179840,0.118371,-0.075059
5326172531,-134.193695,-130.320267,-119.004623,1.063935,0.379988,-0.001335
5326192492,-149.766556,-131.847916,-124.336037,0.997191,0.485865,-0.019137
5326212453,-157.357086,-124.370636,-131.749191,0.998722,0.469425,-0.010917
5326232416,-156.286560,-122.035744,-137.501923,0.942401,0.376732,0.038104
5326252377,-142.142349,-123.677963,-133.733902,0.826989,0.320316,-0.035209
5326272338,-115.478287,-120.310379,-126.144897,0.888519,0.454536,-0.013059
5326292299,-111.029167,-116.434731,-120.535019,0.877562,0.609216,0.020449
5326312260,-121.647034,-118.646011,-110.108589,0.876741,0.543242,0.071053
5326332221,-132.414383,-120.852943,-90.241440,0.811031,0.353565,0.082789
5326352182,-130.147034,-105.515373,-49.790119,0.784823,0.137387,0.075651
5326372144,-130.777634,-78.465027,-5.806461,0.735005,0.074584,0.128126
5326392105,-120.900909,-51.038223,30.333553,0.748178,0.251709,0.190667
5326412066,-120.337990,-43.857315,58.488987,0.802988,0.333574,0.220746
5326432027,-119.492233,-47.240730,75.261848,0.775143,0.184656,0.218212
5326451988,-98.797401,-48.579372,92.833420,0.661726,0.101787,0.196090
5326471948,-67.132462,-53.173199,116.320305,0.693527,0.218597,0.156514
5326491909,-45.145782,-52.182209,129.657776,0.882456,0.468067,0.243221
5326531831,-49.873821,-10.727014,148.910416,0.960314,0.477729,0.237934
5326551792,-68.850327,-6.825015,160.643417,0.956110,0.375794,0.220131
5326571753,-78.500648,-17.682856,161.424637,1.090170,0.321540,0.216557
5326591714,-74.716339,-19.158051,156.195084,1.101068,0.469200,0.251674
5326611675,-104.266045,-13.567015,140.295502,0.937708,0.645606,0.289225
5326631636,-166.755402,-36.371132,110.759644,0.942002,0.754873,0.311190
5326651597,-203.352982,-88.417313,53.849033,1.130985,0.663578,0.057171
5326671558,-163.407806,-103.713608,-1.057283,1.062792,0.819929,0.127120
5326691519,-140.494293,-87.029388,-66.928116,1.042852,0.887744,0.044689
5326711480,-157.292023,-93.984329,-125.586250,1.018388,0.844196,0.002064
5326731441,-158.399979,-82.363518,-160.966339,1.319784,0.477680,0.028802
5326751402,-131.718414,-39.842907,-155.674667,1.396564,-0.095818,0.095516
5326771364,-121.603348,-56.940659,-133.097900,1.027824,-0.325840,0.142423
5326791325,-102.988068,-93.522415,-119.760986,0.913488,-0.073406,-0.019433
5326811286,-66.549904,-103.669617,-108.431000,0.917027,0.202148,-0.083163
5326831248,-87.887489,-109.926628,-88.562378,0.937148,0.462368,-0.052271
5326851209,-140.278748,-113.197098,-77.467941,1.002473,0.598052,-0.076607
5326871170,-176.091370,-104.072693,-78.374031,0.992748,0.460553,-0.056230
5326891131,-180.797195,-100.402527,-76.012001,0.887259,0.179688,-0.036353
5326911092,-155.316254,-105.610687,-65.241714,0.852272,0.059828,-0.014907
5326931054,-116.323959,-107.326851,-47.502861,0.948300,0.082731,0.028003
5326951015,-95.410194,-95.554520,-29.540333,0.960381,0.233589,0.152238
5326970981,-107.056007,-78.599525,-8.520773,0.935384,0.306818,0.206675
5326990937,-120.205040,-52.820480,11.281505,0.954177,0.217101,0.220145
5327010898,-114.624413,-33.628872,26.040260,0.907302,0.131478,0.230887
5327030859,-89.985481,-31.276062,36.310745,0.897866,0.102241,0.201597
5327050821,-53.371521,-23.176582,45.382729,1.000397,0.152776,0.186714
5327070780,-25.932810,-10.762373,56.360836,1.014325,0.309123,0.208813
5327090741,-19.540905,-4.528896,65.199127,0.973454,0.452194,0.260266
5327110702,-25.613064,-0.763546,63.579659,0.940728,0.482372,0.224568
5327130663,-38.229401,0.561275,48.175014,0.846368,0.501311,0.246932
5327150624,-58.594738,-24.081842,21.938311,0.780723,0.629132,0.257385
5327170585,-88.126244,-53.518600,-12.518087,0.984335,0.767352,0.237091
5327190547,-91.451530,-35.010563,-22.696190,1.091264,0.511444,0.267922
5327210508,-61.456425,1.473932,11.493167,0.844839,0.149819,0.104230
5327230468,-13.840356,-51.470207,4.618369,0.703581,0.628949,-0.145974
5327250430,-42.074707,-113.070259,-62.685768,0.902057,1.301273,0.052089
5327270391,-104.387062,-48.398209,-59.671768,1.148681,0.718816,0.086277
5327290352,-153.522263,7.678237,-10.495706,0.918091,0.067815,0.192788
5327310313,-144.979752,-28.594389,19.466244,0.844240,-0.133565,0.287525
5327330274,-96.850296,-37.458382,14.409437,0.905358,0.016948,0.354385
5327350235,-63.090519,-26.500814,-0.522409,0.870550,0.167973,0.319857
5327370196,-32.974121,-33.640976,-5.178365,0.900590,0.277050,0.315980
5327390157,-4.380649,-28.116934,0.045902,0.974392,0.315803,0.308048
5327410118,14.920171,-11.181645,7.544765,0.968001,0.347044,0.326451
5327430081,11.460937,0.669257,10.809426,0.916854,0.419526,0.304930
5327450042,-3.415367,11.035373,10.175568,0.866682,0.451305,0.229547
5327470003,-9.151041,17.873453,9.258433,0.885376,0.434981,0.208029
5327489964,-5.204174,18.037041,9.893563,0.964841,0.307698,0.144641
5327509925,-2.082032,19.401567,8.907628,0.871159,0.305193,0.130762
5327529886,1.512021,2.622727,13.407156,0.841433,0.332412,0.137329
5327549847,20.278801,-8.859018,17.561846,0.869764,0.291188,0.135610
5327569808,29.429333,-11.748135,17.345953,0.895911,0.363112,0.136914
5327589769,35.527882,-4.610278,17.894287,0.913257,0.476260,0.153774
5327609731,23.257113,3.617069,12.969038,0.872334,0.517214,0.184133
5327629692,9.934492,8.068871,8.410249,0.845864,0.480838,0.145633
5327649653,11.628187,10.070258,4.200732,0.852943,0.435283,0.099885
5327669625,17.615643,8.498131,-0.353547,0.867373,0.447971,0.082640
5327689573,18.086020,4.791188,-5.029119,0.887763,0.474573,0.076204
5327709534,15.454174,2.605042,-7.174763,0.907255,0.467790,0.061283
5327729495,14.472989,-0.760294,-6.922525,0.891498,0.450429,0.062645
5327749456,12.890637,-2.374771,-6.765965,0.873054,0.451947,0.066379
5327769417,8.542565,-1.928505,-7.312259,0.878155,0.467473,0.074961
5327789378,3.179446,-1.221986,-8.628828,0.883702,0.479726,0.071401
5327809339,-1.127687,-0.437680,-11.179097,0.900997,0.473331,0.062808
5327829300,-4.321385,0.177718,-12.761579,0.895337,0.451465,0.067798
5327849261,-4.834659,-1.796570,-12.092455,0.899425,0.421886,0.068266
5327869223,-2.055875,-4.302515,-9.643327,0.924567,0.426475,0.070382
5327889184,-3.944175,-3.667802,-7.130830,0.918765,0.440764,0.098635
5327909145,-13.192953,-2.847565,-7.238514,0.905994,0.432142,0.127864
5327929106,-21.460442,-3.348372,-8.464213,0.908732,0.399241,0.136376
5327949067,-20.894730,-2.273743,-6.414810,0.928221,0.372506,0.143272
5327969028,-17.883465,-0.443047,-2.688783,0.939702,0.333523,0.164792
5327988989,-16.963840,0.586388,0.135978,0.943678,0.261188,0.175338
5328008950,-5.953017,2.690906,5.238947,0.940364,0.202715,0.177601
5328028911,10.028807,1.292531,8.382741,0.913896,0.245441,0.177691
5328048874,18.217901,0.066032,5.231673,0.936174,0.332313,0.179044
5328068835,19.441668,2.353381,2.545647,0.920853,0.371786,0.169648
5328088796,18.532566,2.377376,1.692593,0.889557,0.358979,0.160633
5328108757,22.437080,0.143990,-2.207303,0.869157,0.330622,0.133951
5328128718,29.687931,-0.841437,-7.972589,0.866929,0.327909,0.102265
5328148679,35.570385,-4.011300,-9.276558,0.874627,0.366965,0.099308
5328168640,36.475010,-10.559958,-8.254391,0.863701,0.377731,0.094287
5328188601,38.053104,-15.484625,-11.641872,0.828392,0.369657,0.082844
5328208562,40.299145,-20.493647,-18.085552,0.795169,0.384665,0.084812
5328228523,40.781212,-26.949402,-24.441826,0.801057,0.426868,0.072026
5328248484,39.886883,-30.463696,-30.025337,0.826519,0.455595,0.046616
5328268445,38.189304,-33.889706,-34.587059,0.835999,0.471765,0.027767
5328288405,34.600742,-39.826309,-38.855297,0.840546,0.496618,0.014785
5328308366,33.296570,-46.548077,-44.192509,0.837720,0.530077,0.000890
5328328327,32.285366,-51.447376,-50.411842,0.841267,0.558386,0.006046
5328348288,26.642555,-55.068184,-55.995708,0.852808,0.567280,0.007023
5328368249,19.435480,-58.461082,-60.408722,0.865049,0.547551,-0.028126
5328388210,17.389847,-60.065987,-63.775192,0.860431,0.535913,-0.068906
5328408172,20.015476,-61.476452,-65.145683,0.824819,0.543930,-0.080527
5328428132,22.553429,-65.681763,-64.797073,0.794225,0.549744,-0.077541
5328448093,23.955065,-66.555473,-65.921959,0.771904,0.521105,-0.087498
5328468055,25.669750,-64.054749,-67.612473,0.737033,0.506638,-0.106933
5328507977,33.281548,-61.197094,-63.994213,0.654667,0.572899,-0.165714
5328527938,34.684723,-60.631565,-64.172554,0.647395,0.596414,-0.191548
5328547899,34.441181,-56.823959,-65.772827,0.632425,0.608055,-0.226616
5328567860,34.795811,-53.066902,-65.101814,0.570226,0.631111,-0.279220
5328587821,37.757835,-51.843948,-61.132187,0.517760,0.676322,-0.351496
5328607782,41.712124,-50.812630,-56.339329,0.489941,0.735556,-0.392224
5328647704,36.147518,-47.677727,-53.015472,0.509011,0.785614,-0.442870
5328667667,31.824234,-43.278324,-50.463524,0.526114,0.815532,-0.479744
5328707589,27.422609,-36.802868,-40.553207,0.500705,0.856958,-0.549276
5328727550,25.853170,-33.738503,-35.713341,0.503821,0.865935,-0.567305
5328747511,22.183802,-29.086189,-31.163593,0.507954,0.882655,-0.570963
5328767472,15.921995,-23.832325,-26.570189,0.505756,0.898967,-0.588390
5328787433,10.780392,-17.977531,-20.137341,0.499962,0.901998,-0.621511
5328807394,9.971259,-11.959291,-12.529241,0.487856,0.902520,-0.637950
5328827355,8.172678,-5.815864,-4.750040,0.499162,0.911211,-0.644806
5328847317,3.142006,1.697485,2.196775,0.485375,0.918730,-0.643907
5328867277,-2.586832,7.425235,8.810019,0.467060,0.919949,-0.648088
5328887239,-6.641301,13.124602,15.314995,0.473530,0.923086,-0.646563
5328907198,-11.278577,19.010691,22.978949,0.485010,0.910348,-0.626748
5328927159,-17.007004,24.711163,31.148064,0.487525,0.891417,-0.607906
5328947121,-21.524281,30.551929,39.154003,0.476669,0.865737,-0.593843
5328967081,-23.052197,35.309345,46.412498,0.483819,0.850088,-0.583530
5328987043,-23.267315,40.114090,52.825249,0.513671,0.836263,-0.562905
5329007004,-24.362783,44.478745,58.340199,0.539117,0.825322,-0.522192
5329026965,-26.658463,48.442566,63.054890,0.552891,0.808904,-0.472679
5329046926,-30.206192,51.235577,65.968498,0.545302,0.772879,-0.436441
5329066887,-31.294292,54.100300,66.856171,0.555373,0.737638,-0.421109
5329086848,-32.193592,57.830193,67.158791,0.568115,0.712321,-0.396602
5329106809,-33.813007,59.198540,68.092484,0.573205,0.680842,-0.369949
5329126770,-34.629822,58.832394,70.018044,0.596609,0.655487,-0.340420
5329146731,-34.995022,58.890259,71.731949,0.618246,0.628340,-0.304247
5329166692,-36.161671,58.407490,71.842667,0.641506,0.611006,-0.267112
5329186653,-36.838066,59.190639,70.693260,0.675511,0.596438,-0.244668
5329206614,-34.988846,60.346897,70.007004,0.729463,0.582218,-0.227783
5329226575,-33.248814,61.553780,71.619904,0.752206,0.564624,-0.208865
5329246540,-31.989388,61.699516,74.227020,0.752390,0.537494,-0.180461
5329266498,-30.423910,60.936909,75.652557,0.744355,0.511110,-0.150308
5329286461,-29.229866,60.689545,75.558205,0.757293,0.494222,-0.127393
5329306422,-30.684746,61.407669,74.869270,0.749136,0.458222,-0.089800
5329326383,-32.100998,59.721287,73.576912,0.748083,0.404368,-0.062165
5329346344,-28.319338,58.589256,72.574127,0.759449,0.367171,-0.049145
5329366305,-20.552216,59.494640,73.759621,0.784813,0.370496,-0.033800
5329386266,-18.236191,62.967678,76.228638,0.781349,0.375428,-0.003529
5329406227,-23.164902,63.241623,76.044983,0.781081,0.343717,0.022118
5329426188,-27.944897,62.108021,72.023666,0.838930,0.320309,0.035036
5329446149,-28.031862,63.794331,70.905220,0.907789,0.318537,0.049623
5329466110,-28.783304,67.437637,73.750908,0.930196,0.313271,0.084633
5329486071,-33.065960,72.513817,76.339928,0.892519,0.281521,0.130904
5329506032,-40.321812,72.512772,75.640488,0.866838,0.227742,0.177300
5329526011,-44.189278,65.649796,71.638351,0.888513,0.177418,0.176427
5329545953,-40.639008,58.214161,70.704926,0.933322,0.169077,0.166094
5329565914,-35.528999,55.211040,75.424141,0.977052,0.184895,0.184758
5329585875,-39.883690,54.836594,78.939384,0.953769,0.176980,0.254943
5329605836,-54.335346,48.350330,75.273590,0.899997,0.130944,0.313628
5329625797,-64.827179,38.433468,66.191978,0.901104,0.064682,0.308541
5329645758,-59.672729,31.318371,60.823578,0.963007,0.013135,0.308426
5329665719,-47.443058,29.669985,62.270496,0.954118,-0.002017,0.341476
5329685680,-41.487564,29.834837,62.942623,0.898147,-0.002620,0.366321
5329705641,-40.490337,29.039965,58.795700,0.873999,-0.010705,0.368196
5329725602,-41.172817,29.758976,52.242699,0.865974,-0.041932,0.384132
5329745563,-40.361115,28.360733,46.525063,0.874189,-0.093987,0.392147
5329765525,-31.621744,25.550093,43.097374,0.908078,-0.134274,0.396251
5329785486,-23.719717,25.104927,38.517372,0.902546,-0.131750,0.434445
5329805447,-20.975891,24.855413,32.280731,0.891692,-0.141451,0.440962
5329825408,-17.360193,24.909262,27.010370,0.901294,-0.178187,0.434455
5329845369,-10.924702,23.126160,24.135145,0.925340,-0.210656,0.437886
5329865330,-2.608316,20.425529,21.791180,0.936248,-0.209847,0.444994
5329885291,3.539875,17.480251,19.144426,0.930743,-0.177574,0.460027
5329905254,4.433766,17.213360,16.438360,0.922799,-0.174986,0.457289
5329925215,7.228489,17.935684,13.258963,0.916331,-0.194907,0.451760
5329945176,14.971764,17.048685,8.056772,0.890982,-0.204306,0.437516
5329965137,26.376268,12.880141,2.985427,0.857697,-0.183206,0.452041
5329985098,30.669703,8.515286,-1.335004,0.878687,-0.162224,0.515643
5330005059,16.656500,7.737841,-9.295907,0.892561,-0.217577,0.619249
5330025020,-4.783422,5.439410,-25.232780,0.863676,-0.331084,0.644254
5330044981,-3.630306,-4.602431,-40.119564,0.916482,-0.453790,0.620187
5330064942,31.343086,-10.211769,-47.281441,0.993813,-0.439228,0.545513
5330084903,68.008896,-11.848476,-46.588623,1.069734,-0.269555,0.521907
5330104864,75.052101,-15.002763,-42.113235,1.077433,-0.100190,0.509803
5330124825,56.474007,-22.104610,-40.805515,1.034277,-0.019135,0.483462
5330144786,38.841835,-26.916475,-41.319542,0.973455,-0.053783,0.458054
5330164746,41.599190,-24.084818,-39.424900,0.921196,-0.109074,0.431866
5330184707,49.017803,-19.048817,-38.223961,0.842093,-0.090888,0.450880
5330204668,48.411350,-16.513397,-41.470436,0.824548,-0.057762,0.434808
5330244590,52.104698,-12.107667,-53.220814,0.888365,-0.035168,0.377693
5330264551,63.683388,-16.782616,-60.233715,0.965193,-0.026697,0.346181
5330284513,77.219810,-22.940306,-64.042786,0.961295,0.061160,0.334107
5330304474,76.485794,-30.494949,-66.667450,0.904763,0.165900,0.364046
5330324435,65.045395,-37.008617,-71.605873,0.933068,0.170981,0.346087
5330344396,59.930794,-35.169086,-76.353722,0.912361,0.158040,0.291829
5330364357,61.681087,-32.850239,-77.671959,0.925398,0.196164,0.241268
5330384318,64.261635,-28.740656,-75.908829,0.950735,0.251384,0.199942
5330404279,59.880268,-25.199841,-73.067398,0.950668,0.320351,0.204275
5330424240,47.949005,-24.293009,-72.197449,1.021849,0.373182,0.224839
5330444201,39.981701,-22.735027,-74.009613,1.135011,0.352098,0.236913
5330464162,44.240059,-17.321251,-75.263474,1.109640,0.298385,0.232046
5330484123,57.087101,-11.705540,-75.912468,0.926128,0.286426,0.204289
5330504084,72.431282,-11.329070,-79.869522,0.813564,0.314068,0.187293
5330524047,82.008804,-7.771137,-87.887970,0.797927,0.358886,0.188913
5330544008,82.762039,-2.497984,-96.530121,0.807366,0.403768,0.193997
5330563969,79.748665,3.552528,-102.780022,0.798461,0.462132,0.225386
5330583930,70.449776,5.213818,-104.498085,0.718683,0.519434,0.252124
5330603892,61.232643,6.162931,-104.757645,0.629845,0.477168,0.176881
5330623852,71.652603,13.314288,-105.750870,0.604367,0.454226,0.075529
5330643813,81.696991,24.700653,-104.034668,0.647977,0.573572,0.006350
5330663774,83.944061,42.354168,-95.485184,0.599484,0.711267,-0.023202
5330683735,83.122147,54.084515,-79.969910,0.491274,0.791689,-0.064295
5330703697,78.384201,57.260277,-62.648502,0.435191,0.811805,-0.108452
5330723658,67.713821,56.277973,-46.273994,0.440914,0.824049,-0.149890
5330743619,59.415970,56.202980,-28.762175,0.433353,0.868464,-0.157677
5330763580,50.785034,54.017921,-13.509950,0.448828,0.862386,-0.133435
5330783540,46.187389,49.611179,-3.690269,0.496860,0.817080,-0.139279
5330803501,47.490238,38.745377,2.940652,0.539718,0.825164,-0.121779
5330823462,47.024761,26.553320,9.051631,0.538895,0.889913,-0.101819
5330843423,39.305206,18.227173,12.514515,0.474361,0.955433,-0.061732
5330863384,29.339636,12.424681,11.845153,0.478186,0.964730,-0.051069
5330883345,15.877103,7.702804,9.766171,0.550626,0.983161,-0.032377
5330903306,0.990804,5.560980,10.183131,0.600597,0.991791,-0.009747
5330923267,-13.672054,5.375205,11.736320,0.541030,0.978045,0.021349
5330943228,-26.053194,2.279860,10.910731,0.502102,0.925654,0.016485
5330963189,-26.601416,-0.377990,11.960231,0.523783,0.874351,-0.001674
5330983150,-24.645504,-2.664112,16.516169,0.532358,0.897241,0.015684
5331003111,-30.119736,-4.250127,20.841593,0.531453,0.892045,0.045165
5331023072,-36.578751,-3.647532,22.815361,0.510789,0.856615,0.063124
5331043033,-39.277153,-4.429960,26.511246,0.508780,0.814644,0.050934
5331062994,-38.209381,-6.642230,32.339161,0.506029,0.803669,0.056892
5331082955,-40.213257,-12.602601,37.631264,0.510050,0.807143,0.079765
5331102917,-45.361549,-16.905584,41.476105,0.554782,0.791596,0.086395
5331122878,-49.796532,-17.300762,45.894249,0.575279,0.766288,0.104578
5331142839,-51.354164,-19.142189,50.445507,0.566473,0.730202,0.148262
5331162801,-51.014397,-24.850195,52.610550,0.600660,0.661994,0.151646
5331182762,-46.581181,-28.006235,52.091072,0.634066,0.621026,0.146100
5331202723,-43.327324,-29.170055,53.340637,0.667675,0.625459,0.137355
5331222684,-41.350662,-26.387192,56.196625,0.709771,0.631368,0.117450
5331242645,-38.903755,-24.416983,60.330406,0.700268,0.625023,0.143060
5331262607,-42.228737,-26.807154,61.499355,0.697522,0.591511,0.174337
5331282568,-45.740120,-29.190813,61.832832,0.710166,0.536896,0.172003
5331302529,-43.577950,-28.550678,62.142601,0.731417,0.490066,0.154857
5331322490,-39.459171,-26.294510,63.655540,0.759441,0.494995,0.126332
5331342451,-37.237263,-23.860294,67.484314,0.763288,0.492392,0.112604
5331362412,-39.725296,-23.601830,71.027550,0.746427,0.470276,0.117483
5331382373,-43.780602,-27.030102,72.909027,0.772707,0.434086,0.110453
5331402333,-44.733902,-29.800137,74.253342,0.823597,0.399912,0.103296
5331422294,-43.642994,-29.351997,75.705856,0.841146,0.370769,0.099542
5331442255,-40.929161,-27.450621,76.303955,0.837469,0.348637,0.100201
5331462216,-41.221970,-26.788612,76.028778,0.827513,0.338616,0.085431
5331482177,-43.832371,-26.002937,76.838638,0.869103,0.336052,0.063834
5331502139,-46.268303,-23.762413,79.066124,0.919530,0.304089,0.058362
5331522099,-50.784439,-22.717676,80.871086,0.912063,0.257416,0.081391
5331542061,-56.790119,-24.911158,81.051849,0.927130,0.205660,0.077324
5331562022,-57.717449,-25.236225,80.548363,0.944170,0.157759,0.077238
5331581983,-59.040276,-26.436249,79.225235,0.929381,0.134358,0.082722
5331601944,-60.912090,-26.788340,78.908409,0.927904,0.097663,0.052517
5331621905,-57.883621,-23.981686,76.386948,0.971559,0.062156,0.036143
5331641866,-54.649635,-18.832546,74.272484,0.988929,0.050311,0.052773
5331661827,-57.444328,-16.181492,72.103897,0.993356,0.041613,0.082774
5331701749,-72.155617,-18.584574,63.938210,1.010235,-0.046904,0.058763
5331721710,-71.236702,-18.409788,57.801151,1.035140,-0.120703,0.058607
5331741671,-66.777473,-20.788517,50.594322,1.040550,-0.176112,0.096403
5331761634,-59.894993,-26.373901,44.751209,1.054859,-0.211223,0.092506
5331781595,-48.324322,-29.197308,39.481079,1.072122,-0.248612,0.046720
5331801556,-33.973495,-29.569195,32.432957,1.074623,-0.276410,0.012344
5331821517,-17.657368,-28.569357,26.133047,1.096409,-0.284332,-0.004246
5331841478,-5.974787,-27.083351,23.528316,1.145354,-0.267365,-0.002807
5331861439,-2.432436,-24.642464,21.456875,1.142277,-0.257142,-0.014595
5331881400,-4.667373,-24.696348,17.601740,1.091699,-0.239675,-0.024551
5331901361,-8.019063,-26.272039,15.338963,1.073077,-0.227551,-0.047857
5331921322,-8.404485,-24.835432,14.371688,1.112460,-0.236500,-0.066293
5331941283,-7.119676,-20.018959,13.905781,1.148082,-0.250356,-0.074883
5331961244,-6.683899,-15.307841,12.647926,1.158508,-0.245200,-0.069221
5331981206,-6.120762,-12.782805,9.875879,1.126292,-0.223884,-0.064060
5332001182,-3.971077,-12.810051,7.317803,1.096665,-0.209778,-0.065290
5332021126,1.522055,-11.942741,4.883280,1.100884,-0.217731,-0.071548
5332041087,8.726792,-8.474280,1.524618,1.115545,-0.218971,-0.077633
5332061048,13.812797,-4.459977,-2.266869,1.131142,-0.207609,-0.072798
5332081010,16.190584,-1.096719,-5.102478,1.153905,-0.181964,-0.074622
5332100971,16.571136,1.817441,-7.534186,1.143351,-0.163705,-0.070470
5332120932,15.718882,3.105214,-11.386760,1.127041,-0.177399,-0.061165
5332140893,16.182680,4.347439,-16.881815,1.146406,-0.204127,-0.041432
5332160854,18.146650,6.201447,-22.092022,1.158419,-0.237959,-0.021625
5332180815,24.364996,8.829538,-25.141523,1.133390,-0.269249,0.009116
5332200776,33.840340,11.584196,-28.150091,1.101255,-0.291547,0.034207
5332220737,43.770618,13.732860,-33.015656,1.085829,-0.305514,0.050362
5332240698,56.127480,17.901487,-39.265083,1.068775,-0.321043,0.070428
5332260660,65.955658,23.168777,-43.991447,1.078738,-0.336895,0.124870
5332280621,69.865143,29.829241,-46.052803,1.056032,-0.374353,0.220409
5332300582,74.117615,34.697968,-49.840729,0.997672,-0.441093,0.258678
5332320543,90.829079,39.197891,-54.611507,1.004479,-0.518999,0.194788
5332340504,124.959335,44.770554,-50.446709,1.081174,-0.549326,0.133221
5332360465,159.101074,50.334667,-35.444187,1.106266,-0.485146,0.138822
5332380427,173.885315,55.340267,-22.591887,1.046389,-0.397313,0.141476
5332400389,176.767487,58.463047,-19.445011,0.990476,-0.362708,0.106100
5332420349,181.876282,60.105328,-15.317124,1.021675,-0.348018,0.051065
5332440311,191.279648,67.126511,-7.069621,1.039448,-0.325822,0.002492
5332460272,201.892670,74.581543,3.275908,1.019025,-0.279605,-0.046629
5332480233,211.709778,79.911324,14.403693,1.007685,-0.245743,-0.101301
5332500194,220.458252,84.811752,25.885292,1.008421,-0.230293,-0.169472
5332520162,229.207245,87.070801,39.905701,1.031888,-0.180854,-0.222030
5332540116,234.624634,87.152573,55.064358,1.021767,-0.100651,-0.258406
5332560077,235.518860,84.442436,70.151520,0.978854,-0.014689,-0.247397
5332580038,216.894180,76.995743,81.378967,0.951431,0.062431,-0.214560
5332599999,192.429016,70.043747,87.319321,0.956462,0.084238,-0.236498
5332619959,175.831100,71.780876,92.779373,1.035835,0.125681,-0.249289
5332639920,160.395615,78.756714,103.297577,1.090184,0.228897,-0.201538
5332659881,134.854263,71.062149,112.643143,0.970709,0.247486,-0.115066
5332679843,113.425545,55.533489,109.165115,0.924901,0.220690,-0.102628
5332699804,105.387085,43.639137,107.623268,0.980082,0.235825,-0.066623
5332719765,96.538727,31.395884,101.495255,0.941825,0.185737,-0.006676
5332739726,89.256432,13.507049,88.960220,0.910965,0.169129,0.010605
5332759687,94.767502,-2.227163,82.801399,0.930713,0.230407,0.012877
5332779648,91.776543,-11.458763,74.692230,0.942613,0.322381,0.082344
5332799609,63.921047,-19.989407,61.794407,0.954363,0.366362,0.139481
5332819570,33.040779,-19.800430,42.521229,0.963505,0.329200,0.165755
5332839531,11.178205,-18.897493,22.001760,0.975359,0.288568,0.224007
5332859492,-4.857869,-17.506943,7.375019,0.996823,0.218614,0.235745
5332879453,-14.031290,-15.654679,-5.013626,1.000438,0.166168,0.257251
5332899414,-18.098375,-13.946043,-12.664568,0.980618,0.160883,0.279648
5332919375,-25.665627,-12.862789,-19.202908,0.940854,0.153319,0.306179
5332939336,-32.963577,-9.975245,-28.126131,0.933011,0.124278,0.285202
5332959297,-33.581177,-4.247669,-36.098022,0.978326,0.108061,0.240131
5332979259,-32.807583,0.725150,-42.796757,1.058121,0.107174,0.167484
5332999221,-34.295883,4.703817,-48.271999,1.126068,0.153893,0.121979
5333019182,-44.042686,6.751256,-51.540352,1.114745,0.229669,0.111515
5333039143,-66.384674,7.576137,-58.757053,1.045098,0.281689,0.101190
5333059104,-94.606781,8.035635,-71.677109,0.991622,0.294625,0.071404
5333079065,-119.866341,9.154920,-84.588364,1.004833,0.260800,0.030312
5333099026,-139.721741,9.922596,-89.838692,1.066072,0.203705,0.023264
5333118987,-157.597717,11.063537,-91.652626,1.086257,0.133973,0.024412
5333138949,-176.824615,11.861881,-99.549637,1.056472,0.086691,0.014806
5333158910,-191.788376,13.659805,-110.348373,1.105923,0.072459,-0.009642
5333178871,-203.315170,17.276241,-119.013443,1.217276,0.068612,-0.032306
5333198832,-213.868591,23.301556,-127.071739,1.243526,0.065707,-0.013474
5333218793,-227.366669,22.581051,-136.146667,1.186460,0.033648,0.010318
5333238753,-236.238770,18.036541,-148.570282,1.204311,-0.012479,-0.004625
5333258714,-241.310730,14.881137,-163.799118,1.207288,-0.030711,-0.018569
5333278675,-244.610947,9.338466,-175.891663,1.204749,-0.026501,-0.005936
5333298636,-249.885284,2.484724,-185.074448,1.241672,-0.043705,-0.012535
5333318597,-251.990448,-0.651080,-193.440247,1.296286,-0.081576,-0.021203
5333338558,-254.716309,-5.104371,-203.695892,1.283857,-0.094226,0.012560
5333358519,-254.992020,-13.409564,-215.728790,1.233504,-0.090269,0.036159
5333378480,-251.620361,-22.170349,-225.411407,1.236450,-0.077509,0.046840
5333398441,-246.680893,-28.845398,-231.631195,1.237251,-0.053821,0.044828
5333418402,-239.585129,-37.560310,-235.305939,1.201391,-0.026360,0.069855
5333438364,-236.042221,-47.571140,-238.595856,1.176501,0.007296,0.084874
5333458324,-239.446228,-60.760490,-241.410645,1.163119,0.057128,0.101478
5333478286,-248.676529,-75.684494,-246.268494,1.176358,0.061553,0.096458
5333498247,-259.321747,-89.534103,-248.567368,1.182316,0.047756,0.108267
5333518208,-261.658051,-102.329277,-246.559967,1.185758,0.039637,0.121212
5333538169,-255.518784,-122.399055,-240.817612,1.123750,0.038572,0.191029
5333558130,-241.237411,-143.127441,-235.760788,1.025884,0.001625,0.212241
5333578091,-214.142410,-155.168335,-227.949997,1.069002,-0.028625,0.225456
5333598052,-180.609924,-152.707947,-210.592133,1.055384,-0.055956,0.267725
5333618015,-153.577728,-158.077240,-198.078506,0.947372,-0.017016,0.355348
5333637976,-137.039978,-165.594559,-188.799072,0.988076,0.056373,0.423735
5333657937,-127.093796,-158.772690,-172.944885,0.939331,0.099978,0.449537
5333677898,-122.240456,-152.223785,-153.464203,0.932357,0.099814,0.545391
5333697859,-110.787949,-137.624573,-128.934387,0.954385,0.067873,0.577279
5333717820,-92.401909,-109.157753,-99.074600,0.900489,0.045855,0.618631
5333757742,-36.735664,-47.811951,-38.957676,0.896817,-0.030033,0.610791
5333777704,-11.103512,-25.967962,-12.175710,0.833955,0.033400,0.614974
5333797665,11.568885,-7.350791,5.008281,0.809484,0.077073,0.594140
5333817626,34.016438,9.909452,20.227901,0.810270,0.170870,0.550274
5333837587,50.179008,22.853897,34.917118,0.816454,0.268599,0.518008
5333857547,60.357155,34.444393,47.539444,0.777496,0.326956,0.484011
5333877508,67.423683,45.427525,59.514881,0.765967,0.365237,0.470423
5333897469,72.257309,54.365685,72.093155,0.815259,0.361918,0.483493
5333917430,73.235359,59.996830,82.902878,0.886442,0.298436,0.488115
5333937391,76.316841,61.401562,94.219177,0.887636,0.212908,0.483437
5333957352,89.972382,59.211411,104.551239,0.881354,0.166426,0.451938
5333977313,109.410332,59.392712,112.090775,0.878422,0.143274,0.445525
5333997274,127.896774,64.149261,120.455154,0.913985,0.127854,0.423209
5334017235,143.400757,72.827850,130.587341,0.935094,0.115884,0.390372
5334037196,159.015747,80.489952,142.170990,0.996866,0.127517,0.340593
5334057157,175.615540,89.969177,151.326553,1.026921,0.132698,0.299627
5334077118,186.107849,95.882660,155.063599,1.042017,0.147955,0.265779
5334097080,190.967834,98.005539,155.767120,1.060886,0.149997,0.238499
5334117041,196.010193,95.616852,155.840500,1.069621,0.170602,0.217742
5334137002,202.571304,90.595360,157.577301,1.109273,0.220077,0.166664
5334156963,206.195572,79.638893,160.641418,1.136449,0.282892,0.117598
5334176924,206.199692,68.016014,159.383774,1.116561,0.272452,0.048379
5334196885,198.963745,66.055679,152.562683,1.076385,0.280273,-0.017231
5334216847,192.598450,63.670376,151.338501,1.020288,0.304481,0.007205
5334236809,182.695114,48.937157,145.741974,0.955880,0.238146,0.031606
5334256770,170.448563,31.714052,131.155579,0.963058,0.182982,0.012699
5334276731,175.769119,21.609100,121.731865,1.060581,0.292280,-0.040301
5334296692,174.999802,17.828819,120.201912,1.061133,0.420117,-0.012971
5334316653,157.360138,12.834079,119.498398,0.928989,0.428984,0.052392
5334336614,137.539688,3.403294,114.172340,0.871312,0.328265,0.079938
5334356575,131.779846,-3.323405,103.113182,0.911304,0.234493,0.092224
5334376536,142.664169,-12.088165,84.522652,0.988921,0.300447,0.138281
5334396497,143.452728,-17.533373,66.910789,0.999290,0.493876,0.219717
5334416458,116.786560,-26.167042,50.070557,1.049060,0.555427,0.218438
5334436419,84.388870,-29.604210,36.618858,1.162157,0.548034,0.209341
5334456379,59.285660,-25.220573,32.393124,1.193780,0.530512,0.258198
5334476340,31.474098,-22.714531,28.054991,1.112455,0.478278,0.327406
5334496301,4.001381,-25.266781,19.983957,1.034630,0.366975,0.350385
5334516262,-11.625458,-29.955683,11.985620,0.982057,0.248499,0.329598
5334536223,-12.014088,-34.102119,6.738660,0.894160,0.176824,0.301568
5334556184,-0.404309,-38.659798,1.357409,0.830311,0.161726,0.299279
5334576145,3.961377,-39.455078,-8.956163,0.890878,0.167089,0.279995
5334596106,1.703285,-27.319696,-13.550589,0.991348,0.141481,0.253390
5334616067,-5.574533,-9.440016,-13.510288,0.975873,0.118782,0.256666
5334636029,-7.876936,1.043331,-11.522369,0.871812,0.104309,0.268744
5334655990,-8.806249,-2.623771,-6.222550,0.868283,0.084222,0.272560
5334675951,-3.908448,-7.052993,3.719615,0.941338,0.062763,0.243017
5334695912,5.559478,-6.016870,15.839285,0.986457,0.055634,0.203894
5334715873,15.386609,-2.328740,19.956944,1.002056,0.088624,0.220669
5334735834,19.364805,0.441646,16.042221,1.010216,0.132746,0.247505
5334755795,19.191956,-0.598280,12.969493,0.994853,0.136387,0.236965
5334775757,19.233301,-3.141131,11.645283,0.976039,0.117705,0.207968
5334795717,17.368092,-3.305714,10.045589,0.947140,0.116980,0.187599
5334815679,11.545878,-2.386651,7.808868,0.909831,0.130655,0.182593
5334835641,3.336590,-3.049831,5.354119,0.906272,0.141513,0.189088
5334855602,-4.863225,-3.748581,4.128939,0.937791,0.126764,0.191182
