Timestamp (us),Gyroscope X (deg/s),Gyroscope Y (deg/s),Gyroscope Z (deg/s),Accelerometer X (g),Accelerometer Y (g),Accelerometer Z (g)
6221676418,0.576234,0.122793,-0.084953,0.982018,0.125484,0.151020
6221696463,-0.329575,-0.324897,-0.153768,0.985165,0.128337,0.148653
6221716507,-0.784824,0.283529,-0.204180,0.987953,0.125555,0.147968
6221736552,-0.780020,0.816028,0.800894,0.983441,0.116431,0.150104
6221756597,-0.325182,0.731888,0.492755,0.978424,0.110889,0.155029
6221776643,0.727440,0.152958,-0.322308,0.978852,0.122204,0.157306
6221796688,0.437816,-0.485197,-0.205210,0.979551,0.125723,0.153732
6221816732,-0.891778,-0.575132,0.071710,0.979436,0.123333,0.150746
6221836778,-0.601745,-0.286485,0.229198,0.979190,0.119152,0.152053
6221856822,0.044600,-0.104653,0.170742,0.982011,0.118552,0.150531
6221876867,0.286524,-0.355793,-0.067043,0.981732,0.118382,0.151623
6221896912,0.088618,-0.598819,-0.011967,0.983973,0.121990,0.150972
6221916957,-0.487215,-0.430908,0.426532,0.985496,0.119391,0.147727
6221937001,0.007799,0.146291,0.368863,0.983015,0.117968,0.147539
6221957045,0.772897,-0.189057,-0.200440,0.983323,0.121746,0.153701
6221977089,0.185143,-1.100713,-0.377911,0.985382,0.124132,0.147505
6221997134,-0.624942,-0.803247,0.374612,0.989804,0.119646,0.141475
6222017179,-0.068279,-0.393182,0.613741,1.004276,0.118055,0.140592
6222037224,-1.275407,0.831511,0.477091,1.011911,0.128487,0.136556
6222057269,-4.447076,4.253668,-1.505438,0.973950,0.121572,0.148080
6222077313,-7.914577,4.531053,0.189292,0.988764,0.108021,0.158042
6222097358,-4.544844,-1.340824,-2.535488,0.982927,0.120317,0.156988
6222117403,-3.161357,1.005163,-5.709906,0.957654,0.129292,0.148080
6222137448,-5.636105,-0.260398,-2.124373,0.969483,0.110860,0.157605
6222157492,-7.746874,-1.626073,-0.735605,0.987927,0.093239,0.154425
6222177539,-2.014321,0.747488,-1.855981,0.984870,0.093566,0.143020
6222197584,3.472284,2.817885,-1.534327,0.967703,0.114179,0.159112
6222217628,2.642462,1.009894,-0.962501,0.963160,0.130369,0.169597
6222237673,0.211748,-2.567804,-0.673842,0.974489,0.124221,0.162447
6222257718,-0.005165,-2.362920,-1.830353,0.981640,0.118196,0.150987
6222277763,1.707024,0.341050,-2.714523,0.977769,0.121536,0.150931
6222297807,1.892930,0.797240,-2.030733,0.972554,0.128043,0.157394
6222317852,0.904714,-0.318951,-1.458347,0.967403,0.131881,0.160603
6222337896,-0.269596,-2.218113,-1.462785,0.977634,0.140313,0.162702
6222357941,-1.347842,-2.946531,-0.760564,0.979042,0.149120,0.160636
6222377985,-2.472162,-3.257016,-0.378353,0.987267,0.149034,0.153323
6222398030,-3.564311,-4.350924,-1.153630,0.986700,0.144004,0.137336
6222418075,-5.025504,-2.532760,-0.412789,0.982623,0.145330,0.135839
6222438119,-6.853369,-1.838247,2.404102,0.991816,0.152164,0.141676
6222458164,-8.184069,-2.284568,4.555468,0.993628,0.123810,0.132819
6222478209,-6.648921,-0.909637,5.730852,0.996382,0.068905,0.110258
6222498254,-1.439092,3.805105,3.979951,1.005631,0.040428,0.112199
6222518299,5.980187,9.163509,1.144940,1.004506,0.065313,0.147038
6222538343,9.590784,8.666368,1.193910,0.987675,0.111795,0.173207
6222558388,7.066930,4.625881,3.197838,0.986857,0.138081,0.175716
6222578435,3.568489,4.233614,3.080284,0.985181,0.131219,0.156277
6222598479,2.535991,6.787063,0.251781,0.972021,0.136755,0.163418
6222618524,-1.029124,6.401759,-1.404164,0.961205,0.141280,0.174045
6222638569,-3.426091,3.667921,-0.644227,0.961926,0.120543,0.169761
6222658613,-2.338956,3.013457,-0.347212,0.975922,0.100712,0.179495
6222678658,-0.842110,2.243654,-2.209206,0.979808,0.121379,0.196196
6222698703,-0.733894,-0.630472,-4.355678,0.966951,0.137343,0.183679
6222718747,-3.650208,-2.801810,-4.483631,0.967548,0.138631,0.173931
6222738791,-4.234035,-2.374671,-2.277871,0.968922,0.124700,0.166682
6222758836,-1.467825,-1.350430,-1.088740,0.974182,0.111353,0.172475
6222778881,0.272219,-2.325628,-2.876222,0.978183,0.110276,0.170510
6222798925,0.761599,-2.577388,-4.014862,0.981008,0.122620,0.168790
6222818970,2.574651,-2.441745,-3.137551,0.978869,0.129392,0.155426
6222839015,4.182681,-2.123518,-2.281695,0.979355,0.130822,0.152414
6222859060,3.532894,-1.248587,-1.637603,0.985442,0.123074,0.152613
6222879105,5.068436,0.118791,-0.355559,0.981683,0.113411,0.144927
6222899150,7.322020,1.333068,-0.107345,0.986672,0.112165,0.146794
6222919194,8.200373,2.525839,0.379982,0.994406,0.124744,0.150024
6222939239,9.136749,4.821891,3.593171,0.979507,0.121965,0.150849
6222959284,9.555079,5.703941,5.211827,0.987776,0.121612,0.157012
6222979330,9.443943,5.163948,4.238048,0.992672,0.139233,0.158086
6222999375,6.514056,7.408764,4.418374,0.956894,0.148710,0.158930
6223019419,6.686539,9.569165,8.742201,0.951610,0.127969,0.179366
6223039464,15.485839,6.186129,7.131420,0.978491,0.130960,0.194651
6223059509,20.419994,-2.858811,-0.516156,0.955014,0.172324,0.167917
6223079554,11.216529,-7.721444,2.728217,0.962685,0.183802,0.157317
6223099599,6.539651,-7.828830,8.455044,0.989561,0.143619,0.153020
6223119643,7.160080,-7.220897,9.371526,0.992085,0.088357,0.143662
6223139687,7.783509,-4.957817,6.294433,0.955944,0.090605,0.140101
6223159731,10.817117,-6.848590,-0.751107,0.959672,0.154662,0.143242
6223179776,11.168112,-9.168253,-3.296117,0.969808,0.206454,0.140339
6223199821,1.610146,-9.768075,-3.344160,0.980210,0.230283,0.128838
6223219865,-11.507644,-7.560978,-5.188335,1.021727,0.250653,0.119686
6223239911,-19.051554,0.599989,-7.614158,1.004653,0.271613,0.108463
6223259955,-26.250883,6.938076,-6.528862,0.967241,0.267136,0.130260
6223280000,-37.195786,4.858154,-4.721245,0.962654,0.241211,0.166221
6223300045,-46.058628,-2.909592,-4.470727,0.982287,0.198884,0.165621
6223320089,-49.193314,-6.487215,-5.365124,0.990051,0.160886,0.134035
6223340134,-47.155525,-2.256273,-7.327415,0.978853,0.158016,0.117406
6223360179,-45.615074,0.318132,-9.322417,0.978607,0.190073,0.137352
6223400270,-61.042412,-4.480703,-11.355573,0.968291,0.235035,0.143461
6223420315,-68.977783,-4.800383,-10.700202,0.960699,0.219062,0.137801
6223440359,-74.404839,-4.742345,-10.376770,0.968313,0.196883,0.137494
6223460404,-76.673149,-6.656569,-12.163105,0.979980,0.176521,0.132102
6223480449,-77.295341,-6.467706,-15.914333,0.976598,0.172641,0.118089
6223500494,-78.210281,-3.861650,-19.840824,0.970975,0.187592,0.119017
6223520538,-81.966164,-2.833448,-22.357510,0.962543,0.211755,0.127223
6223540582,-91.005524,-6.740015,-22.391167,0.965181,0.218671,0.130918
6223560626,-101.374092,-10.432508,-22.193903,0.974779,0.202895,0.137582
6223580672,-110.819885,-9.566031,-23.432648,0.976492,0.177480,0.143905
6223600716,-111.930550,-6.638618,-23.015511,0.964133,0.136498,0.149342
6223620761,-104.743637,-4.840875,-17.290028,0.922017,0.110795,0.151250
6223640806,-97.873329,-12.527959,-10.303747,0.961091,0.132598,0.170930
6223660851,-99.193016,-21.512123,-13.141996,0.966330,0.199218,0.141011
6223680895,-92.747284,-21.514757,-23.483734,0.935132,0.241015,0.107753
6223700940,-86.440720,-33.111000,-22.904041,0.963702,0.264305,0.084644
6223720985,-96.305260,-50.504765,-15.559344,1.014757,0.265882,0.030741
6223741030,-108.578911,-57.089573,-11.139441,1.082683,0.248763,-0.052109
6223761075,-120.053635,-42.181271,-8.863870,1.151008,0.212626,-0.116773
6223781121,-135.702194,-13.449778,-3.217316,1.148573,0.142103,-0.153810
6223801166,-154.220261,19.660866,-0.516418,1.095303,0.054773,-0.074543
6223821210,-162.978424,47.669666,0.095624,1.046818,-0.037374,0.054237
6223841255,-146.201141,62.900440,-3.742284,0.972970,-0.125046,0.181883
6223861300,-108.992218,49.744358,-15.145463,0.856203,-0.156648,0.271790
6223881345,-63.758350,8.880974,-34.164177,0.784100,-0.086263,0.274233
6223901389,-41.933353,-26.683950,-45.732952,0.892603,0.050137,0.299210
6223921434,-47.880936,-37.956078,-40.915257,0.975434,0.168750,0.207427
6223941477,-55.058411,-29.648165,-37.036079,0.961646,0.210203,0.087534
6223961522,-70.378212,-14.690722,-34.281593,1.029828,0.211677,0.092116
6223981567,-91.678497,-4.347097,-26.563095,1.053595,0.143710,0.109512
6224001612,-95.700951,0.225139,-24.913879,1.040626,0.038508,0.133411
6224021657,-83.311310,-0.053667,-29.526260,1.037298,-0.008141,0.168005
6224041701,-62.618656,-4.611118,-33.878284,0.992554,0.027639,0.182041
6224061746,-49.084328,-11.105532,-32.398926,0.966100,0.127775,0.207515
6224081791,-49.015743,-20.496202,-23.873318,0.976371,0.204233,0.186838
6224101836,-53.150917,-24.076601,-15.983767,0.955529,0.215057,0.140528
6224121880,-62.149521,-18.519358,-13.847851,0.946400,0.209673,0.121113
6224141925,-70.021652,-10.620628,-8.515482,0.945894,0.210646,0.140949
6224161970,-72.382553,-6.754250,-1.454112,0.952120,0.211098,0.190883
6224182016,-70.492729,-8.791914,0.658830,0.943271,0.195218,0.207884
6224202061,-66.594810,-13.772933,2.439189,0.948215,0.195374,0.201910
6224222106,-63.651794,-16.684923,6.022832,0.962938,0.187519,0.180049
6224242151,-62.038113,-23.556538,7.814875,0.992798,0.153986,0.156053
6224262195,-63.828228,-30.846493,2.418883,1.024819,0.162605,0.128630
6224282240,-68.340508,-23.800526,-5.948545,0.960891,0.185385,0.070526
6224302285,-81.115822,-8.846473,-5.826641,0.967628,0.162318,0.084149
6224322329,-91.172180,-9.748526,-2.846114,1.057743,0.141820,0.171468
6224342373,-90.965729,-9.454000,-6.664742,1.029567,0.143700,0.183811
6224362418,-80.448174,-8.835614,-14.173806,0.991382,0.196223,0.131841
6224382462,-82.416321,-4.822400,-17.834528,0.998580,0.283312,0.150021
6224402507,-97.272331,0.722517,-20.537018,0.962140,0.333657,0.140599
6224422552,-110.063667,-7.103272,-21.688566,0.936066,0.316134,0.121889
6224442597,-138.770981,-13.533093,-8.442715,0.906550,0.180831,0.084551
6224462642,-158.409805,-12.244897,12.649338,0.919189,0.049290,0.049676
6224482686,-139.226822,-7.930758,8.902344,0.949616,-0.031463,0.065041
6224502731,-112.025551,1.134452,-11.769907,0.942066,-0.035503,0.070572
6224522776,-93.118462,1.125106,-29.977840,0.963651,0.062394,0.112804
6224542821,-92.726845,-2.602808,-37.146141,0.999547,0.217871,0.154301
6224562865,-108.755486,-8.366285,-38.899517,0.979782,0.324743,0.142076
6224582912,-138.635925,-18.735273,-32.345043,0.961247,0.336783,0.092313
6224602956,-160.330246,-30.035061,-17.914196,0.953688,0.266267,0.033023
6224623002,-166.806213,-29.588932,-1.752269,1.015612,0.167245,0.008163
6224643046,-168.181412,-33.653137,0.425714,1.133376,0.062840,-0.002679
6224663091,-170.359680,-32.608440,-13.050576,1.199329,0.006660,-0.070199
6224683136,-161.173355,-11.051802,-26.793377,1.179920,-0.034943,-0.114427
6224703180,-150.845230,17.564039,-25.596888,1.092688,-0.045255,-0.044875
6224723225,-151.647079,29.162271,-28.092890,0.981995,-0.055093,0.066565
6224743269,-159.579437,19.575195,-32.182594,0.936843,-0.087864,0.130692
6224763313,-152.851227,-0.115791,-30.790945,0.959617,-0.131349,0.140230
6224783358,-123.577751,-8.744666,-29.917816,0.955659,-0.153662,0.110068
6224803403,-93.958252,-4.274409,-38.277859,0.936810,-0.108462,0.106280
6224823448,-82.820076,-3.527707,-46.584103,0.954733,0.001255,0.149206
6224843493,-85.185432,-8.215287,-46.569160,0.979119,0.100740,0.177424
6224863537,-98.613655,-15.977729,-43.304886,0.973407,0.130121,0.156655
6224883582,-113.604866,-18.441902,-41.740143,0.995764,0.091213,0.117717
6224903627,-115.409912,-15.285314,-40.098976,1.013804,0.035473,0.099645
6224923672,-104.604927,-11.441754,-41.564358,1.027782,0.008265,0.110351
6224943716,-92.935966,-14.812564,-44.278950,1.034571,0.021880,0.128588
6224963761,-87.586411,-19.363548,-46.822086,1.016895,0.070105,0.142081
6224983807,-87.723007,-24.264790,-44.409023,1.015139,0.118412,0.136845
6225003852,-93.670250,-30.367714,-37.988758,1.001225,0.106899,0.104699
6225023897,-99.278763,-29.913353,-35.599747,1.011720,0.105479,0.094044
6225043941,-96.120415,-21.759218,-32.683395,1.017801,0.122330,0.091947
6225063986,-89.923958,-14.540945,-26.117432,0.970710,0.131817,0.095986
6225084031,-83.436272,-18.057011,-23.771704,0.954156,0.131451,0.111801
6225104076,-83.935051,-24.114470,-24.074503,0.990546,0.147271,0.118218
6225124121,-84.754021,-21.093088,-16.986063,0.994325,0.144194,0.091504
6225144164,-82.142242,-14.425997,-9.150311,0.996754,0.143758,0.099264
6225164209,-80.306786,-9.266546,-8.788345,0.982513,0.148555,0.127708
6225184254,-81.502495,-9.903180,-7.033987,0.954284,0.132235,0.132189
6225204298,-81.386726,-15.678355,-3.814493,0.960731,0.145896,0.143504
6225224343,-76.661186,-18.980827,-3.123864,1.004709,0.205272,0.137417
6225244388,-79.486206,-21.581383,-11.007538,1.021753,0.253795,0.125487
6225264433,-101.508148,-16.374521,-18.614277,0.972806,0.238192,0.085563
6225284478,-126.182625,-10.732529,-10.263614,0.952675,0.127240,0.043814
6225304522,-123.391533,-16.331739,0.622062,1.052346,0.021483,0.098130
6225324567,-101.638756,-12.089105,-5.071996,1.059564,-0.014672,0.130802
6225344612,-87.229004,-5.883927,-21.346752,0.969517,0.030319,0.102004
6225364657,-78.310883,-9.059124,-33.769001,0.946228,0.153068,0.122034
6225384703,-79.247086,-8.231945,-38.432621,0.974871,0.287471,0.171664
6225404747,-107.277939,-11.536058,-36.698540,0.979370,0.366067,0.169864
6225424792,-144.335297,-26.763132,-29.787336,0.918513,0.328843,0.053190
6225444837,-163.545990,-29.485123,-18.118610,0.919263,0.240362,0.022880
6225464882,-164.245239,-19.295464,-8.980926,0.954589,0.195425,0.034070
6225484927,-146.270996,-17.035614,-19.695068,0.974320,0.191109,0.057921
6225504972,-145.981537,-22.752989,-22.800148,1.086960,0.188648,0.051845
6225525016,-163.004440,-19.269554,-16.563051,1.091039,0.140741,0.016581
6225545068,-172.849823,-6.460624,-14.663666,1.101241,0.069463,0.014512
6225565105,-168.424606,6.419601,-12.744251,1.033872,-0.003213,0.036471
6225585149,-157.146545,13.462157,-15.290471,0.971746,-0.065340,0.090519
6225605194,-146.077209,6.678206,-20.099890,0.959715,-0.097860,0.144598
6225625239,-127.931778,-6.870361,-28.202559,0.949986,-0.095314,0.148694
6225645284,-104.130844,-17.246618,-36.077332,0.954743,-0.050033,0.117036
6225665328,-89.393410,-20.095205,-37.848419,0.992840,0.017975,0.107375
6225685373,-90.359291,-15.852339,-35.978546,1.008917,0.079501,0.113813
6225705418,-97.807838,-12.719740,-30.926796,0.998406,0.128519,0.113240
6225725463,-106.064468,-14.754058,-23.974627,1.004001,0.141704,0.132565
6225745509,-117.347336,-18.741457,-22.154999,1.010190,0.110288,0.137786
6225765552,-120.933456,-20.038418,-22.903343,1.012460,0.059011,0.111732
6225785597,-108.805130,-15.715405,-20.486380,1.008919,0.012198,0.098254
6225805643,-94.136169,-12.240625,-23.299013,1.016072,-0.004591,0.123664
6225825688,-89.180412,-11.898194,-29.774796,1.011295,0.040992,0.138821
6225845733,-88.910873,-11.123817,-31.240305,0.980774,0.099619,0.139571
6225865778,-93.905777,-12.781882,-26.423771,0.967378,0.126382,0.144078
6225885822,-99.744843,-17.418980,-22.245501,0.970116,0.115171,0.150017
6225905867,-102.108009,-18.177589,-23.537008,0.980151,0.080828,0.136808
6225925912,-98.826447,-15.938139,-23.358593,0.988958,0.051291,0.130015
6225945979,-90.393448,-12.371885,-20.676418,0.999806,0.054981,0.145814
6225966000,-79.390305,-10.617278,-19.017849,0.982575,0.089707,0.159241
6225986045,-74.561127,-13.258152,-17.383972,0.968951,0.126045,0.163667
6226006090,-81.477158,-17.941401,-16.480886,0.953967,0.126526,0.148713
6226026134,-89.126724,-22.260597,-18.711260,0.972826,0.117327,0.138730
6226046179,-85.407516,-19.619167,-19.595522,0.966450,0.129427,0.134577
6226066224,-77.639374,-21.061419,-17.406321,0.986282,0.114159,0.106897
6226086269,-77.421921,-20.285061,-14.582335,0.996283,0.079589,0.074844
6226106313,-76.610672,-8.923644,-16.625763,0.998954,0.120902,0.107481
6226126359,-73.039536,-2.853539,-16.110365,0.965605,0.192861,0.168007
6226146403,-79.449173,-16.725735,-13.587397,0.947335,0.201199,0.161249
6226166448,-93.226021,-29.374840,-9.691133,0.983062,0.168060,0.128280
6226186493,-101.757355,-20.877649,-10.037525,0.994122,0.125972,0.130256
6226206539,-102.717682,-13.376834,-14.250173,0.991637,0.070520,0.147083
6226226584,-96.072533,-19.997311,-18.972496,1.002627,0.043220,0.151486
6226246628,-83.549561,-22.905920,-23.248207,1.011414,0.077236,0.120951
6226266673,-75.332962,-18.808863,-23.741703,1.006043,0.136781,0.099207
6226286718,-83.992096,-12.241552,-22.782562,0.990297,0.174060,0.115719
6226306763,-99.101425,-9.331776,-20.871552,0.957746,0.176947,0.132300
6226326808,-105.018562,-14.296705,-19.069279,0.954874,0.160500,0.158909
6226346852,-106.392380,-21.873306,-18.830652,0.982165,0.162908,0.157632
6226366896,-108.954742,-22.918890,-16.395018,0.998683,0.156199,0.121572
6226386940,-112.301659,-18.414862,-13.013947,0.999800,0.114449,0.099346
6226406985,-112.288582,-14.249043,-11.578126,0.992802,0.071538,0.101379
6226427030,-103.542992,-13.194242,-15.440088,0.987446,0.063988,0.117790
6226447075,-95.049980,-16.980919,-19.425047,0.983422,0.102558,0.122905
6226467120,-96.119164,-22.201115,-18.185369,1.004683,0.133230,0.109515
6226487164,-100.364433,-22.203594,-14.960752,1.013053,0.117052,0.071015
6226507209,-98.001381,-17.067041,-13.802890,1.018565,0.080369,0.065167
6226527254,-92.448494,-13.065898,-12.973145,1.000472,0.056550,0.087174
6226547299,-86.647636,-13.405272,-12.826842,0.993011,0.055060,0.104976
6226567344,-79.067802,-14.886049,-12.152202,0.997917,0.080356,0.108536
6226587388,-75.441483,-11.977866,-11.603765,1.008943,0.097640,0.101008
6226607435,-76.010323,-8.176786,-11.069715,0.993325,0.095791,0.102912
6226627479,-73.629570,-5.883799,-11.882441,0.982960,0.094692,0.118414
6226647524,-67.727013,-7.537560,-10.356764,0.990898,0.082917,0.120299
6226667569,-68.310417,-7.727693,-11.731022,0.993840,0.077655,0.117269
6226687613,-67.429924,-6.474779,-12.706480,1.001892,0.094176,0.124111
6226707658,-62.930298,-6.089457,-9.221692,0.998811,0.111184,0.137331
6226727703,-63.762756,-10.299058,-8.190477,0.991324,0.110200,0.136920
6226747748,-66.893730,-13.488696,-8.300586,0.984173,0.097716,0.123041
6226767791,-64.886574,-12.091300,-6.968857,0.990422,0.074142,0.116089
6226787836,-59.913494,-11.091516,-5.225250,0.997397,0.054142,0.125683
6226807881,-57.498642,-11.489086,-5.776670,0.999853,0.048488,0.130573
6226827926,-54.158165,-10.412568,-5.544278,0.994941,0.047318,0.122535
6226847970,-50.276825,-8.751262,-5.308967,0.981660,0.055443,0.121824
6226868015,-50.415157,-7.717847,-6.192606,0.991992,0.048639,0.110120
6226888060,-49.727608,-4.228284,-3.009111,0.992903,0.017732,0.086710
6226908105,-45.531490,6.075937,-0.125599,0.950663,0.046666,0.142246
6226928150,-43.772804,4.570995,3.229626,0.919581,0.120054,0.240925
6226948195,-49.586021,-22.395384,10.917988,0.985908,0.133170,0.250588
6226968239,-59.822262,-43.843517,10.452995,1.020231,0.057446,0.125640
6226988284,-53.248688,-25.274740,6.804440,1.077716,-0.030366,0.028457
6227008331,-31.032404,0.616766,6.632481,1.081787,-0.065441,0.052721
6227028375,-23.569826,9.136065,1.676263,1.029938,-0.052116,0.135902
6227048420,-18.331190,6.470111,-0.951603,0.980408,-0.041579,0.166408
6227068464,-9.671150,-2.142139,-2.685884,0.958638,-0.045112,0.174837
6227088509,-5.702678,-5.560262,-7.078363,0.967244,-0.040745,0.153741
6227108554,2.217143,-1.728046,-5.520011,0.939152,0.012997,0.114581
6227128599,11.155424,-1.826359,-4.156209,0.943030,0.083039,0.126140
6227148643,0.660926,-3.894854,-9.848459,0.972993,0.145242,0.153978
6227168687,-15.301328,-6.350341,-7.735378,1.031510,0.153419,0.132851
6227188732,-17.205778,-4.871325,-1.452317,1.052167,0.098053,0.096313
6227208777,-13.841884,4.852970,-5.197412,1.046189,0.049551,0.096397
6227228821,-10.859228,9.728368,-8.904528,1.026219,0.034248,0.144722
6227248866,-5.759420,5.681072,-7.400905,0.983540,0.039107,0.173413
6227268911,2.550776,-4.662574,-6.342570,0.947494,0.053070,0.163748
6227288956,4.508248,-11.878944,-9.931356,0.965346,0.094759,0.154066
6227309000,1.296823,-13.866586,-7.786967,1.015283,0.121113,0.132544
6227329045,-6.230814,-6.924455,0.621456,1.027084,0.095776,0.120184
6227349090,-9.575419,7.143055,8.008310,1.007639,0.029229,0.118407
6227369135,0.821321,14.287031,9.559775,0.953329,-0.008975,0.143636
6227389180,13.594469,10.137674,1.702722,0.956909,0.034968,0.188639
6227409226,13.815022,6.365662,-2.454993,0.957217,0.065210,0.198407
6227429271,8.870273,3.636624,4.061051,0.892734,0.062776,0.144604
6227449316,12.859385,2.971784,3.764454,0.976389,0.042305,0.172242
6227469360,15.512090,-0.384468,-0.785598,1.042735,0.069410,0.124795
6227489405,20.756908,-10.119514,-4.389587,1.040868,0.141119,0.002827
6227509450,23.469204,-4.741050,-5.466793,1.018311,0.255417,-0.072027
6227529495,0.761703,25.742998,-3.584540,1.066180,0.294785,0.011668
6227549539,-27.851509,56.117058,12.741676,1.136176,0.120266,0.089642
6227569583,-8.509103,72.933777,24.881023,1.057520,-0.039063,0.119699
6227589628,8.284853,54.404705,9.670318,0.879090,-0.018500,0.172761
6227609672,19.096249,21.710873,-10.509204,0.907917,0.106218,0.207359
6227629717,23.284811,-9.115074,-13.848989,1.022922,0.232365,0.177204
6227649762,6.815646,-15.747511,-5.100152,1.063416,0.253078,0.062704
6227669807,0.599073,-6.633682,1.163042,1.045762,0.187895,-0.036126
6227689852,0.258892,5.359949,-0.079853,1.052510,0.143279,-0.064751
6227709896,-0.004083,14.692183,-3.728205,1.084651,0.183594,-0.046003
6227729941,-4.130010,27.434744,-3.221047,1.082967,0.255234,-0.026759
6227749986,-14.916373,39.424900,1.527951,1.053424,0.248044,0.001763
6227770031,-25.256485,48.486958,3.084230,1.012992,0.166972,0.027903
6227790075,-22.334940,49.312084,1.240278,0.973947,0.137285,0.077300
6227810120,-23.470112,42.972466,-2.325624,0.970288,0.161156,0.130428
6227830167,-27.948179,38.484390,-2.180391,0.996382,0.144371,0.132578
6227850211,-25.862040,40.688469,1.534496,0.994365,0.089425,0.119634
6227870256,-24.331652,46.920433,3.124331,0.975666,0.066013,0.133802
6227890301,-25.563427,50.119785,-0.434613,0.982234,0.072892,0.190605
6227910345,-24.936684,53.577202,-1.219753,0.963354,0.085745,0.251725
6227930390,-25.082825,51.465496,1.343112,0.915936,0.069955,0.301948
6227950435,-25.781252,45.058422,0.691732,0.896108,0.051260,0.347935
6227970499,-24.043282,34.323990,-0.956996,0.885272,0.033413,0.378776
6227990523,-19.729963,21.421375,-2.090140,0.861423,0.028177,0.374275
6228010568,-14.083438,11.482459,-1.933579,0.866674,0.024787,0.370335
6228030613,-11.378141,5.841472,0.427921,0.881500,0.007345,0.359207
6228050658,-6.404623,5.724245,2.820136,0.868804,-0.005559,0.338827
6228070703,2.053761,5.116202,2.192105,0.869604,0.012585,0.340686
6228090747,6.440561,4.755258,2.364506,0.883160,0.029715,0.367320
6228110792,7.110717,1.130962,6.385255,0.914613,0.023299,0.364780
6228130837,14.583982,-5.813457,9.640861,0.964819,0.013161,0.352757
6228150882,21.031591,-5.522608,9.621625,0.990061,0.005552,0.348907
6228170926,22.109320,5.537363,13.808205,0.930987,0.007131,0.331529
6228190971,31.577669,11.404499,13.752918,0.860491,0.054425,0.383793
6228211016,40.116249,9.212678,7.000659,0.804015,0.140792,0.472438
6228231062,33.784012,-6.500195,6.774570,0.825449,0.187307,0.531845
6228251107,24.661287,-38.118214,8.108572,0.807713,0.192675,0.431158
6228271152,17.402225,-60.406979,3.241026,0.732491,0.184528,0.346914
6228291196,13.941817,-68.725990,4.928594,0.833138,0.197232,0.282903
6228311241,12.518190,-90.097122,6.681449,1.118373,0.198412,0.218059
6228331286,-21.854275,-93.075806,10.017977,1.389876,0.098296,0.148488
6228351331,-58.887249,-38.856663,14.014092,1.402679,-0.064149,0.039030
6228371375,-26.395025,46.780174,8.381671,1.193763,-0.165881,0.073760
6228391419,31.812086,93.572327,-9.958519,0.875772,-0.050688,0.352907
6228411464,56.107254,100.912643,-18.326164,0.733186,0.088863,0.669825
6228431508,57.687042,51.994568,-15.267566,0.573530,0.166898,0.666285
6228451553,38.916546,-34.478565,-17.548313,0.566265,0.205611,0.546644
6228471598,-10.516194,-87.201057,-20.098213,0.738418,0.218105,0.438180
6228491642,-40.755638,-84.761925,-12.136098,0.884701,0.150716,0.310977
6228511688,-23.158066,-63.125454,-1.305894,0.982068,0.062262,0.195244
6228531732,3.557268,-34.531879,-1.248263,1.040313,0.022594,0.188440
6228551777,6.265352,-6.361647,-8.357820,1.053542,0.055631,0.245531
6228571822,4.911704,4.920075,-5.874543,1.004629,0.093357,0.317789
6228591867,8.781637,-2.916077,1.896711,0.963983,0.089408,0.355399
6228611911,6.375036,-16.984835,-2.421583,0.932548,0.091638,0.334029
6228631957,1.402073,-24.970837,-6.771660,0.951403,0.115530,0.273607
6228652002,-0.122975,-26.213594,-1.372658,0.996236,0.114554,0.244262
6228672047,-4.467196,-20.438921,3.043329,1.032743,0.082063,0.226770
6228692092,-3.483416,-12.396915,5.968846,1.044748,0.044473,0.209961
6228712137,5.790651,-2.060067,6.657414,0.991646,0.056116,0.222223
6228732182,12.386984,2.570220,5.680649,0.962303,0.115071,0.283068
6228752226,6.693856,-2.851329,6.636001,0.951425,0.152119,0.315459
6228772271,-1.282683,-7.983347,4.782200,0.932092,0.159175,0.293226
6228792314,-6.365552,-6.360859,2.899826,0.909646,0.145098,0.266867
6228812359,-7.314368,-4.642472,2.478852,0.902133,0.145682,0.281556
6228832404,-12.011227,-6.782954,-0.050479,0.911581,0.128442,0.299703
6228852448,-15.785288,-12.899097,-1.920334,0.945026,0.117411,0.280828
6228872493,-18.552895,-11.923153,-0.444942,0.959275,0.085850,0.245139
6228892538,-20.037754,-6.660901,2.410710,0.949637,0.053097,0.234505
6228912583,-18.178337,-3.613871,4.084834,0.945724,0.036473,0.272215
6228932628,-16.032928,-7.772238,6.449225,0.950931,0.025980,0.306846
6228952672,-11.402807,-14.250626,9.558587,0.945334,0.016570,0.305153
6228972717,-4.459291,-21.668139,7.699209,1.013534,0.032530,0.283486
6228992762,-7.821384,-24.555775,2.661550,1.090658,0.075755,0.243451
6229012807,-19.409060,-8.112239,4.487057,1.046535,0.052933,0.173486
6229032853,-15.878005,8.631226,9.319862,0.987869,0.017014,0.203126
6229052898,-0.402489,12.228773,10.607193,0.968871,0.038478,0.282200
6229072943,2.704792,3.286635,8.313953,0.976061,0.045053,0.286023
6229092988,-12.052757,3.062840,6.278954,0.959807,0.030422,0.258984
6229113033,-13.615825,9.610043,9.941529,0.935689,0.011878,0.279355
6229133077,-8.187575,9.940598,11.743225,0.913661,0.009279,0.315360
6229153122,-8.936676,4.179786,11.449683,0.949475,0.038313,0.332317
6229173167,-11.961921,0.937679,13.174826,1.043028,0.076640,0.292078
6229193210,-11.563070,1.840238,9.674115,1.131481,0.055319,0.212781
6229213255,-24.387337,24.818542,5.080701,1.152728,-0.027895,0.209253
6229233300,-22.868420,56.879742,11.240037,1.108786,-0.120033,0.285896
6229253345,2.759865,73.503967,13.077145,0.951748,-0.139203,0.397712
6229273389,26.492050,72.141106,2.794614,0.838925,-0.022576,0.569729
6229293434,30.431536,58.493050,-0.315715,0.795899,0.140274,0.697718
6229313479,5.854670,44.279785,3.261062,0.721942,0.191616,0.710411
6229333524,-37.889107,19.738924,7.710680,0.682101,0.050672,0.741055
6229353568,-53.208649,-2.068325,10.187571,0.686701,-0.105876,0.685842
6229373613,-29.100449,-5.760409,9.907182,0.708999,-0.221266,0.610116
6229393658,6.800172,-1.780869,4.097281,0.704345,-0.249157,0.601480
6229413702,30.368073,-0.436171,-2.712606,0.681178,-0.151251,0.615434
6229433747,31.527817,-9.527853,-3.261420,0.714153,-0.037138,0.616827
6229453793,15.258655,-18.800655,-0.613877,0.793200,0.002881,0.616346
6229473838,4.808323,-23.593824,2.594280,0.867854,-0.032480,0.571115
6229493883,8.503267,-18.498049,0.153751,0.885219,-0.079624,0.517732
6229513928,22.040752,-15.744944,-3.959869,0.921268,-0.055615,0.496129
6229533973,30.354511,-16.466869,-4.579065,0.969952,0.016810,0.501531
6229554017,20.615597,-13.911849,-3.744982,0.995490,0.075971,0.503051
6229574062,4.450586,-6.221225,-3.834007,0.959312,0.076327,0.502601
6229594107,-1.997817,-5.113943,-4.692190,0.914819,0.015192,0.491400
6229614150,1.084029,-10.909460,-7.186286,0.900833,-0.007243,0.461439
6229634195,5.350218,-8.528718,-12.043629,0.917171,0.028499,0.470732
6229654240,3.982738,-2.584957,-14.621366,0.891984,0.037040,0.490052
6229674284,0.308590,-2.717005,-11.096272,0.850259,0.000105,0.490143
6229694329,2.583074,-10.348271,-7.114509,0.842158,-0.018467,0.489509
6229714374,5.287568,-12.487088,-8.634027,0.858352,0.002355,0.477801
6229734419,6.758697,-8.734876,-11.429532,0.866399,0.046461,0.466753
6229754464,6.204659,-9.517886,-12.795837,0.886021,0.070679,0.452493
6229774508,-0.475192,-15.112267,-9.333954,0.947443,0.072929,0.437173
6229794553,-9.082671,-9.499968,-2.348234,0.953636,0.052170,0.403521
6229814598,-8.615190,-2.186943,1.107592,0.944926,0.028005,0.397374
6229834643,-0.242444,-5.569705,-0.713231,0.973610,0.026210,0.397690
6229854689,0.127099,-4.332632,-4.084521,1.011156,-0.005698,0.399866
6229874734,1.772641,1.495717,-4.003610,1.019283,-0.041319,0.407412
6229894779,14.471567,5.346242,-3.251366,1.000179,-0.041933,0.421572
6229914823,24.837271,6.772083,-7.103246,0.974516,-0.000987,0.420500
6229934869,25.740208,6.603012,-9.486917,0.935429,0.029866,0.382905
6229954913,22.213659,7.359399,-7.556020,0.911442,0.041883,0.356227
6229974958,21.138802,6.031952,-3.684047,0.917814,0.044982,0.344230
6229995003,23.290216,8.105516,-2.727361,0.935862,0.045452,0.345724
6230015046,26.950064,10.404314,-5.058321,0.935628,0.061611,0.348411
6230035091,27.877768,8.632053,-6.160792,0.959120,0.101474,0.362366
6230055136,22.510792,7.300223,-3.375798,0.978244,0.130390,0.353891
6230075180,16.666121,10.195830,1.709589,0.945381,0.142060,0.336347
6230095225,13.359237,8.724507,2.498164,0.912769,0.123474,0.333531
6230115270,8.873305,2.343341,1.487266,0.927232,0.080320,0.321337
6230135315,10.739787,4.333132,1.532021,0.931899,0.047075,0.310083
6230155360,18.075201,13.812067,0.651660,0.909903,0.055255,0.298930
6230175404,20.864607,15.807214,-2.510351,0.910547,0.085559,0.317895
6230195449,11.293387,11.102345,-4.070453,0.920519,0.110867,0.333327
6230215494,6.134168,12.196527,2.192217,0.880661,0.166531,0.333669
6230235538,0.584564,14.839140,3.032189,0.908849,0.201077,0.365820
6230255585,-14.155918,10.360082,3.522738,1.015166,0.117129,0.348989
6230275629,-19.642988,18.786623,4.036795,0.961657,0.010858,0.305501
6230295674,2.905974,36.174282,7.450924,0.784054,0.085007,0.282287
6230315719,23.095066,17.898964,5.210759,0.854833,0.195787,0.417091
6230335764,-15.671346,-7.309404,5.348980,0.995131,0.183921,0.328171
6230355809,-29.195677,-2.209341,13.142330,1.042727,0.050712,0.298936
6230375854,-25.835867,18.408419,13.081841,0.994661,-0.033893,0.387596
6230395898,1.971498,17.650875,4.527320,0.892008,0.016706,0.364305
6230415942,11.281946,6.400786,3.156225,0.904733,0.088761,0.382558
6230435986,-14.545335,4.505348,-2.091043,0.925419,0.021412,0.340657
6230456031,-9.641713,-2.429244,1.184257,0.961071,-0.052852,0.318860
6230476076,8.474680,4.996266,1.350685,0.959350,-0.048045,0.336926
6230496121,20.325331,12.264783,-4.666464,0.944700,0.091804,0.381915
6230516166,18.069244,11.973297,1.963791,0.922882,0.206732,0.420138
6230536210,-4.042293,8.833567,8.748973,0.891257,0.149196,0.391248
6230556255,-18.022259,3.994923,5.485829,0.887544,0.033865,0.382886
6230576300,-6.005342,4.355637,2.513636,0.886523,0.007457,0.384917
6230596345,6.770566,3.959238,7.543169,0.916382,0.040965,0.403159
6230616390,9.890713,4.146876,8.242807,0.891147,0.029695,0.406072
6230636434,6.223199,0.248676,3.345575,0.860985,0.015688,0.398593
6230656479,12.192139,-1.350389,8.298924,0.846609,0.114961,0.405589
6230676525,15.546415,-5.870951,18.821201,0.878205,0.121468,0.387557
6230696570,-3.900810,-16.432461,6.105372,0.920336,0.037878,0.350407
6230716615,-15.957442,-20.081535,-1.759857,1.016138,0.047486,0.276918
6230736660,16.025679,2.678505,16.798216,0.998325,0.118401,0.263547
6230756705,28.712852,15.476236,20.155165,0.961128,0.125523,0.326310
6230776749,-3.409800,3.613943,-2.327944,0.946087,0.036542,0.357617
6230796794,-26.966602,-7.547927,-5.854506,1.002928,-0.000616,0.317005
6230816839,18.441404,-3.472348,17.234987,1.000262,0.009128,0.197272
6230836882,50.627529,-2.734911,11.837546,1.017048,0.077214,0.267301
6230856927,8.144806,7.825250,-12.743309,0.967896,0.082248,0.269086
6230876972,-27.910017,20.043674,-5.279132,0.972448,0.018825,0.244787
6230897017,-0.659827,30.006016,8.383054,0.979341,-0.012281,0.344242
6230917061,25.825886,35.205620,-6.688229,0.865640,0.028009,0.422561
6230937106,18.817684,15.452016,-18.759384,0.845143,0.126657,0.431247
6230957150,-0.373509,-9.640699,-11.206389,0.913651,0.167986,0.426217
6230977195,-12.421562,-17.381054,-6.886161,0.919963,0.121682,0.327589
6230997240,-11.499846,-13.355040,-10.340504,0.943428,0.098758,0.270045
6231017285,-5.994515,-3.606499,-6.788476,0.973653,0.140709,0.296687
6231037330,-10.655280,4.722058,-2.867667,0.967480,0.151698,0.365836
6231057375,-24.627264,5.075406,-4.528320,0.906910,0.109851,0.366194
6231077421,-17.571785,6.809510,-5.330648,0.839732,0.096349,0.364358
6231097465,-8.250204,4.109664,-7.875511,0.799413,0.099404,0.388074
6231117510,-22.037071,-7.419553,-15.118179,0.810405,0.124868,0.427094
6231137555,-39.596741,-15.916808,-14.320340,0.872563,0.118757,0.429328
6231157600,-30.035738,-19.656588,-13.392114,0.904795,0.045479,0.398303
6231177645,-6.404862,-23.966288,-18.924885,0.866256,0.020393,0.254287
6231197690,10.892542,-39.213200,-19.317348,0.916043,0.095791,0.156701
6231217734,5.175601,-50.632301,-19.742672,1.060039,0.193573,0.197097
6231237778,-18.268791,-51.079796,-28.826347,1.160402,0.215725,0.178072
6231257822,-37.132088,-48.866577,-28.104820,1.170313,0.135401,0.084850
6231277867,-29.095894,-28.604532,-15.851570,1.127654,0.059351,0.032269
6231297912,-3.971288,-3.808416,-12.441338,1.065649,0.057759,0.061692
6231317957,9.139122,6.560953,-16.558884,1.006014,0.140737,0.154165
6231338001,3.131074,3.070357,-15.374394,0.976587,0.195557,0.222874
6231358046,-11.050985,-6.323568,-7.646098,0.961450,0.177418,0.229650
6231378091,-10.720882,-5.430788,0.738271,0.940130,0.149756,0.218069
6231398136,2.441827,5.906207,1.898887,0.886770,0.142881,0.228297
6231418181,9.050482,6.043301,-1.671565,0.859751,0.181728,0.299340
6231438225,3.957580,-6.242558,-1.521863,0.889887,0.241621,0.348412
6231458270,-1.652395,-28.514038,1.391448,0.900137,0.243481,0.286835
6231478316,-11.256937,-43.630829,2.058370,0.943539,0.237729,0.199614
6231498361,-12.557166,-42.067020,-4.713423,0.960861,0.287697,0.136325
6231518406,-10.645902,-32.055466,-14.709891,0.967703,0.341239,0.116541
6231538451,-19.407145,-27.921947,-17.434923,0.985852,0.384472,0.106484
6231558495,-39.776447,-29.218269,-15.205345,0.991358,0.398662,0.100944
6231578540,-63.874752,-31.537674,-13.441401,0.994661,0.369267,0.077357
6231598585,-80.197899,-29.897383,-14.224377,1.025314,0.312333,0.071405
6231618630,-86.220200,-25.127682,-16.742460,1.044029,0.262148,0.066402
6231638678,-89.203209,-21.783642,-23.045935,1.017347,0.245410,0.041581
6231658718,-90.405304,-18.379230,-26.894794,1.014971,0.288246,0.035019
6231678763,-95.007469,-11.351327,-24.931107,0.996081,0.310091,0.054002
6231698808,-107.300659,-12.342827,-22.329496,0.994934,0.296999,0.069033
6231718852,-121.074860,-19.688379,-22.270271,1.020816,0.267972,0.054804
6231738897,-127.946075,-17.691294,-22.783230,1.027535,0.239459,0.021584
6231758942,-124.898972,-9.259165,-27.240793,0.995041,0.242307,0.020231
6231778987,-126.531670,-1.759964,-36.316376,0.981825,0.283461,0.060855
6231799031,-137.977859,-4.618099,-41.985348,0.976530,0.316409,0.067646
6231819076,-152.724716,-8.701855,-41.357994,0.948315,0.298835,0.062487
6231839121,-161.848190,-9.847251,-36.860729,0.921905,0.237170,0.065807
6231859166,-161.371246,-11.001161,-32.856071,0.928359,0.175560,0.081658
6231879211,-156.561218,-16.348646,-32.948837,0.968251,0.130343,0.088878
6231899257,-149.399384,-21.053745,-36.678940,0.964905,0.122257,0.073261
6231919301,-136.671951,-23.326509,-29.506519,0.920828,0.151084,0.047664
6231939346,-124.994125,-38.943253,-18.047192,1.064290,0.231349,0.035030
6231959391,-148.091949,-56.190231,-13.937985,1.263526,0.250129,0.006741
6231979436,-198.150223,-52.352570,-10.213377,1.344330,0.080894,-0.106626
6231999481,-219.464279,-15.019118,-3.068805,1.335881,-0.139438,-0.184169
6232019526,-176.183182,40.732983,-2.242048,1.209577,-0.279450,-0.103270
6232039571,-110.640228,65.278458,-22.110636,1.003797,-0.260778,0.084628
6232059614,-74.277946,43.642643,-46.122822,0.834115,-0.181594,0.255901
6232079659,-67.414680,6.107348,-56.607498,0.781086,-0.062253,0.297593
6232099703,-81.151443,-17.350098,-52.975586,0.821458,0.050370,0.259903
6232119748,-101.424141,-20.910387,-48.253426,0.840323,0.163764,0.196193
6232139793,-111.004379,-21.060881,-46.381908,0.830968,0.203765,0.136434
6232159838,-114.536995,-22.284061,-35.124302,0.820986,0.158585,0.121165
6232179882,-120.694206,-21.397533,-19.323292,0.948711,0.035905,0.162715
6232199927,-106.427055,-14.582687,-15.462374,1.158622,-0.127895,0.172611
6232219972,-83.079056,-8.980464,-20.171949,1.172610,-0.180581,0.152481
6232240017,-79.835762,7.626104,-32.919834,0.998116,-0.061436,0.155230
6232260062,-75.252701,18.536921,-32.531048,0.859782,0.115629,0.223864
6232280106,-79.002319,4.057990,-21.990599,0.880544,0.145941,0.335386
6232300152,-76.014740,0.169156,-10.239560,0.971547,0.024773,0.296081
6232320197,-61.743244,-21.228577,-3.700833,0.989119,-0.028366,0.208517
6232340242,-63.331692,-49.248955,-16.072369,1.132029,0.013205,0.139386
6232360287,-49.004051,-35.473068,-31.584202,1.107859,0.116279,0.034659
6232380331,-34.178307,-10.898388,-33.290474,1.005932,0.139841,0.005769
6232400376,-38.982033,-7.496819,-16.648975,1.051958,0.125077,0.026075
6232420421,-52.905617,-8.033572,-3.194459,1.137382,0.104303,0.040709
6232440466,-49.044643,5.766430,-2.147692,1.068301,0.049032,0.020540
6232460510,-30.149591,20.099186,-4.454474,0.951580,0.048732,0.064757
6232480555,-24.534828,16.470051,-1.690559,0.940136,0.061557,0.137312
6232500599,-29.802641,6.010810,3.555397,0.968524,0.036366,0.154116
6232520644,-24.442482,-1.343880,3.140338,0.982242,0.016996,0.138989
6232540689,-12.742930,-3.186387,1.734412,1.031133,0.032023,0.137219
6232560734,-3.889149,0.897450,6.850728,1.019450,0.053811,0.125574
6232580778,-0.837873,5.563638,11.272006,0.985357,0.061957,0.134999
6232600823,-5.285096,3.699057,14.263765,0.983643,0.040467,0.147455
6232620868,-3.289396,2.019290,18.051580,0.968002,0.005257,0.150181
6232640913,6.323701,-0.026080,17.873154,0.974906,-0.014315,0.155855
6232660958,15.159546,-4.693561,16.491856,0.987166,-0.018640,0.150518
6232681003,18.617800,-2.963182,17.393137,0.978401,-0.008250,0.144632
6232701049,21.876347,2.810725,17.819792,0.971943,0.029848,0.167578
6232721094,22.219494,4.202076,19.415688,0.972214,0.062062,0.197541
6232741138,16.698320,-0.541850,23.271652,0.940563,0.067482,0.200725
6232761183,12.785812,-4.216068,25.796309,0.907348,0.085155,0.205708
6232781228,12.369983,-3.182863,23.916800,0.919401,0.091255,0.254363
6232801272,6.593547,-3.596524,22.559711,0.974445,0.065886,0.314245
6232821317,4.823380,-1.826965,16.065588,0.944940,0.081211,0.317362
6232841362,16.710281,1.886255,-2.671032,0.754234,0.137756,0.265974
6232861407,13.565053,0.310441,2.679762,0.674511,0.116929,0.221407
6232881450,-0.002477,-74.183563,11.318142,1.106526,0.063739,0.215989
6232901495,-38.713470,-137.023651,10.104987,1.510435,-0.087153,0.156453
6232921540,-63.664299,-82.726280,8.431801,1.685834,-0.288670,-0.038897
6232941585,-10.331844,47.508640,19.609085,1.317274,-0.320030,-0.158596
6232961629,72.524612,109.123795,18.405132,0.813311,-0.155650,0.095115
6232981674,133.930893,91.288727,-7.311087,0.560673,-0.066453,0.569516
6233001719,140.543976,14.565305,-32.749599,0.486494,0.121840,0.634519
6233021764,89.995705,-61.229904,-47.641243,0.583119,0.286953,0.371290
6233041808,7.485774,-103.212875,-46.702297,0.737918,0.323347,0.266690
6233061853,-50.090290,-118.773842,-27.352766,0.949241,0.274653,0.149003
6233081898,-50.590958,-100.854607,-1.737920,1.141680,0.112467,0.044042
6233101943,-7.014829,-42.900513,11.616590,1.197348,-0.048537,-0.067391
6233121989,41.757500,6.188925,-3.766100,1.113636,-0.061697,-0.056240
6233142034,55.645046,25.062462,-25.480673,1.078343,0.079335,0.121241
6233162079,45.189934,16.603289,-27.754187,1.074851,0.233054,0.215907
6233182123,30.059021,-7.464314,-14.603370,0.997347,0.279604,0.176718
6233202168,11.449095,-29.081657,-1.824349,0.979882,0.254502,0.111428
6233222213,-8.402919,-37.552795,1.924085,1.062064,0.209716,0.064417
6233242258,-24.322859,-19.615049,5.373619,1.060326,0.105938,0.031575
6233262303,-14.557862,6.132373,15.780037,1.003443,0.011592,0.041407
6233282346,14.983552,17.902044,13.355960,0.917670,-0.009716,0.118708
6233302391,32.130135,15.516110,-2.840236,0.873999,0.043782,0.189327
6233322435,29.505135,-0.118518,-7.856259,0.896363,0.135144,0.187097
6233342480,14.206885,-9.429522,-3.783884,0.949519,0.194226,0.159593
6233362525,-1.003623,-6.268268,-0.615315,1.022880,0.199944,0.131676
6233382570,-0.481005,1.431589,1.163698,1.026471,0.172677,0.112990
6233402614,-1.102343,8.855749,-3.836159,1.010475,0.127140,0.123901
6233422659,-1.840131,4.598179,-7.864174,1.035777,0.106274,0.127536
6233442704,4.632728,2.784358,-6.236063,1.063636,0.107023,0.112347
6233462749,7.801733,12.845309,-5.424241,1.046797,0.138477,0.102951
6233482794,3.063570,21.970772,-4.238559,1.015823,0.166072,0.135455
6233502838,-7.028940,22.946836,0.325075,0.991130,0.154828,0.168143
6233522884,-11.567918,20.443953,3.485744,0.963373,0.118379,0.163598
6233542930,-7.217297,19.307253,2.516411,0.954371,0.106273,0.160172
6233562974,-3.473419,21.955585,0.123531,0.949461,0.128479,0.169786
6233583019,-6.431364,26.639999,-0.246752,0.946271,0.132109,0.185939
6233603064,-11.973389,29.899929,4.279834,0.968502,0.118668,0.213799
6233623108,-10.217686,33.839153,12.223767,1.018052,0.122500,0.241078
6233643153,-1.810048,36.864693,12.499268,1.029609,0.149395,0.252412
6233663198,-6.856575,42.707527,-1.812815,0.981651,0.175417,0.259404
6233683241,-25.980173,48.414528,-7.225326,0.994623,0.197116,0.261231
6233703286,-27.990320,51.674595,4.382051,1.010135,0.205408,0.292504
6233723331,-25.315613,55.511433,6.148216,0.968233,0.167479,0.343587
6233743376,-38.378075,45.781921,-3.387196,0.977421,0.118895,0.388576
6233763421,-50.558792,43.227432,5.530598,1.028671,0.065507,0.398860
6233783465,-40.248783,55.440182,21.788866,0.993305,-0.015861,0.407194
6233803510,-28.079657,69.855934,22.100939,0.891267,-0.070868,0.518159
6233823555,-24.943087,66.824799,14.690010,0.802341,-0.072433,0.671297
6233843600,-18.689894,52.552818,14.518430,0.733730,-0.070429,0.730231
6233863645,-8.854394,33.908455,16.807081,0.679008,-0.074493,0.723037
6233883689,-5.098346,19.034296,8.046542,0.663501,-0.066030,0.764188
6233903734,-1.294564,11.116179,2.493981,0.641126,-0.055196,0.741174
6233923780,1.667994,4.842303,0.846883,0.607244,-0.056046,0.729917
6233943825,5.363212,-4.997632,-2.348975,0.617148,-0.041153,0.692265
6233963870,12.006016,-13.599936,-2.749834,0.673968,-0.012850,0.664587
6233983914,10.864171,-14.450212,-2.717420,0.708255,0.011446,0.653712
6234003959,5.824064,-16.056797,-1.808772,0.726978,0.007630,0.681557
6234024004,2.367093,-23.282043,-1.737345,0.751742,0.002200,0.637809
6234044049,5.145452,-29.030729,-2.096035,0.829659,0.010178,0.591697
6234064093,8.869399,-29.232588,-4.364175,0.912877,0.011355,0.511266
6234084137,8.454299,-20.346775,-3.828495,0.956710,0.034123,0.473068
6234104182,6.742415,-9.468499,-3.383793,0.957043,0.077753,0.505942
6234124227,-3.323771,-4.588827,-5.749082,0.934264,0.067492,0.514782
6234144271,-10.571528,-7.621563,-2.909967,0.952767,0.023102,0.516376
6234164316,-10.075063,-8.016873,-2.121097,0.973229,-0.016079,0.498731
6234184361,-7.168860,-0.876042,-5.029846,0.958953,-0.031501,0.504854
6234204406,-1.016842,4.042996,-7.024331,0.898675,-0.026349,0.537512
6234224450,4.039467,-0.050506,-6.937335,0.849949,-0.020122,0.553766
6234244495,4.487459,-5.356900,-8.535596,0.820340,-0.014822,0.544674
6234264540,5.769644,-7.874512,-10.028614,0.809585,-0.000692,0.522355
6234284585,6.984820,-7.754127,-10.418959,0.791917,0.029665,0.510868
6234304630,7.823104,-10.872027,-12.395577,0.796728,0.062458,0.492059
6234324676,4.754848,-14.191577,-13.938285,0.847431,0.082357,0.487076
6234344720,1.647693,-13.346018,-15.713179,0.903234,0.086385,0.441382
6234364765,2.436480,-8.193866,-16.684002,0.927114,0.101296,0.422314
6234384810,1.218971,-4.225335,-16.868877,0.919643,0.132676,0.447038
6234404855,-4.179615,-3.864490,-19.197117,0.887938,0.153128,0.448640
6234424900,-7.031201,-8.316938,-21.197512,0.917650,0.161289,0.428578
6234444944,-7.100117,-13.379705,-22.891075,0.960739,0.180169,0.405794
6234464989,-10.083008,-11.934518,-26.259712,0.959409,0.228446,0.409846
6234485043,-19.855892,-10.437057,-27.846987,0.940492,0.237378,0.408178
6234505077,-33.231327,-14.345076,-22.552679,0.947184,0.192611,0.396305
6234525122,-40.890686,-20.058249,-14.717893,0.972338,0.108398,0.363862
6234545167,-36.443821,-20.250353,-10.836000,0.986719,0.066991,0.328437
6234565211,-22.634863,-13.642328,-11.397603,0.987431,0.099090,0.305962
6234585257,-16.746443,-5.955812,-12.067101,0.945220,0.147144,0.295607
6234605301,-19.023180,-7.510267,-8.254263,0.888274,0.105548,0.275231
6234625346,-19.148689,-15.912471,0.736615,0.918769,0.049878,0.267355
6234645391,-11.023733,-14.718221,1.526440,0.991778,0.059457,0.280738
6234665436,1.975603,3.829078,-3.733113,0.977329,0.125440,0.248040
6234685481,7.766585,16.815084,-0.590107,0.914853,0.156835,0.286929
6234705525,1.135991,12.832990,5.048707,0.864931,0.161082,0.354266
6234725570,-3.602571,1.968394,5.727629,0.922186,0.169152,0.328306
6234745616,1.919081,8.797217,6.981566,0.956776,0.143194,0.227622
6234765661,11.808081,23.837244,5.185028,0.910816,0.143324,0.263521
6234785706,18.245419,22.897638,7.048753,0.921054,0.197021,0.322241
6234805751,1.112865,11.550533,9.567746,0.973805,0.200494,0.344266
6234825795,-13.920757,11.124221,12.989755,1.001233,0.163822,0.297335
6234845840,-7.277079,16.864132,11.935393,1.002025,0.126342,0.310123
6234865885,-3.102134,19.967762,8.723619,0.946608,0.112673,0.334595
6234885947,-6.258652,17.986973,9.313448,0.894208,0.064608,0.374305
6234905973,-4.195253,10.391397,7.765913,0.896512,0.012827,0.391774
6234926018,19.841948,-2.222219,11.082720,0.945109,0.046272,0.364722
6234946063,23.256811,-2.189728,5.403732,0.971951,0.137913,0.359974
6234966108,6.500782,2.369032,3.349060,0.959424,0.200224,0.365195
6234986152,-0.796120,1.138695,8.388535,0.927347,0.176594,0.371893
6235006197,-6.091853,-1.791364,6.694938,0.918349,0.117926,0.359383
6235026242,-3.299109,-0.882490,4.928077,0.913063,0.084380,0.323841
6235046287,3.701642,2.624762,8.863071,0.920346,0.070019,0.319733
6235066331,5.472209,4.622579,9.670383,0.902212,0.070385,0.320144
6235086376,4.064694,5.915515,8.788612,0.900629,0.077339,0.332912
6235106421,7.001613,3.733217,12.417320,0.898585,0.087988,0.363856
6235126466,6.666447,-3.730641,11.832721,0.907209,0.088123,0.375207
6235146512,-3.618221,-5.639199,7.258600,0.890962,0.066529,0.343401
6235166557,-3.169142,-3.116639,6.186211,0.861850,0.087104,0.304598
6235186602,7.765773,-9.324858,13.703681,0.962392,0.162499,0.323738
6235206646,2.349156,-11.165359,17.670372,1.013255,0.159937,0.339517
6235226691,-11.434450,-5.135880,12.848935,1.008625,0.023935,0.269865
6235246736,-7.998328,-5.478643,0.961228,1.021568,-0.053713,0.237460
6235266781,11.670880,5.159245,-1.919369,1.035156,-0.022765,0.258699
6235286826,26.468409,19.849636,5.670622,0.949340,0.065306,0.295584
6235306869,18.614370,19.276148,-0.134706,0.880392,0.163560,0.375845
6235326913,-1.941105,1.880251,-1.141493,0.900175,0.194018,0.367635
6235346958,-16.185127,-17.996450,3.328938,0.958218,0.110976,0.288170
6235367003,-14.332783,-10.520904,-0.966195,0.980662,0.074219,0.231826
6235387048,0.124592,10.465132,-5.843081,0.976426,0.090069,0.258887
6235407093,-1.369885,16.502256,-3.887047,0.930063,0.106731,0.323325
6235427138,-12.537813,9.451545,-2.362515,0.911651,0.106947,0.352778
6235447182,-18.716927,5.048759,-1.739604,0.902470,0.081601,0.346092
6235467227,-16.487532,1.155429,-1.402575,0.918503,0.067009,0.340776
6235487272,-15.934839,-2.456672,-4.267877,0.948866,0.068866,0.345262
6235507316,-17.444796,-2.821568,-7.295655,0.942551,0.063184,0.328237
6235527361,-15.243082,-1.501600,-8.738405,0.916418,0.054511,0.310364
6235547407,-13.406600,-7.188579,-8.899474,0.961432,0.044633,0.298392
6235567452,-16.126070,-12.530790,-11.715198,1.017040,0.024041,0.289227
6235587497,-11.647618,-1.721154,-16.780212,1.013638,0.010646,0.295685
6235607542,1.052180,17.367378,-19.104937,0.916923,-0.003088,0.351449
6235627587,10.991672,15.749011,-15.637107,0.795777,0.057476,0.369183
6235647631,18.909634,-6.982186,-11.821465,0.847083,0.189907,0.420087
6235667676,1.970549,-29.340988,-5.133954,0.930805,0.234267,0.374173
6235687721,-17.859180,-47.480911,-2.877353,0.872883,0.154805,0.234744
6235707764,-30.209764,-38.160038,-4.315131,0.884052,0.063744,0.184592
6235727809,-20.297848,-15.051122,4.012860,0.929083,-0.026233,0.152614
6235747854,12.847228,3.680667,8.212962,0.959686,-0.058609,0.214014
6235767899,35.892910,10.482216,-0.586456,0.967855,-0.003319,0.299381
6235787943,41.595360,-6.255380,-8.430725,0.858374,0.093186,0.193721
6235807988,36.213120,-35.992073,-8.018520,0.859999,0.195814,0.143358
6235828033,12.863018,-69.132217,-4.638949,1.040341,0.260397,0.156524
6235848078,-10.575455,-95.425186,-3.786829,1.178809,0.220885,0.060626
6235868123,-17.826815,-82.260269,0.324492,1.190473,0.091341,-0.115301
6235888168,-2.801681,-37.273106,9.240149,1.168365,-0.004956,-0.214271
6235908212,26.040207,8.427440,8.503473,1.163576,0.006561,-0.119806
6235928257,46.518818,27.514294,0.504425,1.137948,0.121627,0.054773
6235948303,43.033382,23.160847,-2.283506,1.015182,0.242003,0.132729
6235968348,20.838701,8.692356,-3.905192,0.958973,0.297488,0.199962
6235988393,-11.336105,-5.644759,-2.989775,0.969942,0.271955,0.246777
6236008437,-23.451412,-10.533471,4.261317,0.939054,0.152155,0.194734
6236028482,-4.390435,-10.821599,8.602621,0.897267,0.091465,0.137481
6236048527,20.142473,-18.826435,2.136998,0.943180,0.157520,0.126163
6236068572,16.094595,-21.052542,-3.619766,0.988068,0.260703,0.115989
6236088617,-6.080513,-13.160516,-6.824494,0.945745,0.321640,0.084130
6236108661,-26.918596,-6.187456,-5.879015,0.931355,0.330951,0.093690
6236128705,-45.004581,-4.975968,-0.210610,0.958900,0.263135,0.127045
6236148749,-53.763863,-12.083024,-1.028072,0.956025,0.192231,0.111859
6236168794,-46.996944,-26.373737,-8.029568,1.035277,0.199417,0.072319
6236188839,-43.203110,-26.675167,-11.859900,1.066302,0.292969,0.050560
6236208884,-57.270699,-13.065905,-13.037164,1.001835,0.388336,0.056585
6236228928,-87.154541,-3.082325,-11.133835,0.890051,0.365392,0.081177
6236248973,-117.167824,-11.627850,-6.393226,0.886988,0.242183,0.118954
6236269018,-124.017693,-33.184925,-5.985121,0.984727,0.111464,0.096711
6236289063,-99.196526,-43.479202,-15.513346,1.038223,0.061859,-0.007645
6236309108,-73.101433,-40.969666,-30.053429,1.052070,0.131405,-0.093791
6236329152,-72.445656,-21.410938,-40.902542,1.054369,0.257839,-0.078430
6236349197,-91.804260,4.058380,-45.623432,1.041931,0.358488,-0.016257
6236369243,-113.966187,8.087634,-35.545925,1.005450,0.374907,0.035145
6236389288,-135.017166,-5.878518,-16.607454,0.982461,0.313007,0.050783
6236409333,-150.541290,-17.132624,-7.038719,0.968990,0.211048,0.018295
6236429378,-146.882217,-14.515656,-11.716410,0.968832,0.133925,-0.019035
6236449423,-130.221527,-6.500186,-20.749897,0.987861,0.116041,-0.007094
6236469467,-123.179932,-0.162684,-27.392084,0.994912,0.167614,0.041240
6236489512,-132.156708,0.421941,-29.121731,0.968984,0.206213,0.055390
6236509566,-141.440857,-11.756361,-17.611588,0.950057,0.188773,0.025260
6236529600,-151.618851,-32.559334,-3.107687,1.034385,0.149983,0.017456
6236549645,-171.299438,-36.652176,1.633291,1.124821,0.079706,-0.045216
6236569690,-169.014648,-22.967781,-3.882338,1.139096,0.000589,-0.101453
6236589735,-154.124191,0.608227,-12.063717,1.132153,-0.068022,-0.060423
6236609779,-142.899261,13.396623,-15.346318,1.121474,-0.166034,-0.008342
6236629824,-127.089531,17.828840,-16.530666,1.076729,-0.257212,0.010656
6236649869,-101.214790,27.523287,-26.497255,0.996616,-0.271426,0.059808
6236669914,-72.311340,28.265961,-43.411251,0.911291,-0.138540,0.142486
6236689959,-54.660095,10.019807,-53.250282,0.890083,0.047817,0.250775
6236710003,-71.458603,-9.968670,-48.714451,0.914804,0.182451,0.273971
6236730048,-105.522362,-25.962458,-33.955776,0.931419,0.187686,0.175721
6236750093,-124.403580,-23.668152,-22.020056,0.949904,0.125250,0.102807
6236770139,-117.708153,-6.908033,-24.746023,1.035401,0.029849,0.047772
6236790184,-95.774933,17.043051,-30.437241,0.953358,0.013228,0.062878
6236810229,-104.423828,32.545353,-37.051594,0.823582,0.141022,0.256166
6236830273,-122.596062,7.146017,-33.292416,0.921997,0.158034,0.366089
6236850318,-104.746025,-29.134932,-22.241787,0.959209,-0.033473,0.246943
6236870363,-77.490280,-38.999264,-17.573343,0.952760,-0.140401,0.134974
6236890408,-63.853432,-41.498032,-21.027588,0.999844,-0.098048,0.051026
6236910470,-41.746353,-29.005688,-19.502399,1.059552,0.032119,0.058581
6236930496,-47.552986,-21.869837,-16.440161,1.051270,0.126220,0.131581
6236950540,-60.191139,-31.982044,-14.208198,1.074947,0.063642,0.087477
6236970585,-45.522278,-41.167305,-10.990404,1.131597,0.007948,-0.032648
6236990630,-14.612001,-27.864658,-16.047121,1.130880,0.076474,-0.101138
6237010675,1.279307,4.155413,-23.002375,1.085872,0.177015,-0.058049
6237030720,-14.122158,17.108809,-14.783049,1.091131,0.194472,-0.028747
6237050765,-31.829029,12.739042,3.259840,1.069272,0.146456,-0.019679
6237070810,-30.541779,21.459726,11.675179,1.036252,0.076174,-0.011419
6237090855,-9.172452,31.487881,8.325027,1.041234,0.041719,-0.012828
6237110900,4.972782,35.290871,7.573040,1.038512,0.062879,0.020390
6237130944,3.723970,38.302742,9.606235,1.021714,0.123106,0.068844
6237150989,-1.262658,36.855724,10.506703,1.018483,0.164553,0.095154
6237171035,-3.418659,34.002518,16.696753,1.007049,0.136663,0.097577
6237191080,-1.226200,34.779663,25.051714,0.984306,0.076024,0.099004
6237211125,5.915609,39.873692,25.342583,0.967416,0.041360,0.124022
6237231170,14.381816,39.644726,22.596249,0.965796,0.043528,0.155584
6237251214,20.966003,32.509350,22.072557,0.960170,0.069483,0.177726
6237271259,23.435732,25.211084,23.264214,0.946837,0.095556,0.187883
6237291304,22.185680,20.469976,24.695282,0.937315,0.098700,0.186878
6237311370,17.506317,19.228241,26.324558,0.941479,0.099551,0.199647
6237331392,14.225250,20.143354,26.760239,0.932465,0.084198,0.213547
6237351437,12.427246,19.156586,26.249292,0.935608,0.059772,0.233437
6237371482,12.102053,19.141872,26.708899,0.962517,0.056244,0.267622
6237391526,13.307913,20.790375,27.132339,0.939987,0.053455,0.288876
6237411571,14.364698,20.507397,25.273256,0.925824,0.041089,0.301803
6237431616,14.748908,21.205761,24.012632,0.924564,0.012841,0.313590
6237451661,19.028721,24.462894,24.304323,0.897903,0.000505,0.329976
6237471705,27.514244,21.633713,19.891893,0.866765,0.040870,0.413176
6237491750,27.531267,4.093900,8.823725,0.892970,0.097647,0.451957
6237511795,21.391258,-23.185146,-3.246972,0.815441,0.104106,0.328063
6237531840,9.092745,-25.937551,4.780571,0.892550,0.078751,0.272388
6237551885,1.991632,-45.144947,23.914154,1.183635,0.112536,0.290077
6237571931,-6.447195,-44.061264,17.479424,1.298248,0.097094,0.208191
6237591975,-20.321278,-4.975727,-2.967227,1.274968,0.036275,0.233834
6237612020,-30.066607,42.614632,0.551679,1.054521,-0.050778,0.432967
6237632065,-8.968934,46.230560,2.801501,0.780800,-0.123739,0.567135
6237652117,19.535042,2.495329,-11.850458,0.650849,-0.095172,0.516968
6237672154,25.959475,-24.672426,-22.752956,0.702993,0.025571,0.454169
6237692199,10.735436,-23.230146,-22.310007,0.692921,0.066284,0.365537
6237712244,-0.718896,-22.253916,-19.983328,0.667944,0.054010,0.368916
6237732287,-2.818491,-34.153271,-16.603931,0.763298,0.029092,0.423352
6237752332,3.752281,-48.675606,-15.116922,0.902722,-0.001118,0.354880
6237772377,14.984379,-45.379387,-15.960367,1.016486,0.005488,0.294201
6237792422,16.752632,-24.227720,-14.957834,1.063230,0.049746,0.296089
6237812466,9.841491,-8.455939,-10.600183,1.021659,0.104500,0.343223
6237832511,3.627624,-15.837138,-7.696319,0.958895,0.091709,0.360533
6237852556,4.739443,-32.218346,-9.350144,0.939918,0.060281,0.312309
6237872601,14.833511,-42.412777,-11.086306,0.992384,0.063337,0.251394
6237892646,20.234118,-44.339691,-9.472721,1.024393,0.081990,0.187105
6237912691,21.288036,-37.978733,-9.281121,1.029051,0.118557,0.147870
6237932735,18.364178,-24.645287,-10.833060,1.004014,0.169082,0.136436
6237952780,11.430407,-11.140683,-11.325947,0.967764,0.202077,0.161027
6237972826,-0.247735,-7.921134,-6.957970,0.939671,0.189445,0.196434
6237992871,-9.392120,-12.068812,-2.518654,0.929997,0.147594,0.213370
6238012916,-9.275879,-16.165443,-1.974773,0.971853,0.124200,0.216691
6238032960,-5.504565,-15.553136,-2.179488,0.988840,0.135208,0.198333
6238053005,-1.564795,-12.211873,-1.382459,0.984884,0.144348,0.193403
6238073050,-2.566734,-12.287704,-2.913602,1.010755,0.117821,0.221944
6238093095,-9.374727,-15.596329,-4.244805,1.027293,0.076570,0.224955
6238113139,-12.618247,-15.881053,-1.362807,1.000152,0.049508,0.183646
6238133183,0.545443,-14.151848,-1.328240,1.011754,0.050185,0.150220
6238153228,15.396569,-8.601820,-3.222416,1.042034,0.068626,0.140821
6238173273,13.350655,2.573165,-2.790670,1.011387,0.100587,0.147708
6238193318,5.965880,8.021971,-2.061173,0.998625,0.163493,0.171677
6238213362,6.232447,5.098859,5.443568,1.016093,0.187529,0.203199
6238233407,-6.557366,9.952970,8.591977,0.974038,0.110372,0.212724
6238253452,-12.779473,10.230649,5.668285,0.986415,0.048366,0.198850
6238273497,2.352877,15.355779,5.951188,1.023531,0.046075,0.210976
6238293542,12.092436,31.429714,4.345275,0.955473,0.091734,0.206551
6238313586,13.154099,42.340714,-1.592597,0.896305,0.177665,0.279884
6238333631,1.796908,39.210472,-3.727103,0.923324,0.240685,0.376342
6238353676,-24.432144,24.588007,-0.579132,0.918476,0.199125,0.367909
6238373722,-45.438301,12.895140,3.105015,0.949789,0.088604,0.315971
6238393767,-39.964161,21.610144,6.947754,0.998536,0.021130,0.277098
6238413812,-15.231766,40.262428,4.150272,0.996947,0.029488,0.269733
6238433856,-3.127824,55.557411,-1.091723,1.000502,0.118722,0.324742
6238453901,-8.484322,60.009693,1.672486,1.004574,0.206982,0.384679
6238473946,-29.629887,57.954041,4.061099,1.017593,0.182281,0.449802
6238493991,-54.867973,62.019794,4.928788,0.970735,0.088252,0.461070
6238514036,-52.142471,73.170204,10.534888,0.884416,0.001676,0.475721
6238534091,-34.390770,69.994476,13.845256,0.826941,-0.052405,0.592740
6238554124,-23.079239,51.595230,6.332848,0.741083,-0.094070,0.691331
6238574168,-20.503050,34.167740,-3.574213,0.689781,-0.097589,0.728496
6238594213,-12.569985,18.442842,-3.140217,0.696202,-0.081417,0.759091
6238614258,-4.909218,7.962598,-2.853840,0.700919,-0.063049,0.762343
6238634303,-3.227885,1.383598,-9.381773,0.688471,-0.031887,0.746790
6238654348,0.646410,-3.097759,-12.043171,0.666077,-0.016111,0.751413
6238674392,4.506148,-9.281215,-13.720090,0.628939,-0.005337,0.727290
6238694437,5.457647,-16.435308,-15.975636,0.613594,0.013246,0.706266
6238714482,2.294523,-26.153612,-15.408915,0.634600,0.033096,0.696059
6238734527,3.224947,-36.064140,-11.902263,0.689492,0.051594,0.657522
6238754571,4.665997,-45.329941,-10.373274,0.788817,0.066639,0.561616
6238774616,-3.105613,-42.109024,-12.327964,0.873563,0.086702,0.486412
6238794663,-9.180622,-27.813999,-11.296903,0.939115,0.094566,0.486917
6238814707,-8.654119,-21.130157,-4.024168,0.980237,0.053393,0.526160
6238834752,-6.878817,-16.532907,-3.219350,0.946446,0.002436,0.519960
6238854797,3.181443,-12.674365,-6.591235,0.940208,0.010585,0.511836
6238874842,12.028942,-15.054061,-8.005259,0.967789,0.063810,0.503768
6238894886,7.057866,-10.557693,-7.864740,0.974935,0.113720,0.486747
6238914931,-2.016716,-1.153457,-3.568282,0.920913,0.123512,0.493373
6238934976,-6.468324,-1.155884,-0.623959,0.864413,0.087045,0.527221
6238955019,-9.539745,-8.206942,-1.210826,0.849389,0.050084,0.528691
6238975064,-8.198957,-8.298969,-0.459189,0.836575,0.042213,0.510544
6238995109,-2.198789,-5.150355,-1.551877,0.815002,0.089976,0.515091
6239015153,-3.386102,-7.666569,-4.671514,0.818778,0.164069,0.519424
6239035198,-16.403267,-14.199158,-3.857032,0.850292,0.189133,0.495593
6239055243,-34.647125,-19.134954,5.223774,0.908768,0.126461,0.485157
6239075288,-41.747871,-19.954391,11.663124,0.962238,0.025187,0.471634
6239095333,-29.221821,-13.378121,5.649069,0.959304,-0.039977,0.443290
6239115378,-7.256076,-5.532811,0.247086,0.951768,-0.054645,0.454281
6239135422,6.639501,-5.773053,-0.240141,0.941343,-0.040322,0.471658
6239155467,9.134100,-6.225245,-3.778493,0.919685,-0.013813,0.436775
6239175512,12.472732,-6.190013,-3.529866,0.910078,0.015383,0.407694
6239195558,17.140753,-7.227525,-3.054250,0.915661,0.044323,0.387011
6239215603,17.022951,-7.045490,-4.127698,0.945071,0.092606,0.355144
6239235648,14.045431,-3.768300,-6.964828,0.955840,0.146542,0.334930
6239255693,6.194241,-0.493634,-7.882870,0.953602,0.157290,0.341471
6239275737,-2.274009,-1.754317,-4.959889,0.947626,0.118274,0.354768
6239295782,-7.174865,-3.634304,-3.290221,0.954422,0.076019,0.350068
6239315827,-1.848797,-4.688883,-5.691731,0.991977,0.083765,0.326698
6239335872,1.573156,1.509073,-8.474033,0.983243,0.121184,0.289179
6239355915,-5.012587,9.367076,-6.709233,0.930012,0.128018,0.291921
6239375960,-17.897604,7.829995,-1.542822,0.896823,0.082785,0.321823
6239396005,-27.541546,-1.919293,2.174264,0.944769,0.004706,0.314806
6239416050,-19.057753,0.570264,10.715540,0.963382,-0.037071,0.237171
6239436094,10.742366,11.399254,12.785162,0.974085,-0.016017,0.233433
6239456139,19.003231,24.774559,7.498265,0.918140,0.013841,0.275023
6239476184,24.336941,20.839935,6.485949,0.917954,0.023955,0.348957
6239496229,29.573833,8.689259,5.946859,0.966494,0.077407,0.315002
6239516273,25.598135,13.113605,-0.014823,0.924775,0.139120,0.240715
6239536318,12.180400,18.795122,-0.435363,0.937827,0.161553,0.305995
6239556363,4.203984,12.639048,2.221834,0.946364,0.146329,0.361265
6239576408,3.753686,10.328219,0.879033,0.941192,0.140231,0.327045
6239596454,11.023219,9.904145,1.417925,0.957326,0.149351,0.310517
6239616499,8.700668,9.997801,2.395549,0.975945,0.109445,0.352317
6239636543,3.128629,9.080522,-2.939379,0.951125,0.051926,0.389848
6239676633,12.030999,8.956092,-8.987881,0.886747,0.038886,0.369728
6239696678,19.519705,9.520451,-7.270767,0.898917,0.096205,0.353775
6239716723,16.412737,15.688071,-5.561515,0.863632,0.143494,0.340108
6239736768,9.396617,15.817660,-1.310163,0.858204,0.181161,0.381092
6239756816,0.241287,7.886166,6.058241,0.863331,0.178532,0.418752
6239776856,-8.169086,1.576612,4.643122,0.865294,0.113539,0.399000
6239796900,-5.772154,-10.387925,6.921544,0.966000,0.098273,0.362624
6239816945,2.697002,-6.567554,16.970097,1.027629,0.110234,0.354236
6239836990,2.031394,8.369168,18.698048,1.007137,0.107902,0.367398
6239857035,-4.601805,19.294313,12.529666,0.881184,0.051905,0.343177
6239877079,9.046257,5.096522,5.650546,0.899266,0.121008,0.355212
6239897124,16.148479,-9.678026,5.069161,0.935944,0.177052,0.364941
6239917169,-5.064913,-9.019784,8.308977,0.973294,0.135546,0.300551
6239937214,-20.711357,-1.949845,14.913044,0.952023,0.079983,0.263344
6239957258,-11.619814,7.644248,19.930906,0.935988,0.026837,0.281055
6239977303,-4.439378,8.593232,14.389784,0.923988,-0.008463,0.341530
6239997348,-2.377204,10.622815,1.931376,0.862546,0.029153,0.397947
6240017394,6.969419,-1.266743,-1.610606,0.918773,0.061999,0.404641
6240037439,12.528434,-23.076666,1.216635,0.996069,0.040844,0.337644
6240057484,7.721945,-11.658017,-2.657876,0.953014,-0.007621,0.303952
6240077529,8.912796,13.591882,0.478332,0.910435,-0.060404,0.329478
6240097582,31.306528,0.343014,7.754619,0.882411,-0.037030,0.389352
6240117618,39.440868,-27.645203,1.045085,0.902863,0.047316,0.383615
6240137663,27.623314,-40.450043,0.446915,0.932604,0.127790,0.278467
6240157708,17.875658,-41.274025,8.582588,0.982733,0.154351,0.198039
6240177751,10.945815,-30.321344,12.335476,0.991722,0.136700,0.158829
6240197796,4.129510,-9.771215,11.362694,0.941929,0.098566,0.140298
6240217841,3.150407,1.806785,14.231352,0.932997,0.053332,0.194959
6240237886,2.417908,3.168237,14.883236,0.948392,0.005315,0.268122
6240257930,6.811119,-2.013353,11.068158,1.007522,-0.025852,0.278735
6240277975,19.998560,-6.655663,6.423314,1.005584,-0.028263,0.219015
6240298020,32.880894,-1.287173,2.708395,0.947294,-0.017737,0.167426
6240318064,41.069378,-7.968877,0.000763,0.882282,0.068875,0.134280
6240338109,38.108707,-45.607117,-4.755715,1.168201,0.199473,0.203301
6240358154,9.056661,-58.280270,0.827056,1.288868,0.261364,0.111989
6240378199,-10.849646,-28.537142,-0.038817,1.170509,0.197455,-0.069253
6240398244,-18.701927,19.141867,1.431404,1.115822,0.137597,-0.051223
6240418290,-25.241232,60.725929,7.209277,1.050987,0.133944,0.140165
6240438335,-28.421673,76.384232,3.051651,0.878239,0.108551,0.291339
6240458380,-27.057209,64.417168,-2.249831,0.720884,0.072205,0.397376
6240478424,-23.573484,28.478827,-0.566539,0.659513,0.045019,0.456513
6240498469,-18.021421,-13.885153,-1.688945,0.728923,0.070297,0.439968
6240518514,-20.375998,-28.607616,-6.007020,0.861844,0.094584,0.367812
6240538558,-29.744331,-28.841999,-4.350364,0.928819,0.048560,0.282371
6240558603,-26.657413,-29.225494,-6.110641,0.989091,0.010294,0.246891
6240578646,-15.705029,-28.164768,-9.456248,0.997809,0.008041,0.218295
6240598691,-6.996789,-31.646490,-10.974818,0.986698,0.041018,0.191902
6240618736,-6.064509,-39.194393,-10.106345,0.982016,0.065915,0.170996
6240638781,-9.141626,-46.175930,-8.232524,0.979921,0.061304,0.121763
6240658826,-8.334895,-53.784084,-6.365033,0.994940,0.039478,0.059870
6240678871,0.407498,-54.249474,-10.339808,0.989770,0.066035,0.028020
6240698915,9.702637,-54.099178,-13.207132,1.067478,0.128167,0.031717
6240718960,7.518680,-54.320995,-3.644453,1.106276,0.158224,0.032480
6240739005,-4.589129,-43.851135,-1.778838,1.058670,0.165478,0.016868
6240759050,-15.090105,-40.713245,-7.674036,1.085979,0.169068,0.015126
6240779094,-17.596035,-42.566696,-9.991887,1.101898,0.195902,0.002093
6240799139,-18.800735,-39.695419,-16.262840,1.057654,0.259241,-0.016780
6240819186,-33.788662,-34.835522,-21.332964,1.024262,0.319596,-0.022621
6240839230,-58.613476,-30.481031,-19.889725,1.031187,0.329995,-0.032580
6240859275,-82.263718,-21.769258,-11.572673,1.029733,0.263276,-0.045970
6240879320,-88.823738,-13.112130,-7.431917,1.023764,0.202366,-0.047240
6240899364,-69.875740,-6.129541,-10.280672,1.041982,0.160055,-0.061234
6240919409,-64.671669,3.069767,-11.700564,0.983114,0.137959,-0.049191
6240939454,-71.349380,3.811450,-14.697386,0.947688,0.158455,-0.024126
6240959499,-57.166603,-5.018873,-17.502274,1.027587,0.215696,0.013404
6240979542,-58.144463,-3.631958,-11.424306,1.027729,0.285981,0.025663
6240999587,-84.076996,-1.712839,-2.230083,0.967368,0.281480,-0.015529
6241019632,-104.297867,-10.180527,8.461445,1.016364,0.188158,-0.048087
6241039677,-99.336578,0.851322,8.291083,1.019598,0.118873,-0.028646
6241059721,-98.599022,14.413208,-2.164459,0.931886,0.105587,0.007059
6241079766,-103.016357,-0.523233,-12.995398,0.955697,0.084446,0.019881
6241099811,-102.834869,-8.490913,-17.415485,1.033742,0.072842,-0.010864
6241119856,-98.890274,-0.499362,-19.571171,1.043874,0.088283,-0.060628
6241139901,-99.915314,14.153558,-24.239563,1.056574,0.121075,-0.038318
6241159945,-116.232719,28.128691,-27.426388,1.091505,0.153591,0.041970
6241179990,-138.214325,33.728737,-22.654076,1.032606,0.124080,0.087306
6241200035,-153.040314,26.214409,-11.235368,0.959207,0.032482,0.114930
6241220081,-159.038940,4.334309,-0.769714,0.972994,-0.054675,0.118027
6241240126,-148.464706,-13.278875,-2.632054,0.980703,-0.096242,0.059338
6241260170,-128.386978,-13.007188,-19.028458,0.978113,-0.055898,0.023115
6241280215,-116.751869,-2.725578,-35.163898,1.039831,0.090190,0.042845
6241300260,-124.732666,1.225473,-36.500595,1.145001,0.206960,0.081980
6241320305,-163.918488,5.235781,-16.777287,1.105305,0.072125,0.037918
6241340350,-199.734497,22.537733,5.025504,1.027851,-0.140218,0.026541
6241360395,-207.304840,53.255482,14.783071,1.002548,-0.297764,0.110872
6241380438,-184.140793,73.684357,4.583331,0.918717,-0.370690,0.177233
6241400483,-129.162079,56.408287,-24.238113,0.774995,-0.352437,0.197337
6241420527,-63.179794,3.726103,-53.438030,0.756150,-0.314683,0.272818
6241440572,-19.985193,-41.725555,-70.715034,0.905166,-0.245393,0.354547
6241460617,-11.434832,-59.385468,-78.938324,1.042481,-0.080573,0.360380
6241480662,-34.541328,-50.076973,-77.848152,1.122032,0.149798,0.310169
6241500707,-70.982452,-22.890106,-65.207108,1.038999,0.306488,0.210942
6241520751,-98.623909,6.325191,-54.677155,0.776796,0.377797,0.237209
6241540796,-128.320190,-1.304497,-41.011200,0.689495,0.271692,0.272226
6241560841,-147.438248,-65.134895,-9.691150,0.776735,0.031920,0.225769
6241580886,-143.326538,-115.357155,21.963593,0.988463,-0.196464,0.121313
6241600931,-98.570229,-98.924286,23.745644,1.138226,-0.363669,-0.084614
6241620977,-22.191683,-50.525158,-3.130752,1.089912,-0.323066,-0.242172
6241641021,5.237294,-19.981663,-26.209583,1.095258,-0.150898,-0.149687
6241661066,-12.073170,19.996435,-29.116268,1.191585,0.013815,0.045130
6241681111,-21.959518,33.125610,-8.201604,1.152491,0.057709,0.095831
6241701156,-14.323144,20.068722,8.855267,1.105621,0.014688,0.138453
6241721201,-19.641174,14.575160,2.539958,1.118101,-0.056247,0.138128
6241741245,-11.944886,19.526468,-9.202579,1.071898,-0.075495,0.078952
6241761291,15.688614,29.282284,-14.550788,1.024307,-0.009032,0.093989
6241781336,27.455805,35.442326,-17.998882,1.006525,0.081660,0.130075
6241801378,22.646183,30.429657,-18.818134,1.032320,0.147237,0.136914
6241821423,9.114468,29.397314,-8.032557,1.038305,0.123270,0.125502
6241841468,0.902559,39.698414,14.715569,1.016600,0.068674,0.057511
6241861513,16.862932,66.683525,34.268600,0.930965,0.060815,0.066510
6241881558,38.126148,72.600723,32.972469,1.023783,0.125473,0.172812
6241901603,21.163027,51.416447,14.846265,0.995458,0.162360,0.159737
6241921647,-0.145882,70.160919,10.299051,0.954696,0.128093,0.127583
6241941692,14.262270,92.720078,21.670879,1.066815,0.063419,0.290631
6241961737,23.596798,103.792145,17.924442,0.934556,0.067348,0.395335
6241981782,32.388409,91.412216,4.643379,0.783011,0.174104,0.434226
6242001827,29.016369,62.303078,1.573252,0.757464,0.305696,0.487034
6242021873,8.571893,26.310036,4.681839,0.753158,0.353165,0.449191
6242041917,-25.413164,-10.658290,10.241601,0.823947,0.267630,0.391599
6242061962,-51.773247,-32.014515,14.151155,0.943169,0.118675,0.325507
6242082007,-45.910210,-32.013626,10.502748,0.985543,-0.011567,0.204528
6242102051,-18.565725,-16.164032,0.214339,0.977106,-0.053797,0.146911
6242122096,1.493487,8.957583,-9.006126,0.978623,-0.013455,0.194023
6242142141,7.560983,26.335039,-9.221441,0.956135,0.058514,0.278300
6242162186,5.034385,26.119253,-3.785258,0.885563,0.127647,0.337395
6242182235,-6.700774,14.889903,0.520634,0.842655,0.165657,0.385840
6242202274,-21.599878,-0.053695,4.298160,0.855680,0.151514,0.411089
6242222319,-26.916386,-14.944407,8.863031,0.888063,0.093777,0.373564
6242242363,-20.771942,-20.307779,9.803752,0.929862,0.051677,0.311851
6242262408,-12.774232,-14.228791,4.792411,0.965646,0.064863,0.268302
6242282453,-12.181791,3.232356,-5.711415,0.989992,0.139836,0.285433
6242302498,-24.804722,22.720259,-13.655125,0.969977,0.233659,0.321112
6242322542,-35.195068,30.189112,-22.518784,0.963832,0.302931,0.356640
6242342587,-46.782707,19.091383,-29.435896,0.961351,0.306996,0.409030
6242362632,-70.907349,15.529835,-18.033430,0.832008,0.171577,0.463375
6242382677,-101.260651,-9.176036,16.931610,1.072645,-0.004118,0.530496
6242402722,-108.783958,-51.474865,34.094265,1.216601,-0.171642,0.456544
6242422768,-105.735466,-12.961419,41.523266,1.136958,-0.351225,0.307312
6242442813,-86.925278,37.297890,51.608612,0.990572,-0.481625,0.327258
6242462858,-25.796412,53.817150,40.382507,0.676234,-0.557262,0.523699
6242482902,59.244011,20.390373,3.430439,0.434065,-0.438633,0.566746
6242502947,126.695839,-34.704422,-30.021860,0.472858,-0.183791,0.488085
6242522992,145.470581,-67.296562,-45.409676,0.657300,-0.026349,0.516629
6242543036,118.772102,-68.824318,-46.026306,0.818804,0.112866,0.511379
6242563082,60.792225,-48.473221,-30.135868,0.880575,0.237468,0.447617
6242583125,15.097903,-36.550739,-6.362914,0.877083,0.224873,0.400807
6242603170,-1.374509,-35.631397,11.878823,0.918994,0.115264,0.458466
6242623215,2.390079,-39.329445,9.979354,0.910766,0.010312,0.426314
6242643259,15.665609,-43.831417,-3.533995,0.920831,-0.011741,0.373126
6242663304,26.195354,-44.626831,-11.156089,0.953256,0.045782,0.351766
6242683349,23.896074,-47.239300,-10.755075,0.980837,0.104448,0.339648
6242703393,10.374191,-51.389698,-3.874812,0.990756,0.102705,0.308506
6242723438,2.146252,-54.161350,2.978795,1.012260,0.046225,0.258509
6242743483,4.386719,-53.554745,4.065697,1.012235,0.018356,0.199651
6242763528,12.136570,-45.308548,0.806415,0.996058,0.019225,0.160558
6242783572,17.698732,-36.003071,-0.463956,0.998488,0.036803,0.163162
6242803617,15.974967,-30.216658,1.295998,1.002572,0.045989,0.181052
6242823663,10.215178,-28.683008,3.372794,0.972531,0.041305,0.177138
6242843708,8.716563,-28.689413,3.148123,0.981092,0.042224,0.183202
6242863753,9.078634,-28.644474,2.375856,0.997976,0.049610,0.180624
6242883798,9.318552,-27.573614,0.978857,1.009109,0.052775,0.162380
6242903843,7.628909,-24.015112,0.790371,1.017864,0.044643,0.152951
6242923887,5.977853,-21.672426,1.334096,1.021610,0.036299,0.141485
6242943932,5.437978,-18.997101,0.032977,1.018354,0.036761,0.135630
6242963977,5.700300,-16.360905,-2.218924,1.019858,0.046216,0.135199
6242984020,4.844984,-15.258754,-3.744685,1.025152,0.058690,0.131311
6243004065,2.223232,-14.192479,-3.938905,1.032873,0.068191,0.124825
6243024110,-1.309793,-10.282346,-3.222248,1.030148,0.066704,0.115439
6243044155,-1.750817,-3.956861,-0.284185,1.007052,0.057940,0.116253
6243064200,-0.379572,0.626309,2.230243,0.994433,0.052792,0.134595
6243084244,-0.325807,0.671922,2.351680,0.988816,0.052070,0.149036
6243104289,-1.063822,-0.529056,0.789105,0.991981,0.048784,0.142440
6243124334,-2.204957,0.429325,0.141775,0.997100,0.054957,0.136872
6243144379,-2.263222,4.746841,0.739985,0.994917,0.062680,0.141254
6243164423,-2.743428,6.100641,1.763239,0.983383,0.062409,0.155466
6243184468,-4.453080,5.143852,0.482141,0.974444,0.058537,0.168816
6243204513,-5.159981,3.373002,-0.623036,0.969555,0.053002,0.162271
6243224559,-2.847680,1.805725,0.404424,0.977006,0.052188,0.165974
6243244604,-2.945343,2.527858,0.366398,0.984523,0.041751,0.162928
6243264649,-2.807745,3.530903,0.082518,0.990698,0.040108,0.162805
6243284693,-3.382412,5.052482,2.172899,0.987235,0.055560,0.174397
6243304738,-5.088642,3.543163,6.042266,0.973541,0.050291,0.186358
6243324783,-7.609348,2.937820,7.227764,0.987103,0.039715,0.201658
6243344828,-4.522285,2.753717,9.398338,1.028453,0.030128,0.197032
6243364872,-3.768512,6.765496,7.766069,1.034830,0.029353,0.166312
6243384923,-4.920570,16.660881,3.964017,1.046438,0.075554,0.162373
6243404961,-6.001606,28.239506,8.014292,1.033684,0.125586,0.183627
6243425005,-15.450443,37.043533,12.146585,1.023170,0.111107,0.214442
6243445050,-31.815058,40.871979,9.411573,1.048180,0.035758,0.209602
6243465095,-30.734533,46.008118,7.196746,1.095890,-0.022413,0.194043
6243485140,-24.077269,65.041275,5.337409,1.069232,-0.065932,0.184921
6243505184,-19.632809,85.563911,-1.328751,0.971636,-0.082081,0.220304
6243525229,-5.731374,93.675713,-4.277011,0.881723,-0.072009,0.391911
6243545274,12.129071,70.740822,5.107749,0.908612,-0.031971,0.624851
6243565319,13.002431,36.149464,5.461343,0.877353,0.007547,0.628940
6243585364,-2.610546,33.932293,-2.629377,0.900151,0.045453,0.623149
6243605408,-8.885063,46.375793,4.789095,0.816287,0.027847,0.661922
6243625455,-12.300007,41.940742,6.571680,0.685335,-0.020428,0.724094
6243645499,-16.896786,22.316202,-1.221368,0.625640,-0.044074,0.759269
6243665544,-12.881030,2.495878,-5.301588,0.615817,-0.075736,0.697730
6243685589,-2.349914,-6.049502,-6.859820,0.621823,-0.084380,0.662429
6243705634,6.387640,-8.195748,-13.293679,0.614648,-0.060498,0.647066
6243725679,9.445580,-17.807899,-18.237074,0.639139,-0.032865,0.636183
6243745723,9.821340,-27.598125,-18.687798,0.708046,-0.011167,0.590257
6243765768,10.562313,-30.159229,-16.542698,0.789219,0.013917,0.571250
6243785811,8.165946,-29.920868,-15.054219,0.862211,0.033354,0.548679
6243805856,3.864564,-27.879498,-13.568075,0.906984,0.052863,0.515432
6243825901,3.978892,-24.283409,-11.225916,0.927973,0.066723,0.483878
6243845946,0.998114,-24.400677,-7.310001,0.979854,0.066063,0.474976
6243865991,-4.369762,-25.198881,-1.028706,1.031363,0.061093,0.449173
6243886036,-4.965558,-17.915199,2.732414,1.038337,0.033278,0.424689
6243906080,0.473647,-7.567805,2.612363,1.004438,0.013983,0.422052
6243926125,5.831570,-7.321903,1.961587,0.969469,0.023966,0.456584
6243946170,3.858126,-10.011675,0.120396,0.941036,0.026633,0.438783
6243966214,3.456977,-7.245061,-0.732393,0.920244,0.004445,0.428890
6243986259,8.700887,-3.274621,-1.164886,0.888683,-0.028232,0.433572
6244006304,17.155924,-3.328327,-2.936159,0.860336,-0.009023,0.434208
6244026349,19.788931,-4.023625,-5.949679,0.860119,0.043334,0.450071
6244046395,12.101738,-3.941090,-6.195550,0.877438,0.063620,0.454583
6244066440,6.234970,-4.830608,-1.106416,0.892302,0.050703,0.451520
6244086485,5.894286,-6.105886,1.876155,0.906417,0.048818,0.447087
6244106529,6.573397,-8.016241,-2.545857,0.926499,0.079307,0.431140
6244126574,1.021451,-5.041345,-6.467616,0.927019,0.094738,0.423005
6244146619,-4.229225,-3.955609,-2.253558,0.909785,0.059939,0.441284
6244166663,-5.837352,-11.332470,2.237685,0.906721,-0.009442,0.434460
6244186721,-0.203814,-16.553898,-3.270508,0.931881,-0.040004,0.383182
6244206752,13.512943,-13.969404,-10.135549,0.957109,0.010273,0.328507
6244226797,20.432831,-6.671628,-11.277302,0.944792,0.088550,0.310836
6244246841,14.684400,-5.228730,-8.172037,0.930276,0.140610,0.294004
6244266886,4.974522,-12.880327,-4.806870,0.958417,0.167424,0.278237
6244286931,-5.609438,-16.983282,-5.072284,1.017106,0.154501,0.251823
6244306976,-15.066998,-12.102286,-3.343598,1.053478,0.090019,0.247887
6244327020,-14.271142,-4.668689,-1.558810,1.040290,0.031810,0.264659
6244347065,-0.601290,-2.668535,-6.487890,1.005082,0.035972,0.262911
6244367110,7.622335,-2.062217,-11.442463,0.986282,0.092689,0.238361
6244387155,3.630232,0.876188,-9.030105,0.966242,0.142325,0.227881
6244407199,-0.905697,0.441506,-4.065879,0.937840,0.173670,0.242255
6244427244,-6.135257,-3.377067,-3.930754,0.925767,0.149325,0.204402
6244447290,-16.710796,-5.570771,-0.906933,0.969375,0.073651,0.168108
6244467335,-20.412418,1.275284,4.036395,0.992898,0.022055,0.192104
6244487380,-3.972339,12.950575,3.190806,0.994802,0.035754,0.199380
6244507425,12.774061,19.091951,1.586272,0.976693,0.097613,0.181165
6244527470,6.586739,24.781544,-0.786668,0.937358,0.121510,0.189512
6244547514,-3.400625,22.709246,2.902938,0.947472,0.088184,0.241028
6244567559,-3.064824,15.594591,2.655686,0.955618,0.060854,0.222831
6244587604,2.685498,16.879976,-1.259712,0.986345,0.099862,0.222005
6244607648,3.276350,24.639647,-1.553456,0.981424,0.121932,0.263030
6244627692,-1.241549,22.730164,2.863509,0.980972,0.076557,0.315752
6244647737,1.742146,13.585429,6.140383,0.979357,0.039578,0.342175
6244667782,10.038144,12.314285,1.126085,0.988542,0.070259,0.342808
6244687827,15.913037,14.148841,1.704007,0.973746,0.128531,0.327106
6244707871,4.583320,12.036500,-1.688690,0.948382,0.132823,0.325975
6244727916,-5.308358,11.070507,-5.337282,0.929165,0.135792,0.306053
6244747961,-0.114151,15.704325,-1.176189,0.899434,0.121270,0.303953
6244768006,-3.606370,18.117739,0.989046,0.878326,0.094245,0.342716
6244788050,-8.383650,16.175282,-0.793262,0.844805,0.067709,0.360444
6244808095,-4.683089,7.483432,-3.136998,0.893826,0.069220,0.343309
6244828140,-2.821788,5.408919,1.482617,0.945623,0.119124,0.329619
6244848186,-7.383121,20.170761,12.451125,0.937997,0.129979,0.339761
6244868231,-10.454731,25.637123,9.810720,0.862342,0.068975,0.382594
6244888276,-11.142810,9.130717,-3.233775,0.922562,0.052447,0.402654
6244908321,1.232389,0.277181,6.431131,0.944596,0.118914,0.336168
6244928365,11.527309,6.945751,15.404047,0.948544,0.134845,0.341164
6244948410,-4.674123,6.151550,9.822914,0.937150,0.058166,0.341622
6244968455,-12.526648,4.655154,-3.119896,0.937557,0.037340,0.349536
6244988500,5.516875,3.706043,-0.110985,0.915908,0.098114,0.350424
6245008543,14.825314,0.040073,12.307500,0.905111,0.164922,0.375924
6245028588,1.646041,-14.877122,10.510458,0.927308,0.175908,0.352779
6245048632,-20.565002,-18.449591,1.374573,0.936509,0.077560,0.286922
6245068677,-28.976553,-1.520876,6.473991,0.976415,-0.027215,0.252844
6245088722,-6.184763,13.732086,12.783229,1.005290,-0.062801,0.270465
6245108767,20.060705,16.577448,1.631819,0.957026,-0.001118,0.303836
6245128811,12.932411,14.906780,-8.718540,0.894383,0.094808,0.340279
6245148857,-4.032729,9.308031,-0.934403,0.918130,0.158255,0.351036
6245168901,-7.844754,-2.046923,9.687372,0.977872,0.153960,0.347320
6245188946,-9.798270,-1.070711,13.312500,0.989417,0.086247,0.311637
6245208991,-8.485992,0.857960,11.601734,1.026677,0.052584,0.310093
6245229035,-9.496868,4.642297,7.872943,0.997266,0.051959,0.326544
6245249081,-11.581673,3.997083,5.756414,0.951490,0.053376,0.339400
6245269126,-18.485575,-6.464521,2.634791,0.946844,0.002983,0.370373
6245289171,-24.238317,-6.870501,1.506064,0.933743,-0.065650,0.370570
6245309216,-11.749899,-5.512902,2.079440,0.925677,-0.162150,0.410366
6245329261,-2.052277,-5.711668,1.251063,0.805917,-0.227319,0.403929
6245349305,20.895466,-18.094439,-8.100839,0.693381,-0.152602,0.329564
6245369350,44.600227,-42.142799,-12.724173,0.754373,-0.011973,0.324296
6245389395,39.821735,-51.681751,-5.204967,0.820730,0.095988,0.263163
6245409438,30.348911,-51.449574,2.721906,0.837713,0.130879,0.181787
6245429483,19.362116,-40.408554,9.195073,0.972383,0.102521,0.182732
6245449528,17.808529,-33.033741,10.959838,1.022649,-0.006775,0.137751
6245469573,30.909140,-29.475174,5.538460,0.911806,-0.070330,0.058257
6245489617,45.771828,-48.167068,-3.654069,0.917023,-0.000338,0.078111
6245509662,49.617115,-82.126366,-11.780168,1.127717,0.152405,0.141392
6245529707,35.169678,-107.028343,-10.396452,1.253233,0.202923,0.050665
6245549752,21.036860,-107.895744,-5.800097,1.180648,0.147630,-0.155078
6245569797,12.840369,-73.144470,-2.677080,1.173076,0.122613,-0.263543
6245589842,9.633961,-24.076982,2.268243,1.170083,0.126110,-0.252759
6245609886,7.707436,12.370787,3.970289,1.078247,0.125776,-0.124417
6245629931,2.719972,18.494127,5.015974,1.015574,0.118144,0.000738
6245649977,-4.487459,7.031577,6.514311,0.947690,0.102034,0.065017
6245670021,-4.161129,-6.742761,2.982324,0.909252,0.103443,0.091856
6245690066,-2.308835,-18.953268,-1.873189,0.935614,0.114829,0.107159
6245710111,-5.522513,-24.422443,-0.647305,0.949594,0.092914,0.056002
6245730156,-5.993728,-21.289406,1.882620,0.952873,0.064778,0.017291
6245750201,-5.256524,-15.985934,-0.725886,0.957603,0.055991,0.009750
6245770246,-5.125741,-16.998339,-3.826578,0.964398,0.055038,0.018002
6245790290,-3.492355,-23.035343,-5.242778,0.979364,0.060579,0.008506
6245810334,-2.214607,-28.722281,-6.382324,0.973488,0.072284,-0.011208
6245830378,-3.379797,-34.201324,-6.269172,1.001383,0.088535,-0.025706
6245850423,-4.999011,-39.915298,-5.481908,1.036202,0.089193,-0.051587
6245870468,-9.009195,-39.508602,-4.605915,1.047300,0.057681,-0.099499
6245890513,-10.443924,-32.781040,-5.256449,1.064964,0.035646,-0.134605
6245910558,-7.613797,-19.391922,-7.180144,1.048602,0.047265,-0.125078
6245930602,-2.557770,-12.106975,-6.631569,1.039822,0.080155,-0.083442
6245950647,-7.335910,-13.759869,-6.783829,1.029316,0.115978,-0.030645
6245970692,-13.513379,-13.472045,-3.986533,1.037588,0.109426,-0.024521
6245990737,-10.182062,-12.409100,-0.165840,1.030985,0.070180,-0.044093
6246010782,-9.396421,-9.590225,-0.844939,1.024204,0.047460,-0.048234
6246030826,-9.464303,-6.071742,-2.386641,1.018732,0.046609,-0.051181
6246050873,-5.858672,-3.080601,-3.316073,1.027551,0.058722,-0.047210
6246070917,-3.598574,0.163388,-2.330853,1.025847,0.081501,-0.039945
6246090962,-4.659075,1.882151,-2.133889,1.034571,0.085734,-0.041646
6246111007,-8.622260,4.582984,-3.987776,1.037670,0.079871,-0.039208
6246131052,-7.852088,10.282782,-4.120962,1.011841,0.085038,-0.033795
6246151097,-4.521715,11.724669,-2.723239,1.002804,0.091427,-0.001228
6246171141,-8.545179,8.459459,-3.573026,1.010342,0.079553,0.011216
6246191186,-9.473707,6.757055,-5.011773,1.008777,0.057172,0.001829
6246211229,-2.201906,7.343024,-6.355573,0.999306,0.052521,0.007170
6246231274,1.197333,6.564179,-7.767429,1.010746,0.071590,0.020207
6246251319,0.327722,5.614706,-8.072214,1.010431,0.094580,0.021744
6246271364,-0.912480,4.483406,-7.779758,1.011679,0.096202,0.009176
6246291409,-0.429416,4.232703,-6.587152,1.025158,0.091403,-0.008622
6246311454,1.170822,7.887799,-5.383950,1.020690,0.097480,-0.009524
6246331498,0.731935,8.465053,-7.110485,1.022269,0.104736,0.013553
6246351543,-1.053505,6.155725,-7.681221,1.029611,0.090541,0.019915
6246371588,2.899693,3.804174,-6.619890,1.032337,0.060848,0.004156
6246391632,7.209891,5.235706,-9.450206,1.008862,0.057750,0.006286
6246411677,0.912758,20.669683,-11.389655,0.980547,0.076554,0.051447
6246431722,1.093576,32.757225,-5.643038,0.933841,0.093242,0.081194
6246451768,7.916615,32.197899,-2.502756,0.880161,0.122062,0.122536
6246471813,8.078216,22.112247,-1.153640,0.906597,0.147568,0.149013
6246491858,7.623391,8.804154,-0.413833,0.936450,0.148218,0.137025
6246511903,6.853686,2.168829,-1.704386,0.960453,0.148596,0.100507
6246531948,5.506127,3.796868,-0.979474,0.987267,0.174135,0.094847
6246551992,1.153056,6.613570,0.536806,0.990690,0.197182,0.124362
6246572036,-7.248933,3.010265,0.025642,0.977104,0.193380,0.137678
6246592081,-9.310356,-3.698946,0.961986,0.982974,0.153314,0.118659
6246612125,-4.672152,-4.523589,1.490958,0.994282,0.095765,0.088717
6246632170,-1.375929,-1.973553,-0.616521,0.991422,0.076720,0.071554
6246652214,0.296146,-0.136089,-1.636693,0.994388,0.100885,0.078387
6246672259,-0.052879,0.403828,-1.710711,0.995702,0.130255,0.083162
6246692304,-0.538619,2.350605,-0.428953,0.985567,0.126593,0.072648
6246712349,1.027026,5.443805,1.940645,0.988014,0.107914,0.079102
6246732393,3.061723,8.139375,-0.096352,0.973600,0.124417,0.099801
6246752439,3.376343,6.299577,-0.447467,0.977383,0.151306,0.119363
6246772483,1.155075,2.236752,3.161623,0.984517,0.145700,0.115455
6246792528,0.069897,0.186183,4.672686,0.996302,0.111662,0.097614
6246812573,1.978270,1.331102,2.150553,0.995093,0.094172,0.084457
6246832618,5.264653,1.631561,0.532847,0.990345,0.112371,0.082542
6246852664,6.255345,1.205435,1.348430,0.986253,0.133347,0.087710
6246872708,2.265432,0.920299,1.889717,0.988041,0.138650,0.093507
6246892753,-1.000713,1.409819,2.455195,0.997173,0.134066,0.096251
6246912798,-0.305305,1.112376,1.535949,1.002414,0.131359,0.098315
6246932843,0.437031,0.594676,1.066031,0.998971,0.126490,0.098694
6246952887,-0.709201,0.170330,1.738012,1.002812,0.107728,0.096601
6246972932,-0.114441,1.264287,1.671471,0.994325,0.094933,0.099831
6246992977,2.971939,2.379542,3.040901,0.967573,0.105771,0.105828
6247013020,6.286081,-1.840874,4.885964,0.985240,0.124016,0.106262
6247033065,3.737322,-4.636242,3.750168,0.997234,0.129048,0.083274
6247053110,1.629034,-0.621495,3.214019,1.001824,0.125888,0.059389
6247073155,1.618457,5.200837,3.635220,1.000413,0.112213,0.068960
6247093199,-1.612003,8.174942,2.400158,0.993627,0.083806,0.097642
6247113244,-2.550149,7.112428,4.114854,0.966232,0.064452,0.112806
6247133289,7.500875,1.906015,6.648172,0.977829,0.074182,0.120731
6247153334,15.330306,-6.949813,2.535962,0.988807,0.113713,0.113384
6247173378,9.764349,-9.973114,-4.183551,0.989302,0.147472,0.080606
6247193423,1.161337,-7.426310,-2.535393,0.998127,0.158700,0.050624
6247213468,-7.221583,-1.305484,3.282525,1.007079,0.131507,0.065572
6247233513,-11.802375,2.712108,4.319464,1.001597,0.091288,0.089900
6247253559,-8.677430,2.191798,2.627589,0.979165,0.055537,0.104507
6247273604,-2.653328,0.117274,-1.652410,0.965741,0.044174,0.118888
6247293648,3.605317,-3.538191,-5.475614,0.974870,0.065309,0.123059
6247313693,7.993831,-6.749478,-5.483371,0.979464,0.082506,0.102921
6247333738,8.221719,-5.532949,-4.122593,0.990292,0.088455,0.078278
6247353783,8.286849,-2.963116,-2.228567,1.006109,0.102364,0.067808
6247373827,9.179465,-0.553720,-0.576900,1.014969,0.114382,0.058760
6247393872,8.531754,0.411744,-1.426096,1.006119,0.146446,0.061891
6247413926,2.090866,-0.107187,-1.528588,1.002970,0.156546,0.065335
6247433960,-5.664598,-1.285118,0.863187,0.995872,0.136640,0.058892
6247454005,-9.739130,0.657124,2.073426,0.989277,0.105382,0.072031
6247474050,-7.584173,1.841115,2.390990,0.983080,0.077244,0.088788
6247494095,-3.271573,-0.284328,-0.100776,0.974605,0.081046,0.105173
6247514139,-0.985155,-5.493693,-2.124611,0.992484,0.107389,0.103903
6247534184,-1.690742,-6.594773,-1.211583,1.001887,0.114321,0.073506
6247554229,-2.412959,-1.485780,0.343256,1.003226,0.101201,0.052319
6247574274,1.030659,3.551167,1.805277,1.002325,0.103545,0.059395
6247594319,4.920030,0.286531,0.521525,0.995757,0.120850,0.081237
6247614364,-3.683190,-3.567791,-0.803017,0.987454,0.133856,0.084984
6247634408,-10.058861,-8.402521,2.312992,0.968960,0.122372,0.059724
6247654453,-9.649874,-9.935369,8.619255,0.997397,0.105025,0.039681
6247674499,-9.272496,-13.785643,-0.232459,1.045824,0.113320,0.038965
6247694544,-17.665039,-1.977855,-7.637588,1.035760,0.105652,0.016922
6247714599,-11.124830,7.313057,-5.624340,1.040592,0.083723,0.032616
6247734633,-11.993048,13.743328,-7.101712,1.028833,0.058220,0.061783
6247754678,-14.378433,19.073446,-7.164645,0.975887,0.050564,0.053357
6247774723,-0.603051,15.497498,-5.674658,0.951621,0.091726,0.072323
6247794768,6.850089,10.435278,-8.599113,0.957438,0.150542,0.111121
6247814821,-0.029989,3.996371,-7.397532,0.964130,0.151645,0.076017
6247834856,-0.645904,1.294329,-0.145255,1.003786,0.098335,0.035504
6247854901,2.716823,9.173716,0.674762,1.052084,0.061206,0.043993
6247874946,2.869748,21.119400,-4.815259,1.044381,0.087643,0.090606
6247894990,4.254260,20.950218,-6.516976,1.013732,0.146665,0.132777
6247915035,5.566871,14.785938,-4.266197,0.977072,0.170285,0.158535
6247935080,3.414195,8.798715,-3.680277,0.951260,0.148945,0.154608
6247955125,4.601587,5.134206,-3.564024,0.962772,0.115290,0.138673
6247975170,9.485555,5.624280,-3.015324,0.984218,0.096220,0.130611
6247995215,11.673096,6.854095,-2.149537,0.994424,0.088086,0.123742
6248015259,10.805473,7.738027,1.177857,0.996891,0.080144,0.114903
6248035304,12.717894,9.933889,3.202821,0.964442,0.094451,0.122287
6248055350,14.317241,8.275343,2.727411,0.931946,0.125276,0.132083
6248075395,14.980087,3.037389,1.615009,0.940871,0.124589,0.131244
6248095440,18.537079,1.993116,1.824892,0.964400,0.121179,0.111960
6248115485,22.930616,5.007843,4.142409,0.960096,0.144650,0.108822
6248135530,23.626148,4.870895,5.173295,0.980789,0.175218,0.130025
6248155574,18.840380,2.708869,5.257742,0.999204,0.170992,0.138388
6248175619,12.235098,0.212864,2.865272,1.007690,0.171403,0.137263
6248195663,3.663181,-4.522869,2.196496,0.986332,0.188780,0.138420
6248215724,-3.603572,-3.915191,4.293341,0.942515,0.161312,0.094717
6248235752,2.525722,-6.916139,2.123679,1.017698,0.122239,0.066727
6248255796,1.438223,1.644000,3.929460,1.067174,0.076114,0.094054
6248275841,2.284058,14.528394,8.237986,1.000897,0.057371,0.100644
6248295886,10.376623,7.124307,4.648050,0.971048,0.057936,0.116719
6248315931,9.341685,1.337708,-2.804475,0.980948,0.098035,0.135215
6248335976,7.037267,-1.247673,-9.747485,0.940415,0.182121,0.131130
6248356020,6.755697,-6.060362,-13.496596,0.928230,0.272239,0.124834
6248376065,-4.774579,-10.337701,-14.615458,0.976696,0.343056,0.134254
6248396109,-24.692095,-10.957716,-11.864321,0.987647,0.364423,0.111306
6248416154,-40.447227,-4.960316,-7.330583,0.972914,0.314915,0.080287
6248436199,-49.351025,1.751426,-6.803944,0.963448,0.234806,0.089529
6248456244,-50.011253,2.921494,-9.039768,0.953148,0.195102,0.112087
6248476290,-46.221359,-3.369357,-13.032011,0.950334,0.206683,0.131728
6248496335,-49.994488,-7.647321,-17.531921,0.961803,0.234585,0.118380
6248516380,-55.034096,-7.126111,-17.509012,0.961832,0.226628,0.102513
6248536424,-57.471165,-3.361170,-16.419708,0.965008,0.221738,0.113502
6248556475,-54.710831,-5.127371,-17.429581,0.986186,0.246035,0.125929
6248576514,-59.889565,-6.453782,-19.117971,0.977554,0.272478,0.121368
6248596558,-68.906815,-8.323005,-18.315712,0.991950,0.267745,0.101938
6248616603,-75.177887,-9.774663,-13.314366,1.030675,0.253349,0.070110
6248636647,-77.451874,-1.897471,-11.300768,0.979296,0.250597,0.049637
6248656692,-79.856209,5.611351,-17.376450,0.924147,0.279276,0.093609
6248676736,-88.945824,-0.645629,-21.490904,0.932122,0.281333,0.117140
6248696781,-99.160652,-13.364834,-14.536478,0.968716,0.245834,0.087382
6248716826,-98.251099,-13.294857,-9.317366,0.986384,0.202127,0.068388
6248736871,-95.430412,-3.426115,-14.025957,0.937262,0.189924,0.069405
6248756915,-92.813896,-5.005740,-22.935076,0.904507,0.206499,0.124839
6248776960,-94.674484,-15.949223,-23.131395,0.961399,0.205885,0.145017
6248797005,-90.044189,-24.469936,-15.007263,0.966844,0.202724,0.110212
6248817050,-82.851334,-23.389408,-15.360547,0.954643,0.230172,0.086134
6248837094,-89.159027,-23.534332,-28.567883,0.968303,0.301878,0.095839
6248857139,-115.973709,-28.188164,-34.239216,0.962383,0.341635,0.072251
6248877185,-131.657181,-34.272938,-23.074305,1.000054,0.312163,0.046185
6248897230,-137.459045,-33.245270,-13.843127,1.049195,0.288673,0.051381
6248917275,-137.064682,-21.869040,-17.551781,0.991262,0.224827,0.040832
6248937320,-127.090958,-24.644739,-18.509346,0.946409,0.212781,0.047068
6248957369,-124.166656,-38.313393,-18.671211,0.925043,0.233381,0.065224
6248977409,-128.953812,-48.619968,-11.067414,0.987300,0.208364,0.037935
6248997454,-130.176956,-52.391941,-1.051647,1.023393,0.159816,-0.007014
6249017499,-127.131912,-43.514805,3.716140,1.057371,0.111157,-0.046515
6249037542,-122.540382,-27.177265,3.726436,1.069744,0.063619,-0.051677
6249057587,-120.796143,-8.497219,1.607989,1.044456,0.020969,-0.001344
6249077632,-109.903671,1.843015,-3.947620,1.007955,-0.011259,0.067576
6249097676,-84.595978,-1.891905,-12.640146,0.967289,-0.014125,0.116103
6249117721,-54.325962,-17.367020,-22.296671,0.939399,0.030599,0.115985
6249137766,-39.516930,-28.471466,-27.260187,0.974041,0.110929,0.101372
6249157811,-46.855049,-24.740862,-27.428383,1.006121,0.197702,0.089783
6249177855,-64.231934,-16.916769,-20.400370,0.978920,0.216112,0.070586
6249197900,-76.846077,-18.504013,-7.975752,0.944004,0.158673,0.073354
6249217945,-70.547119,-24.291876,-4.194190,0.979928,0.082642,0.072423
6249237990,-54.494568,-22.756964,-8.105012,0.995159,0.064817,0.047189
6249258035,-42.368168,-21.386208,-12.755026,0.995822,0.129503,0.042745
6249278081,-43.627110,-20.087116,-16.548130,1.015102,0.214898,0.065944
6249298125,-55.104362,-21.558670,-15.072210,1.023943,0.264491,0.058953
6249318170,-64.352547,-24.853954,-8.355033,0.993326,0.271398,0.030539
6249338215,-71.456268,-24.807451,-3.112553,0.984372,0.255246,0.022504
6249358260,-79.850922,-24.510677,-1.570521,0.997675,0.217893,0.028281
6249378305,-84.665314,-25.136560,0.242047,1.007517,0.137026,0.010630
6249398350,-81.405434,-24.349274,-0.583613,1.015787,0.064193,-0.021212
6249418401,-66.117706,-14.841034,-5.516960,1.002120,0.049465,-0.031114
6249438437,-50.317215,-4.442844,-7.994371,0.985702,0.098772,0.020801
6249458482,-51.020443,-7.359821,-5.594077,0.974169,0.177264,0.071873
6249478527,-58.793610,-16.524637,-0.033022,0.962706,0.210617,0.071332
6249498572,-63.254463,-21.374548,6.793667,0.969791,0.176563,0.041620
6249518617,-62.942173,-16.630239,10.656881,0.989026,0.117225,0.032782
6249538661,-57.188396,-8.996540,10.590312,0.997598,0.075428,0.044570
6249558706,-48.176777,-4.938551,9.260364,0.992630,0.058163,0.067164
6249578751,-39.330841,-7.857964,7.694497,0.978388,0.088392,0.095217
6249598796,-31.796076,-17.961363,0.675537,0.984278,0.165332,0.106642
6249618841,-35.074661,-25.568998,-4.129751,0.997366,0.202348,0.083853
6249638886,-43.511875,-25.170340,4.147085,0.980845,0.193899,0.053849
6249658932,-48.255913,-22.511463,8.881433,0.986895,0.190734,0.057288
6249678976,-57.160797,-23.904940,3.031610,1.023055,0.155782,0.051831
6249699021,-63.435329,-21.825247,1.447436,0.997523,0.071905,0.023749
6249719066,-54.273518,-18.560108,11.971154,0.996697,-0.000993,0.014421
6249739111,-37.838730,-16.388258,22.264921,1.019076,-0.060932,0.016991
6249759155,-23.309111,-13.286006,18.973757,1.038369,-0.084638,0.006311
6249779201,-8.956973,-8.012383,9.968181,1.028845,-0.060581,-0.014806
6249799246,4.807847,-0.416265,9.322181,1.031070,-0.024181,-0.006896
6249819289,8.341358,4.181500,14.631167,1.029316,-0.011880,0.026130
6249839333,9.787712,5.016363,14.710709,1.011764,-0.025757,0.037497
6249859378,18.023518,4.225887,13.619841,0.991215,-0.020279,0.046406
6249879423,29.471252,1.987437,10.166899,0.997839,0.032431,0.062225
6249899468,31.228991,0.373298,7.343797,1.013596,0.083263,0.064197
6249919513,23.899281,0.098387,7.308836,1.003125,0.093337,0.048924
6249939558,18.313398,1.350610,9.270289,0.987350,0.059243,0.041806
6249959602,19.712494,2.253711,8.885412,0.990946,0.027396,0.057664
6249979647,25.355637,1.868209,7.570254,0.993613,0.003001,0.055791
6249999691,33.700596,0.447237,7.492379,1.003150,0.012679,0.052321
6250019736,42.210918,0.112564,6.398976,1.025241,0.044444,0.040566
6250039781,42.623299,4.345098,4.852917,0.993757,0.085171,0.034993
6250059827,37.324432,7.207849,5.546011,0.943453,0.137546,0.037926
6250079872,32.428944,3.032678,7.728234,0.957130,0.195719,0.067226
6250099917,19.285484,-5.514102,8.286567,0.990431,0.203485,0.062944
6250119961,1.808399,-13.161357,6.408947,0.990784,0.152598,0.011289
6250140006,-10.267151,-15.171655,8.750831,1.016792,0.073096,-0.010899
6250160051,-6.230250,-7.518414,15.012974,1.060537,0.040996,-0.009859
6250180096,8.947266,4.993802,13.635376,1.133456,0.071694,0.011543
6250200141,12.608513,16.836277,5.109326,1.128161,0.093672,0.026618
6250220184,7.579503,30.309319,5.698900,1.011600,0.046751,0.041358
6250240229,8.407412,36.971577,16.260448,0.954469,-0.015884,0.098634
6250260274,13.468889,31.482258,22.359562,0.952904,-0.055662,0.153942
6250280318,22.360558,17.038157,16.370388,0.942689,-0.042632,0.157037
6250300363,30.464125,5.025836,7.901398,0.983386,0.011139,0.125662
6250320408,29.741611,7.062977,6.861305,1.004399,0.039874,0.096171
6250340453,24.390642,16.220621,10.817097,0.989113,0.011439,0.103578
6250360497,21.140486,18.109348,12.912407,0.984812,-0.039575,0.137745
6250380542,28.570805,14.567857,11.251324,0.989671,-0.068042,0.144480
6250400587,40.484310,10.474173,7.217575,0.975122,-0.055416,0.133253
6250420632,46.821144,9.882215,4.487909,0.961649,-0.027109,0.111798
6250440677,45.633793,9.215267,6.455546,0.972848,-0.016188,0.107147
6250460723,43.236801,9.635934,7.692454,0.977530,-0.007038,0.108926
6250480768,43.134251,7.727320,5.638104,0.984325,0.003173,0.110348
6250500812,45.073345,5.649350,2.745485,1.000624,0.013459,0.104192
6250520857,41.941483,7.401693,6.020854,1.014659,-0.005994,0.103271
6250540902,34.336315,8.818301,14.686500,1.009308,-0.036559,0.101481
6250560947,38.115891,4.483695,17.023289,0.988112,-0.041696,0.065952
6250580991,58.289909,-0.660430,8.531442,0.987966,-0.000785,0.037572
