Timestamp (us),Gyroscope X (deg/s),Gyroscope Y (deg/s),Gyroscope Z (deg/s),Accelerometer X (g),Accelerometer Y (g),Accelerometer Z (g)
9094933661,0.186010,3.418281,0.190551,0.186640,0.968673,-0.115278
9094936156,0.308463,3.661268,0.191537,0.189627,0.970174,-0.119572
9094938652,0.308851,3.783009,0.191940,0.185215,0.969439,-0.116744
9094941147,0.308657,3.722139,0.191739,0.187392,0.970134,-0.115967
9094943643,0.308657,3.722139,0.191739,0.185917,0.972285,-0.113038
9094946138,0.247748,3.661792,0.130733,0.188084,0.972968,-0.111533
9094948634,0.247871,3.662068,0.070019,0.191739,0.968636,-0.115923
9094951129,0.308639,3.601226,0.009193,0.190336,0.971587,-0.117349
9094953624,0.369531,3.540659,-0.112346,0.190304,0.971551,-0.115165
9094956120,0.369125,3.298005,-0.295295,0.191035,0.975149,-0.112901
9094958615,0.308076,3.116468,-0.478132,0.193249,0.977325,-0.113554
9094961111,0.307741,2.934409,-0.600164,0.194633,0.971473,-0.112910
9094963606,0.429153,2.812448,-0.661101,0.193838,0.969963,-0.109308
9094966102,0.733133,2.629425,-0.843398,0.197581,0.974370,-0.113537
9094968597,1.036673,2.384979,-0.904467,0.198331,0.980869,-0.110491
9094971093,1.340018,2.079663,-0.965738,0.195405,0.977996,-0.111321
9094973590,1.460531,1.713943,-0.966767,0.201147,0.968497,-0.112858
9094976084,1.520258,1.288152,-1.089515,0.196814,0.969292,-0.114371
9094978579,1.579862,0.862086,-1.151549,0.195346,0.972170,-0.111428
9094981075,1.639783,0.497166,-1.274096,0.195332,0.975035,-0.108462
9094983570,1.760419,0.131722,-1.335839,0.195316,0.967097,-0.112979
9094986066,1.637702,-0.232730,-1.397942,0.191740,0.970797,-0.114427
9094988561,1.698011,-0.475909,-1.520086,0.193212,0.971523,-0.115118
9094991056,1.697429,-0.658521,-1.520690,0.191761,0.968660,-0.117379
9094993552,1.697606,-0.718563,-1.703034,0.193952,0.968651,-0.118072
9094996047,1.758180,-0.840276,-1.764061,0.196119,0.969335,-0.116567
9094998543,1.879839,-0.961685,-1.946426,0.191016,0.967927,-0.116677
9095001038,2.062601,-0.961876,-2.067585,0.194622,0.967140,-0.115175
9095003534,2.185231,-0.778932,-2.248943,0.194712,0.968681,-0.120245
9095006029,2.246511,-0.717757,-2.370079,0.194708,0.969397,-0.119503
9095008525,2.246881,-0.716928,-2.552222,0.195446,0.969402,-0.120219
9095011020,2.246811,-0.777523,-2.613137,0.191034,0.970828,-0.115895
9095013516,2.247128,-0.716376,-2.673650,0.191037,0.967951,-0.118133
9095016011,2.247570,-0.654954,-2.794877,0.194675,0.967200,-0.118815
9095018507,2.186978,-0.654154,-2.916396,0.196871,0.968636,-0.118753
9095021002,2.126264,-0.653630,-2.977200,0.196882,0.968648,-0.119481
9095023498,2.065425,-0.653382,-2.977290,0.195461,0.973019,-0.118696
9095025993,2.126264,-0.653630,-2.977200,0.196062,0.969991,-0.112185
9095028488,2.126070,-0.714500,-2.977401,0.194564,0.965635,-0.112289
9095030984,2.247746,-0.714996,-2.977221,0.199701,0.971400,-0.111371
9095033480,2.308144,-0.776667,-2.855904,0.200507,0.975083,-0.114204
9095035975,2.429891,-0.716568,-2.794809,0.198252,0.977180,-0.107646
9095038470,2.551126,-0.778486,-2.673401,0.198984,0.971419,-0.112111
9095040966,2.611206,-0.901303,-2.491572,0.201194,0.972151,-0.113518
9095043462,2.488523,-1.023930,-2.188584,0.195411,0.974403,-0.114300
9095045957,2.366229,-1.024814,-1.885193,0.195421,0.972255,-0.116525
9095048452,2.304949,-1.085989,-1.764056,0.198865,0.966965,-0.107095
9095050948,2.182831,-1.146917,-1.643009,0.195961,0.966277,-0.107884
9095053443,2.060713,-1.207844,-1.521963,0.195288,0.970666,-0.108543
9095055939,1.938595,-1.268771,-1.400916,0.192431,0.971470,-0.111489
9095058434,1.938542,-1.208452,-1.279286,0.196037,0.972843,-0.108491
9095060930,1.816936,-1.147362,-1.218551,0.200443,0.977171,-0.108339
9095063425,1.756556,-0.964778,-1.157322,0.198953,0.973544,-0.108430
9095065921,1.695982,-0.843065,-1.096295,0.194561,0.968512,-0.110051
9095068416,1.695982,-0.843065,-1.096295,0.193184,0.975092,-0.110682
9095070912,1.695735,-0.843617,-0.974867,0.193147,0.971451,-0.110749
9095073407,1.695805,-0.783023,-0.913951,0.194594,0.970709,-0.110739
9095075903,1.513625,-0.600219,-0.792189,0.194724,0.977335,-0.114986
9095078398,1.453563,-0.356489,-0.791473,0.195426,0.975860,-0.114273
9095080894,1.271312,-0.234280,-0.730626,0.194594,0.972869,-0.109242
9095083389,1.088991,-0.172666,-0.730695,0.199676,0.972092,-0.109173
9095085885,0.967191,-0.172446,-0.670161,0.196732,0.972800,-0.106295
9095088380,0.967773,0.010166,-0.669557,0.198265,0.974315,-0.110613
9095090875,1.028999,0.131659,-0.669064,0.197524,0.972866,-0.110651
9095093371,1.090543,0.314300,-0.729084,0.198841,0.969818,-0.103401
9095095868,1.091055,0.436317,-0.789395,0.198139,0.969133,-0.105610
9095098363,1.091249,0.497188,-0.789194,0.195221,0.973470,-0.101936
9095100859,1.091055,0.436317,-0.789395,0.195196,0.972002,-0.101235
9095103354,1.090667,0.314576,-0.789798,0.194486,0.968428,-0.104955
9095105850,1.090402,0.193110,-0.850915,0.196641,0.966938,-0.104218
9095108345,1.089697,0.010222,-0.790805,0.195900,0.967649,-0.102760
9095110841,1.089379,-0.050924,-0.730292,0.195238,0.969889,-0.105644
9095113336,1.028347,-0.111547,-0.730584,0.197502,0.972841,-0.109195
9095115832,0.967191,-0.172446,-0.670161,0.197520,0.971421,-0.111406
9095118327,0.784552,-0.171979,-0.609717,0.191006,0.974397,-0.111459
9095120823,0.602037,-0.171236,-0.609988,0.191696,0.968588,-0.113011
9095123318,0.481048,-0.108765,-0.852823,0.191672,0.971441,-0.109316
9095125813,0.420651,-0.047094,-0.974140,0.189499,0.976511,-0.106345
9095128309,0.359742,-0.107441,-1.035146,0.185096,0.969307,-0.108735
9095130805,0.238066,-0.106946,-1.035326,0.189570,0.972990,-0.113693
9095133300,0.116001,-0.228191,-1.035909,0.191758,0.973698,-0.113645
9095135795,-0.005817,-0.348885,-1.157921,0.190183,0.974295,-0.104917
9095138290,-0.128146,-0.591596,-1.219621,0.188031,0.975068,-0.106396
9095140786,-0.128922,-0.835079,-1.220427,0.182946,0.976562,-0.105723
9095143282,-0.129575,-1.078285,-1.281947,0.183517,0.970620,-0.099266
9095145777,-0.191119,-1.260926,-1.221927,0.185050,0.972135,-0.103584
9095148273,-0.252346,-1.382419,-1.222420,0.181438,0.974355,-0.103603
9095150768,-0.252787,-1.443842,-1.101193,0.186401,0.975606,-0.094028
9095153264,-0.192778,-1.627254,-0.980279,0.184357,0.976500,-0.102787
9095155759,-0.071930,-1.810914,-0.859275,0.185105,0.974356,-0.105728
9095158255,-0.133545,-2.054149,-0.860170,0.186479,0.970653,-0.102859
9095160750,-0.194577,-2.114772,-0.860462,0.187274,0.972162,-0.106461
9095163245,-0.316113,-1.993087,-0.738811,0.188100,0.978746,-0.108512
9095165741,-0.254816,-1.810999,-0.677402,0.186609,0.975119,-0.108603
9095168237,-0.193960,-1.690333,-0.494767,0.188044,0.972204,-0.109362
9095170732,-0.193943,-1.569420,-0.312221,0.182977,0.972277,-0.110900
9095173228,-0.254376,-1.326518,-0.129363,0.179360,0.970891,-0.113171
9095175723,-0.253776,-1.022992,0.053787,0.181536,0.965105,-0.116884
9095178218,-0.192215,-0.719439,0.176312,0.180806,0.967988,-0.114657
9095180714,-0.191686,-0.476508,0.298547,0.179402,0.966618,-0.119076
9095183209,-0.069286,-0.173203,0.421162,0.180024,0.961453,-0.115518
9095185705,-0.068369,0.191469,0.543800,0.177861,0.962214,-0.116268
9095188201,-0.067717,0.434676,0.605319,0.176522,0.965238,-0.122063
9095190696,-0.127902,0.678131,0.666749,0.170641,0.963060,-0.119285
9095193191,-0.066164,0.921641,0.606931,0.172005,0.959345,-0.115688
9095195687,-0.004426,1.165152,0.547113,0.173517,0.960836,-0.118550
9095198182,0.178865,1.407892,0.548189,0.171224,0.959292,-0.112060
9095200678,0.362280,1.650907,0.488551,0.167636,0.960819,-0.114276
9095203173,0.484733,1.893894,0.489537,0.172067,0.962294,-0.117819
9095205669,0.668148,2.136909,0.429899,0.172685,0.957846,-0.113519
9095208164,0.790530,2.319302,0.369969,0.172645,0.954920,-0.112845
9095210660,0.852127,2.441624,0.188319,0.177065,0.960705,-0.112667
9095213155,0.791871,2.624484,0.188834,0.182845,0.961329,-0.109646
9095215651,0.670335,2.746169,0.310485,0.191662,0.959909,-0.116813
9095218146,0.548676,2.867578,0.492850,0.188696,0.956272,-0.115471
9095220642,0.487661,2.927868,0.675104,0.192244,0.953980,-0.111084
9095223137,0.487731,2.988462,0.736020,0.195217,0.956185,-0.113909
9095225633,0.487360,2.987634,0.918162,0.198892,0.959075,-0.114524
9095228128,0.304016,2.805213,1.038716,0.202520,0.962633,-0.111486
9095230623,0.120230,2.561370,1.280497,0.201740,0.964741,-0.106360
9095233119,-0.063696,2.196337,1.400446,0.199568,0.969811,-0.103389
9095235614,-0.186537,1.831608,1.399057,0.201802,0.969850,-0.106994
9095238110,-0.309061,1.528027,1.337155,0.204019,0.971310,-0.108388
9095240605,-0.309519,1.345691,1.275837,0.203336,0.975687,-0.108319
9095243101,-0.188107,1.223730,1.214900,0.198936,0.979285,-0.103226
9095245597,-0.066500,1.162640,1.154164,0.200415,0.980740,-0.103903
9095248092,-0.066641,1.041450,1.032333,0.198975,0.975728,-0.108390
9095250587,0.054700,0.858895,0.910481,0.194595,0.977190,-0.106249
9095253083,0.176236,0.737210,0.788830,0.197576,0.982284,-0.107564
9095255579,0.358734,0.615553,0.606555,0.192498,0.980185,-0.109871
9095258074,0.480394,0.494145,0.424189,0.185962,0.980976,-0.109964
9095260569,0.723536,0.311370,0.241803,0.185988,0.982444,-0.110665
9095263065,0.905716,0.128566,0.120040,0.186012,0.979591,-0.114359
9095265560,1.087579,-0.115384,0.058791,0.180934,0.977492,-0.116666
9095268055,1.208920,-0.297940,-0.063062,0.178778,0.976820,-0.118899
9095270551,1.269812,-0.358506,-0.184602,0.175099,0.974646,-0.117543
9095273048,1.330650,-0.358754,-0.184511,0.175125,0.978276,-0.116747
9095275550,1.270076,-0.237041,-0.123484,0.177248,0.976750,-0.113826
9095278048,1.148540,-0.115356,-0.001833,0.176518,0.977473,-0.113096
9095280533,0.905134,-0.054046,0.119436,0.175140,0.979732,-0.116720
9095283028,0.722883,0.068163,0.180283,0.178065,0.978284,-0.118884
9095285524,0.601418,0.250442,0.362850,0.173685,0.975425,-0.119737
9095288019,0.540597,0.371603,0.545305,0.172977,0.978333,-0.118967
9095290515,0.418496,0.431589,0.848897,0.176583,0.977545,-0.117465
9095293011,0.236192,0.614117,1.031374,0.177238,0.976738,-0.113098
9095295506,0.053818,0.736049,1.152935,0.177965,0.978892,-0.111590
9095298001,-0.067594,0.858010,1.213871,0.175744,0.975987,-0.110951
9095300497,-0.006685,0.918357,1.274877,0.177853,0.975166,-0.106560
9095302992,0.115203,1.099645,1.457804,0.182971,0.975870,-0.107921
9095305488,0.237338,1.281485,1.519303,0.184508,0.978829,-0.111484
9095307983,0.298635,1.463574,1.580712,0.181532,0.981661,-0.104924
9095310478,0.298829,1.524444,1.580913,0.179988,0.977974,-0.101375
9095312974,0.299288,1.706780,1.642232,0.182233,0.978025,-0.105708
9095315470,0.299676,1.828522,1.642635,0.184417,0.975127,-0.107911
9095317965,0.300064,1.950263,1.643038,0.184341,0.970722,-0.105807
9095320461,0.239349,1.950787,1.582233,0.184414,0.975844,-0.107169
9095322956,0.299923,1.829074,1.521206,0.183025,0.980251,-0.108568
9095325451,0.299976,1.768755,1.399576,0.176519,0.981794,-0.110103
9095327947,0.421706,1.707941,1.278127,0.178648,0.976676,-0.110162
9095330442,0.543506,1.707722,1.217593,0.190989,0.975817,-0.109247
9095332938,0.665042,1.586037,1.095942,0.190993,0.979422,-0.106996
9095335434,0.665360,1.647184,1.035429,0.191778,0.980920,-0.109869
9095337929,0.604327,1.586561,1.035137,0.193889,0.975061,-0.109214
9095340424,0.543806,1.647955,0.974535,0.197517,0.974298,-0.109168
9095342920,0.543418,1.526214,0.974132,0.193846,0.975013,-0.106301
9095345415,0.543101,1.465067,1.034644,0.190880,0.971375,-0.104960
9095347911,0.542713,1.343326,1.034241,0.193079,0.972095,-0.105639
9095350406,0.603410,1.221889,0.912500,0.195968,0.969166,-0.106374
9095352902,0.542554,1.101223,0.729865,0.195960,0.964117,-0.109380
9095355397,0.482281,1.163170,0.547834,0.193124,0.964945,-0.113783
9095357893,0.300154,1.285655,0.547966,0.192455,0.968617,-0.115183
9095360388,0.118150,1.408416,0.487385,0.193880,0.965690,-0.115214
9095362884,-0.002821,1.591799,0.427094,0.189502,0.959954,-0.118305
9095365379,-0.062760,1.835806,0.367096,0.187282,0.961371,-0.114672
9095367875,-0.183660,2.079784,0.367722,0.192383,0.965656,-0.112325
9095370370,-0.304949,2.202021,0.367944,0.193869,0.965678,-0.114486
9095372866,-0.304561,2.323763,0.368347,0.194614,0.964251,-0.116685
9095375361,-0.364870,2.566941,0.490491,0.191684,0.964255,-0.115276
9095377856,-0.364465,2.809596,0.673440,0.187305,0.965717,-0.113135
9095380352,-0.424827,3.113093,0.917213,0.190195,0.967109,-0.110877
9095382848,-0.302357,3.476993,1.100745,0.193114,0.967093,-0.111558
9095385343,-0.240478,3.841693,1.162758,0.192398,0.969273,-0.110801
9095387838,-0.056993,4.145303,1.164035,0.186489,0.966344,-0.106581
9095390334,0.003969,4.145332,1.103411,0.184329,0.966389,-0.108072
9095392851,0.063961,3.841006,1.041780,0.187968,0.967798,-0.107258
9095395338,0.123635,3.475534,1.040661,0.192330,0.969917,-0.105691
9095397830,0.244218,3.170409,1.100549,0.197487,0.969224,-0.110719
9095400315,0.365701,3.109043,1.100527,0.198911,0.966297,-0.110749
9095402810,0.426398,2.987606,0.978786,0.198167,0.967725,-0.108550
9095405305,0.426398,2.987606,0.978786,0.198937,0.969927,-0.109954
9095407801,0.487166,2.926764,0.917961,0.200402,0.967764,-0.112155
9095410296,0.548199,2.987386,0.918252,0.201863,0.970639,-0.110621
9095412792,0.548128,2.926792,0.857337,0.204073,0.971370,-0.112029
9095415287,0.487219,2.866445,0.796331,0.202695,0.971469,-0.117149
9095417783,0.365084,2.684605,0.734832,0.201953,0.972180,-0.115691
9095420278,0.364890,2.623734,0.734631,0.203393,0.972870,-0.114198
9095422774,0.364890,2.623734,0.734631,0.202698,0.972913,-0.116394
9095425269,0.364961,2.684329,0.795546,0.202662,0.969272,-0.116461
9095427765,0.304634,2.806594,0.735145,0.202629,0.969236,-0.114277
9095430260,0.305022,2.928335,0.735548,0.201949,0.970735,-0.116446
9095432756,0.183857,3.050848,0.675056,0.199067,0.972232,-0.117194
9095435251,0.123460,3.112519,0.553739,0.199060,0.971504,-0.117208
9095437746,0.001906,3.113291,0.492845,0.199099,0.972268,-0.119378
9095440242,-0.058685,3.114090,0.371326,0.196980,0.975238,-0.121544
9095442737,-0.058244,3.175513,0.250099,0.200687,0.978164,-0.124344
9095445233,-0.057538,3.358402,0.189990,0.205747,0.977363,-0.122819
9095447728,0.064527,3.479647,0.190573,0.202102,0.977386,-0.122149
9095450224,0.125559,3.540270,0.190864,0.202037,0.975153,-0.119277
9095452719,0.186327,3.479428,0.130039,0.203447,0.975091,-0.116342
9095455215,0.186380,3.419109,0.008409,0.198456,0.977409,-0.121480
9095457710,0.186310,3.358515,-0.052507,0.196980,0.975238,-0.121544
9095460206,0.186045,3.237049,-0.113624,0.199085,0.972972,-0.117909
9095462701,0.246549,3.054741,-0.235567,0.199082,0.973688,-0.117167
9095465197,0.306417,2.750140,-0.236484,0.199053,0.972936,-0.115725
9095467692,0.426930,2.384420,-0.237512,0.198304,0.972919,-0.114280
9095470187,0.486551,2.079267,-0.117001,0.199773,0.974361,-0.114230
9095472683,0.546560,1.895855,0.003913,0.201961,0.972908,-0.115677
9095475179,0.606622,1.652124,0.003198,0.205618,0.975058,-0.115578
9095477674,0.605581,1.287176,-0.058725,0.205647,0.977971,-0.115524
9095480169,0.604153,0.800487,-0.121051,0.202720,0.975098,-0.116353
9095482665,0.602283,0.252375,-0.062150,0.202691,0.972185,-0.116407
9095485160,0.600925,-0.173720,-0.063560,0.203433,0.973634,-0.116368
9095487656,0.539063,-0.417507,0.056973,0.205614,0.973614,-0.116333
9095490151,0.416557,-0.600176,0.177616,0.203422,0.973622,-0.115640
9095492647,0.293980,-0.843439,0.237345,0.203426,0.975067,-0.114885
9095495142,0.110566,-1.086454,0.296983,0.203411,0.973610,-0.114912
9095497638,0.109472,-1.391084,0.356690,0.203389,0.971426,-0.114953
9095500133,0.108643,-1.574248,0.477514,0.201176,0.971410,-0.112804
9095502629,0.229808,-1.696761,0.538005,0.199672,0.970648,-0.109928
9095505124,0.168528,-1.757936,0.659142,0.197541,0.969285,-0.114359
9095507620,0.167893,-1.880230,0.780168,0.191739,0.968636,-0.115923
9095510115,0.106419,-2.002275,0.901103,0.190274,0.968638,-0.115219
9095512611,0.106031,-2.124017,0.900700,0.193237,0.970831,-0.117315
9095515106,0.106543,-2.001999,0.840389,0.191045,0.970840,-0.116623
9095517602,-0.014428,-1.818616,0.780099,0.186708,0.968029,-0.120388
9095520097,-0.074491,-1.574885,0.780814,0.188194,0.970212,-0.121052
9095522592,-0.012806,-1.271055,0.842626,0.185970,0.970185,-0.118175
9095525088,0.048879,-0.967226,0.904437,0.179366,0.967298,-0.116150
9095527583,0.110635,-0.602802,1.027164,0.180104,0.967303,-0.116867
9095530079,0.111605,-0.298448,1.028172,0.181615,0.968794,-0.119729
9095532575,0.112575,0.005905,1.029179,0.183081,0.970953,-0.118937
9095535070,0.175019,0.432305,0.909251,0.183051,0.968040,-0.118990
9095537566,0.237586,0.858980,0.728609,0.179438,0.968099,-0.120506
9095540061,0.300171,1.406568,0.730512,0.176635,0.971124,-0.125595
9095542556,0.362315,1.892733,0.853642,0.176657,0.973309,-0.125555
9095545052,0.485296,2.378651,0.976862,0.180249,0.973226,-0.122584
9095547547,0.547493,2.804498,0.978362,0.183120,0.971717,-0.121107
9095550043,0.549028,3.170551,0.797428,0.182401,0.972452,-0.121106
9095552538,0.550439,3.536327,0.677208,0.179482,0.972468,-0.120425
9095555034,0.551780,3.841508,0.496073,0.181635,0.973855,-0.117450
9095557529,0.552751,4.145862,0.497080,0.184496,0.976656,-0.112252
9095560025,0.553209,4.328197,0.558399,0.184529,0.976692,-0.114437
9095562520,0.553156,4.388516,0.680029,0.181620,0.974560,-0.115980
9095565016,0.492194,4.388488,0.740653,0.186673,0.973030,-0.114469
9095567511,0.613606,4.266527,0.679716,0.192615,0.975996,-0.120873
9095570007,0.674374,4.205685,0.618890,0.194076,0.976710,-0.120836
9095572502,0.613853,4.267079,0.558288,0.193964,0.970824,-0.117304
9095574997,0.492053,4.267299,0.618822,0.196936,0.973029,-0.120128
9095577493,0.248435,4.146825,0.557344,0.199881,0.974482,-0.121511
9095579988,0.065073,3.843491,0.495352,0.200568,0.973710,-0.119328
9095582484,-0.057521,3.479315,0.372535,0.200601,0.978068,-0.118519
9095584979,0.001748,2.871188,0.188468,0.204218,0.977293,-0.117746
9095587475,0.061141,2.263338,-0.056313,0.207839,0.980123,-0.114720
9095589971,0.181442,1.715834,-0.240088,0.210719,0.981503,-0.111734
9095592466,0.241557,1.411785,-0.362434,0.209955,0.980029,-0.110316
9095594961,0.362846,1.289548,-0.362657,0.206242,0.980696,-0.104537
9095597457,0.423296,1.167559,-0.362969,0.206304,0.985806,-0.105171
9095599952,0.544338,1.044770,-0.241764,0.209223,0.985790,-0.105852
9095602448,0.543261,0.861053,0.000489,0.210572,0.982779,-0.100785
9095604943,0.663738,0.676565,0.303636,0.208336,0.978418,-0.100174
9095607439,0.662397,0.371384,0.484771,0.205446,0.977026,-0.102432
9095609934,0.660933,0.065926,0.726620,0.202599,0.975681,-0.107603
9095612430,0.537527,-0.360501,0.907173,0.201879,0.974256,-0.109098
9095614925,0.413803,-0.848075,1.148238,0.207628,0.967646,-0.109125
9095617420,0.289939,-1.456839,1.267471,0.204655,0.963280,-0.107796
9095619916,0.166446,-2.064774,1.204563,0.201056,0.964796,-0.109285
9095622412,0.103861,-2.612362,1.202659,0.196032,0.964917,-0.113736
9095624907,0.041912,-3.037657,1.079731,0.199696,0.967795,-0.113623
9095627402,-0.020091,-3.402633,1.078432,0.201923,0.967106,-0.117241
9095629898,-0.081458,-3.645316,0.956108,0.203475,0.971522,-0.120777
9095632393,-0.081723,-3.766782,0.894991,0.204148,0.969294,-0.118622
9095634889,-0.081599,-3.766505,0.834276,0.199689,0.967067,-0.113636
9095637384,-0.020249,-3.644736,0.774055,0.194611,0.967128,-0.114447
9095639880,0.041806,-3.340078,0.653724,0.198274,0.965685,-0.117327
9095642375,0.103739,-3.035697,0.594107,0.198357,0.968658,-0.120914
9095644871,0.226509,-2.731562,0.534581,0.196188,0.970851,-0.120181
9095647366,0.349791,-2.305411,0.414743,0.193217,0.965769,-0.119594
9095649862,0.473073,-1.879260,0.294905,0.191041,0.967235,-0.118874
9095652357,0.596920,-1.391410,-0.006875,0.188126,0.968695,-0.117438
9095654853,0.720591,-0.843517,-0.126310,0.188125,0.964374,-0.120432
9095657348,0.844190,-0.356219,-0.306661,0.186681,0.962239,-0.122680
9095659843,0.967861,0.191674,-0.426096,0.185152,0.962169,-0.117607
9095662339,0.970172,0.801209,-0.606224,0.183741,0.962231,-0.120543
9095664834,0.971777,1.227855,-0.726242,0.187430,0.962256,-0.124124
9095667330,0.851070,1.532705,-0.725415,0.183821,0.965920,-0.123388
9095669825,0.790497,1.654418,-0.664388,0.181636,0.964497,-0.124178
9095672321,0.729535,1.654389,-0.603764,0.179483,0.963109,-0.127153
9095674816,0.790373,1.654142,-0.603674,0.180887,0.964480,-0.122734
9095677312,0.851017,1.593023,-0.603785,0.185192,0.962933,-0.119778
9095679807,0.851017,1.593023,-0.603785,0.185915,0.963642,-0.119024
9095682303,0.850770,1.592471,-0.482357,0.191739,0.966476,-0.117420
9095684798,0.972006,1.530553,-0.360950,0.194643,0.967164,-0.116631
9095687294,1.093365,1.468910,-0.300257,0.194600,0.967116,-0.113719
9095689789,1.215183,1.589604,-0.178245,0.198276,0.972166,-0.112837
9095692285,1.276232,1.771140,0.004592,0.201177,0.975732,-0.109811
9095694780,1.398121,1.952428,0.187519,0.198898,0.969162,-0.107783
9095697276,1.580124,1.829667,0.248100,0.201879,0.974256,-0.109098
9095699771,1.761616,1.584889,0.368993,0.203382,0.970697,-0.114966
9095702267,1.820972,1.158270,0.428387,0.198267,0.967117,-0.115844
9095704762,1.941432,0.852869,0.548989,0.201107,0.965572,-0.112183
9095707258,1.879041,0.366152,0.547287,0.204065,0.966321,-0.115035
9095709753,1.877930,-0.059391,0.424449,0.204094,0.967073,-0.116478
9095712249,1.816104,-0.484410,0.240806,0.206999,0.969922,-0.114193
9095714744,1.632849,-0.908381,-0.064446,0.209967,0.968522,-0.119269
9095717239,1.328057,-1.210667,-0.248046,0.204842,0.964930,-0.119419
9095719735,0.962110,-1.573853,-0.371224,0.209959,0.965633,-0.120779
9095722230,0.779119,-1.876358,-0.615358,0.210653,0.963430,-0.120080
9095724726,0.595934,-2.239735,-0.859694,0.212806,0.966978,-0.115609
9095727221,0.595652,-2.482113,-1.103356,0.205550,0.975702,-0.110468
9095729717,0.716800,-2.725539,-1.225410,0.206866,0.968333,-0.106211
9095732212,0.899174,-2.847472,-1.346971,0.211940,0.966828,-0.106155
9095734708,1.020657,-2.908838,-1.346992,0.208295,0.971172,-0.102493
9095737203,1.141822,-3.031351,-1.286501,0.205381,0.974793,-0.099560
9095739698,1.201637,-3.275634,-1.165788,0.207601,0.975536,-0.101695
9095742194,1.322220,-3.580759,-1.105901,0.208292,0.971888,-0.101751
9095744690,1.442733,-3.946479,-1.106929,0.208320,0.970480,-0.104690
9095747185,1.563369,-4.311922,-1.168672,0.206761,0.965336,-0.101168
9095749681,1.623361,-4.616247,-1.230303,0.205335,0.963942,-0.104131
9095752176,1.622778,-4.798860,-1.230908,0.199606,0.966254,-0.108553
9095754671,1.743749,-4.982243,-1.170618,0.205411,0.966186,-0.107731
9095757167,1.743361,-5.103984,-1.171021,0.203989,0.966237,-0.109939
9095759662,1.743432,-5.043390,-1.110105,0.198228,0.966353,-0.113673
9095762158,1.804976,-4.860750,-1.170125,0.194003,0.971588,-0.119474
9095764653,1.806334,-4.434655,-1.168714,0.190531,0.978286,-0.125965
9095767149,1.747101,-4.007761,-1.288823,0.190506,0.976817,-0.125264
9095769644,1.687745,-3.581142,-1.348217,0.189762,0.982566,-0.120071
9095772140,1.810850,-3.094948,-1.285711,0.193448,0.985468,-0.121414
9095774635,2.055191,-2.670672,-1.101798,0.189018,0.986154,-0.116375
9095777131,2.177679,-2.185859,-0.735721,0.187546,0.985427,-0.115684
9095779626,2.117457,-1.761173,-0.370116,0.184560,0.986087,-0.109893
9095782122,2.178577,-1.519042,-0.126363,0.185956,0.984569,-0.106984
9095784617,2.239450,-1.277464,0.238818,0.186742,0.992548,-0.105368
9095787113,2.482521,-1.097775,0.664782,0.183227,0.999197,-0.108946
9095789608,2.907789,-0.979977,1.151529,0.187672,1.002129,-0.112462
9095792104,3.515114,-1.045258,1.577228,0.187514,1.001232,-0.102282
9095794599,4.122050,-1.232281,2.002524,0.195624,1.009202,-0.104188
9095797095,4.667707,-1.480478,2.548957,0.205922,1.017880,-0.106046
9095799590,5.274273,-1.668329,3.156395,0.205786,1.019167,-0.095825
9095802086,6.185544,-1.735401,3.703973,0.213092,1.022739,-0.095640
9095804581,7.400934,-1.864308,4.191086,0.218944,1.024164,-0.096975
9095807077,8.799528,-1.931982,4.435814,0.229194,1.029188,-0.098172
9095809572,10.379846,-2.364796,4.497461,0.232898,1.030670,-0.101727
9095812067,12.020541,-2.980193,4.497879,0.233840,1.030904,-0.116277
9095814563,13.721564,-3.717856,4.558699,0.237765,1.029034,-0.137373
9095817059,15.667422,-4.030139,4.560575,0.245313,1.024956,-0.159179
9095819554,17.676180,-3.733688,4.503841,0.240671,1.021906,-0.192094
9095822049,19.748287,-2.767078,4.267272,0.244041,1.020236,-0.224851
9095824545,21.640697,-1.068172,3.789991,0.238008,1.022309,-0.258423
9095827040,23.353046,1.362201,3.254144,0.226720,1.020646,-0.283407
9095829536,24.763657,4.524538,2.659550,0.217465,1.011595,-0.303394
9095832031,25.810537,8.174774,2.187455,0.198030,1.012000,-0.316818
9095834527,26.554588,12.252345,1.716319,0.174197,1.006645,-0.331876
9095837022,26.934259,16.574610,1.306163,0.151569,0.996677,-0.333158
9095839518,27.070192,20.776125,0.895244,0.138452,0.998927,-0.329689
9095842013,26.962503,24.857166,0.422847,0.118063,0.992604,-0.332325
9095844509,26.731901,28.512882,-0.111854,0.105976,0.977085,-0.312410
9095847006,26.499416,31.499573,-0.770200,0.097830,0.981315,-0.299353
9095849501,26.446339,33.511593,-1.431498,0.091050,0.976791,-0.286434
9095851996,26.389507,34.306469,-2.157540,0.089935,0.974203,-0.261731
9095854509,26.206533,33.701817,-2.888395,0.085164,0.971627,-0.235630
9095856987,25.653503,31.636930,-3.442483,0.085447,0.974002,-0.203528
9095859483,24.912542,27.989319,-3.819936,0.085759,0.977130,-0.172869
9095861978,23.923166,23.062206,-3.716266,0.099232,0.982378,-0.145598
9095864474,22.868467,17.037460,-3.130599,0.122227,0.988336,-0.122528
9095866969,21.749104,10.158287,-2.001415,0.149722,0.997285,-0.106616
9095869465,20.749189,2.850593,-0.448461,0.187336,1.006793,-0.086156
9095871960,19.869810,-4.701908,1.286010,0.227871,1.009086,-0.071608
9095874456,19.234892,-11.829859,3.143679,0.268394,1.002726,-0.062319
9095876951,18.845198,-18.410686,4.942809,0.302504,1.005215,-0.055887
9095879447,18.640650,-24.321579,6.501567,0.340899,0.996775,-0.051770
9095881942,18.560511,-29.682922,7.576605,0.382993,0.990533,-0.050467
9095884438,18.483107,-34.494213,8.167742,0.405437,0.980133,-0.051018
9095886933,18.346842,-38.877789,8.456630,0.422766,0.963993,-0.053945
9095889429,18.030603,-42.771450,8.261144,0.432890,0.950155,-0.059860
9095891924,17.412397,-46.235836,7.641619,0.424165,0.943757,-0.064492
9095894419,16.430868,-49.392731,6.658275,0.413935,0.936596,-0.066248
9095896915,15.328372,-52.366241,5.614641,0.396376,0.930877,-0.062998
9095899410,14.104655,-55.156921,4.632145,0.368001,0.924643,-0.066491
9095901906,12.881909,-57.643246,3.650656,0.331797,0.928753,-0.074293
9095904401,11.720725,-59.826019,2.791694,0.295528,0.932791,-0.077727
9095906897,10.560281,-61.584076,2.237712,0.260724,0.932506,-0.084859
9095909392,9.583480,-62.796417,1.989385,0.221559,0.940905,-0.086075
9095911888,8.851690,-63.220367,2.169036,0.180949,0.940687,-0.094029
9095914383,8.243853,-62.854046,2.472914,0.139016,0.947110,-0.106254
9095916879,7.819765,-62.062649,2.839188,0.102096,0.951239,-0.114797
9095919374,7.519418,-60.662762,3.146941,0.075330,0.946604,-0.127705
9095921870,7.281850,-58.654419,3.456800,0.046322,0.943362,-0.135524
9095924365,7.045464,-56.159943,3.950412,0.021079,0.944551,-0.149029
9095926861,6.628501,-53.056011,4.445769,0.001800,0.948730,-0.170394
9095929356,6.090851,-49.526314,5.124498,-0.018448,0.949045,-0.178005
9095931852,5.372114,-45.509190,5.865283,-0.029958,0.946412,-0.188441
9095934347,4.654170,-41.127666,6.789418,-0.040835,0.942948,-0.193053
9095936842,3.998158,-36.441765,7.653937,-0.046582,0.944521,-0.196761
9095939338,3.586806,-31.270437,8.641856,-0.047158,0.944696,-0.206966
9095941834,3.603262,-25.492140,9.632421,-0.046223,0.946363,-0.220033
9095944329,3.986494,-19.167490,10.625339,-0.044621,0.951555,-0.226468
9095946825,4.676371,-12.113359,11.560410,-0.039381,0.955996,-0.233586
9095949320,5.672450,-4.391163,12.558863,-0.036226,0.967765,-0.242060
9095951816,7.157424,3.938308,13.438622,-0.032410,0.975133,-0.249148
9095954311,8.826077,12.632260,14.319860,-0.025114,0.980853,-0.246738
9095956807,10.617097,21.387693,14.958623,-0.025013,0.982406,-0.252536
9095959302,12.286544,30.022982,15.353947,-0.022101,0.988144,-0.248740
9095961797,13.773125,38.356045,15.444421,-0.016916,0.999723,-0.246986
9095964293,15.075937,46.143112,15.289956,-0.006137,0.998757,-0.238814
9095966788,16.011570,53.141186,14.950189,0.003113,0.997721,-0.225568
9095969284,16.457264,59.167030,14.667192,0.016829,0.999641,-0.217295
9095971779,16.534315,64.098412,14.440742,0.032550,1.002064,-0.196595
9095974275,16.363846,67.994049,14.635507,0.054281,1.004647,-0.188907
9095976770,16.068422,70.976295,15.009212,0.080988,1.001296,-0.177603
9095979266,15.770049,73.226715,15.684071,0.115794,1.005902,-0.167478
9095981761,15.530523,74.928497,16.478634,0.152184,1.017121,-0.161577
9095984257,15.410432,76.080841,17.514423,0.188634,1.022647,-0.163793
9095986752,15.410342,76.745453,18.609493,0.225661,1.016478,-0.164028
9095989248,15.530695,76.983749,19.642622,0.263362,1.012402,-0.159114
9095991743,15.832697,76.796295,20.431753,0.298955,1.011308,-0.157094
9095994239,16.315981,76.182304,21.159031,0.328040,1.007437,-0.159603
9095996734,16.920288,75.324600,21.824966,0.355681,1.003591,-0.162863
9095999230,17.584641,74.102249,22.307644,0.379795,0.997740,-0.174960
9096001725,18.308914,72.514984,22.667772,0.401045,0.994126,-0.188519
9096004220,19.031883,70.441299,22.904860,0.415646,0.983256,-0.200135
9096006716,19.570841,67.821083,23.018436,0.427937,0.970101,-0.204546
9096009212,19.987202,64.836678,23.009197,0.432998,0.957781,-0.211246
9096011707,20.158655,61.366306,22.997984,0.442955,0.937997,-0.209988
9096014203,20.267792,57.469814,23.045986,0.445040,0.926348,-0.211625
9096016698,20.314430,53.207237,23.335548,0.447406,0.919334,-0.229199
9096019202,20.603203,48.638760,23.745890,0.454859,0.919469,-0.241459
9096021689,20.952145,44.128979,24.581520,0.454345,0.926915,-0.250801
9096024184,21.361570,39.739033,25.781931,0.455340,0.938729,-0.260767
9096026680,21.893167,35.772755,27.408932,0.457739,0.951913,-0.266314
9096029175,22.546989,32.169823,29.340891,0.464526,0.968684,-0.270994
9096031671,23.323418,29.051983,31.578215,0.473549,0.991976,-0.274790
9096034166,24.222019,26.357809,34.242126,0.486265,1.016739,-0.281413
9096036662,25.242912,24.087580,37.271912,0.499646,1.040705,-0.284397
9096039157,26.263966,22.059448,40.606075,0.510752,1.059547,-0.284598
9096041653,27.164505,20.397041,43.941273,0.517481,1.074814,-0.286393
9096044148,27.882919,18.857115,47.276596,0.527795,1.089269,-0.285230
9096046644,28.480043,17.439428,50.612148,0.535132,1.100074,-0.281998
9096049140,28.894459,15.961612,53.947224,0.538818,1.107298,-0.280348
9096051635,29.369835,14.483828,57.221676,0.539417,1.111468,-0.268606
9096054130,29.967190,12.945780,60.253250,0.537787,1.107684,-0.259232
9096056625,30.747025,11.165161,62.920006,0.536806,1.097327,-0.249239
9096059121,31.465492,9.141860,65.464424,0.537330,1.099251,-0.233896
9096061616,32.182320,6.450087,67.763779,0.531324,1.098374,-0.221626
9096064112,32.837070,3.332741,70.000931,0.521681,1.088889,-0.215402
9096066607,33.430191,-0.148752,72.054626,0.520754,1.078592,-0.209050
9096069103,33.962196,-3.872376,73.864571,0.515401,1.066104,-0.199896
9096071598,34.371605,-7.960176,75.551704,0.513842,1.060960,-0.196373
9096074094,34.781704,-11.986002,76.996185,0.512336,1.053715,-0.197988
9096076589,35.131844,-15.888734,78.198112,0.509292,1.041351,-0.197536
9096079085,35.544674,-19.364515,79.158691,0.508458,1.027558,-0.199988
9096081580,35.836658,-22.656633,79.998260,0.505527,1.018919,-0.204565
9096084075,36.069405,-25.521862,80.717720,0.506358,1.019749,-0.211093
9096086571,36.364353,-27.961241,81.438690,0.508559,1.013270,-0.217004
9096089067,36.601040,-29.669371,82.040550,0.501358,1.014857,-0.220735
9096091562,36.840248,-30.586184,82.645027,0.497859,1.015764,-0.229518
9096094057,36.960426,-30.710905,83.191238,0.495854,1.017423,-0.240448
9096096553,37.083069,-29.983990,83.861687,0.490889,1.023370,-0.244791
9096099048,37.147541,-28.344316,84.656502,0.484531,1.030119,-0.252785
9096101544,37.458347,-25.731981,85.515617,0.480294,1.031021,-0.260851
9096104039,37.893227,-22.329100,86.438240,0.468728,1.033366,-0.263911
9096106535,38.451218,-18.440022,87.423370,0.455760,1.042983,-0.265404
9096109030,39.071026,-14.125928,88.592148,0.449308,1.048907,-0.267587
9096111526,39.691952,-9.386289,89.883751,0.439966,1.051279,-0.273524
9096114022,40.374454,-4.222184,91.480438,0.432067,1.057946,-0.275717
9096116517,41.057533,1.124533,93.077728,0.428454,1.060166,-0.275735
9096119012,41.617920,6.227710,94.795456,0.429127,1.057938,-0.273580
9096121508,42.177406,11.087128,96.573097,0.434150,1.053495,-0.272122
9096124003,42.613873,15.641860,98.531685,0.440749,1.048455,-0.279391
9096126499,42.989254,20.196291,100.611618,0.446658,1.049224,-0.285108
9096128994,43.180897,24.446558,102.811707,0.453114,1.046905,-0.280674
9096131490,43.310352,28.270977,105.010284,0.463118,1.040133,-0.273350
9096133987,43.498917,31.668226,107.389687,0.474530,1.034014,-0.262347
9096136497,43.685467,34.396172,109.706161,0.488925,1.030113,-0.254898
9096138984,43.930473,36.453743,112.141937,0.506897,1.024673,-0.244505
9096141471,44.112103,37.599327,114.392456,0.524019,1.015501,-0.228366
9096143968,44.352417,37.954170,116.458313,0.538986,1.007820,-0.212963
9096146461,44.469028,37.519299,118.278511,0.553935,0.999398,-0.196846
9096148957,44.522408,36.293633,120.035286,0.576225,0.989546,-0.186462
9096151452,44.694794,34.154961,121.667786,0.594221,0.981252,-0.179763
9096153948,44.804649,31.408382,123.176750,0.604286,0.975269,-0.176065
9096156443,44.913200,28.175394,124.562691,0.621707,0.967151,-0.179571
9096158938,44.838387,24.639069,125.886620,0.642092,0.960510,-0.185916
9096161434,44.702526,20.921207,127.027725,0.660895,0.951578,-0.185043
9096163929,44.324196,17.327181,127.926003,0.673218,0.940621,-0.190142
9096166425,43.947006,13.977468,128.642960,0.680623,0.934942,-0.203238
9096168920,43.388458,10.872808,129.178299,0.691655,0.930661,-0.214791
9096171416,42.586884,7.951201,129.835312,0.700449,0.924896,-0.223495
9096173911,41.665241,5.456736,130.372131,0.701941,0.919164,-0.230132
9096176407,40.561996,3.327685,131.031326,0.701227,0.914146,-0.234607
9096178902,39.460945,1.807894,131.571075,0.697599,0.910588,-0.237645
9096181398,38.361374,0.714474,132.051544,0.695421,0.907732,-0.239919
9096183893,37.324490,0.048005,132.290665,0.696140,0.904836,-0.241417
9096186389,36.410912,-0.071400,132.592484,0.688941,0.901385,-0.248883
9096188884,35.559330,0.174172,132.895599,0.677400,0.903037,-0.254142
9096191380,34.769650,0.905357,133.443268,0.668785,0.907563,-0.258571
9096193875,34.041965,2.001518,133.992233,0.655742,0.905576,-0.263192
9096196371,33.253906,3.280263,134.602448,0.640386,0.906342,-0.256873
9096198866,32.465282,4.497310,135.394577,0.623502,0.909198,-0.243984
9096201361,31.736423,5.530393,136.429077,0.610319,0.909215,-0.237643
9096203857,31.188980,6.258102,137.523529,0.600816,0.911406,-0.232659
9096206352,30.883921,6.680467,138.617340,0.592727,0.914979,-0.223984
9096208848,30.638733,6.798231,139.710251,0.591806,0.912609,-0.212387
9096211343,30.453094,6.550246,140.862732,0.595238,0.907308,-0.202229
9096213839,30.266111,5.997080,142.196350,0.597330,0.907906,-0.195627
9096216334,30.260431,5.138264,143.650696,0.597237,0.909242,-0.188319
9096218830,30.315128,4.096866,145.043777,0.597823,0.902597,-0.183332
9096221325,30.490654,2.750894,146.375320,0.603486,0.895890,-0.177534
9096223821,30.604551,1.040774,147.523438,0.611432,0.895037,-0.174506
9096226316,30.717407,-1.034294,148.609634,0.619353,0.890555,-0.172273
9096228812,30.890182,-3.474282,149.573257,0.629446,0.881003,-0.173011
9096231307,30.880302,-6.034716,150.414810,0.636729,0.880229,-0.174363
9096233803,30.870424,-8.595150,151.256332,0.642592,0.881666,-0.176426
9096236298,30.799706,-11.155335,152.097794,0.647810,0.881761,-0.185081
9096238794,30.790144,-13.654622,152.878815,0.651628,0.881932,-0.197400
9096241289,30.781092,-16.031893,153.599533,0.660465,0.878375,-0.207519
9096243784,30.591082,-17.921452,154.321579,0.669252,0.871882,-0.216236
9096246280,30.159565,-19.382824,154.801819,0.672162,0.866817,-0.219924
9096248775,29.607840,-20.538237,155.040054,0.674982,0.858050,-0.220039
9096251271,29.178797,-21.571032,154.975281,0.675692,0.847944,-0.226040
9096253766,28.811474,-22.481222,154.668137,0.674955,0.838581,-0.232052
9096256262,28.506205,-23.086760,154.240677,0.673417,0.829139,-0.232979
9096258757,28.141123,-23.448011,153.692505,0.667579,0.824850,-0.234610
9096261253,27.776552,-23.687248,153.084015,0.660347,0.821363,-0.239892
9096263748,27.351585,-23.864811,152.354218,0.655966,0.814182,-0.243738
9096266244,26.866167,-23.920387,151.624710,0.654428,0.806902,-0.243168
9096268739,26.320049,-23.854525,151.016968,0.647772,0.798918,-0.241238
9096271235,25.590979,-23.849342,150.530182,0.636721,0.786618,-0.240188
9096273730,24.922163,-24.027020,150.042862,0.632948,0.774977,-0.239006
9096276226,24.253153,-24.265568,149.555344,0.635041,0.768378,-0.237636
9096278721,23.584339,-24.443247,149.068039,0.634216,0.761794,-0.235585
9096281216,22.794109,-24.498962,148.641678,0.634112,0.749438,-0.237270
9096283712,22.064209,-24.676947,148.275696,0.631774,0.737043,-0.235350
9096286207,21.456179,-24.794552,147.910110,0.625090,0.728307,-0.231977
9096288703,21.030466,-24.973774,147.544586,0.625684,0.715191,-0.232208
9096291198,20.665333,-25.274708,147.118057,0.629213,0.705677,-0.231596
9096293694,20.300056,-25.696831,146.569672,0.626898,0.697627,-0.228139
9096296189,19.934444,-26.301014,145.899246,0.624604,0.689601,-0.226139
9096298685,19.690176,-27.087755,145.106995,0.620132,0.678720,-0.226411
9096301180,19.384857,-28.056028,144.131882,0.619252,0.669915,-0.222216
9096303676,19.140554,-29.084595,142.974533,0.621302,0.661107,-0.219430
9096306171,18.896107,-30.234348,141.695358,0.624900,0.655271,-0.220935
9096308667,18.590630,-31.444725,140.415863,0.627073,0.654522,-0.220914
9096311162,18.041214,-32.836723,139.135422,0.629944,0.650852,-0.220934
9096313658,17.370689,-34.166527,137.672867,0.627050,0.645855,-0.225444
9096316153,16.822214,-35.495998,136.028336,0.621974,0.643039,-0.228493
9096318649,16.212967,-36.764626,134.444641,0.619027,0.642302,-0.226369
9096321144,15.543203,-37.971859,132.800339,0.613985,0.641683,-0.230105
9096323640,14.873313,-39.179371,131.216751,0.609687,0.641797,-0.234545
9096326135,14.204251,-40.203720,129.512329,0.602374,0.637498,-0.234743
9096328631,13.717954,-41.228252,127.686760,0.594348,0.634661,-0.234927
9096331126,13.292811,-42.191891,125.800774,0.592166,0.632522,-0.236459
9096333622,12.745868,-43.155312,123.975311,0.587156,0.631938,-0.242379
9096336117,12.199578,-43.875523,122.211372,0.576243,0.624833,-0.247060
9096338612,11.532704,-44.290611,120.387543,0.563876,0.617741,-0.251763
9096341108,10.805629,-44.583157,118.442612,0.556587,0.614910,-0.252663
9096343603,9.957387,-44.753189,116.437172,0.545012,0.610044,-0.260227
9096346099,9.170443,-44.741135,114.493141,0.535653,0.602317,-0.272178
9096348594,8.324018,-44.302738,112.550438,0.532801,0.595207,-0.281097
9096351090,7.538890,-43.682247,110.669136,0.525602,0.591756,-0.288563
9096353586,6.693453,-42.818588,108.909988,0.514034,0.587619,-0.296113
9096356081,5.909048,-41.894295,107.151123,0.503164,0.582722,-0.302209
9096358576,5.003301,-40.787453,105.514114,0.495289,0.582215,-0.311089
9096361072,4.097802,-39.680058,103.755684,0.486507,0.576473,-0.311338
9096363567,3.314297,-38.512012,101.936913,0.476915,0.572085,-0.305020
9096366063,2.652716,-37.343910,99.996887,0.472474,0.570598,-0.300749
9096368558,2.538945,-36.056568,98.118805,0.473035,0.564645,-0.293564
9096371053,2.851678,-34.648674,96.120323,0.479364,0.552822,-0.287120
9096373549,3.468850,-33.241463,94.000854,0.483663,0.547670,-0.286416
9096376045,4.268642,-31.955637,91.638405,0.492321,0.543193,-0.284899
9096378540,5.251709,-30.547981,89.094482,0.501731,0.535856,-0.287065
9096381036,6.234760,-29.261238,86.368019,0.512633,0.527109,-0.292875
9096383531,7.157201,-28.094610,83.337486,0.522129,0.524190,-0.297872
9096386026,7.957560,-27.170139,80.123825,0.530769,0.516812,-0.297138
9096388522,8.574945,-26.427261,76.848579,0.539425,0.505853,-0.300111
9096391018,8.887240,-25.926905,73.632782,0.551811,0.500005,-0.305843
9096393513,9.016382,-25.548098,70.537750,0.555480,0.490648,-0.314697
9096396008,8.779402,-25.472431,67.501884,0.562822,0.482020,-0.325662
9096398504,8.237206,-25.639565,64.586189,0.567214,0.471211,-0.335259
9096400999,7.389160,-26.171782,61.911697,0.565758,0.464743,-0.339772
9096403495,6.296490,-26.947599,59.478889,0.556115,0.453098,-0.335044
9096405990,4.958295,-28.210770,57.347679,0.546451,0.443588,-0.327364
9096408486,3.435928,-29.839525,55.457848,0.533964,0.432043,-0.327051
9096410982,1.850481,-32.016972,53.808968,0.524415,0.425543,-0.325141
9096413477,0.142088,-34.438511,52.401962,0.512645,0.416139,-0.322593
9096415972,-1.506421,-37.043739,51.176582,0.504535,0.406009,-0.322183
9096418468,-3.216085,-39.709866,50.011623,0.490635,0.397402,-0.322568
9096420963,-4.925485,-42.254524,48.907787,0.478952,0.394577,-0.321355
9096423459,-6.695212,-44.676918,47.743549,0.471622,0.393858,-0.317845
9096425954,-8.403377,-46.795761,46.701832,0.461397,0.390302,-0.317350
9096428450,-9.927809,-48.610443,45.539967,0.454109,0.391792,-0.315256
9096430945,-11.207794,-50.121487,44.318752,0.449031,0.389692,-0.317563
9096433441,-12.304506,-51.510704,42.916069,0.441035,0.391929,-0.316196
9096435936,-13.217503,-52.716667,41.210693,0.427205,0.395643,-0.312712
9096438432,-14.068584,-53.739166,39.263157,0.419922,0.398577,-0.309864
9096440927,-14.978916,-54.455685,37.012962,0.414119,0.405127,-0.306196
9096443423,-15.644500,-54.928329,34.460361,0.408357,0.421083,-0.298713
9096445918,-16.126299,-55.157131,31.665981,0.402672,0.429926,-0.301558
9096448413,-16.181046,-55.324585,28.386723,0.407940,0.444478,-0.303390
9096450909,-16.052589,-55.430813,24.865076,0.412440,0.451791,-0.307553
9096453404,-15.557920,-55.475449,20.858459,0.424217,0.459763,-0.311585
9096455900,-14.757666,-55.276451,16.549528,0.439643,0.469156,-0.315531
9096458395,-13.408471,-54.834831,11.938641,0.447087,0.477922,-0.321077
9096460891,-11.571300,-54.150600,7.086425,0.458894,0.479447,-0.331783
9096463386,-9.429352,-53.285004,2.235263,0.477935,0.479423,-0.340942
9096465882,-7.225545,-52.175613,-2.736431,0.505069,0.479430,-0.356524
9096468377,-5.021473,-50.944759,-7.647007,0.529982,0.474373,-0.372964
9096470888,-2.998769,-49.468853,-12.739191,0.552805,0.473038,-0.393012
9096473368,-1.096648,-47.687817,-17.891262,0.574144,0.468804,-0.413138
9096475863,0.320459,-45.296650,-22.920612,0.591071,0.465996,-0.428940
9096478359,1.434573,-42.297188,-27.584112,0.602855,0.456694,-0.445672
9096480854,2.124793,-38.445457,-31.881138,0.597055,0.446687,-0.453964
9096483350,2.450812,-33.986027,-35.630260,0.583152,0.429438,-0.460337
9096485845,2.655082,-29.163630,-38.771214,0.556822,0.406470,-0.466289
9096488341,2.615027,-24.221537,-41.244267,0.519488,0.374855,-0.471851
9096490836,2.391415,-19.220591,-43.110252,0.477899,0.354921,-0.476540
9096493332,1.922421,-14.585813,-44.552803,0.429904,0.338084,-0.488562
9096495827,1.329526,-10.378563,-45.571945,0.376659,0.318954,-0.491242
9096498323,0.429934,-6.840481,-46.411610,0.326589,0.307296,-0.506846
9096500818,-0.715269,-3.971262,-47.193138,0.273564,0.294173,-0.520340
9096503314,-2.044627,-1.769772,-48.220009,0.224196,0.285360,-0.532238
9096505809,-3.558335,-0.296883,-49.492428,0.177738,0.283002,-0.539598
9096508305,-5.194142,0.812934,-51.130520,0.145967,0.285710,-0.553182
9096510801,-6.830108,1.680648,-53.072983,0.117016,0.295492,-0.555662
9096513296,-8.344094,2.488100,-55.258327,0.097527,0.305195,-0.558718
9096515791,-9.613530,3.478554,-57.746277,0.081568,0.316188,-0.553678
9096518287,-10.759894,4.713375,-60.536816,0.072964,0.334405,-0.549114
9096520782,-11.600020,6.435027,-63.568146,0.072870,0.349421,-0.532085
9096523278,-12.012671,8.581589,-66.718864,0.073685,0.369672,-0.523686
9096525774,-11.754813,11.090928,-69.928093,0.087426,0.386740,-0.506393
9096528269,-10.948033,14.145044,-72.952560,0.100545,0.408974,-0.492657
9096530764,-9.836286,17.441404,-75.975769,0.115000,0.428900,-0.472386
9096533260,-8.541424,21.040546,-78.815559,0.128247,0.446956,-0.470381
9096535755,-7.245909,24.882893,-81.593834,0.151396,0.463886,-0.450022
9096538251,-5.889679,28.724718,-84.311302,0.178261,0.477271,-0.437680
9096540746,-4.472999,32.444553,-87.029076,0.195065,0.498086,-0.428281
9096543242,-2.996768,35.798637,-89.687263,0.214645,0.505764,-0.419078
9096545737,-1.704094,38.788525,-92.407639,0.234214,0.513429,-0.409146
9096548232,-0.534083,41.353634,-95.311737,0.258358,0.530653,-0.406978
9096550728,0.391463,43.494194,-98.339050,0.279567,0.537794,-0.410142
9096553223,1.194274,45.149387,-101.611008,0.295595,0.548480,-0.404584
9096555719,1.996362,46.500778,-105.005394,0.316014,0.557716,-0.401895
9096558214,2.615406,47.609985,-108.522293,0.332756,0.561901,-0.400087
9096560710,3.112438,48.537632,-112.161400,0.346639,0.571928,-0.397490
9096563205,3.365023,49.161636,-115.741165,0.359728,0.584766,-0.388298
9096565701,3.495138,49.421734,-119.504463,0.368449,0.591880,-0.382925
9096568196,3.624406,49.377762,-123.329483,0.381555,0.603298,-0.375945
9096570692,3.813612,49.089779,-127.094490,0.390231,0.613241,-0.365421
9096573187,4.184558,48.557571,-130.860046,0.397478,0.622506,-0.357119
9096575683,4.493572,47.720982,-134.565964,0.399667,0.627535,-0.354077
9096578178,4.801297,46.518898,-138.212402,0.398129,0.633934,-0.343786
9096580673,4.925538,45.013199,-141.860107,0.398730,0.630906,-0.337275
9096583169,4.926955,43.263683,-145.326660,0.402351,0.633736,-0.334250
9096585666,4.745151,41.332020,-148.733368,0.390684,0.636688,-0.330016
9096588161,4.440840,39.217690,-152.019455,0.389896,0.635906,-0.326401
9096590657,4.014025,36.920696,-155.184875,0.389742,0.636454,-0.315466
9096593152,3.525789,34.441338,-158.350983,0.384603,0.637887,-0.311153
9096595648,3.036458,31.657349,-161.457397,0.388858,0.637725,-0.303801
9096598143,2.608160,28.933981,-164.563507,0.380015,0.635515,-0.297430
9096600639,2.240842,26.331554,-167.547714,0.379964,0.632578,-0.296028
9096603134,1.874035,23.851149,-170.592224,0.381150,0.620743,-0.286026
9096605630,1.384987,21.309536,-173.454971,0.377587,0.619418,-0.291937
9096608125,0.896467,19.010855,-176.195496,0.367347,0.614406,-0.291468
9096610621,0.287241,17.017021,-178.935165,0.362258,0.614455,-0.291551
9096613116,-0.442745,15.388358,-181.552414,0.353629,0.617524,-0.296007
9096615612,-1.293825,13.942801,-184.169205,0.339729,0.611078,-0.294896
9096618107,-2.266247,12.679801,-186.664169,0.338434,0.616310,-0.302106
9096620603,-3.238194,11.720049,-188.915268,0.321070,0.619450,-0.305975
9096623098,-4.269938,11.125492,-191.104507,0.309508,0.625400,-0.306784
9096625594,-5.361851,10.895305,-193.049789,0.301013,0.636539,-0.314732
9096628089,-6.634920,11.091954,-194.993942,0.296096,0.652622,-0.315246
9096630585,-8.028749,11.653772,-196.815628,0.291252,0.671665,-0.318619
9096633080,-9.482428,12.641104,-198.453842,0.283461,0.692132,-0.318371
9096635575,-10.934610,14.175720,-199.968826,0.289508,0.713936,-0.318601
9096638071,-12.446059,16.318464,-201.299744,0.289034,0.737987,-0.318896
9096640566,-14.016725,19.009014,-202.568222,0.285620,0.764190,-0.315557
9096643062,-15.524611,22.308023,-203.834595,0.285827,0.788902,-0.312187
9096645557,-16.849064,25.970964,-204.978043,0.291951,0.819432,-0.311526
9096648053,-18.172565,29.817341,-206.303070,0.295958,0.847895,-0.316767
9096650548,-19.556767,33.785152,-207.506317,0.296916,0.869748,-0.317079
9096653044,-21.183929,37.875706,-208.709534,0.301736,0.893979,-0.331125
9096655539,-22.871475,42.148838,-209.851532,0.307306,0.915350,-0.348854
9096658035,-24.558685,46.604027,-210.871490,0.306228,0.929466,-0.364640
9096660530,-26.184193,51.483963,-211.647095,0.304640,0.948151,-0.392006
9096663026,-27.565992,56.665882,-212.117752,0.304402,0.968146,-0.411313
9096665521,-28.460733,62.148785,-212.283112,0.302673,0.986674,-0.429213
9096668017,-28.685198,68.114830,-212.203018,0.303017,1.000739,-0.442791
9096670512,-28.239077,74.504242,-212.120529,0.303178,1.012440,-0.445488
9096673008,-26.757172,81.255493,-212.217422,0.305331,1.018148,-0.439520
9096675503,-24.179239,88.064812,-212.676804,0.311013,1.014343,-0.432940
9096677998,-20.384062,94.749367,-213.559769,0.319483,1.001734,-0.424291
9096680494,-15.736934,101.189171,-214.927994,0.331148,1.005980,-0.423294
9096682990,-10.480575,107.507523,-216.902863,0.342825,1.000880,-0.429752
9096685485,-4.797818,113.644012,-219.424133,0.359698,0.998011,-0.441913
9096687980,1.067614,119.598793,-222.310013,0.381737,0.999500,-0.456094
9096690476,6.872120,125.372330,-225.439468,0.409624,1.000969,-0.472366
9096692971,12.555179,131.025970,-228.873062,0.434593,1.006775,-0.484964
9096695467,17.933569,136.377625,-232.550980,0.459532,1.007507,-0.499112
9096697963,23.006781,141.305252,-236.412872,0.484326,1.015997,-0.497821
9096700458,27.895222,145.563782,-240.216568,0.510208,1.021903,-0.473249
9096702953,32.598091,148.788788,-244.145370,0.523362,1.023912,-0.426373
9096705449,37.053608,150.797089,-248.017868,0.541383,1.044447,-0.400932
9096707944,41.139503,151.406586,-251.834808,0.564565,1.067894,-0.378267
9096710440,44.732590,150.372620,-255.232895,0.572349,1.076219,-0.357589
9096712935,47.709602,147.389954,-257.909790,0.555455,1.085545,-0.339483
9096715431,49.583141,142.398605,-259.623505,0.528710,1.137815,-0.313465
9096717926,50.231918,135.520813,-260.373840,0.517675,1.219236,-0.296854
9096720421,49.596001,127.000587,-260.220795,0.535214,1.303516,-0.292835
9096722917,47.982006,117.446465,-259.404785,0.565491,1.367838,-0.278775
9096725412,46.000042,107.162003,-258.288147,0.591530,1.402001,-0.244940
9096727908,44.198914,96.389557,-257.112122,0.607987,1.425306,-0.210004
9096730403,42.883186,85.128716,-256.058411,0.619328,1.440710,-0.178939
9096732899,42.053055,73.440353,-255.126831,0.623018,1.460897,-0.168309
9096735394,41.770203,61.628281,-254.255569,0.635090,1.490800,-0.177033
9096737890,41.609383,49.695633,-253.748825,0.647063,1.511952,-0.185191
9096740385,41.571827,38.068230,-253.544434,0.641993,1.514902,-0.184492
9096742881,41.414429,26.747608,-253.764236,0.635259,1.493870,-0.186445
9096745376,41.624748,16.035860,-254.345734,0.618355,1.459983,-0.198270
9096747872,42.203022,5.933540,-255.410416,0.591107,1.404408,-0.214306
9096750367,43.210339,-3.559046,-257.079590,0.557766,1.325536,-0.227955
9096752863,44.464455,-12.319692,-259.292419,0.518009,1.242550,-0.253440
9096755358,45.478973,-20.285265,-262.110138,0.468911,1.164096,-0.283365
9096757853,46.010471,-27.515369,-265.593994,0.413920,1.092813,-0.303058
9096760352,45.876717,-33.766888,-269.500641,0.359749,1.036026,-0.318828
9096762844,44.894703,-39.040176,-273.587433,0.304944,0.995912,-0.329203
9096765340,43.490135,-43.156017,-277.488922,0.245773,0.965914,-0.332179
9096767835,41.723236,-46.116032,-280.901398,0.182223,0.953219,-0.321797
9096770331,40.080338,-47.923038,-283.642029,0.114380,0.957923,-0.303881
9096772826,38.500481,-48.577065,-285.650146,0.058297,0.976340,-0.284793
9096775322,37.165619,-48.140549,-286.743591,0.011090,1.005645,-0.268273
9096777817,36.136131,-46.796074,-286.983551,-0.026525,1.039338,-0.258073
9096780313,35.229763,-44.421436,-286.309174,-0.062681,1.078782,-0.244100
9096782808,34.507851,-41.015781,-284.963287,-0.094488,1.111691,-0.233819
9096785304,33.908974,-36.761463,-282.946503,-0.129724,1.149185,-0.234437
9096787799,33.372341,-31.718557,-280.380585,-0.167101,1.187464,-0.237261
9096790295,32.836609,-26.008842,-277.205322,-0.201393,1.231673,-0.247939
9096792790,32.058578,-19.812269,-273.785950,-0.226998,1.274319,-0.257047
9096795286,30.977173,-13.129151,-270.001129,-0.248286,1.310392,-0.267661
9096797781,29.652746,-6.262979,-266.094635,-0.264442,1.346465,-0.281106
9096800276,28.085035,0.664778,-262.127594,-0.283669,1.375903,-0.288166
9096802772,26.457174,7.654757,-258.403320,-0.297833,1.403824,-0.294442
9096805268,24.769234,14.767554,-254.860840,-0.306138,1.427417,-0.306530
9096807763,23.143526,22.124968,-251.621063,-0.308495,1.452542,-0.326506
9096810259,21.640694,29.665876,-248.684052,-0.299220,1.481877,-0.343299
9096812754,20.079250,37.635059,-246.170715,-0.285541,1.504737,-0.367425
9096815250,18.459188,46.032520,-244.081070,-0.263961,1.520214,-0.390099
9096817745,16.902382,54.918633,-242.414719,-0.240869,1.537181,-0.415636
9096820240,15.529876,64.170609,-241.050461,-0.234615,1.556337,-0.431937
9096822736,14.524003,73.847733,-239.805679,-0.224126,1.570269,-0.443166
9096825231,14.005791,83.706322,-238.741714,-0.194701,1.563178,-0.471225
9096827727,13.854444,93.869713,-238.101212,-0.182699,1.569242,-0.492044
9096830222,14.191057,104.154793,-237.884567,-0.175771,1.576811,-0.512918
9096832718,14.954968,114.501762,-238.274231,-0.152299,1.564582,-0.535341
9096835213,16.267784,124.849548,-239.330963,-0.141874,1.551081,-0.561644
9096837709,18.008268,135.260040,-241.176132,-0.147428,1.550710,-0.579954
9096840204,20.235992,145.488434,-243.567596,-0.148721,1.537225,-0.600620
9096842701,22.706434,155.170502,-246.506973,-0.157330,1.520156,-0.620744
9096845195,25.479446,164.303757,-249.508408,-0.173219,1.518986,-0.629039
9096847691,28.371790,172.585159,-252.694626,-0.174708,1.508160,-0.634361
9096850186,31.505404,180.135651,-256.004303,-0.173464,1.486311,-0.635470
9096852681,34.880081,186.773499,-259.620239,-0.176408,1.482698,-0.635585
9096855177,38.555912,192.496765,-263.178070,-0.169331,1.475213,-0.627593
9096857673,42.472118,197.245377,-266.799438,-0.167429,1.461199,-0.618348
9096860168,46.810909,201.078369,-270.241028,-0.180176,1.454402,-0.596827
9096862664,51.327934,203.873611,-273.200104,-0.184927,1.447528,-0.575176
9096865159,56.144878,205.751511,-275.493866,-0.189020,1.432648,-0.554389
9096867654,61.017895,206.711960,-276.879883,-0.209826,1.420818,-0.532364
9096870152,66.007706,206.754471,-277.297302,-0.231172,1.412804,-0.520476
9096872664,70.991020,205.452820,-276.626251,-0.234372,1.403865,-0.506851
9096875151,75.785515,202.868668,-274.866882,-0.242049,1.394117,-0.486029
9096877638,80.451508,198.758820,-272.141296,-0.245894,1.385997,-0.477499
9096880133,84.867500,193.063751,-268.632050,-0.233710,1.377043,-0.471636
9096882626,89.093773,185.419342,-264.643799,-0.217386,1.369239,-0.449657
9096885121,92.887161,175.766556,-260.359222,-0.196702,1.368591,-0.422375
9096887617,96.309113,164.106537,-256.081879,-0.164992,1.362934,-0.406661
9096890112,99.482025,150.621643,-251.871643,-0.131062,1.362341,-0.390090
9096892608,102.589272,135.434021,-247.970688,-0.102993,1.362472,-0.369958
9096895103,105.692902,118.727402,-244.681915,-0.074221,1.353930,-0.354345
9096897599,108.671677,100.563675,-242.126724,-0.048221,1.344128,-0.348999
9096900094,111.404243,80.883591,-240.548370,-0.033013,1.340316,-0.347363
9096902590,113.647484,59.809601,-239.886063,-0.016199,1.345302,-0.349910
9096905085,115.584015,37.522476,-239.896118,0.007400,1.354095,-0.366118
9096907580,117.153595,14.446897,-240.212875,0.026683,1.362262,-0.386050
9096910076,118.600670,-8.932261,-240.591553,0.055470,1.370398,-0.409470
9096912571,120.108643,-32.251068,-240.909225,0.099744,1.386556,-0.441959
9096915067,122.103218,-55.451229,-240.982910,0.152861,1.402763,-0.482316
9096917562,124.888329,-78.655434,-240.873291,0.208317,1.410487,-0.539545
9096920058,128.160416,-101.619240,-240.519272,0.257908,1.403810,-0.603692
9096922553,131.070084,-123.608742,-239.919739,0.304537,1.383421,-0.673966
9096925049,132.340805,-144.011948,-238.649521,0.348796,1.352761,-0.738639
9096927544,130.758469,-161.911392,-236.585999,0.386016,1.297127,-0.787130
9096930040,125.291573,-176.450699,-233.727875,0.411167,1.224553,-0.817918
9096932535,115.517517,-186.774506,-230.376541,0.440893,1.148475,-0.815912
9096935031,101.923027,-193.005768,-226.713821,0.452515,1.058150,-0.779497
9096937526,85.846062,-195.574081,-223.164139,0.430235,0.967626,-0.712315
9096940021,69.291138,-195.703369,-220.092819,0.408657,0.889307,-0.634699
9096942517,54.020573,-194.372284,-218.046921,0.367540,0.828558,-0.551253
9096945013,41.309814,-192.497391,-217.391861,0.295354,0.784881,-0.469459
9096947508,31.582909,-190.688919,-218.189713,0.219972,0.760451,-0.404120
9096950004,24.959944,-189.253052,-220.137756,0.128149,0.750175,-0.348262
9096952499,21.076059,-187.825272,-222.749619,0.014712,0.746806,-0.301373
9096954994,19.688231,-185.920456,-225.416855,-0.088216,0.750911,-0.271658
9096957490,20.615416,-182.688339,-227.529831,-0.195999,0.758207,-0.255806
9096959985,23.676105,-177.582077,-228.722687,-0.320993,0.763775,-0.257751
9096962481,28.627352,-170.357986,-228.812836,-0.436905,0.771101,-0.282827
9096964977,34.739128,-160.771271,-227.436295,-0.544558,0.775763,-0.327486
9096967472,41.343094,-148.696365,-224.836472,-0.649990,0.771810,-0.381009
9096969967,47.587910,-134.008041,-221.014267,-0.738732,0.760463,-0.437308
9096972463,52.865211,-116.885078,-216.274704,-0.813747,0.739528,-0.494286
9096974958,56.809116,-97.750969,-210.862625,-0.883074,0.706873,-0.550658
9096977454,59.417534,-77.335602,-204.901901,-0.931422,0.663821,-0.606876
9096979949,60.629215,-56.002316,-198.758057,-0.961004,0.621876,-0.652568
9096982445,60.563477,-34.602943,-192.615906,-0.984893,0.580458,-0.689416
9096984940,59.584484,-13.684887,-186.901718,-0.993702,0.539406,-0.712896
9096987436,57.934376,6.143810,-181.981445,-0.985873,0.511060,-0.721301
9096989931,55.794563,24.456865,-177.977631,-0.968730,0.497592,-0.709611
9096992427,52.981972,41.193317,-174.708618,-0.942526,0.488636,-0.667822
9096994922,49.739189,56.229614,-171.992279,-0.908575,0.486525,-0.603926
9096997418,46.126877,69.625549,-169.646225,-0.865945,0.493641,-0.530248
9096999913,42.388092,81.439888,-167.427032,-0.820380,0.506519,-0.454230
9097002409,39.069370,91.547279,-165.030701,-0.770219,0.526818,-0.388929
9097004904,36.717609,99.702301,-162.517929,-0.713301,0.556654,-0.331355
9097007400,35.576035,105.903671,-159.827667,-0.656867,0.585329,-0.291294
9097009895,35.644394,110.150848,-156.838486,-0.593008,0.604029,-0.268779
9097012390,36.375210,112.385735,-153.672806,-0.530341,0.622316,-0.264503
9097014886,37.525948,112.792488,-150.451828,-0.477719,0.640129,-0.269871
9097017382,38.732391,111.434853,-147.479477,-0.425839,0.642813,-0.284999
9097019877,39.692024,108.801300,-144.815262,-0.380496,0.635484,-0.307702
9097022373,40.344650,105.014374,-142.580353,-0.337472,0.620821,-0.326207
9097024868,40.630840,100.561020,-140.712463,-0.300367,0.593858,-0.346492
9097027363,40.672749,95.623062,-139.150116,-0.274791,0.563523,-0.376498
9097029859,40.409924,90.322510,-137.892990,-0.254195,0.535517,-0.412370
9097032354,40.025768,84.902367,-137.000763,-0.239250,0.509192,-0.458503
9097034850,39.520679,79.484367,-136.472977,-0.241694,0.486699,-0.506308
9097037345,38.773895,74.433701,-136.187210,-0.245521,0.472219,-0.553260
9097039841,37.542397,69.933395,-136.021790,-0.252997,0.462800,-0.595808
9097042336,35.825447,65.981804,-135.612396,-0.269512,0.451669,-0.618137
9097044832,33.622551,62.577824,-134.716202,-0.291358,0.443916,-0.621551
9097047327,31.360271,59.902607,-133.392685,-0.317669,0.441850,-0.614007
9097049823,29.524675,57.710972,-131.702652,-0.345524,0.438256,-0.601416
9097052318,28.358404,55.819027,-129.585602,-0.366814,0.438945,-0.587182
9097054814,27.921524,53.983040,-127.042290,-0.382820,0.446285,-0.581482
9097057309,28.031572,52.143452,-124.194595,-0.389306,0.459371,-0.576249
9097059805,28.445177,50.180332,-121.225410,-0.386501,0.464989,-0.565172
9097062300,28.797554,48.095711,-118.256721,-0.377920,0.465465,-0.554824
9097064796,28.846430,46.074306,-115.531136,-0.367934,0.462273,-0.543792
9097067291,28.470440,44.177765,-113.109360,-0.353758,0.454526,-0.524032
9097069787,27.729738,42.343845,-110.748634,-0.332402,0.447329,-0.497589
9097072282,26.746319,40.633221,-108.509285,-0.314024,0.436483,-0.469075
9097074777,25.824427,38.984318,-106.512512,-0.302227,0.424934,-0.438497
9097077273,25.145798,37.152920,-104.758835,-0.293230,0.417856,-0.412254
9097079768,24.709238,34.955025,-102.945290,-0.294221,0.409647,-0.400036
9097082264,24.636032,32.268406,-101.072105,-0.305259,0.406002,-0.393727
9097084759,24.927271,29.397686,-99.198982,-0.311210,0.409506,-0.382104
9097087255,25.401100,26.586821,-97.264671,-0.320592,0.408953,-0.387368
9097089750,25.875578,24.019156,-95.268837,-0.329274,0.404763,-0.393415
9097092246,26.229210,21.635157,-93.394020,-0.335124,0.393980,-0.398808
9097094741,26.462648,19.678022,-91.578682,-0.343658,0.394997,-0.411313
9097097237,26.576790,18.391510,-89.882736,-0.349874,0.396865,-0.432507
9097099732,26.693720,18.017786,-88.123055,-0.362698,0.394403,-0.452432
9097102228,26.629507,18.191811,-86.179680,-0.372672,0.392569,-0.467927
9097104723,26.688032,18.851204,-83.991661,-0.384074,0.390057,-0.485644
9097107219,26.564127,19.692844,-81.560455,-0.402919,0.387421,-0.491829
9097109714,26.379087,20.594503,-78.886276,-0.408842,0.387357,-0.484642
9097112209,25.766851,21.313625,-75.849060,-0.403872,0.387175,-0.476551
9097114705,24.910311,21.850300,-72.630646,-0.399693,0.384768,-0.465599
9097117201,23.748890,22.326239,-69.170036,-0.386238,0.373435,-0.448831
9097119696,22.586887,22.619564,-65.710037,-0.371963,0.362919,-0.437863
9097122192,21.485071,22.669437,-62.311462,-0.359171,0.351665,-0.425475
9097124687,20.564974,22.354170,-59.095966,-0.351311,0.348555,-0.418118
9097127182,19.947449,21.490103,-55.942551,-0.344117,0.346241,-0.414401
9097129678,19.633125,20.199528,-52.972237,-0.339054,0.344723,-0.413617
9097132173,19.561310,18.603888,-50.063282,-0.336082,0.344768,-0.417938
9097134669,19.489285,16.826464,-47.337074,-0.326434,0.346339,-0.430136
9097137164,19.356085,14.867227,-44.732994,-0.315411,0.346367,-0.437968
9097139660,19.162735,12.970212,-42.371651,-0.307915,0.348711,-0.451644
9097142156,18.726986,11.257629,-40.192211,-0.299754,0.345938,-0.464674
9097144651,18.293158,10.032841,-38.193306,-0.290209,0.337313,-0.477060
9097147146,17.496292,9.357926,-36.314552,-0.282849,0.336624,-0.483509
9097149642,16.579693,9.292213,-34.433964,-0.282191,0.332940,-0.481380
9097152137,15.359818,9.592414,-32.431190,-0.283167,0.326188,-0.469136
9097154633,14.139112,9.709449,-30.307594,-0.286373,0.325162,-0.449538
9097157128,12.977182,9.217254,-28.125208,-0.287948,0.327920,-0.439314
9097159624,11.994998,7.932444,-25.823742,-0.287170,0.333011,-0.439208
9097162119,11.192752,5.915891,-23.402992,-0.286385,0.334508,-0.442081
9097164614,10.510067,3.350178,-20.801733,-0.281285,0.338793,-0.439734
9097167110,9.705070,0.662666,-18.079630,-0.267508,0.339341,-0.436584
9097169605,8.656734,-1.902941,-15.175342,-0.251734,0.335341,-0.424015
9097172101,7.304738,-4.224378,-12.149269,-0.240450,0.324041,-0.408010
9097174596,5.893332,-6.058879,-9.060961,-0.235625,0.315777,-0.395698
9097177092,4.664828,-7.772381,-5.971980,-0.236680,0.307496,-0.379112
9097179587,3.801356,-9.487370,-2.882458,-0.240516,0.302264,-0.369072
9097182083,3.241423,-11.446805,0.145994,-0.253631,0.299477,-0.369338
9097184578,3.045991,-13.650658,3.052753,-0.264341,0.306280,-0.378130
9097187074,2.849024,-16.220562,6.140446,-0.272898,0.310149,-0.386942
9097189569,2.590248,-19.094570,9.227041,-0.277806,0.317601,-0.394170
9097192065,1.966301,-22.088284,12.191265,-0.282035,0.319232,-0.402223
9097194560,1.099953,-24.897564,14.973590,-0.287062,0.322230,-0.404436
9097197056,0.113428,-27.159067,17.878975,-0.284106,0.328016,-0.403553
9097199551,-0.688447,-28.751734,20.786848,-0.289108,0.332482,-0.406467
9097202047,-1.123335,-29.616270,23.879822,-0.294073,0.338429,-0.410810
9097204542,-1.313052,-29.873363,27.035881,-0.299031,0.347265,-0.413643
9097207038,-1.319408,-29.827124,30.253937,-0.306916,0.351067,-0.418802
9097209533,-1.386602,-29.780636,33.471897,-0.313166,0.357937,-0.434077
9097212029,-1.514775,-29.855089,36.567940,-0.314216,0.368484,-0.454299
9097214524,-1.764695,-29.989643,39.602886,-0.310312,0.370911,-0.470945
9097217020,-2.135587,-29.940813,42.577541,-0.302121,0.375373,-0.480928
9097219515,-2.810282,-29.769003,45.552155,-0.290349,0.377579,-0.488709
9097222011,-3.848861,-29.351393,48.344883,-0.288164,0.379002,-0.487918
9097224506,-5.252153,-28.871151,51.076561,-0.278759,0.381740,-0.482614
9097227002,-6.838154,-28.451036,53.807770,-0.278827,0.384545,-0.476008
9097229497,-8.304083,-28.458065,56.659172,-0.274534,0.382986,-0.472323
9097231993,-9.650205,-29.013699,59.569660,-0.273165,0.385036,-0.464978
9097234488,-10.693687,-30.057541,62.478981,-0.271104,0.392081,-0.451703
9097236983,-11.677884,-31.588593,65.386780,-0.269047,0.399842,-0.437685
9097239479,-12.784922,-33.484371,68.293190,-0.267726,0.400399,-0.428183
9097241974,-13.954209,-35.745682,71.319740,-0.264270,0.399443,-0.416488
9097244470,-15.246197,-38.250534,74.466721,-0.257148,0.396328,-0.408415
9097246965,-16.660849,-41.180153,77.429977,-0.255702,0.395586,-0.408405
9097249461,-18.136921,-44.292137,80.392540,-0.249898,0.391197,-0.410576
9097251956,-19.796160,-47.646587,83.293304,-0.247121,0.382382,-0.407778
9097254452,-21.515993,-51.000237,86.072556,-0.244955,0.380905,-0.407770
9097256947,-23.479370,-54.413761,88.851250,-0.244360,0.369950,-0.406504
9097259443,-25.746376,-57.764351,91.447540,-0.244412,0.360531,-0.409591
9097261938,-28.195440,-60.931862,94.104889,-0.235519,0.365678,-0.417365
9097264434,-30.826771,-64.098076,96.640533,-0.225785,0.367345,-0.435387
9097266929,-33.518284,-67.020828,99.237610,-0.222006,0.371072,-0.442542
9097269425,-36.451992,-69.577377,101.835533,-0.221045,0.390047,-0.445092
9097271920,-39.568268,-72.072853,104.554817,-0.224806,0.416581,-0.417713
9097274416,-42.684856,-74.629494,107.334618,-0.235431,0.431297,-0.376821
9097276911,-45.376801,-77.492760,110.235474,-0.243135,0.445280,-0.337352
9097279406,-47.278599,-80.481812,113.319229,-0.259406,0.467443,-0.302973
9097281902,-48.146465,-83.536240,116.465034,-0.273467,0.478817,-0.278226
9097284398,-48.040527,-86.472885,119.612679,-0.285848,0.488270,-0.270242
9097286893,-47.142735,-89.229309,122.579964,-0.297468,0.492715,-0.268165
9097289388,-45.757080,-91.622490,125.549171,-0.314873,0.502289,-0.264632
9097291884,-44.126793,-93.772079,128.276688,-0.337178,0.508524,-0.276539
9097294379,-42.617409,-95.677689,131.004822,-0.358060,0.521190,-0.281748
9097296875,-41.289711,-97.399399,133.611893,-0.376842,0.525825,-0.287070
9097299371,-40.204025,-98.814919,136.037445,-0.400642,0.538508,-0.291599
9097301866,-39.300415,-100.168282,138.341492,-0.413322,0.557808,-0.306022
9097304361,-38.517212,-101.276566,140.403320,-0.415600,0.584463,-0.330339
9097306857,-37.794048,-102.020195,142.648422,-0.428187,0.598106,-0.355064
9097309352,-37.190220,-101.911972,145.078278,-0.432096,0.618816,-0.371504
9097311848,-36.705902,-100.891861,147.875290,-0.441329,0.627790,-0.380232
9097314343,-36.401947,-99.080498,150.856781,-0.455748,0.638865,-0.380994
9097316839,-36.278984,-96.600204,154.143784,-0.465327,0.640972,-0.370913
9097319334,-36.337872,-93.755043,157.674576,-0.491403,0.648529,-0.372659
9097321830,-36.396667,-90.728378,161.448853,-0.503073,0.650037,-0.369180
9097324325,-36.455326,-87.580528,165.344940,-0.528422,0.655426,-0.372410
9097326822,-36.454098,-84.616356,169.422668,-0.553169,0.652750,-0.372865
9097329317,-36.393517,-82.078804,173.559769,-0.575631,0.660249,-0.373095
9097331813,-36.273502,-79.907280,177.817200,-0.594949,0.670145,-0.387800
9097334308,-36.153683,-77.796623,182.074432,-0.608571,0.671210,-0.400388
9097336804,-36.155350,-75.624603,186.331680,-0.624424,0.673681,-0.408616
9097339299,-36.277088,-73.025444,190.468719,-0.619862,0.670263,-0.424631
9097341795,-36.457985,-69.938797,194.546570,-0.617524,0.666818,-0.437768
9097344290,-36.819283,-66.302734,198.443832,-0.617205,0.665735,-0.460366
9097346786,-37.300457,-62.178669,202.221085,-0.608127,0.666049,-0.484252
9097349281,-38.023624,-57.627506,205.999405,-0.593279,0.666975,-0.504390
9097351777,-39.049454,-52.709061,209.596313,-0.584130,0.663769,-0.535624
9097354272,-40.621487,-47.483192,213.011292,-0.559721,0.659688,-0.566624
9097356768,-42.679726,-42.254242,216.182693,-0.552260,0.667033,-0.574381
9097359263,-45.347328,-37.327171,219.352173,-0.552180,0.672883,-0.575729
9097361759,-48.382023,-33.007591,222.579849,-0.550131,0.689274,-0.554997
9097364254,-51.844978,-29.477324,225.743530,-0.544663,0.703229,-0.521141
9097366750,-55.249939,-26.799767,228.965195,-0.550943,0.712125,-0.483199
9097369245,-58.474911,-24.914272,232.184509,-0.548955,0.729888,-0.457343
9097371741,-61.338131,-23.944157,235.583496,-0.543672,0.763898,-0.446434
9097374236,-63.594517,-23.463482,238.981766,-0.539850,0.797194,-0.435562
9097376731,-65.121887,-23.350725,242.319199,-0.542341,0.843769,-0.431106
9097379227,-66.102089,-23.361946,245.657028,-0.548451,0.902638,-0.419199
9097381722,-66.535202,-23.436817,249.116928,-0.547330,0.958513,-0.406500
9097384218,-66.419785,-23.209566,252.578613,-0.546984,1.015063,-0.390159
9097386713,-65.816422,-22.437565,256.285706,-0.537943,1.068616,-0.373730
9097389209,-64.663300,-20.937620,260.056732,-0.533858,1.119485,-0.368359
9097391704,-62.777802,-18.710203,263.831238,-0.531315,1.165951,-0.360180
9097394200,-60.221909,-16.120287,267.607971,-0.531767,1.205867,-0.350714
9097396695,-56.934540,-13.167570,271.265533,-0.530934,1.231180,-0.340037
9097399191,-53.343124,-10.337281,274.801758,-0.537239,1.249509,-0.343447
9097401686,-49.812878,-7.688802,278.215851,-0.539217,1.261278,-0.349091
9097404182,-46.405247,-5.525414,281.324554,-0.533893,1.255013,-0.369517
9097406677,-43.363583,-3.846124,284.127563,-0.538711,1.248164,-0.393033
9097409173,-40.810009,-2.832773,286.563354,-0.530380,1.236942,-0.423699
9097411668,-38.987633,-2.362904,288.692657,-0.525030,1.218465,-0.454547
9097414164,-38.140381,-2.618138,290.514526,-0.518855,1.208732,-0.485950
9097416659,-38.389328,-3.294454,292.211975,-0.511943,1.206203,-0.512837
9097419155,-39.431099,-4.455342,294.088745,-0.500890,1.199785,-0.527344
9097421650,-41.143059,-5.917858,295.963501,-0.492902,1.192498,-0.531718
9097424146,-43.220638,-7.561499,297.837158,-0.467619,1.180554,-0.528609
9097426641,-45.601643,-9.081331,299.528595,-0.437048,1.176705,-0.533278
9097429136,-48.041832,-10.234587,300.978333,-0.407202,1.181505,-0.531972
9097431632,-50.480289,-10.960920,302.247284,-0.385316,1.185701,-0.533722
9097434127,-52.734451,-11.321392,303.214172,-0.369442,1.183255,-0.526951
9097436623,-54.804562,-11.316556,304.000397,-0.362274,1.190991,-0.514307
9097439118,-56.448101,-11.130567,304.727112,-0.355793,1.203820,-0.500853
9097441614,-57.604279,-10.703352,305.516113,-0.339837,1.211545,-0.492436
9097444109,-58.395092,-10.095565,306.427673,-0.336154,1.235325,-0.478827
9097446605,-58.820026,-9.185186,307.401489,-0.339651,1.256394,-0.473398
9097449100,-59.183968,-8.032954,308.679779,-0.333781,1.272239,-0.465727
9097451596,-59.303879,-6.517592,310.202484,-0.330168,1.285860,-0.454490
9097454091,-59.180180,-4.881757,311.786652,-0.330182,1.290886,-0.450027
9097456587,-58.812489,-3.124620,313.250214,-0.327301,1.298748,-0.442551
9097459082,-58.140671,-1.429316,314.653259,-0.317053,1.306649,-0.441510
9097461578,-57.285725,0.266625,315.753021,-0.304499,1.315390,-0.448429
9097464073,-56.430267,2.084584,316.792450,-0.286534,1.338124,-0.467387
9097466569,-55.756763,3.964983,317.649689,-0.264057,1.370343,-0.489740
9097469064,-55.508789,6.029179,318.628357,-0.251719,1.403424,-0.514428
9097471560,-55.747402,8.095632,319.545532,-0.235958,1.435513,-0.525237
9097474055,-56.229610,10.162525,320.583801,-0.206474,1.465929,-0.530753
9097476551,-56.772537,12.229941,321.561279,-0.172635,1.497736,-0.534715
9097479046,-57.193802,14.175949,322.356384,-0.141217,1.518495,-0.530177
9097481542,-57.493160,16.001101,322.847687,-0.099069,1.523832,-0.524289
9097484037,-57.488049,17.644333,322.913818,-0.062564,1.535900,-0.525655
9097486533,-57.360756,19.288174,322.737305,-0.037508,1.557643,-0.532860
9097489028,-57.173042,20.689114,322.377930,-0.013067,1.585279,-0.543608
9097491524,-57.411579,21.970045,322.017517,0.005496,1.625862,-0.541103
9097494019,-57.712486,22.885174,321.837952,0.017164,1.658912,-0.519908
9097496514,-58.015144,23.252464,321.656555,0.035715,1.664099,-0.491826
9097499010,-57.893063,23.071566,321.170410,0.065755,1.653893,-0.464567
9097501505,-57.468056,22.221781,320.257507,0.103084,1.639321,-0.441639
9097504011,-56.678093,20.886858,318.614960,0.138258,1.614719,-0.427673
9097506498,-55.767040,18.824856,316.120178,0.169146,1.585921,-0.421867
9097508992,-54.796642,15.913177,313.015564,0.178235,1.561666,-0.414150
9097511487,-54.011292,12.090011,309.725464,0.169313,1.539927,-0.416152
9097513983,-53.716747,7.292686,306.917114,0.154934,1.533765,-0.431799
9097516478,-54.034286,1.643442,304.590820,0.134808,1.535658,-0.446663
9097518974,-54.963684,-4.555025,303.111755,0.115659,1.544302,-0.473773
9097521469,-56.382107,-10.937987,302.481415,0.095673,1.557871,-0.489878
9097523965,-57.923302,-17.202023,302.579834,0.071984,1.559056,-0.460376
9097526460,-59.282951,-23.348101,303.346802,0.065243,1.541617,-0.459349
9097528956,-59.972088,-29.131405,304.055237,0.079874,1.533660,-0.470912
9097531451,-60.232414,-34.184608,304.463135,0.101632,1.530514,-0.469156
9097533946,-59.941360,-38.385376,304.328278,0.123254,1.526495,-0.458677
9097536442,-59.281910,-41.915283,303.588989,0.135663,1.502571,-0.429044
9097538937,-58.316612,-45.080109,302.608551,0.142176,1.470693,-0.399653
9097541433,-57.046551,-48.184475,301.446594,0.147587,1.455783,-0.382354
9097543928,-55.838280,-51.472034,300.466095,0.149504,1.449708,-0.368593
9097546424,-54.692059,-54.943329,299.788452,0.151543,1.454568,-0.355358
9097548919,-53.790432,-58.537315,299.535065,0.154956,1.457885,-0.337757
9097551415,-52.890118,-62.194656,299.827911,0.159100,1.460479,-0.320886
9097553910,-51.868992,-65.854416,300.545929,0.167613,1.463759,-0.303931
9097556406,-50.422367,-69.516739,301.446716,0.174596,1.462648,-0.284896
9097558901,-48.610950,-73.181114,302.469482,0.180195,1.458030,-0.273233
9097561397,-46.312466,-76.846642,303.310822,0.185918,1.459310,-0.265831
9097563892,-43.831024,-80.451485,304.031189,0.196669,1.459753,-0.254720
9097566388,-41.165745,-83.872803,304.388184,0.212450,1.456482,-0.242137
9097568883,-38.438744,-87.171524,304.502747,0.232657,1.453241,-0.233852
9097571378,-35.588348,-90.164726,304.254272,0.252064,1.442725,-0.225713
9097573874,-32.675167,-92.851616,303.521179,0.267114,1.424337,-0.223618
9097576370,-29.759771,-95.231392,302.181915,0.283597,1.405910,-0.220044
9097578865,-26.720934,-97.365982,300.357971,0.303060,1.388256,-0.220777
9097581361,-23.559046,-99.377106,298.048828,0.316852,1.365061,-0.235547
9097583856,-20.578154,-101.142357,295.376007,0.319010,1.344855,-0.248266
9097586352,-17.960970,-102.721848,292.338928,0.316799,1.323961,-0.261070
9097588847,-15.830546,-104.239037,289.422760,0.310982,1.301695,-0.276872
9097591342,-14.187004,-105.694191,286.688202,0.302336,1.280985,-0.297063
9097593838,-12.970640,-107.210983,284.499268,0.298207,1.264007,-0.325125
9097596333,-12.057532,-108.240944,282.615082,0.301280,1.249764,-0.346462
9097598829,-11.387231,-108.906067,281.035248,0.302096,1.235457,-0.362738
9097601324,-10.836260,-108.719337,279.640259,0.309568,1.226974,-0.382441
9097603820,-10.282698,-107.680695,278.308777,0.328629,1.220492,-0.397546
9097606315,-9.543339,-105.728905,276.798431,0.348284,1.210253,-0.406154
9097608811,-8.557168,-102.924263,274.927002,0.370051,1.200637,-0.409616
9097611306,-7.446375,-99.388283,272.754608,0.396007,1.188626,-0.402854
9097613802,-6.150966,-95.425293,270.219604,0.413881,1.174434,-0.391895
9097616297,-4.793449,-91.217972,267.442657,0.431024,1.160966,-0.380205
9097618793,-3.253504,-87.192902,264.422455,0.447435,1.146060,-0.369282
9097621288,-1.531573,-83.411491,261.280334,0.449369,1.132082,-0.362222
9097623784,0.127720,-80.117371,258.257935,0.446908,1.113788,-0.356041
9097626301,1.724957,-77.127899,255.355881,0.441496,1.095474,-0.346995
9097628784,3.015586,-74.626091,252.876755,0.431805,1.080176,-0.341607
9097631271,3.878740,-72.549187,250.517029,0.421426,1.063487,-0.339897
9097633764,4.375081,-70.837395,248.459106,0.415475,1.051151,-0.339492
9097636259,4.688078,-69.308037,246.521729,0.416099,1.038788,-0.341166
9097638755,4.940378,-67.657242,244.706100,0.415168,1.027047,-0.335569
9097641251,5.253657,-65.885498,243.012405,0.416401,1.016705,-0.327725
9097643746,5.628216,-64.052589,241.197556,0.420535,1.007768,-0.318350
9097646241,6.124645,-62.159302,239.383102,0.423859,0.995864,-0.305401
9097648737,6.682372,-60.083916,237.630051,0.427945,0.981113,-0.296863
9097651232,7.240751,-57.765335,235.938507,0.429817,0.966346,-0.286176
9097653728,7.738432,-55.325310,234.368729,0.426637,0.953109,-0.277000
9097656223,8.296512,-52.946960,232.920258,0.423489,0.935587,-0.273002
9097658719,9.036470,-50.691647,231.593063,0.420318,0.915880,-0.269044
9097661214,9.837127,-48.557770,230.144150,0.417997,0.899904,-0.270833
9097663710,10.821002,-46.241741,228.635391,0.414320,0.886210,-0.277700
9097666205,11.927440,-43.803371,226.884354,0.410710,0.869713,-0.291175
9097668701,13.035093,-41.060093,225.012909,0.407837,0.853220,-0.305366
9097671196,13.839260,-38.132687,223.080887,0.412976,0.838107,-0.319400
9097673691,14.339817,-35.021431,221.149033,0.419627,0.826646,-0.334800
9097676187,14.414576,-31.847845,219.277466,0.425516,0.815871,-0.347286
9097678682,14.184879,-28.794485,217.344330,0.425599,0.805164,-0.360593
9097681178,13.528289,-25.983425,215.531174,0.425571,0.790732,-0.368872
9097683673,12.688550,-23.293919,213.838776,0.431266,0.779741,-0.368252
9097686169,11.483337,-20.664345,212.267075,0.437730,0.768791,-0.370532
9097688664,10.155869,-18.216887,210.694565,0.443450,0.754947,-0.373606
9097691160,8.888514,-16.073479,208.999725,0.448396,0.746099,-0.370045
9097693655,7.620188,-14.234426,207.303879,0.453962,0.734963,-0.360688
9097696151,6.533726,-12.639322,205.546783,0.458751,0.723057,-0.348443
9097698646,5.628880,-11.288719,203.849869,0.462874,0.714108,-0.338341
9097701142,5.087829,-10.365424,202.091370,0.467105,0.707439,-0.334023
9097703654,4.972170,-9.747110,200.089630,0.469882,0.698624,-0.331225
9097706132,5.221083,-9.312620,198.027130,0.474775,0.689716,-0.324024
9097708628,5.592044,-8.877799,195.782654,0.479664,0.679364,-0.317577
9097711124,6.084541,-8.564662,193.416519,0.482462,0.670573,-0.316235
9097713619,6.637207,-8.615891,190.806427,0.485290,0.666856,-0.313343
9097716115,7.249864,-8.971447,188.134689,0.485884,0.663099,-0.306846
9097718610,7.983103,-9.632128,185.522858,0.487153,0.654238,-0.300431
9097721106,8.897641,-10.598456,183.031693,0.486863,0.642393,-0.288997
9097723601,10.115348,-11.810061,180.661606,0.486554,0.625487,-0.279842
9097726096,11.575562,-13.326733,178.230179,0.489898,0.607125,-0.272839
9097728592,13.339579,-14.966386,175.798767,0.497644,0.593808,-0.264943
9097731087,15.346297,-16.850235,173.306229,0.505498,0.580611,-0.264328
9097733583,17.535654,-18.734552,170.753220,0.514855,0.563855,-0.269581
9097736078,19.785461,-20.740860,168.199921,0.530063,0.546364,-0.277666
9097738574,21.973988,-22.808342,165.767746,0.540233,0.529697,-0.288733
9097741069,24.039816,-25.119362,163.456009,0.551838,0.507955,-0.302054
9097743565,25.861586,-27.612282,161.204041,0.567083,0.491945,-0.311569
9097746060,27.499744,-30.409086,159.011490,0.583771,0.480229,-0.317338
9097748556,29.015259,-33.509747,156.817749,0.603263,0.463327,-0.319515
9097751051,30.528971,-37.097923,154.743835,0.620638,0.446519,-0.326095
9097753547,31.980436,-41.051632,152.790054,0.636578,0.432626,-0.331916
9097756042,33.248215,-45.369823,150.834778,0.661998,0.425876,-0.334538
9097758538,34.333099,-49.809010,148.878845,0.681744,0.423660,-0.343725
9097761033,35.357124,-54.368862,146.740280,0.694926,0.423643,-0.350066
9097763529,36.319923,-59.050209,144.601212,0.716095,0.425698,-0.354053
9097766024,37.282455,-63.853020,142.401031,0.735788,0.427743,-0.356607
9097768520,38.001442,-68.715698,140.200272,0.744552,0.432745,-0.355643
9097771015,38.477394,-73.516251,137.938675,0.756324,0.434950,-0.363423
9097773511,38.711010,-78.071785,135.556061,0.766598,0.432801,-0.371308
9097776006,38.459129,-82.441330,132.869781,0.770941,0.429858,-0.372019
9097778502,37.540066,-86.320091,129.941238,0.777440,0.427586,-0.370497
9097780997,35.953899,-89.647453,126.831406,0.774496,0.426134,-0.369115
9097783492,33.579456,-92.300919,123.479752,0.764942,0.413868,-0.370953
9097785988,30.659346,-94.404037,120.068382,0.749362,0.402862,-0.357569
9097788483,27.376266,-95.896690,116.597763,0.726392,0.389632,-0.337790
9097790979,24.155277,-96.842850,113.371918,0.691187,0.378098,-0.325465
9097793474,21.299934,-97.366066,110.512299,0.653846,0.377436,-0.308605
9097795970,19.174370,-97.711578,108.079369,0.619388,0.377438,-0.289500
9097798465,18.143351,-98.002335,106.012550,0.585913,0.382760,-0.284123
9097800961,18.267656,-98.178268,104.433556,0.550475,0.396986,-0.287357
9097803456,19.365114,-98.056564,103.464149,0.529640,0.413305,-0.293227
9097805952,21.314482,-97.575317,102.982941,0.513992,0.431845,-0.304070
9097808447,23.751564,-96.549881,102.868538,0.503455,0.441002,-0.323016
9097810943,26.433445,-94.917824,102.999367,0.503125,0.450814,-0.343239
9097813438,28.874300,-92.554329,103.132263,0.508523,0.456152,-0.360537
9097815934,30.769426,-89.580177,103.327065,0.513088,0.452018,-0.377293
9097818429,32.058212,-86.115471,103.279724,0.516836,0.444189,-0.390488
9097820924,32.679302,-82.402908,102.867912,0.520380,0.424612,-0.398074
9097823420,32.875912,-78.443748,102.152710,0.523078,0.400589,-0.400656
9097825915,32.465057,-74.540489,100.889969,0.519179,0.374407,-0.401200
9097828411,31.872747,-70.573685,99.202164,0.515290,0.346077,-0.403969
9097830906,31.037893,-66.543648,97.210632,0.509207,0.322793,-0.402310
9097833402,30.386684,-62.390953,94.855484,0.499399,0.298002,-0.395640
9097835897,29.918802,-58.176746,92.197235,0.485298,0.272610,-0.394152
9097838393,29.816200,-53.963474,89.418106,0.468386,0.253836,-0.394773
9097840888,29.956825,-49.751469,86.700050,0.453692,0.236522,-0.396788
9097843384,30.218122,-45.663078,84.285332,0.441269,0.220727,-0.403838
9097845879,30.357954,-41.392414,82.053192,0.428196,0.211506,-0.411506
9097848375,30.254131,-37.060989,80.063744,0.420898,0.199304,-0.418406
9097850870,29.907097,-32.607384,78.195770,0.417938,0.187753,-0.423037
9097853366,29.133823,-28.152874,76.509308,0.411400,0.179901,-0.429116
9097855861,27.996187,-23.332754,75.066376,0.407831,0.170649,-0.440272
9097858357,26.554819,-18.329060,73.684296,0.407037,0.157620,-0.444895
9097860852,24.687901,-13.262487,72.241089,0.403369,0.153298,-0.445763
9097863348,22.516331,-8.377010,70.736107,0.400394,0.144611,-0.447428
9097865843,20.162174,-3.551384,69.169937,0.402534,0.137344,-0.449711
9097868339,17.929096,0.970221,67.420799,0.405431,0.139465,-0.447439
9097870834,15.817556,5.370142,65.550011,0.404603,0.135758,-0.443150
9097873330,13.827286,9.526912,63.496456,0.404535,0.136402,-0.438040
9097875825,12.018683,13.378861,61.381447,0.403831,0.140754,-0.436515
9097878321,10.392191,16.987413,59.083759,0.407398,0.141363,-0.431346
9097880816,9.008275,20.351492,56.785629,0.413139,0.143384,-0.424658
9097883312,7.745632,23.472420,54.304726,0.418271,0.147704,-0.424495
9097885807,6.542980,26.289022,51.762196,0.421926,0.157052,-0.419164
9097888303,5.461459,28.741285,48.915062,0.424854,0.166407,-0.413845
9097890798,4.439788,30.768032,45.884468,0.429851,0.169855,-0.404958
9097893293,3.599081,32.307072,42.852535,0.429845,0.173448,-0.401978
9097895789,2.878303,33.297779,39.818966,0.431968,0.174083,-0.397561
9097898285,2.278039,33.922768,36.784370,0.440697,0.179765,-0.393671
9097900780,1.797898,34.060295,33.748344,0.445811,0.181185,-0.394290
9097903275,1.377115,33.771202,30.771711,0.455300,0.191217,-0.389579
9097905771,0.954655,32.994869,27.854181,0.465530,0.202699,-0.384830
9097908266,0.531102,31.913908,24.996359,0.466860,0.206146,-0.373818
9097910762,0.045564,30.588882,22.319780,0.475441,0.210943,-0.360476
9097913258,-0.562622,28.959997,19.642015,0.480376,0.211442,-0.349459
9097915753,-1.233127,26.904991,17.023466,0.488189,0.209000,-0.338448
9097918249,-2.027003,24.242325,14.281292,0.497513,0.203727,-0.333293
9097920744,-2.943737,21.094017,11.355185,0.509830,0.196362,-0.335412
9097923239,-3.922684,17.398951,8.245030,0.523504,0.188875,-0.330954
9097925735,-4.841217,13.340066,4.769473,0.534264,0.180688,-0.326557
9097928230,-5.699087,8.917918,0.807083,0.552338,0.167441,-0.328689
9097930725,-6.496364,4.071914,-3.703054,0.567447,0.154879,-0.326487
9097933221,-7.172404,-1.259067,-8.761049,0.584828,0.148157,-0.326325
9097935716,-7.666422,-7.014954,-14.245186,0.613973,0.140753,-0.335454
9097938212,-8.159663,-12.950416,-20.397781,0.648341,0.139210,-0.349489
9097940707,-9.077591,-18.821064,-27.036520,0.695170,0.149905,-0.361639
9097943203,-10.661139,-24.137011,-34.585148,0.739873,0.162841,-0.375968
9097945698,-12.970357,-28.533611,-42.860409,0.776555,0.178707,-0.386732
9097948194,-15.700044,-31.465919,-51.495750,0.805871,0.194534,-0.391061
9097950689,-18.849638,-32.449184,-60.003849,0.817487,0.206646,-0.381178
9097953185,-21.812115,-31.488926,-67.715942,0.804922,0.213733,-0.362313
9097955680,-24.467436,-28.831045,-74.207664,0.768887,0.219370,-0.330746
9097958176,-26.330946,-24.965595,-79.237045,0.714549,0.217839,-0.295968
9097960671,-27.527210,-20.684231,-82.624741,0.648003,0.210113,-0.276074
9097963167,-27.996592,-16.594250,-84.736961,0.576494,0.207618,-0.261264
9097965662,-27.923120,-13.363109,-85.879761,0.502275,0.206811,-0.258852
9097968158,-27.550894,-11.414524,-86.358490,0.430223,0.206689,-0.254935
9097970653,-27.000967,-10.746625,-86.476898,0.361403,0.213381,-0.268324
9097973149,-26.577356,-11.418213,-86.417763,0.290632,0.223953,-0.294786
9097975644,-26.278543,-13.184151,-86.544586,0.240879,0.232090,-0.318036
9097978139,-26.346666,-15.738537,-86.978134,0.199143,0.240174,-0.342611
9097980635,-26.719263,-18.534065,-87.655792,0.155305,0.245487,-0.374557
9097983131,-27.273561,-21.266600,-88.637100,0.119269,0.248345,-0.394764
9097985626,-28.007944,-23.388578,-89.859520,0.097581,0.243649,-0.406862
9097988121,-28.860455,-24.474709,-91.200111,0.079610,0.239731,-0.423983
9097990617,-29.829931,-24.159763,-92.657692,0.070997,0.239219,-0.432147
9097993112,-30.672514,-22.322721,-94.292191,0.063825,0.239397,-0.438818
9097995608,-31.510065,-19.023952,-96.104004,0.059494,0.232993,-0.445563
9097998104,-32.403816,-14.384954,-98.093613,0.054326,0.217833,-0.451025
9098000599,-33.415062,-8.587811,-100.322433,0.060212,0.212096,-0.459776
9098003095,-34.483810,-1.936852,-102.852089,0.066949,0.214411,-0.471279
9098005590,-35.612061,5.019537,-105.562981,0.072105,0.211558,-0.477803
9098008085,-36.799946,12.160167,-108.576927,0.083142,0.210882,-0.487105
9098010581,-38.230888,19.242023,-111.834282,0.094859,0.208706,-0.494238
9098013076,-39.904564,26.326246,-115.395576,0.113807,0.212178,-0.494592
9098015572,-41.639606,33.167789,-119.079193,0.133513,0.220717,-0.493385
9098018067,-43.375111,39.826996,-122.824127,0.148100,0.224231,-0.493810
9098020563,-44.989323,46.363968,-126.569283,0.167851,0.243621,-0.488031
9098023058,-46.360764,52.717335,-130.314682,0.184467,0.258464,-0.470003
9098025554,-47.550606,58.705284,-134.182449,0.202572,0.270453,-0.456373
9098028049,-48.316326,64.143669,-138.051392,0.215670,0.292662,-0.441182
9098030545,-48.779091,69.154984,-141.982025,0.236848,0.319929,-0.427950
9098033040,-48.878239,73.799049,-145.791885,0.252923,0.345787,-0.414828
9098035536,-48.735119,78.137489,-149.541687,0.271244,0.373858,-0.404543
9098038031,-48.471615,82.109924,-153.231796,0.291088,0.407752,-0.394854
9098040526,-48.087601,85.716660,-156.922943,0.307382,0.439618,-0.392546
9098043022,-47.643539,88.958740,-160.797333,0.325045,0.469212,-0.385886
9098045517,-47.322243,91.896683,-164.612213,0.342757,0.499582,-0.382125
9098048013,-47.185272,94.347855,-168.307541,0.354645,0.524960,-0.381465
9098050508,-47.232998,96.190506,-171.883728,0.373098,0.563978,-0.372433
9098053004,-47.161114,97.423691,-175.401031,0.387716,0.592727,-0.357097
9098055499,-47.091728,97.986458,-178.738403,0.400746,0.617741,-0.335298
9098057995,-46.902348,98.061501,-182.016495,0.418254,0.645722,-0.319200
9098060490,-46.654877,97.465324,-184.993164,0.422646,0.668755,-0.304864
9098062986,-46.165661,96.441521,-187.849426,0.430733,0.701900,-0.287368
9098065481,-45.556568,94.929695,-190.585709,0.446114,0.729962,-0.274946
9098067977,-44.887852,93.112717,-193.201462,0.456925,0.747034,-0.256243
9098070472,-44.037590,90.990646,-195.817963,0.465034,0.764363,-0.251422
9098072968,-43.126953,88.685989,-198.495682,0.489835,0.773581,-0.250118
9098075463,-42.155174,86.321320,-201.416382,0.503655,0.776338,-0.248384
9098077959,-41.244354,83.956612,-204.276459,0.508158,0.780774,-0.254785
9098080454,-40.393742,81.714455,-207.257645,0.506019,0.774361,-0.262223
9098082950,-39.603634,79.654610,-210.116882,0.500203,0.774417,-0.262317
9098085446,-38.814014,77.593658,-212.733276,0.480599,0.769591,-0.267826
9098087942,-37.964233,75.591385,-214.924377,0.458769,0.758257,-0.274948
9098090437,-37.176014,73.708626,-216.568726,0.432655,0.755691,-0.281251
9098092933,-36.327484,72.005753,-217.665955,0.404429,0.754663,-0.291202
9098095428,-35.478340,70.727310,-218.397507,0.378412,0.756527,-0.301065
9098097924,-34.566521,70.177963,-218.883682,0.362835,0.771547,-0.319257
9098100419,-33.712437,70.602798,-219.366714,0.358039,0.782724,-0.331515
9098102915,-32.794094,72.062462,-219.906967,0.358411,0.795381,-0.348032
9098105410,-31.871885,74.618629,-220.625732,0.374809,0.807921,-0.366474
9098107906,-30.945816,78.271301,-221.522995,0.388235,0.822578,-0.379098
9098110401,-29.954935,82.899574,-222.841949,0.405375,0.840888,-0.394509
9098112897,-28.900164,88.138794,-224.705231,0.421034,0.864943,-0.404010
9098115392,-27.782650,93.744652,-226.931519,0.431678,0.896328,-0.413459
9098117888,-26.785469,99.656189,-229.339111,0.448865,0.929812,-0.421305
9098120383,-25.604809,105.871338,-231.745407,0.460974,0.963356,-0.429962
9098122879,-24.362917,112.207977,-234.151230,0.476085,0.997697,-0.444383
9098125374,-22.938440,118.604462,-236.495850,0.493369,1.033450,-0.457286
9098127870,-21.454731,124.574051,-238.720367,0.512871,1.072823,-0.470086
9098130365,-19.973387,129.994415,-240.643127,0.522961,1.110890,-0.486706
9098132861,-18.311695,134.925690,-242.263672,0.538814,1.148841,-0.499592
9098135356,-16.590385,139.551849,-243.763687,0.555925,1.177919,-0.505335
9098137852,-14.565977,143.872116,-245.203552,0.570362,1.214488,-0.521911
9098140347,-12.177508,147.886536,-246.643890,0.584832,1.224351,-0.509837
9098142842,-9.303937,151.472336,-247.963486,0.606121,1.233020,-0.517343
9098145338,-6.005997,154.509109,-249.405685,0.627804,1.234111,-0.507498
9098147833,-1.918974,156.934250,-250.909439,0.640749,1.202766,-0.469979
9098150329,3.016734,158.321655,-252.536789,0.638604,1.175365,-0.442105
9098152824,8.739337,158.488144,-254.106277,0.627721,1.162431,-0.403182
9098155320,15.187539,157.251633,-255.679321,0.613213,1.147384,-0.366542
9098157815,21.875196,154.675827,-257.438599,0.614277,1.133973,-0.349287
9098160311,28.620375,150.944031,-259.383728,0.621214,1.124171,-0.333326
9098162806,34.937511,146.302567,-261.696808,0.621381,1.103376,-0.309664
9098165302,40.765671,140.872345,-264.134644,0.619478,1.084166,-0.292564
9098167797,45.923290,134.837509,-266.879089,0.627523,1.080545,-0.298327
9098170292,50.410622,128.319534,-269.868958,0.630425,1.084110,-0.295300
9098172788,53.985363,121.684372,-273.042725,0.629098,1.091466,-0.298829
9098175284,56.768414,114.688034,-276.401031,0.627873,1.104697,-0.305163
9098177779,58.821453,107.634331,-279.882050,0.620108,1.126633,-0.305616
9098180275,60.083527,100.523270,-283.425140,0.598638,1.153143,-0.310581
9098182770,60.554909,93.597214,-286.786682,0.574284,1.186187,-0.312560
9098185265,60.355305,86.428192,-289.664276,0.555035,1.224960,-0.311435
9098187761,59.485367,79.259407,-291.996460,0.540249,1.269565,-0.313045
9098190256,58.006378,72.152039,-293.904327,0.525587,1.324389,-0.315922
9098192752,56.040707,65.288483,-295.447815,0.507056,1.373946,-0.306575
9098195247,53.892124,58.606079,-296.505280,0.493570,1.419085,-0.297226
9098197743,51.986855,52.103905,-297.258209,0.482774,1.455312,-0.279254
9098200238,50.507030,45.659492,-297.706696,0.461633,1.477048,-0.260261
9098202734,49.696884,39.394691,-298.092896,0.436086,1.480777,-0.251141
9098205229,49.556110,33.248352,-298.356293,0.414251,1.479517,-0.250793
9098207725,49.963966,27.404413,-298.678589,0.389417,1.468102,-0.251409
9098210220,50.799618,22.046530,-299.180756,0.367638,1.457544,-0.261430
9098212715,51.881302,17.298023,-300.044830,0.346658,1.447780,-0.275794
9098215211,53.088760,13.525156,-301.391266,0.319164,1.440991,-0.290210
9098217707,54.362045,10.971942,-303.279968,0.309808,1.432548,-0.302903
9098220202,55.701694,9.881308,-305.588745,0.294666,1.427073,-0.315636
9098222697,57.168365,10.313049,-308.135162,0.284636,1.416536,-0.333477
9098225193,58.884048,12.327819,-310.979553,0.273078,1.405929,-0.346246
9098227688,60.787048,15.923930,-313.697021,0.247831,1.405673,-0.360505
9098230184,62.755032,20.858673,-316.349243,0.217717,1.415795,-0.382668
9098232679,64.725449,26.826284,-318.573059,0.192584,1.430068,-0.394473
9098235175,66.575851,33.583778,-320.369385,0.169116,1.452483,-0.414845
9098237670,68.244743,41.009109,-321.617401,0.146160,1.476810,-0.419145
9098240166,69.670937,48.980782,-322.317505,0.119421,1.498127,-0.415550
9098242661,71.096977,57.254326,-322.470184,0.099323,1.521649,-0.416905
9098245157,72.582939,65.586006,-322.076141,0.084033,1.544810,-0.399247
9098247652,74.249321,73.489189,-321.318939,0.076654,1.567798,-0.375634
9098250148,76.217552,80.660690,-320.563721,0.075110,1.579951,-0.360867
9098252643,78.487206,86.918167,-319.871765,0.074107,1.592608,-0.332968
9098255139,80.997406,92.140953,-319.425781,0.063738,1.616972,-0.302823
9098257634,83.808098,96.205956,-318.983124,0.067432,1.640764,-0.289941
9098260130,86.797302,98.931618,-318.666077,0.078152,1.647653,-0.272156
9098262625,89.782600,100.318947,-318.535583,0.075610,1.650869,-0.245184
9098265129,92.825394,100.429398,-318.773560,0.083442,1.655649,-0.230398
9098267616,95.804436,99.506134,-319.197144,0.100903,1.650456,-0.234578
9098270111,98.477562,97.855026,-319.927185,0.108264,1.644729,-0.244762
9098272607,100.723839,95.780403,-320.841400,0.101965,1.643625,-0.262369
9098275103,102.421402,93.342773,-321.757660,0.100095,1.639674,-0.286512
9098277598,103.449036,90.604073,-322.797363,0.089253,1.631208,-0.297044
9098280093,103.746277,87.807205,-323.777557,0.066173,1.629475,-0.311295
9098282589,103.435326,85.073677,-324.758514,0.051776,1.629055,-0.321738
9098285084,102.699745,82.767708,-325.677979,0.043737,1.613243,-0.330173
9098287580,101.661514,80.829025,-326.778809,0.034974,1.598883,-0.337865
9098290075,100.442490,79.318016,-328.060638,0.024753,1.580931,-0.347832
9098292571,99.164917,78.295868,-329.705231,0.003006,1.556729,-0.369758
9098295066,97.828636,77.822632,-331.530273,-0.033266,1.545642,-0.383669
9098297562,96.372223,77.836868,-333.353851,-0.075098,1.555779,-0.400195
9098300057,94.855873,78.216011,-335.054901,-0.117125,1.559216,-0.408105
9098302553,93.278427,78.776085,-336.330414,-0.175944,1.562014,-0.411931
9098305048,91.883522,79.577248,-337.240601,-0.238385,1.573500,-0.410558
9098307544,90.793144,80.680145,-337.845734,-0.280780,1.567886,-0.399700
9098310039,90.312271,82.085190,-338.509674,-0.313635,1.563721,-0.393758
9098312535,90.380341,83.853775,-339.293030,-0.334836,1.557309,-0.390580
9098315030,90.998199,86.169083,-340.316620,-0.349117,1.557737,-0.408290
9098317526,91.923355,89.457069,-341.336517,-0.360230,1.555551,-0.445665
9098320022,92.730782,94.023567,-342.291687,-0.384706,1.554718,-0.513103
9098322517,92.934532,100.416183,-342.695251,-0.421886,1.560199,-0.602488
9098325012,92.838120,108.571693,-342.304138,-0.460964,1.557175,-0.617753
9098327507,93.047462,117.756905,-341.059174,-0.483620,1.524653,-0.533487
9098330003,94.229111,126.935661,-339.266327,-0.493208,1.519549,-0.527910
9098332498,96.443985,135.866165,-337.351349,-0.490971,1.541293,-0.566085
9098334994,99.206123,144.552063,-335.679169,-0.488044,1.546327,-0.563759
9098337489,102.332100,152.750351,-334.190277,-0.484446,1.543269,-0.513490
9098339985,105.638542,160.338898,-332.642365,-0.488854,1.561980,-0.497192
9098342480,109.003242,167.196198,-330.975372,-0.477717,1.576536,-0.502571
9098344976,112.547455,173.381256,-328.885284,-0.461582,1.569960,-0.466731
9098347471,116.331154,178.770966,-326.129669,-0.454087,1.572922,-0.430129
9098349967,120.414948,183.304199,-322.708527,-0.443078,1.589494,-0.425274
9098352462,124.798988,186.981247,-318.682587,-0.424335,1.586256,-0.416284
9098354958,129.422150,189.680893,-314.113129,-0.407356,1.579805,-0.388441
9098357453,134.102646,191.465851,-309.243011,-0.393715,1.579479,-0.376568
9098359949,138.778595,192.092331,-303.951721,-0.370563,1.566172,-0.377890
9098362444,143.389908,191.683136,-298.421082,-0.355681,1.549035,-0.363390
9098364940,147.937271,190.300293,-292.893768,-0.337199,1.532544,-0.345906
9098367435,152.178833,188.189865,-287.733582,-0.308868,1.509209,-0.360440
9098369931,155.994232,185.476059,-283.365356,-0.279743,1.476581,-0.386059
9098372426,159.140076,182.280792,-279.606873,-0.255734,1.451893,-0.404331
9098374922,161.434769,178.848526,-276.518311,-0.225157,1.426449,-0.424694
9098377417,162.877762,175.238510,-273.735199,-0.193146,1.393769,-0.448810
9098379912,163.529968,171.511093,-271.196472,-0.174975,1.364791,-0.468713
9098382408,163.511871,167.300522,-268.903229,-0.151840,1.339224,-0.477545
9098384903,163.188278,162.483856,-266.916046,-0.125845,1.307816,-0.487165
9098387416,162.679993,156.756546,-265.296417,-0.107616,1.284663,-0.506961
9098389903,162.047623,150.117767,-263.922852,-0.084886,1.268824,-0.530919
9098392395,161.107925,142.385391,-262.735474,-0.060893,1.252037,-0.542490
9098394884,159.921570,133.498276,-261.734467,-0.047243,1.235883,-0.542563
9098397379,158.671646,123.759254,-260.736359,-0.029882,1.219779,-0.547673
9098399875,157.359070,113.291107,-259.983612,-0.007419,1.198601,-0.557164
9098402370,156.167236,102.457794,-259.353333,0.011311,1.170867,-0.564651
9098404866,155.096680,91.381332,-258.905792,0.021324,1.143945,-0.572266
9098407361,153.905151,80.488251,-258.518585,0.027577,1.114037,-0.573440
9098409857,152.713760,69.716370,-258.009552,0.027071,1.083950,-0.560159
9098412352,151.643646,59.124386,-257.013947,0.018813,1.068613,-0.553290
9098414848,150.997894,48.406445,-255.471756,0.008559,1.064305,-0.551352
9098417343,150.654282,37.501339,-253.201141,0.004639,1.056100,-0.537725
9098419839,150.856400,26.408634,-250.323166,0.004220,1.041950,-0.519051
9098422334,151.422073,15.129896,-247.020233,0.019833,1.028411,-0.502288
9098424829,152.474121,3.848347,-243.534454,0.046365,1.009743,-0.489811
9098427325,153.830566,-7.433889,-240.169662,0.076601,0.985358,-0.486121
9098429820,155.978287,-18.839430,-237.168381,0.109230,0.961909,-0.496215
9098432316,158.977570,-30.611460,-234.652771,0.135601,0.942442,-0.523095
9098434812,162.522491,-43.175655,-232.442520,0.158313,0.916503,-0.553067
9098437307,166.004333,-56.409458,-230.173859,0.169922,0.882526,-0.575355
9098439802,168.693451,-70.127548,-227.786575,0.181466,0.846316,-0.594770
9098442298,169.738388,-83.902863,-224.734039,0.193024,0.807241,-0.617153
9098444793,168.776443,-96.882538,-220.831894,0.200776,0.758650,-0.634672
9098447289,165.322311,-108.517616,-215.896835,0.206447,0.707311,-0.661018
9098449784,159.135101,-118.136650,-210.109222,0.212816,0.653052,-0.687406
9098452280,150.155548,-125.373375,-203.650009,0.210833,0.586952,-0.698122
9098454775,138.749420,-130.106705,-196.700439,0.200763,0.526587,-0.698665
9098457271,125.585609,-132.642319,-189.564087,0.183421,0.475650,-0.692598
9098459766,111.637505,-133.407242,-182.908768,0.149289,0.430554,-0.677958
9098462261,97.695015,-132.950912,-177.099442,0.109335,0.391268,-0.658935
9098464757,84.609619,-131.700363,-172.682648,0.067278,0.365051,-0.636064
9098467252,72.867203,-129.840790,-169.536850,0.026649,0.346710,-0.605741
9098469748,62.711582,-127.190796,-167.600388,-0.012449,0.334921,-0.576001
9098472243,54.082832,-123.385483,-166.750687,-0.050201,0.336678,-0.529235
9098474739,47.224815,-117.880775,-166.378464,-0.086427,0.345703,-0.482310
9098477234,42.077118,-110.312851,-166.118286,-0.142784,0.358053,-0.448768
9098479730,39.125423,-100.504669,-165.179550,-0.210739,0.374872,-0.414605
9098482225,38.063736,-88.942505,-163.442902,-0.275583,0.403411,-0.386004
9098484721,39.071690,-76.419250,-160.728546,-0.337324,0.436461,-0.367468
9098487216,41.661255,-63.419357,-157.160217,-0.388821,0.462287,-0.358367
9098489712,45.525978,-50.732315,-152.862442,-0.432215,0.485997,-0.357915
9098492207,49.935635,-38.597279,-148.140686,-0.457944,0.504743,-0.375476
9098494703,54.585941,-27.194508,-143.238831,-0.464163,0.507328,-0.395929
9098497198,58.687721,-16.214771,-138.521332,-0.449517,0.491469,-0.414192
9098499694,62.120167,-5.534734,-134.230835,-0.418883,0.463208,-0.440434
9098502189,64.396782,4.908463,-130.367859,-0.376725,0.423197,-0.467432
9098504685,65.517799,15.115370,-127.053833,-0.329560,0.384485,-0.487767
9098507180,65.604118,24.842010,-124.289375,-0.290524,0.350742,-0.495760
9098509676,64.777107,34.026737,-122.013794,-0.258813,0.319886,-0.497992
9098512171,63.460976,42.301495,-119.984810,-0.231437,0.301343,-0.493513
9098514667,61.654125,49.360542,-117.899864,-0.206271,0.293587,-0.479401
9098517162,59.537937,54.958824,-115.577339,-0.193574,0.286546,-0.457468
9098519658,57.293457,58.790150,-112.775131,-0.185999,0.279518,-0.433432
9098522153,55.102299,60.610012,-109.433052,-0.181930,0.282027,-0.411465
9098524649,53.147491,60.539677,-105.611145,-0.171298,0.284498,-0.390847
9098527144,51.429935,58.822910,-101.369308,-0.170052,0.280650,-0.379242
9098529640,50.073223,55.947010,-96.887909,-0.182639,0.271873,-0.370138
9098532135,48.897034,52.521984,-92.286629,-0.185600,0.260322,-0.374770
9098534630,48.085297,48.912849,-87.685402,-0.202419,0.251731,-0.374474
9098537126,47.456711,45.425274,-83.204941,-0.215513,0.244646,-0.379190
9098539621,46.951508,42.243210,-79.087570,-0.222474,0.245781,-0.399681
9098542117,46.266159,39.611103,-75.272224,-0.217143,0.240244,-0.420093
9098544612,45.158062,37.652512,-71.941017,-0.198022,0.230229,-0.441818
9098547108,43.626461,36.244881,-68.912186,-0.184137,0.219378,-0.454174
9098549603,41.549732,35.328377,-66.307564,-0.169384,0.212998,-0.472990
9098552099,39.048222,34.718239,-63.763275,-0.160521,0.210910,-0.483811
9098554595,36.364788,34.291451,-61.218655,-0.143864,0.201319,-0.485899
9098557090,33.681229,33.864384,-58.613319,-0.135888,0.203379,-0.482817
9098559585,31.423008,33.192661,-56.129589,-0.126405,0.205485,-0.483351
9098562081,29.529110,32.336555,-53.585209,-0.113285,0.200359,-0.489059
9098564576,28.060307,31.235241,-51.040997,-0.103092,0.203878,-0.487370
9098567072,26.895376,30.071535,-48.435825,-0.087703,0.209630,-0.491383
9098569567,25.852001,28.907057,-45.769760,-0.073786,0.212495,-0.496202
9098572063,24.930813,27.864101,-43.163826,-0.059163,0.217490,-0.498057
9098574558,23.948292,26.820290,-40.315128,-0.048137,0.228321,-0.498406
9098577054,22.964746,25.532444,-37.345806,-0.046602,0.240639,-0.495241
9098579549,22.040382,23.878021,-34.134743,-0.048072,0.248555,-0.488563
9098582045,21.357714,21.856277,-30.681673,-0.050356,0.252060,-0.479066
9098584540,20.977119,19.284632,-27.047823,-0.059114,0.254984,-0.474785
9098587035,20.960073,16.285128,-23.354128,-0.064962,0.255004,-0.472695
9098589531,21.186239,13.163445,-19.781904,-0.067867,0.254316,-0.473484
9098592027,21.594461,9.858681,-16.270727,-0.070685,0.255884,-0.478600
9098594522,22.063648,6.553947,-12.820177,-0.077706,0.258392,-0.493968
9098597017,22.350124,3.189085,-9.370096,-0.082573,0.257249,-0.510095
9098599513,22.454721,-0.052741,-6.041313,-0.090401,0.258235,-0.521133
9098602008,22.134527,-3.109115,-2.955412,-0.096178,0.254734,-0.526391
9098604504,21.267683,-5.919500,0.069769,-0.099231,0.248839,-0.520721
9098606999,19.854195,-8.483896,3.034231,-0.096525,0.243545,-0.510575
9098609495,17.954124,-11.046035,5.937259,-0.093169,0.231678,-0.499811
9098611990,15.932181,-13.668548,8.839905,-0.094149,0.221321,-0.489818
9098614486,13.970550,-16.534237,11.620407,-0.098811,0.211666,-0.476230
9098616981,12.068645,-19.825718,14.278159,-0.105634,0.207094,-0.460398
9098619477,10.287499,-23.482368,16.813456,-0.110730,0.210736,-0.457501
9098621972,8.627184,-27.443592,19.287210,-0.124395,0.211753,-0.467177
9098624468,7.148554,-31.588722,21.882061,-0.137323,0.210615,-0.479065
9098626963,5.792060,-35.552006,24.538408,-0.142781,0.219711,-0.497200
9098629459,4.436483,-39.150627,27.317394,-0.152631,0.225936,-0.515460
9098631954,2.900613,-41.897419,30.341785,-0.159812,0.223225,-0.523641
9098634450,1.063408,-43.669586,33.490376,-0.169433,0.215925,-0.517376
9098636945,-1.075325,-44.528015,36.762970,-0.179141,0.202046,-0.509776
9098639441,-3.333724,-44.716637,40.098312,-0.185869,0.191101,-0.504987
9098641936,-5.652238,-44.601219,43.556000,-0.204242,0.185293,-0.495924
9098644432,-7.910303,-44.607784,47.013374,-0.226173,0.186085,-0.487527
9098646927,-10.047535,-44.918919,50.409206,-0.242261,0.178932,-0.486465
9098649423,-12.124196,-45.351776,53.744019,-0.248001,0.179072,-0.491656
9098651918,-14.261960,-45.905846,57.017616,-0.252377,0.179818,-0.490257
9098654413,-16.216694,-46.338638,60.231174,-0.258124,0.181390,-0.493964
9098656909,-18.231510,-46.648621,63.262905,-0.261525,0.186728,-0.506307
9098659404,-20.244650,-46.471355,66.235527,-0.254083,0.189012,-0.516342
9098661900,-22.195276,-45.807098,69.149132,-0.246650,0.195605,-0.522656
9098664395,-23.900871,-44.656593,72.004005,-0.250132,0.204451,-0.526921
9098666891,-25.241102,-43.325512,74.981453,-0.243350,0.217617,-0.533854
9098669386,-26.154829,-41.873878,77.838509,-0.232209,0.231457,-0.539974
9098671882,-26.704023,-40.424831,80.938950,-0.226956,0.242392,-0.543330
9098674377,-27.314440,-39.097271,84.038910,-0.220364,0.254625,-0.537898
9098676873,-27.987230,-38.135525,87.319710,-0.210217,0.263134,-0.529562
9098679368,-29.027168,-37.720951,90.780296,-0.201642,0.271524,-0.513241
9098681864,-30.131172,-38.280338,94.298286,-0.188648,0.277056,-0.502728
9098684359,-31.541962,-39.690399,97.752289,-0.172164,0.278791,-0.484942
9098686855,-33.198715,-42.072300,100.959846,-0.157811,0.281324,-0.470091
9098689350,-34.979477,-45.184147,104.164818,-0.141262,0.285292,-0.455177
9098691846,-36.944775,-49.085468,107.124031,-0.127584,0.290769,-0.441739
9098694341,-38.851055,-53.595470,110.020615,-0.123966,0.294315,-0.437973
9098696837,-40.819038,-58.530212,112.672836,-0.118861,0.302204,-0.433373
9098699332,-42.605160,-63.708904,115.263817,-0.118714,0.318930,-0.431607
9098701828,-44.391613,-69.069649,117.732758,-0.127372,0.339248,-0.421906
9098704323,-46.057217,-74.614059,120.322701,-0.147895,0.354374,-0.400110
9098706818,-47.663067,-80.342445,123.154991,-0.168915,0.377687,-0.388371
9098709314,-48.964577,-85.950867,126.109566,-0.182535,0.401075,-0.385251
9098711809,-50.143394,-91.315750,128.943680,-0.190454,0.412039,-0.382994
9098714305,-50.954933,-96.133186,131.537308,-0.204869,0.420237,-0.385994
9098716800,-51.763779,-100.219353,133.951202,-0.214842,0.422724,-0.398496
9098719296,-52.508709,-103.573647,136.003326,-0.233866,0.417007,-0.394541
9098721791,-53.494438,-106.316864,137.753540,-0.257897,0.412152,-0.395753
9098724287,-54.661270,-108.693565,139.383255,-0.289981,0.408028,-0.392711
9098726782,-55.948563,-110.764870,140.892365,-0.325502,0.409923,-0.399086
9098729278,-57.296185,-112.713905,142.341080,-0.364734,0.403125,-0.406410
9098731773,-58.764881,-114.358917,143.972748,-0.403940,0.404278,-0.409945
9098734269,-60.536911,-115.577705,145.848251,-0.444523,0.409850,-0.415607
9098736764,-62.551403,-116.249596,148.150208,-0.487306,0.412542,-0.422087
9098739260,-64.928825,-116.069199,150.757996,-0.527152,0.415959,-0.429961
9098741755,-67.607765,-114.854126,153.672363,-0.568444,0.424439,-0.434853
9098744251,-70.648338,-112.300346,157.015594,-0.604460,0.434519,-0.451285
9098746746,-73.746597,-108.530571,160.727051,-0.641862,0.446131,-0.471354
9098749242,-76.780449,-103.483856,164.685684,-0.673177,0.466630,-0.503545
9098751737,-79.628563,-97.161530,169.073822,-0.697935,0.486362,-0.537099
9098754233,-82.290031,-89.501076,173.527374,-0.725651,0.519026,-0.558081
9098756728,-84.765442,-80.503860,178.349930,-0.735977,0.556500,-0.571404
9098759224,-87.115166,-70.168541,183.298508,-0.734852,0.586459,-0.577393
9098761719,-89.583252,-58.677017,188.432877,-0.733828,0.614866,-0.577583
9098764214,-92.169777,-46.210781,193.509567,-0.728428,0.642526,-0.579173
9098766710,-94.570709,-32.892273,198.407211,-0.715925,0.662010,-0.574968
9098769206,-96.726357,-19.086966,203.124695,-0.694821,0.679833,-0.563368
9098771701,-98.698860,-5.160104,207.721420,-0.678799,0.694112,-0.554831
9098774197,-100.428345,8.583704,212.196472,-0.655562,0.708261,-0.542535
9098776692,-101.856033,21.535231,216.608627,-0.627387,0.717872,-0.522956
9098779188,-103.164078,33.696045,220.775513,-0.599256,0.723113,-0.503458
9098781683,-104.292603,44.761555,224.696152,-0.571767,0.726296,-0.491294
9098784178,-105.484833,54.733013,228.309525,-0.536361,0.723553,-0.477651
9098786674,-106.498642,63.304535,231.736420,-0.500027,0.723909,-0.475592
9098789169,-107.577080,70.538254,234.915894,-0.464561,0.733474,-0.457352
9098791665,-108.720367,76.433617,237.969437,-0.419603,0.738675,-0.444864
9098794160,-109.927856,81.233833,240.958542,-0.384074,0.741830,-0.435483
9098796656,-111.320900,85.121452,244.005081,-0.350783,0.745662,-0.421754
9098799151,-112.777763,88.035660,246.987579,-0.309369,0.754600,-0.412898
9098801647,-114.358826,90.159050,249.967270,-0.265777,0.764232,-0.403266
9098804142,-115.882278,91.307991,253.004547,-0.234552,0.768934,-0.396840
9098806638,-117.469086,91.665848,256.039124,-0.191732,0.774204,-0.387300
9098809133,-119.179909,91.293770,259.071106,-0.155205,0.788457,-0.388626
9098811629,-121.013969,90.314293,261.918732,-0.118713,0.803389,-0.387026
9098814124,-123.032822,88.544800,264.642059,-0.086461,0.817780,-0.394247
9098816620,-125.297508,85.924660,267.240784,-0.065907,0.827889,-0.400281
9098819115,-127.808243,82.574226,270.018860,-0.062794,0.859771,-0.391632
9098821611,-130.504761,78.310654,272.975800,-0.062590,0.887360,-0.386023
9098824106,-133.265015,73.255188,276.112152,-0.061055,0.913358,-0.373137
9098826601,-135.906372,67.407349,279.367523,-0.068081,0.943941,-0.368320
9098829097,-138.367142,61.070972,282.803650,-0.070030,0.970143,-0.365686
9098831593,-140.464478,54.185551,286.177826,-0.070397,1.005834,-0.365038
9098834088,-142.014511,47.116116,289.370056,-0.071584,1.024866,-0.369807
9098836583,-143.077515,39.984928,292.319977,-0.073549,1.045290,-0.370193
9098839079,-143.591660,33.035782,294.906982,-0.082788,1.075858,-0.363228
9098841574,-143.738922,26.512348,297.253082,-0.097094,1.106499,-0.357801
9098844070,-143.275864,20.474232,299.419556,-0.106008,1.132391,-0.376413
9098846567,-142.323975,14.982794,301.406464,-0.130186,1.169233,-0.387789
9098849062,-141.004684,10.280912,303.457214,-0.141222,1.200972,-0.406328
9098851558,-139.438477,6.613395,305.390320,-0.146920,1.241582,-0.435545
9098854053,-137.625870,3.979135,307.448669,-0.150667,1.278313,-0.451688
9098856549,-135.627441,2.499847,309.693237,-0.163632,1.313956,-0.484758
9098859044,-133.443542,2.174702,312.306152,-0.167808,1.353908,-0.519061
9098861540,-131.195938,2.943601,315.226379,-0.167767,1.385735,-0.549074
9098864035,-128.884171,4.867967,318.332703,-0.160572,1.402965,-0.581422
9098866530,-126.751816,7.767007,321.441956,-0.139530,1.412899,-0.620962
9098869026,-124.799271,11.398067,324.371185,-0.113347,1.430044,-0.658829
9098871522,-123.270035,15.761862,327.180786,-0.086310,1.438684,-0.711408
9098874017,-122.408150,20.555584,329.747955,-0.067264,1.457487,-0.757375
9098876512,-122.518471,25.658175,332.193298,-0.048531,1.471619,-0.785220
9098879008,-123.603340,30.218273,334.331787,-0.044756,1.487581,-0.783409
9098881503,-125.421059,33.747650,336.222900,-0.039741,1.507610,-0.764018
9098883999,-127.487068,35.695656,338.047699,-0.026932,1.522296,-0.734399
9098886494,-129.315353,35.756508,339.684479,-0.008724,1.531418,-0.680025
9098888990,-130.784409,33.808517,341.011597,0.020601,1.545714,-0.636301
9098891485,-131.770966,30.036018,341.544067,0.065906,1.551203,-0.597577
9098893981,-132.275269,24.438448,341.403381,0.115486,1.550072,-0.557447
9098896476,-132.418121,17.260069,340.529419,0.171927,1.547794,-0.539809
9098898972,-132.502777,8.745872,338.861847,0.211085,1.556668,-0.525892
9098901467,-132.834015,-1.043682,336.764709,0.235864,1.575221,-0.516403
9098903963,-133.594666,-11.987770,334.602356,0.247754,1.609241,-0.509757
9098906458,-134.784866,-23.965752,332.618134,0.273237,1.637121,-0.492073
9098908953,-135.978683,-36.918766,330.873505,0.280430,1.662166,-0.468912
9098911449,-136.931290,-50.361126,329.431213,0.290351,1.684102,-0.435565
9098913945,-137.155884,-64.294518,328.231232,0.314695,1.696407,-0.400701
9098916440,-136.407715,-78.354172,327.153748,0.318731,1.696720,-0.378046
9098918935,-134.564590,-92.539490,325.955994,0.341951,1.698609,-0.373260
9098921431,-131.929306,-106.483429,324.517395,0.363034,1.704889,-0.368429
9098923926,-128.866714,-120.063324,322.959229,0.369148,1.705887,-0.387980
9098926422,-125.802254,-132.974197,321.524689,0.364757,1.716078,-0.428660
9098928917,-123.344208,-145.152985,320.273804,0.363477,1.737989,-0.474903
9098931413,-121.736626,-156.539734,319.631439,0.350629,1.765121,-0.521968
9098933908,-121.405983,-167.255020,319.717957,0.322458,1.783697,-0.571627
9098936404,-122.231270,-177.421616,320.654572,0.296147,1.796853,-0.603141
9098938899,-123.847488,-186.980698,322.563446,0.254146,1.803920,-0.610256
9098941395,-125.951172,-196.237305,325.322632,0.207658,1.812328,-0.607950
9098943890,-128.237808,-205.131561,328.872009,0.160505,1.825853,-0.606288
9098946386,-130.219772,-213.602875,332.848267,0.114588,1.842000,-0.587804
9098948881,-131.166428,-221.592529,337.070526,0.072685,1.843213,-0.506148
9098951377,-130.407379,-228.858978,341.358429,0.033963,1.824341,-0.357787
9098953872,-127.455353,-235.523697,345.226593,0.020648,1.814646,-0.249637
9098956367,-122.613373,-241.220215,348.675781,0.036005,1.854822,-0.177256
9098958863,-116.488754,-245.883286,351.280304,0.058124,1.921201,-0.150908
9098961358,-110.359673,-249.569412,353.220154,0.075253,1.966860,-0.146147
9098963854,-104.713028,-252.337433,354.494446,0.074377,1.989021,-0.120258
9098966349,-99.306808,-254.493530,355.284698,0.073014,1.995514,-0.072080
9098968845,-93.593361,-256.160645,355.348450,0.080436,1.993355,-0.034117
9098971340,-87.024506,-257.218597,354.565491,0.109166,1.973245,-0.023816
9098973836,-79.355576,-257.484192,352.572479,0.153042,1.916854,-0.030688
9098976331,-70.706512,-256.650909,349.005920,0.188272,1.853433,-0.048029
9098978827,-61.564686,-254.839035,343.986206,0.199905,1.796441,-0.088223
9098981322,-52.722698,-252.472305,337.692871,0.195246,1.751611,-0.149586
9098983818,-44.912304,-249.611908,330.853149,0.160848,1.727301,-0.201590
9098986313,-38.378365,-246.501999,323.830200,0.119857,1.704437,-0.249305
9098988809,-33.304443,-243.083710,317.231140,0.092653,1.679973,-0.296094
9098991304,-29.568596,-239.236099,311.117188,0.077683,1.647331,-0.339919
9098993800,-26.866102,-234.717453,305.611084,0.069944,1.613855,-0.381456
9098996295,-24.648129,-229.164490,300.654083,0.062129,1.580295,-0.417895
9098998791,-22.792738,-222.456284,296.307526,0.060836,1.546648,-0.452773
9099001286,-20.873049,-214.471405,292.268829,0.052807,1.515007,-0.473154
9099003782,-18.767757,-205.211197,288.720398,0.046848,1.488263,-0.482484
9099006277,-16.416101,-194.736496,285.601349,0.047530,1.463724,-0.496764
9099008773,-13.879105,-183.107925,282.911377,0.050257,1.440453,-0.500789
9099011268,-11.340981,-170.932907,280.526794,0.052185,1.418549,-0.498974
9099013763,-8.862638,-158.271790,278.386566,0.052574,1.398723,-0.489861
9099016259,-6.445116,-145.489502,276.428802,0.061584,1.368618,-0.480795
9099018754,-4.149447,-132.646667,274.653229,0.068414,1.342855,-0.468771
9099021250,-1.914422,-119.742722,272.877747,0.086285,1.320021,-0.463797
9099023745,0.198273,-107.081482,271.040558,0.112037,1.294101,-0.452924
9099026241,2.128383,-94.480103,269.142212,0.130617,1.268359,-0.448720
9099028738,3.875378,-82.181496,267.060425,0.148499,1.247698,-0.442979
9099031232,5.378190,-70.065063,265.099121,0.167178,1.230707,-0.439342
9099033727,6.635920,-58.374573,263.318176,0.182756,1.204168,-0.429374
9099036223,7.587922,-47.048889,261.717712,0.196789,1.183300,-0.409129
9099038718,8.233494,-36.270908,260.357849,0.205095,1.164029,-0.394048
9099041213,8.694431,-26.040844,259.178040,0.208313,1.144807,-0.379050
9099043709,8.908629,-16.603043,258.420258,0.213029,1.129941,-0.363947
9099046205,9.119492,-8.018812,257.963226,0.219401,1.118166,-0.360416
9099048700,9.206243,-0.043895,257.746826,0.235280,1.105645,-0.361114
9099051196,9.107973,7.261359,257.710083,0.254107,1.093860,-0.363936
9099053691,8.886140,13.898083,257.549561,0.271422,1.082745,-0.362399
9099056187,8.418097,19.562420,257.264008,0.295262,1.070827,-0.360041
9099058682,8.007327,24.070240,256.914001,0.317548,1.057370,-0.351910
9099061178,7.592008,26.996531,256.315887,0.341873,1.037254,-0.338767
9099063673,7.416128,28.462587,255.349030,0.366196,1.012816,-0.328618
9099066168,7.418970,28.468937,253.952621,0.385363,0.984750,-0.316435
9099068664,7.782856,26.953964,252.126694,0.416855,0.956529,-0.301866
9099071159,8.507665,23.917395,249.931992,0.438990,0.927063,-0.294759
9099073655,9.532572,19.480387,247.550980,0.462017,0.899215,-0.297807
9099076150,10.797198,13.825528,245.044846,0.484437,0.880149,-0.302889
9099078646,12.120143,7.379102,242.536179,0.504818,0.867743,-0.312981
9099081141,13.319734,0.445930,240.086456,0.526713,0.853951,-0.328174
9099083637,14.335979,-6.669662,237.757278,0.555889,0.840100,-0.343977
9099086132,15.229791,-13.907330,235.609665,0.582107,0.829823,-0.353935
9099088628,15.941227,-21.023062,233.583603,0.610572,0.821757,-0.366730
9099091123,16.652859,-28.077925,231.557755,0.639069,0.813728,-0.381709
9099093618,17.303984,-34.950478,229.653854,0.658684,0.804886,-0.386649
9099096114,18.077124,-41.641472,227.872147,0.686957,0.791566,-0.390072
9099098609,18.790024,-48.028690,226.273514,0.711488,0.778160,-0.386274
9099101105,19.564539,-54.172672,224.675751,0.735271,0.769059,-0.378038
9099103600,20.096350,-60.072456,223.139175,0.747412,0.757896,-0.370759
9099106096,20.568296,-65.667641,221.603500,0.758174,0.746832,-0.368600
9099108592,20.798069,-70.775696,220.251236,0.767537,0.738003,-0.368609
9099111087,20.663536,-75.578461,219.020859,0.765882,0.723392,-0.365261
9099113582,20.285931,-80.137856,218.033783,0.758420,0.711725,-0.360498
9099116078,19.664530,-84.757683,217.167572,0.749532,0.700825,-0.357201
9099118573,18.982538,-89.376717,216.179840,0.735415,0.687656,-0.346018
9099121069,18.118719,-93.933029,214.949188,0.716277,0.683251,-0.333299
9099123564,17.255783,-98.366486,213.476089,0.698683,0.684694,-0.322634
9099126060,16.394560,-102.493958,211.639694,0.681023,0.681743,-0.310592
9099128555,15.717878,-106.254990,209.379791,0.658297,0.678865,-0.300090
9099131051,15.225355,-109.771362,206.695969,0.636346,0.683955,-0.287243
9099133546,15.038930,-112.922096,203.649506,0.613067,0.692080,-0.280919
9099136042,15.219316,-115.707703,200.301224,0.586088,0.698007,-0.271782
9099138537,15.888084,-118.008057,196.894562,0.562024,0.704635,-0.262584
9099141033,17.166525,-119.945389,193.429306,0.532901,0.712063,-0.254912
9099143528,19.054779,-121.398506,190.027267,0.504612,0.721766,-0.253012
9099146042,21.430410,-122.489494,186.870026,0.484417,0.729340,-0.259031
9099148534,24.171812,-123.157242,184.018280,0.464206,0.733297,-0.266575
9099151017,26.974792,-123.400528,181.471634,0.444007,0.727907,-0.281574
9099153509,29.901194,-123.096474,178.926971,0.433252,0.719537,-0.297931
9099156004,32.829094,-122.245132,176.505554,0.422497,0.717650,-0.309798
9099158500,35.697338,-120.907417,174.267792,0.407203,0.705525,-0.316827
9099160995,38.566696,-119.144150,172.152863,0.394847,0.684765,-0.331980
9099163491,41.315098,-117.076584,170.160202,0.384697,0.665453,-0.347799
9099165986,43.942532,-114.825645,168.107239,0.376642,0.648185,-0.356261
9099168481,46.266354,-112.390846,166.054459,0.368591,0.628039,-0.366961
9099170977,48.407661,-109.955299,164.001373,0.366325,0.604925,-0.377621
9099173472,50.366062,-107.640762,161.947632,0.366993,0.583252,-0.388935
9099175968,51.959045,-105.446480,159.892944,0.364020,0.565206,-0.397328
