Timestamp (us),Gyroscope X (deg/s),Gyroscope Y (deg/s),Gyroscope Z (deg/s),Accelerometer X (g),Accelerometer Y (g),Accelerometer Z (g)
4883453767,-1.647009,-0.154568,0.242886,0.979796,-0.019049,0.229494
4883473811,-1.138101,0.787219,-0.333279,0.986969,-0.009064,0.225731
4883493857,-1.534297,3.387237,0.192963,0.986351,-0.013318,0.228766
4883513902,-0.479476,4.458460,1.159005,0.976640,-0.027320,0.238917
4883533947,2.070216,4.106129,0.057991,0.968552,-0.025083,0.241480
4883553991,2.664392,3.337349,-1.263803,0.969928,-0.010573,0.246377
4883574036,1.146418,2.943814,-0.398543,0.966089,-0.005050,0.245757
4883594080,-0.093180,1.888575,0.015728,0.963377,-0.009462,0.247686
4883614125,-0.485370,0.923307,-0.688854,0.968669,-0.015373,0.248138
4883634170,0.252675,2.191780,-1.145191,0.968103,-0.016828,0.247508
4883654213,1.598279,2.053825,-1.102049,0.968126,-0.013774,0.253856
4883674257,-0.279999,0.010355,-2.220843,0.973790,-0.000187,0.253330
4883694302,-3.694322,0.476765,-2.621730,0.970512,0.004543,0.245164
4883714346,-5.282284,-0.935167,-1.678788,0.965871,-0.021116,0.242520
4883734391,-5.905763,-3.221950,-0.597666,0.971448,-0.047025,0.263988
4883754436,-0.317776,-1.486598,-1.442071,0.973160,-0.053292,0.270789
4883774480,11.563630,1.914913,-3.524759,0.977575,-0.029814,0.248868
4883794525,13.024524,4.983807,-4.689224,0.975205,0.013197,0.241303
4883814570,3.848879,4.947143,-2.440006,0.962776,0.024462,0.272985
4883834614,0.104740,2.124004,-0.031721,0.949976,-0.013438,0.287589
4883854659,4.756660,0.644755,-1.574412,0.956414,-0.034984,0.259044
4883874703,10.984413,2.980014,-2.409054,0.971279,-0.012628,0.242307
4883894749,12.673409,4.560199,-0.861747,0.969470,0.024171,0.259289
4883914794,7.759857,4.679071,0.509015,0.965975,0.034353,0.285764
4883934839,3.287989,2.638617,1.108985,0.964899,0.018457,0.266495
4883954883,1.264334,0.914324,-0.405147,0.972997,0.019283,0.246244
4883974928,-1.964269,1.798907,-0.152680,0.976200,0.018379,0.266396
4883994972,-2.613322,1.146515,1.414664,0.967620,-0.001543,0.267226
4884015017,-0.287224,-0.695406,0.210117,0.959733,-0.013908,0.255708
4884035082,2.875285,0.464489,-0.409455,0.954939,-0.015306,0.266610
4884055105,6.706378,-1.248690,0.225583,0.952796,-0.015543,0.279798
4884075149,7.108971,-3.043356,-1.002352,0.967784,-0.003482,0.264239
4884095194,5.571456,-0.670431,-0.604274,0.982855,0.015635,0.253903
4884115239,4.467214,3.731957,0.794178,0.971818,0.021171,0.252684
4884135283,2.548360,5.200781,1.310309,0.942412,0.013400,0.264369
4884155328,1.911968,-0.225028,2.501154,0.950172,0.003222,0.272249
4884175372,1.943001,-4.292275,0.623042,0.979131,0.005255,0.260517
4884195417,-0.346346,-0.300903,-1.526775,0.999699,0.013250,0.248947
4884215462,-1.167806,4.359784,0.135906,0.990404,0.000438,0.248166
4884235506,0.965089,5.156330,0.834919,0.954122,-0.010712,0.257370
4884255551,2.860750,1.566444,-0.760827,0.951726,-0.003571,0.269039
4884275597,2.369122,-3.427208,-1.689386,0.976169,0.009152,0.263741
4884295641,-1.225276,-2.192854,-1.830597,0.988070,0.015321,0.246478
4884315686,-3.459448,2.901465,-2.001123,0.973466,0.002267,0.251669
4884335730,-2.517632,3.379282,-2.473512,0.953062,-0.018073,0.270989
4884355775,0.685307,1.293733,-2.899867,0.948359,-0.034401,0.272455
4884375820,6.379300,1.022792,-2.897558,0.955038,-0.035319,0.260403
4884395865,10.489425,1.954474,-2.130030,0.961371,-0.019271,0.261227
4884415916,11.590062,2.721719,-0.965977,0.960264,-0.017621,0.272677
4884435952,13.925591,2.453910,-0.450350,0.961361,-0.014657,0.256272
4884455997,16.713285,2.847255,0.693504,0.963644,0.007644,0.268760
4884476042,17.041044,2.863169,2.900282,0.957410,0.026875,0.280300
4884496086,13.953486,0.797894,1.676506,0.970760,0.053787,0.272619
4884516131,4.589226,0.036955,-1.328768,0.984297,0.062203,0.266913
4884536175,-2.434987,2.278131,-0.210470,0.983645,0.028927,0.265453
4884556220,1.730098,3.292661,-1.020430,0.975436,0.008700,0.262828
4884576264,3.663042,1.518831,-3.677122,0.968473,0.018169,0.259331
4884596309,-0.287571,2.259685,-3.289473,0.969397,0.006965,0.262526
4884616354,0.658958,3.619546,-2.947574,0.968097,-0.013893,0.262415
4884636398,5.702533,4.534125,-4.609806,0.959984,-0.007100,0.264667
4884656443,8.430655,4.356840,-4.859103,0.955509,0.012604,0.269570
4884676489,7.948206,4.654108,-3.918635,0.953025,0.012225,0.275109
4884696534,8.858321,5.185894,-2.760517,0.954597,0.001928,0.279029
4884716578,11.816730,4.818694,-2.340991,0.958518,0.002806,0.282419
4884736623,12.996806,4.117857,-3.568303,0.956281,0.025939,0.287128
4884756667,9.078506,4.424863,-4.467984,0.958830,0.033041,0.291094
4884776712,7.308702,4.532972,-4.088839,0.960009,0.025242,0.286706
4884796757,9.816739,4.713080,-4.405351,0.953677,0.030313,0.294084
4884816802,10.777318,2.827097,-4.807085,0.963189,0.039108,0.294536
4884836845,7.608893,2.959245,-4.363911,0.968350,0.033927,0.282234
4884856889,7.151694,5.331323,-3.776039,0.963110,0.031476,0.285403
4884876934,8.519835,4.646183,-3.542096,0.956655,0.043100,0.303377
4884896978,9.173782,3.680552,-3.051007,0.955615,0.058862,0.299962
4884917023,8.012751,3.194575,-4.237719,0.960911,0.065892,0.299761
4884937067,4.492591,5.234152,-5.233509,0.952182,0.061199,0.300828
4884957112,6.858678,4.616777,-4.512091,0.943660,0.065839,0.307010
4884977157,6.820970,3.651767,-3.969991,0.940378,0.077901,0.304064
4884997201,3.964013,3.160495,-3.292449,0.937856,0.085476,0.299977
4885017246,0.662198,1.574882,-3.113268,0.938210,0.086909,0.309709
4885037290,-0.963971,1.682770,-2.948536,0.945068,0.075307,0.308125
4885057337,-0.081888,1.530047,-2.833262,0.946669,0.073020,0.310250
4885077381,-0.630349,0.588112,-2.660564,0.947244,0.075488,0.312328
4885097426,-2.391964,0.156751,-1.869583,0.947556,0.065457,0.312595
4885117470,-2.043301,-0.246426,-1.955676,0.950275,0.056527,0.306316
4885137515,-0.746451,-1.007833,-2.437234,0.956226,0.059669,0.311887
4885157560,-0.309541,-0.757021,-1.625663,0.959249,0.065873,0.306213
4885177604,-0.973620,0.140828,-0.752935,0.948091,0.056552,0.305298
4885197649,-0.615652,0.034208,-0.534648,0.944219,0.042538,0.313397
4885217692,2.072581,-1.077948,-0.828466,0.942178,0.046867,0.315259
4885237737,3.179468,-2.644678,-0.896418,0.942735,0.058467,0.306882
4885257781,2.176108,-2.339825,-0.988051,0.953041,0.064580,0.303629
4885277826,1.297682,-0.689658,-0.860984,0.957567,0.062416,0.303771
4885297871,1.513089,0.351526,-0.696017,0.954128,0.065144,0.308276
4885317915,2.397631,0.305478,0.013364,0.955427,0.072206,0.304130
4885337960,2.444134,0.123165,0.333149,0.958222,0.075318,0.299026
4885358004,1.816135,1.203132,0.611201,0.960868,0.076305,0.302315
4885378049,1.002287,1.029015,0.602369,0.951354,0.068740,0.308043
4885398093,0.793352,-0.202285,0.231839,0.948242,0.055964,0.312405
4885418138,1.905671,-1.860465,-0.361731,0.952802,0.048657,0.307400
4885438183,3.009655,-1.991315,-1.878494,0.951813,0.053514,0.296337
4885458229,2.564072,-1.809100,-3.177979,0.956135,0.066968,0.287335
4885478273,0.757235,-0.636975,-3.050959,0.959698,0.073370,0.284941
4885498318,-1.085880,1.599255,-2.977995,0.952279,0.058922,0.288739
4885518362,-0.188848,1.864436,-3.129872,0.950404,0.051372,0.299804
4885538407,2.302067,0.752492,-3.330758,0.945222,0.051798,0.297486
4885558452,2.779141,0.736657,-3.821972,0.955299,0.054915,0.295531
4885578496,3.605896,2.340013,-3.106088,0.966205,0.047968,0.303043
4885598541,6.324190,3.105656,-2.396297,0.957838,0.044310,0.309203
4885618584,9.252540,2.708128,-1.869856,0.944097,0.047863,0.318269
4885638629,10.436181,1.430182,-1.885341,0.943404,0.056620,0.317463
4885658674,10.913831,0.981269,-2.018090,0.950707,0.062013,0.309369
4885678719,12.108385,1.983421,-2.256745,0.944431,0.062646,0.308316
4885698763,12.892573,1.564927,-1.767173,0.939532,0.065401,0.313447
4885718807,13.092755,0.744353,-0.716607,0.934871,0.064370,0.312602
4885738852,14.657611,0.127323,-0.766113,0.939358,0.071294,0.308663
4885758896,15.157215,-0.534484,-1.020722,0.940113,0.091872,0.306678
4885778941,14.087461,-1.126022,-0.151093,0.947255,0.087754,0.306673
4885798986,13.623375,-1.178852,-0.208431,0.953618,0.079806,0.305055
4885819030,13.391408,-1.194310,-1.219871,0.948230,0.084977,0.302879
4885839076,11.266870,-2.150354,-1.644540,0.937721,0.101520,0.299570
4885859121,8.143797,-2.429525,-3.067807,0.941548,0.106433,0.293549
4885879165,10.204160,-0.935189,-5.774275,0.958006,0.097627,0.294925
4885899210,19.968842,-0.397066,-7.312364,0.941245,0.086138,0.297720
4885919255,30.631413,0.818486,-4.987884,0.915797,0.117420,0.272057
4885939299,29.573051,-1.139543,-0.475505,0.928498,0.164174,0.271126
4885959344,18.257992,-9.992321,-0.784150,0.956335,0.184775,0.265515
4885979388,10.621572,-14.280476,-1.574796,0.987741,0.160809,0.256382
4885999432,19.148930,0.002532,0.784175,1.013327,0.054536,0.275291
4886019476,36.327480,8.932246,-2.471861,0.912288,0.060080,0.315477
4886039521,33.639183,-10.471752,-6.333472,0.894687,0.171376,0.301775
4886059565,28.112715,-17.601505,-0.730621,0.951773,0.216480,0.265675
4886079610,21.639099,-18.613722,0.790301,0.962367,0.210967,0.206528
4886099655,15.988423,-15.766109,0.945208,0.965338,0.228524,0.182278
4886139744,-4.423225,-16.121525,-0.406379,0.949108,0.336071,0.207401
4886159788,-21.870541,-20.187927,-0.177344,1.002784,0.351364,0.164421
4886179833,-27.578783,-23.001179,3.541101,1.053889,0.313219,0.089178
4886199877,-43.121708,-10.142993,2.619644,1.054693,0.294100,0.094349
4886219922,-62.483482,9.525175,-6.141053,0.939182,0.270365,0.140316
4886239968,-70.839058,5.005538,-15.976501,0.904804,0.248097,0.216635
4886260013,-74.929604,-10.192669,-16.745926,0.990062,0.266798,0.231033
4886280057,-82.863426,-11.402154,-17.247707,1.002568,0.293639,0.174273
4886300102,-93.334099,-3.633776,-19.406933,0.974554,0.292804,0.152225
4886320156,-101.438545,-1.560722,-22.363602,0.954017,0.303248,0.179484
4886340191,-106.560448,-8.228888,-20.542963,0.978255,0.307879,0.201838
4886360236,-113.324448,-9.217330,-17.427610,0.982268,0.278424,0.183901
4886380280,-121.613823,-7.233798,-17.000256,0.932705,0.234100,0.179808
4886400323,-131.754654,-11.466961,-18.624998,0.896771,0.213306,0.179900
4886420368,-140.959518,-20.823502,-19.581667,0.907679,0.223118,0.147486
4886440412,-150.565033,-23.939699,-20.929695,0.962219,0.233045,0.095543
4886460457,-158.557892,-17.920422,-20.432241,1.006054,0.206548,0.064945
4886480502,-166.526459,-9.939535,-18.496973,1.000188,0.146835,0.065668
4886500547,-176.638626,-7.217998,-19.922817,0.980788,0.121037,0.088592
4886520591,-189.008240,-13.515420,-18.877356,1.019457,0.099920,0.072660
4886540635,-207.299377,-27.556845,-9.863759,1.088993,0.103430,0.034081
4886560680,-227.176590,-25.077106,-9.987961,1.085751,0.165455,-0.043296
4886580725,-229.093353,-1.399601,-27.532970,1.077661,0.235345,-0.052217
4886600769,-228.634003,16.687029,-33.358730,1.052580,0.161578,-0.005450
4886620815,-230.323120,11.361395,-31.154293,0.991760,0.011693,0.018650
4886640860,-238.607651,-4.245912,-36.987820,0.997570,-0.057876,0.029373
4886660905,-242.447098,-14.452631,-42.083466,1.065823,-0.025606,0.006662
4886680949,-235.936401,-7.853453,-42.535774,1.089010,0.073508,-0.018569
4886700994,-229.365448,4.924537,-44.099037,1.080838,0.178933,-0.042988
4886721038,-218.464661,4.487589,-48.296082,1.058295,0.191217,-0.092509
4886741083,-201.766769,2.126223,-44.597496,1.039625,0.033850,-0.170464
4886761128,-209.037170,2.321824,-29.297722,1.066875,-0.179244,-0.207200
4886781172,-230.513443,-0.014253,-25.771183,1.021171,-0.326717,-0.196302
4886801215,-222.003799,12.407105,-39.134483,0.967359,-0.409172,-0.012013
4886821260,-182.481842,46.088104,-42.577610,0.981379,-0.383841,0.303167
4886861349,-169.745270,-47.237450,-61.213768,0.881270,0.062388,0.080155
4886881393,-185.119934,-50.679268,-54.068565,1.025972,0.149893,-0.087397
4886901439,-182.278351,-11.000476,-41.641472,1.082195,0.032518,-0.178154
4886921483,-181.553436,19.066469,-43.374336,1.035538,-0.032053,-0.127250
4886941528,-173.857513,10.384129,-50.685375,1.016036,-0.043340,-0.064752
4886961572,-171.014648,-0.778301,-55.458057,1.060178,-0.046866,-0.032535
4886981617,-169.745422,3.851975,-49.811771,1.135765,-0.081445,-0.081044
4887001661,-161.322266,11.844220,-41.861835,1.141033,-0.085182,-0.120214
4887021707,-154.672699,22.440619,-43.697903,1.134298,-0.063105,-0.081934
4887041752,-143.549118,34.483200,-49.272133,1.128883,-0.042118,0.022281
4887061796,-144.996628,34.033951,-53.831589,1.071986,-0.027524,0.094035
4887081841,-150.729095,11.698987,-57.088093,1.014127,-0.023587,0.077465
4887101886,-150.135651,-7.235217,-57.882286,0.982381,-0.005914,0.022733
4887121930,-153.853989,-17.272224,-57.219585,0.997747,0.021673,-0.013254
4887141975,-162.097260,-18.469976,-49.156036,1.018317,-0.005070,-0.037829
4887162019,-168.385529,-16.166126,-42.482079,0.994309,-0.041297,-0.016674
4887182063,-170.521622,-16.832964,-42.091778,0.991817,-0.032709,0.030762
4887202107,-171.206512,-20.777260,-42.364677,1.004355,-0.000338,0.045063
4887222152,-170.078308,-22.145712,-40.932171,0.998066,0.016336,0.005730
4887242196,-166.962723,-20.612673,-40.073784,0.987221,0.006798,-0.036970
4887262241,-163.236084,-18.525999,-40.736656,1.005854,-0.007639,-0.028066
4887282286,-162.805588,-17.090488,-42.173550,1.047983,-0.010551,0.009230
4887302330,-161.766190,-17.760361,-42.424671,1.051954,-0.001501,0.033311
4887322375,-159.549072,-20.057535,-42.089058,1.056101,-0.006170,0.026643
4887342420,-153.645706,-19.819033,-41.250824,1.063081,-0.022531,0.022641
4887362464,-144.928833,-18.405052,-40.854279,1.037027,-0.055007,0.016254
4887382509,-134.181961,-18.899281,-37.538452,0.998243,-0.082176,0.024025
4887402553,-124.920013,-27.996435,-34.713524,0.986307,-0.087909,0.025897
4887422599,-120.312561,-34.895435,-37.347782,1.010608,-0.037556,0.004719
4887442644,-116.242561,-33.030186,-39.574825,1.036455,0.017937,-0.020952
4887462688,-113.161263,-25.552422,-36.603905,1.014676,0.023044,-0.027982
4887482733,-108.965805,-21.055754,-35.101433,0.981640,-0.008535,-0.013213
4887502778,-96.108398,-27.559017,-37.677429,0.975220,-0.035659,-0.007847
4887522822,-93.760284,-33.086594,-37.324524,0.996682,0.009003,0.034915
4887542867,-109.236809,-26.116171,-31.971067,0.984994,0.051829,0.032928
4887562911,-107.187828,-28.276518,-31.923790,0.968854,0.053485,0.014223
4887582955,-101.961380,-37.150532,-30.789871,0.992837,0.052050,0.004304
4887602999,-102.737686,-38.408699,-24.421453,1.027077,0.057759,-0.017616
4887623044,-103.738525,-36.146996,-16.812857,1.049989,0.077386,-0.054666
4887643089,-101.075523,-34.466965,-11.098287,1.056630,0.088731,-0.085484
4887663133,-97.774254,-31.868942,-7.918750,1.072996,0.095587,-0.099351
4887683178,-98.215439,-31.084087,-4.365984,1.070055,0.099809,-0.101502
4887703222,-101.847649,-29.368237,1.297781,1.064229,0.088322,-0.126031
4887723267,-100.797768,-25.088093,5.414802,1.043171,0.083947,-0.144267
4887743312,-98.333961,-19.335875,6.784621,1.013968,0.077631,-0.132683
4887763357,-95.721672,-15.438381,8.101728,1.004868,0.058619,-0.108011
4887783401,-98.333290,-13.018284,9.917382,0.999122,0.047109,-0.072997
4887803446,-120.164505,-6.782040,9.964594,1.009309,0.097628,-0.012704
4887823492,-135.520721,5.961601,8.219038,1.001203,0.074922,-0.030147
4887843536,-122.453079,10.061223,5.852337,0.964308,-0.019796,-0.030363
4887863581,-112.214226,-3.923423,10.007591,0.990723,-0.093562,-0.040305
4887883625,-103.597809,-18.004919,15.401924,1.074329,-0.098660,-0.042565
4887903670,-107.108177,-11.191984,14.691041,1.140313,-0.033341,-0.063472
4887923714,-116.846680,14.336823,8.624079,1.086171,0.034234,-0.046853
4887943759,-128.052765,24.088537,4.061235,1.002740,0.061978,-0.026660
4887963816,-131.811783,12.441147,6.790327,0.984376,0.118029,0.008432
4887983847,-138.680313,0.120130,9.848627,1.008266,0.175374,0.032624
4888003891,-150.522263,-0.289916,4.896498,1.002709,0.104577,0.001576
4888023936,-155.179932,1.277146,-1.095345,1.001169,0.021693,-0.028433
4888043981,-155.949478,-0.597553,3.353795,1.009579,-0.019231,-0.047427
4888064025,-155.629837,0.482176,4.919693,1.025460,-0.007709,-0.059970
4888084070,-159.416763,11.516483,-6.542478,1.044642,0.038570,-0.037724
4888104115,-159.975433,28.404329,-9.609097,0.990054,0.088114,-0.019230
4888124159,-154.859482,23.552530,-5.476527,0.994434,0.058082,-0.040437
4888144204,-158.383438,13.536863,-7.679818,1.068795,-0.083918,-0.070132
4888164248,-162.355820,27.396523,-7.319642,1.090068,-0.262818,-0.080791
4888184293,-158.369354,53.467545,-15.122663,0.990324,-0.292443,0.052652
4888204339,-155.842621,47.425728,-25.504826,0.879700,-0.200227,0.169623
4888224384,-146.355713,11.237777,-26.488018,0.852443,-0.109893,0.174505
4888244428,-139.325089,-12.117315,-25.788486,0.924347,-0.061231,0.081581
4888264473,-133.713531,-3.274078,-23.851494,1.018023,-0.024490,0.024057
4888284518,-130.788620,16.090931,-21.721014,1.013720,-0.015288,0.014390
4888304562,-130.627472,27.886497,-22.990423,0.971392,-0.032278,0.035435
4888324607,-133.776169,28.040163,-25.358572,0.951071,-0.033739,0.055966
4888344651,-130.471039,23.962170,-27.939804,0.956403,-0.038332,0.049578
4888364694,-118.725426,24.839239,-32.525482,0.979925,-0.083850,0.044390
4888384739,-107.051865,28.846748,-39.559040,0.980003,-0.159898,0.079979
4888404784,-99.712204,24.309029,-42.589779,1.001512,-0.197056,0.142080
4888424828,-99.465233,10.010932,-44.749371,1.052885,-0.122754,0.197926
4888444873,-112.849060,-1.173968,-46.152222,1.079604,0.021521,0.209494
4888464918,-127.560669,-2.019086,-43.814087,1.092683,0.124889,0.171772
4888484962,-132.896225,4.326021,-40.449982,1.090131,0.147721,0.159547
4888505007,-142.175018,8.515810,-37.365955,1.058977,0.085198,0.160473
4888525051,-138.993698,-3.266874,-34.834694,0.938176,-0.050578,0.108179
4888545096,-136.556549,-16.814487,-37.202244,0.927508,-0.096486,0.104292
4888565141,-133.928680,-14.104213,-39.205711,0.996177,-0.055180,0.133951
4888585185,-130.674454,-8.314715,-37.925789,0.999796,-0.038290,0.132108
4888605231,-124.242325,-6.760642,-34.632141,0.950261,-0.070106,0.118079
4888625276,-118.462105,-7.251723,-33.845604,0.935798,-0.086171,0.123113
4888645320,-111.092155,-10.533840,-33.518089,0.954480,-0.065050,0.132453
4888665365,-103.586365,-14.210444,-31.271437,0.978581,-0.036976,0.131305
4888685410,-102.008675,-17.857990,-26.503410,0.993619,-0.027528,0.145085
4888705454,-100.964348,-21.383629,-22.104710,0.987069,-0.046480,0.170595
4888725499,-96.082184,-26.707941,-21.238152,1.000846,-0.030171,0.210165
4888745544,-86.592628,-39.588779,-14.731757,1.006470,-0.051793,0.094394
4888765587,-76.714417,-48.028400,-2.137907,1.041136,0.003027,0.044393
4888785631,-125.138283,-37.498703,12.294405,1.055577,0.240887,0.037437
4888805676,-140.384232,-23.112013,-3.196957,1.080541,0.150688,-0.103939
4888825721,-100.003181,9.376093,-4.078179,1.215338,-0.155420,0.014835
4888845765,-64.727303,42.182030,15.854533,1.187191,-0.449868,0.235202
4888865810,-75.035408,47.788479,23.470379,0.975109,-0.578686,0.312286
4888905899,-29.960318,2.515583,-15.144827,0.757259,-0.442244,0.184747
4888925943,36.026363,-38.137581,-17.044561,0.894654,-0.231930,0.253664
4888945989,-4.023866,-26.242033,-8.467649,1.117729,0.165194,0.412527
4888966033,-35.049686,16.773733,7.126139,1.030812,-0.003369,0.108830
4888986079,-14.300696,41.011719,11.743665,0.919405,-0.237870,0.240055
4889006123,1.206653,28.736280,7.042541,0.854096,-0.304743,0.412113
4889026168,13.420339,4.994720,3.405979,0.851584,-0.280286,0.310105
4889046213,29.303457,0.429281,5.833029,0.941404,-0.209301,0.214760
4889066258,32.126759,11.592871,7.172121,1.003213,-0.090292,0.284425
4889086302,31.243229,12.003791,6.553806,0.966000,-0.053723,0.284579
4889106346,38.146576,-2.124808,5.348636,0.956474,-0.054527,0.267218
4889126391,41.045403,-11.241019,4.298940,1.054465,-0.035912,0.233274
4889146434,40.737816,-4.711779,4.249416,1.094423,-0.057128,0.156171
4889166479,45.153732,10.706334,4.505713,1.035943,-0.075259,0.150067
4889186524,46.598885,13.602201,7.272573,0.976903,-0.001139,0.216579
4889206568,37.942410,6.694001,9.394796,0.938158,0.055334,0.242779
4889226613,30.400925,6.418503,7.654961,0.945342,0.047348,0.212397
4889246657,28.430584,13.623963,3.884581,0.954055,0.054032,0.196746
4889266702,24.618790,21.280972,3.472324,0.945846,0.072753,0.196805
4889286747,22.249546,27.051029,1.450949,0.954216,0.083066,0.190499
4889306791,19.973095,35.670845,-1.526119,0.952709,0.105927,0.221891
4889326836,18.524096,41.631924,0.429639,0.958016,0.063953,0.227739
4889346880,25.197224,49.399746,-3.841786,0.978251,0.018336,0.252208
4889366925,31.246609,58.989143,-15.050420,0.923432,0.014712,0.305281
4889386971,23.479641,41.467392,-17.823547,0.919038,0.023372,0.321201
4889407016,22.844547,28.676950,1.193447,1.007814,-0.033930,0.209063
4889427060,60.088779,20.417505,10.667117,0.998103,-0.064231,0.146877
4889447105,71.417015,3.697817,2.741606,1.078140,0.046704,0.209458
4889467150,34.835938,43.794327,6.397166,1.120940,0.176462,0.201143
4889487194,22.214907,69.564667,7.909428,1.039048,0.087976,0.162945
4889507251,30.176012,68.790405,8.542386,1.064511,-0.025209,0.359174
4889527283,24.632463,69.781136,3.784426,1.033363,-0.068410,0.472016
4889547326,9.357850,62.322090,-14.748617,0.988690,0.022420,0.396466
4889567371,0.183324,58.445328,-16.350636,0.993884,0.148461,0.388726
4889587415,-4.438438,51.640648,-12.903387,1.012708,0.111651,0.380427
4889607460,-7.338577,50.295914,-17.161364,1.011540,0.020456,0.311431
4889627505,-8.053707,54.635532,-19.361670,1.017580,-0.028225,0.286566
4889647549,-6.405502,59.171459,-19.957586,0.962630,-0.037900,0.297170
4889667594,-3.726687,56.333206,-21.895252,0.928226,-0.032770,0.304889
4889687638,-1.278876,59.638451,-19.563091,0.911127,-0.048437,0.309081
4889707683,0.997256,64.326340,-19.051693,0.909270,-0.018095,0.340592
4889727728,8.037341,64.723907,-17.270039,0.937478,0.039693,0.384568
4889747772,6.862096,73.885757,-12.843458,0.930786,0.045256,0.421073
4889767817,4.162116,78.327614,-11.242352,0.879333,0.063447,0.459788
4889787863,8.242150,72.266434,-11.031735,0.849115,0.082915,0.504473
4889807908,10.191609,65.881012,-9.143689,0.866892,0.097465,0.511038
4889827952,8.469315,69.122818,-3.785506,0.819291,0.088013,0.504760
4889847997,8.584346,64.333633,-5.221718,0.784141,0.123899,0.540533
4889868041,2.801507,58.980740,-3.900064,0.746699,0.163312,0.567703
4889888086,6.431138,61.211189,-6.146926,0.707635,0.138377,0.643737
4889908131,6.743911,58.982723,-8.790766,0.660884,0.087214,0.670130
4889928191,6.790487,52.612991,-9.478365,0.669085,0.110709,0.633305
4889948218,10.521322,60.144680,-3.670858,0.649009,0.134130,0.716088
4889968263,8.862415,56.324512,-0.241531,0.571007,0.144362,0.783991
4889988307,2.311833,40.747963,-1.966879,0.575673,0.225062,0.795923
4890008352,-4.121267,36.778175,-2.363282,0.600656,0.269510,0.791641
4890028397,0.345873,39.220821,-4.395835,0.571050,0.202990,0.860258
4890048441,4.579368,31.433786,-4.984685,0.549037,0.104638,0.892410
4890068486,-0.125834,24.437429,-5.383857,0.544141,0.107056,0.838729
4890088531,-0.769099,25.145948,-2.949358,0.523398,0.166791,0.836537
4890108575,-0.456678,27.943115,-2.108767,0.504307,0.208391,0.863640
4890128620,-0.202164,25.694004,-0.082125,0.482484,0.184376,0.826078
4890148665,0.046017,22.137112,0.909713,0.469217,0.137585,0.833196
4890168709,0.742335,18.655773,1.753296,0.490967,0.102524,0.858226
4890188755,-7.161546,16.131567,1.755337,0.485285,0.114975,0.866184
4890208799,-16.783558,11.030081,-2.965593,0.452116,0.188019,0.875809
4890228844,-18.590961,-3.466711,-11.440048,0.513518,0.244499,0.908568
4890248888,-16.770241,-18.896629,-9.077747,0.603106,0.191655,0.846929
4890268933,-16.948849,-12.784578,-7.002362,0.655826,0.161525,0.786471
4890288978,-26.842031,2.027587,-12.616144,0.643689,0.224032,0.869628
4890309023,-35.572773,10.607432,-15.452269,0.527574,0.249559,0.981373
4890329089,-36.269608,8.290633,-13.654436,0.353177,0.199297,1.081847
4890349111,-45.859447,-10.561864,-21.303272,0.215699,0.148233,1.035378
4890369155,-59.142265,-55.225426,-34.026512,0.277113,0.167284,0.785570
4890389199,-80.299232,-111.002426,-30.848047,0.511968,0.137707,0.549630
4890409244,-104.296585,-110.634712,-19.846420,0.638959,0.117169,0.506935
4890429289,-120.957443,-103.111435,-4.336833,0.972104,-0.244216,0.942081
4890449333,-169.481125,-96.441574,29.633204,0.926159,-0.711880,0.913012
4890469378,-78.297760,-42.793613,40.706963,0.688427,-0.914017,0.621237
4890489422,133.281097,-18.783970,5.610116,0.539507,-0.558136,0.523072
4890509467,245.648987,-11.223582,-20.238966,0.494998,-0.011508,0.743570
4890529512,221.969482,7.471712,-20.387438,0.423437,0.469117,0.921260
4890549556,75.657928,-9.416183,4.656536,0.332056,0.721522,0.866068
4890569602,-68.004410,-64.484100,30.935219,0.373702,0.439363,0.638904
4890589647,-131.728180,-116.868538,42.756023,0.559015,0.115500,0.927263
4890609691,-118.676796,-114.092148,38.760380,0.654721,-0.192602,0.666476
4890629736,-35.026390,-89.802162,26.363880,0.734921,-0.344675,0.392088
4890649781,49.741596,-64.048317,9.272175,0.855267,-0.321726,0.511136
4890669825,77.639633,-44.242069,-7.278840,0.939573,-0.129866,0.653472
4890689870,55.341103,-34.528172,-15.809532,0.897896,0.107692,0.664772
4890709914,2.953413,-11.255371,-16.184084,0.770991,0.328577,0.802868
4890750003,-15.006240,-53.720600,-0.343018,0.718805,-0.046331,0.603463
4890770047,-13.389362,-40.435547,0.614785,0.676779,-0.095497,0.275164
4890790092,3.180048,-37.900723,-9.791734,0.886880,-0.087717,0.022984
4890810136,10.182762,-58.736214,-17.619244,1.391078,0.079306,0.172325
4890830181,-16.211473,24.399643,-18.843912,1.485560,0.381921,0.446474
4890850225,-29.837599,189.026596,-20.388269,1.025861,0.255236,0.582458
4890870270,-59.666138,228.287842,-2.042288,0.466348,-0.029090,1.212567
4890890315,-93.071075,138.616608,5.421718,-0.055281,-0.158010,1.465110
4890910359,-17.406319,4.121357,-3.472331,-0.001179,-0.185589,1.044015
4890930404,76.370987,-55.527245,-5.597655,0.374969,-0.023320,1.028124
4890950449,87.718246,-29.063679,-5.275433,0.554071,0.263098,0.879485
4890970494,8.281505,26.421867,-4.688364,0.454432,0.434220,0.850031
4890990539,-66.603729,26.283398,-0.083998,0.270147,0.240858,0.896805
4891010584,-79.928421,-13.962334,7.994480,0.310754,-0.012164,0.837917
4891030628,-45.846020,-35.684059,8.203180,0.473811,-0.171769,0.726438
4891050673,-10.228289,-22.302631,1.464745,0.538128,-0.178250,0.707387
4891070718,4.210765,-9.393846,1.631330,0.464597,-0.105130,0.882326
4891090762,1.072831,-41.425411,7.521287,0.550663,-0.063075,0.975564
4891110807,-2.826605,-64.892326,8.990376,0.756883,-0.057696,0.899001
4891130850,4.257625,-37.255474,7.317706,0.812307,-0.045552,0.865346
4891150895,11.889791,-21.969284,7.709454,0.778827,-0.045999,0.985557
4891170940,10.855808,-42.497040,9.557561,0.732094,-0.061672,0.965497
4891190984,19.107441,-43.224865,12.588012,0.725534,-0.053574,0.887266
4891211028,27.833290,-33.966705,13.578917,0.623884,-0.012647,0.877537
4891231073,27.933674,-38.641827,12.234131,0.509358,0.041300,0.876528
4891251118,17.857754,-55.233326,11.610949,0.465544,0.072551,0.808668
4891271162,4.458621,-66.759277,12.341661,0.492121,0.059297,0.733314
4891291207,-1.315872,-73.534019,12.544706,0.534250,0.013456,0.722073
4891311251,3.599068,-77.172890,9.234595,0.561617,-0.034633,0.672049
4891331296,16.189123,-77.709915,5.466555,0.586600,-0.065183,0.647082
4891351341,28.874609,-79.895515,3.588678,0.666240,-0.078143,0.596149
4891371387,44.458656,-82.698021,4.500312,0.755505,-0.078922,0.610282
4891391431,60.825138,-76.494591,4.917480,0.814369,-0.068967,0.545988
4891411476,71.990181,-74.293320,2.963313,0.920655,-0.043654,0.484827
4891431521,52.795624,-69.726418,-2.569468,1.062735,0.042481,0.474320
4891451565,7.347588,-55.248817,-9.144493,1.153021,0.093774,0.430035
4891491654,24.751497,-2.675951,-12.070221,1.079684,0.075830,0.481634
4891511699,26.115101,12.780567,-16.765306,0.909174,0.086777,0.494865
4891531742,12.437129,0.517136,-17.029757,0.810798,0.109538,0.463550
4891551786,-14.639875,-18.643513,-16.758327,0.833251,0.197936,0.392425
4891571831,-37.045391,-23.093328,-16.658518,0.882708,0.254727,0.343062
4891591876,-38.236538,-6.352586,-10.060148,0.938012,0.226038,0.335600
4891611921,-22.410980,14.689021,-7.070259,0.955277,0.150098,0.383969
4891631965,-15.417692,26.517262,-7.081733,0.945046,0.061117,0.450181
4891652010,-19.389559,25.228472,-7.309083,0.922604,-0.005127,0.446285
4891672054,-20.009380,21.162136,-8.405140,0.955899,0.009036,0.444044
4891692099,-23.284611,22.504383,-4.648331,0.997059,0.038438,0.472508
4891712144,-15.959356,27.015045,0.166950,0.974558,0.025432,0.467989
4891732189,-1.831488,28.714661,3.843316,0.947430,0.014259,0.492921
4891752233,5.053830,24.096657,7.314544,0.952106,-0.031205,0.481403
4891772279,5.385777,21.603577,7.832400,0.946874,-0.010014,0.388416
4891792324,-0.052373,29.210670,11.599869,0.928335,0.096697,0.419265
4891812368,-2.246982,26.644390,13.508458,0.853286,0.203692,0.422841
4891832413,1.777179,21.265957,10.702010,0.848630,0.183743,0.365432
4891852457,-3.887324,29.889919,10.447792,0.888075,0.134839,0.353650
4891872502,-4.880156,38.788742,5.015146,0.934172,0.088500,0.495034
4891892547,-3.834920,42.427315,2.238251,0.920736,0.055121,0.415547
4891912602,-0.542111,49.620880,-0.993481,0.762891,0.029829,0.298248
4891932634,-3.129437,49.148087,-9.368558,0.766321,0.095367,0.541913
4891952679,-7.416497,30.531517,-6.202206,0.941340,0.074788,0.642418
4891972724,9.108422,42.307465,-2.789912,0.970460,-0.142150,0.206588
4891992768,24.694191,87.642967,-12.505615,0.685739,-0.106978,0.244278
4892012813,19.457153,87.059822,-17.873901,0.588470,0.141704,0.755279
4892032857,13.718893,17.209484,-11.874924,0.777254,0.240307,0.675088
4892052902,-16.687401,5.269997,-16.864275,0.982560,0.004417,0.465581
4892072947,-19.400202,65.014572,-15.185843,0.892984,-0.149510,0.401283
4892113036,23.493488,33.300034,-10.281435,0.911669,0.085935,0.735157
4892133081,3.583158,39.156158,-6.751793,0.966490,0.068240,0.558622
4892153126,3.016552,60.851974,-0.239081,0.925200,-0.018050,0.630047
4892173171,8.822851,62.616375,-3.660172,0.776361,0.062429,0.646505
4892193216,-0.940887,55.424694,-8.659916,0.717154,0.210780,0.640568
4892213260,-9.157045,51.542263,-4.167021,0.692720,0.221676,0.634291
4892233305,-10.753428,53.443428,-5.025065,0.659641,0.152098,0.663940
4892253349,-11.046995,55.911026,-11.416898,0.609212,0.118773,0.666123
4892273394,-10.168887,55.111012,-14.028331,0.554836,0.124331,0.678972
4892293438,-9.713180,52.206825,-14.752818,0.529544,0.090899,0.743250
4892313482,-3.274206,47.061535,-18.423632,0.492602,0.031398,0.771695
4892333526,-1.630409,40.864376,-21.020596,0.503747,0.061095,0.753869
4892353571,-9.752513,39.732155,-19.098387,0.533861,0.146750,0.810103
4892373616,-15.298626,33.191921,-20.923780,0.568594,0.179633,0.840221
4892393660,-19.430983,29.964512,-22.435564,0.591439,0.138362,0.865947
4892413705,-15.253918,32.227596,-18.706287,0.564967,0.065211,0.894217
4892433750,-9.479610,29.587090,-14.451345,0.565798,0.058345,0.917041
4892453794,-11.561165,29.399099,-13.940019,0.556207,0.078415,0.899234
4892493883,-12.257662,20.925306,-13.096273,0.480290,0.075808,0.885682
4892513928,-11.837468,16.766701,-14.558275,0.431913,0.060471,0.896016
4892533973,-10.536460,8.154161,-14.179195,0.456715,0.041013,0.891533
4892554018,-12.808713,2.259373,-11.101263,0.509094,0.046062,0.866381
4892574063,-11.489902,7.974940,-8.922709,0.506126,0.061227,0.864504
4892594107,-8.377523,7.844306,-6.120059,0.483134,0.081464,0.904684
4892614152,-7.695355,-4.773660,-6.608550,0.486703,0.078268,0.886163
4892634197,-10.066369,-8.528120,-10.517861,0.520296,0.066347,0.845628
4892654241,-8.604725,-8.184499,-4.198589,0.547881,0.035573,0.832791
4892674286,-0.224555,-11.497097,-2.111350,0.576655,0.017367,0.845625
4892694331,5.071660,-11.664295,-8.779716,0.632963,0.055650,0.822868
4892714374,7.574183,-7.949476,-8.246281,0.650247,0.115318,0.814490
4892734419,4.605871,-5.484302,-8.279181,0.614315,0.117242,0.829507
4892754463,3.521020,-15.775806,-10.714224,0.572425,0.017803,0.859247
4892774508,15.920957,-19.822535,-10.820706,0.536534,-0.053179,0.765340
4892794552,45.013325,-18.678707,-14.267384,0.605395,0.020617,0.737647
4892814597,38.955883,-8.340730,-6.734311,0.618921,0.236321,0.803520
4892834642,7.388066,1.191515,2.374027,0.515517,0.396099,0.873645
4892854686,-13.159363,-21.754347,-1.842495,0.456326,0.447469,0.858039
4892874731,-20.659439,-48.519379,-5.964986,0.491978,0.423831,0.777465
4892894775,-17.931025,-59.359005,-3.027376,0.600982,0.243667,0.661117
4892914820,-21.345987,-65.367058,-0.496712,0.725942,0.060888,0.531433
4892934865,-32.132858,-59.855862,-2.750416,0.817014,0.004147,0.501065
4892954910,-27.281481,-38.650997,-12.688591,0.822399,0.062749,0.559800
4892974955,-19.285604,-20.204060,-14.131013,0.753039,0.124974,0.636714
4892995000,-17.607372,-21.044739,-4.277390,0.720359,0.133961,0.777065
4893015044,-20.613199,-32.853191,-3.328985,0.835665,0.119396,0.879724
4893035089,-31.048664,-17.491922,-5.868954,0.873955,0.099849,0.790486
4893055134,-13.711910,-5.831759,-4.832066,0.611218,0.090662,0.315211
4893075178,-30.514111,-45.866577,-7.621290,0.743091,0.141030,0.655264
4893095223,-57.492645,-119.965912,-9.066118,1.063653,0.080008,0.496687
4893115266,-68.282883,-109.463425,-16.588760,1.280335,0.066850,0.174442
4893135311,-43.818672,-14.047609,-10.809995,1.403330,0.012929,0.121249
4893155355,-18.758017,53.154610,13.358583,1.122839,-0.078798,0.406384
4893175400,-14.281209,53.274887,18.961683,0.805036,-0.183693,0.559067
4893195445,6.333464,17.562845,-0.901614,0.726997,-0.169916,0.512679
4893215489,30.937511,-0.200716,-5.972027,0.869055,-0.080926,0.493498
4893235534,52.003860,21.256409,1.456846,0.969396,0.014529,0.437451
4893255579,47.085411,46.411385,1.524102,0.890570,0.089093,0.536773
4893275623,17.163334,62.937763,0.237090,0.727830,0.186876,0.672436
4893295668,-7.052258,48.507378,-5.018302,0.620286,0.284410,0.762254
4893315713,-24.894335,40.371395,-12.659712,0.544354,0.290552,0.848597
4893335757,-25.672676,34.998299,-12.831504,0.417885,0.136844,0.863691
4893355803,-24.764925,-0.789273,-18.838318,0.469750,0.036922,0.844774
4893375847,-31.368477,-17.720177,-23.837849,0.634683,0.032950,0.726196
4893395892,-41.083759,-8.081861,-24.183861,0.651757,0.029977,0.703676
4893415937,-47.002361,-9.751673,-30.322960,0.649741,0.081227,0.764147
4893435981,-59.362228,-18.878399,-33.343067,0.701689,0.148554,0.752135
4893456026,-70.473694,-23.665159,-34.045650,0.758055,0.133605,0.730637
4893476070,-74.396996,-24.706470,-41.594791,0.757045,0.093441,0.696546
4893496136,-79.412384,-33.689331,-48.617622,0.801965,0.062357,0.676737
4893516158,-83.893684,-40.648384,-50.130821,0.865713,-0.009620,0.601228
4893536203,-83.235603,-35.133335,-55.649109,0.851392,-0.058396,0.558917
4893556247,-86.536530,-34.326942,-60.370762,0.841658,-0.080706,0.567498
4893576292,-93.153809,-37.141716,-61.764839,0.882916,-0.121657,0.537364
4893596337,-98.836594,-28.670080,-62.757748,0.881396,-0.135336,0.496040
4893616381,-102.456024,-14.058933,-63.901787,0.844246,-0.120082,0.523867
4893636426,-104.072289,-6.907357,-68.497604,0.821324,-0.110983,0.549390
4893656470,-101.321358,-0.101130,-72.090500,0.825440,-0.113881,0.560551
4893676515,-94.451355,-4.264089,-70.859360,0.835516,-0.160518,0.536701
4893696559,-94.837158,-17.572168,-69.960098,0.878768,-0.215227,0.449155
4893716605,-98.797539,-12.882755,-78.017174,0.880202,-0.208835,0.428446
4893736651,-90.133438,11.876518,-86.685219,0.837309,-0.150965,0.474998
4893756695,-85.013397,11.725017,-75.753983,0.854662,-0.105867,0.606949
4893776740,-108.986343,-2.555871,-69.286819,0.893346,-0.210442,0.698138
4893796784,-87.015282,10.368935,-69.741753,0.990769,-0.426084,0.681237
4893816829,-50.347412,34.127674,-69.230194,0.884631,-0.418755,0.642982
4893836873,-37.197018,43.220600,-72.219337,0.723088,-0.285253,0.678393
4893856918,-31.217369,41.560200,-68.416374,0.608961,-0.164071,0.709426
4893876963,-33.335411,31.730125,-60.894440,0.586600,-0.088868,0.712193
4893897006,-36.957619,23.837448,-57.979492,0.610033,-0.051460,0.676912
4893917050,-39.676369,18.633003,-58.677460,0.662500,-0.013959,0.626365
4893937095,-41.766071,22.336575,-58.177372,0.749729,0.007451,0.578480
4893957140,-24.703074,49.448547,-58.570000,0.828085,-0.019902,0.664314
4893977184,-29.104103,49.949501,-68.524307,0.691834,-0.145790,0.811486
4893997229,-23.776705,25.317009,-55.301270,0.595029,-0.276392,0.717899
4894017273,-10.272450,22.008961,-33.323856,0.644015,-0.191537,0.740682
4894037318,-14.821870,34.093735,-25.925892,0.629998,0.047897,0.803700
4894057363,-24.414318,15.861856,-22.589714,0.612026,0.148074,0.714520
4894077407,-15.274708,8.212943,-44.570396,0.811720,0.048329,0.585788
4894097452,-22.018290,54.661098,-56.812828,0.721639,-0.071185,0.801893
4894117497,-39.406544,51.844677,-65.620728,0.511558,-0.151302,1.010877
4894137543,-44.894623,13.659304,-74.966370,0.451173,0.017938,0.953866
4894157587,-45.846264,-16.283001,-66.954414,0.548943,0.175377,0.753529
4894177632,-45.374996,-29.730146,-52.569595,0.660789,0.085530,0.664043
4894197676,-46.909401,-21.845743,-50.005539,0.717215,-0.060105,0.611668
4894217721,-50.923962,-3.545988,-46.876171,0.730043,-0.101572,0.690038
4894237765,-46.567654,9.032974,-38.960346,0.717224,-0.073944,0.802065
4894257810,-30.015179,17.067123,-40.488998,0.705707,-0.022827,0.812120
4894277855,-22.556982,17.059771,-42.511696,0.704884,-0.014379,0.793745
4894297898,-28.327019,13.937598,-32.918777,0.687658,-0.057700,0.743447
4894317942,-36.714115,1.786206,-27.426378,0.713224,-0.073178,0.661002
4894337987,-38.864044,-16.693142,-36.092518,0.816360,0.001254,0.578199
4894358032,-38.874226,-4.366871,-40.675072,0.886158,0.093249,0.510030
4894378076,-37.365040,31.792679,-31.053207,0.857200,0.136751,0.552797
4894398121,-42.747875,46.162727,-14.021486,0.837980,0.102858,0.653905
4894418166,-63.745289,37.882862,-9.677842,0.827910,0.033370,0.643115
4894438210,-82.694916,44.775055,-15.892728,0.786339,-0.029448,0.594530
4894458255,-59.092350,53.007668,-18.900244,0.780671,-0.002457,0.520975
4894478300,-17.307783,45.041241,-25.132500,0.803842,0.087817,0.546256
4894498344,-19.400591,57.363575,-25.585201,0.778274,0.157505,0.586373
4894518389,-47.923309,81.642120,-8.530175,0.683739,0.087101,0.676671
4894538435,-70.362160,72.191422,9.150027,0.614103,-0.114244,0.889776
4894558480,-71.870415,55.365364,10.457374,0.511476,-0.364302,0.943168
4894578525,-26.359964,47.992111,12.058075,0.422909,-0.496969,1.083824
4894598569,62.488083,25.079578,21.561331,0.279834,-0.359318,1.063434
4894618614,119.907082,15.986561,24.664577,0.155025,-0.026737,1.158014
4894638658,98.166733,0.500990,27.039974,0.136941,0.198600,1.317535
4894658703,35.322739,-14.582000,34.400150,0.130664,0.155153,1.234906
4894678747,17.896088,-23.023930,40.148811,0.152826,-0.030635,1.031296
4894698790,47.876606,-31.829994,37.116116,0.150004,-0.045277,0.767367
4894738880,108.003937,-63.574425,25.592890,0.267170,0.153921,0.870552
4894758924,93.421463,-47.604763,15.861997,0.331668,0.319028,0.903802
4894778969,49.798088,-31.916883,16.684439,0.372120,0.468317,1.031420
4894799013,-13.449539,-29.060436,27.245674,0.320380,0.368363,1.032778
4894819058,-59.053543,-49.943359,32.582195,0.342194,0.088500,1.030057
4894839102,-64.096924,-71.503250,30.218630,0.430180,-0.150902,0.923332
4894859147,-28.141895,-84.663979,22.954187,0.558211,-0.301450,0.831734
4894879192,20.943024,-82.148903,14.142015,0.671738,-0.375449,0.856390
4894899236,50.936424,-54.486900,10.990946,0.716639,-0.260127,0.697713
4894919281,65.694145,-45.141525,14.685726,0.728931,-0.070503,0.634964
4894939327,61.524525,-36.039944,31.400776,0.631339,0.097170,0.662002
4894959372,56.239300,-29.733622,49.978271,0.561656,0.196270,0.719216
4894979416,33.054497,-53.207245,50.208698,0.656944,0.141838,0.776809
4894999461,-20.624023,-55.044506,36.360542,0.644650,0.013575,0.602335
4895019515,-35.615551,-32.523026,25.879999,0.607119,-0.077159,0.647149
4895039550,-1.965234,-37.302841,8.340605,0.670857,-0.033657,0.717906
4895059594,15.070561,-60.970646,-24.732002,0.816758,0.242625,0.786705
4895079664,-28.084751,-48.525757,-51.145496,0.833648,0.470648,0.598122
4895099682,-43.952930,-22.043291,-44.192398,0.736905,0.368508,0.469522
4895119727,-68.927002,-14.374157,-7.706988,0.718939,0.185881,0.655263
4895139771,-99.902969,-31.317665,13.771103,0.698579,-0.015380,0.568007
4895159816,-93.747772,-40.147243,-2.746118,0.646049,-0.122580,0.386328
4895179861,-68.218498,-43.869724,-17.138840,0.817155,-0.155781,0.598620
4895199905,-55.224281,-57.783985,-20.165976,0.994685,-0.173031,0.698297
4895219950,-75.800568,-48.845310,-25.280909,1.060231,-0.317026,0.764697
4895239994,-78.762741,-18.709856,-17.005600,0.970548,-0.518880,0.691233
4895260039,-7.834628,-1.995272,-14.555991,0.797728,-0.586265,0.509166
4895280084,87.685699,-10.436420,-26.715445,0.666110,-0.365465,0.525593
4895300128,138.429810,-27.654221,-35.582630,0.629952,-0.020805,0.570737
4895320174,123.049637,-43.144779,-32.090393,0.681468,0.315050,0.663847
4895340219,13.427399,-47.348633,-7.575880,0.746434,0.475056,0.585795
4895360263,-37.188667,-51.097778,9.019861,0.797151,0.149278,0.546974
4895380308,-26.259451,-46.484715,11.857130,0.865836,-0.099925,0.644674
4895400353,3.031867,-20.154945,2.671395,0.791067,-0.174546,0.521925
4895420398,41.896751,-3.468843,-1.459131,0.718818,-0.120535,0.554092
4895440442,55.024475,-13.296623,6.639177,0.701110,-0.010562,0.709105
4895460486,39.698521,-14.966635,15.740232,0.658890,0.047745,0.378825
4895480530,36.543659,-34.056301,16.978542,0.778113,0.172068,0.106720
4895500574,-14.966597,-78.316780,15.845956,1.250272,0.478814,0.435852
4895520619,-95.292320,-41.782944,7.696719,1.417009,0.367226,0.328100
4895540664,-66.394402,80.864204,0.776991,1.273467,-0.003435,0.524127
4895560708,-62.977608,138.007523,10.143456,0.908417,-0.192947,0.765477
4895600797,1.073084,22.943108,-13.253717,0.462529,-0.121084,0.802870
4895620842,35.644371,-22.682293,-10.969225,0.685250,0.078997,0.681119
4895640886,11.509587,3.144109,-8.317415,0.796333,0.210601,0.590983
4895660931,-50.067352,50.317966,0.467376,0.745988,0.096552,0.662844
4895680976,-79.098473,54.148422,11.610978,0.582073,-0.184068,0.762474
4895701020,-46.578896,34.639763,11.639112,0.477103,-0.428316,0.720113
4895721066,34.233261,17.319000,0.583585,0.493749,-0.438291,0.686448
4895741111,106.709145,6.110645,-6.376108,0.578692,-0.159438,0.732565
4895761156,114.957230,6.278193,-6.698528,0.619293,0.141120,0.776085
4895781200,65.675667,9.210141,-4.213182,0.613705,0.348015,0.794822
4895801244,-4.577580,1.364259,8.567862,0.675603,0.374840,0.825097
4895821289,-39.684334,-17.481140,18.339626,0.799365,0.194328,0.879204
4895841334,-41.841053,-5.700450,13.347422,0.845282,0.005289,0.841496
4895861379,-33.303307,12.068145,8.785604,0.740785,-0.054301,0.931449
4895881421,-23.748526,-0.945913,6.538200,0.561915,-0.031814,0.959820
4895901466,-19.506462,-29.483660,4.170984,0.546243,-0.016301,1.054901
4895921511,-18.212574,-40.481339,7.813006,0.552408,-0.062850,0.972389
4895941555,-4.115827,-32.861217,10.463162,0.426139,-0.076030,0.868148
4895961600,11.394565,-48.030640,9.939576,0.332498,-0.037556,0.851032
4895981645,13.495334,-86.553169,9.068550,0.426751,-0.024909,0.791071
4896001689,7.780813,-100.444382,4.478337,0.581299,-0.032736,0.710234
4896021734,9.823298,-78.088234,-2.932971,0.585216,-0.023799,0.580905
4896041779,22.407063,-65.286064,-6.759284,0.585616,0.030621,0.555786
4896061823,26.332649,-81.904282,-6.110879,0.687242,0.072306,0.542436
4896081867,3.243273,-88.563881,-2.857379,0.801667,0.058247,0.524815
4896101912,-19.349499,-76.457062,2.020122,0.937721,-0.036861,0.451300
4896121958,-11.694328,-69.195473,6.304610,1.103941,-0.180978,0.445055
4896142003,13.645169,-55.050987,3.377224,1.218566,-0.265650,0.421007
4896162048,40.771278,-19.151049,-7.979792,1.233389,-0.194032,0.408507
4896182092,36.100773,7.705557,-9.500650,1.189917,0.008101,0.509219
4896202137,15.404608,6.291539,0.776464,1.034812,0.020454,0.471839
4896222182,16.298256,4.778143,0.588204,0.931066,-0.074500,0.426798
4896242226,20.319241,7.204464,-4.792964,0.921566,-0.073950,0.407605
4896262271,11.022028,6.178236,-6.038674,0.913350,0.016153,0.357364
4896302358,9.549306,25.691042,-4.826904,0.884903,0.037411,0.426266
4896322403,16.723158,32.001083,-4.689797,0.874481,-0.045192,0.466567
4896342448,15.784329,30.587139,-6.974370,0.880360,-0.078684,0.473988
4896362492,14.528936,28.306593,-10.116562,0.900945,-0.015793,0.501934
4896382537,13.027806,30.133064,-7.889856,0.900373,0.062356,0.515943
4896402581,5.446966,31.341953,-4.709374,0.887233,0.109994,0.533207
4896422627,9.638120,26.604366,-1.910641,0.887293,0.068130,0.555859
4896442671,30.077070,24.308218,1.888717,0.867912,-0.053504,0.488529
4896462716,30.484419,28.383282,5.081426,0.839669,-0.070165,0.496017
4896482760,12.829898,18.404766,7.633601,0.907975,0.117652,0.550867
4896502805,7.750041,11.437977,4.669909,0.847492,0.226932,0.372260
4896522851,23.660156,27.364559,8.357250,0.884228,0.131555,0.458169
4896542895,27.961311,37.661819,12.870279,0.937981,0.015774,0.518787
4896562940,11.351880,36.412334,8.176426,0.830377,0.070375,0.408934
4896582984,10.090340,38.922073,9.105539,0.738501,0.091157,0.444782
4896603029,26.169998,32.237095,14.245198,0.786351,0.062355,0.544153
4896623074,13.545369,22.459438,-0.077815,0.852799,0.173846,0.442203
4896643118,-13.270174,30.538422,-2.096779,0.913184,0.252528,0.379356
4896663163,-14.022167,56.935665,13.364408,0.837855,0.075902,0.432251
4896683206,-1.687453,67.802315,14.935586,0.672285,-0.048635,0.604416
4896703251,1.231789,38.242950,3.102319,0.656809,-0.101981,0.758700
4896723295,-0.439100,9.654658,-4.697069,0.792233,-0.028221,0.637445
4896743340,-14.759624,22.989433,-8.271896,0.886719,0.021062,0.638821
4896763384,-11.941634,29.814238,-4.254640,0.869974,-0.001342,0.645074
4896783429,-7.814725,24.604256,-4.121372,0.852720,-0.064660,0.627991
4896803474,-4.600842,27.407084,-2.023159,0.858021,-0.108715,0.598348
4896823518,2.307609,29.546459,2.287134,0.835905,-0.064532,0.585895
4896843563,5.793150,31.124464,2.441757,0.793223,-0.045773,0.620390
4896863608,8.488665,33.289253,4.483603,0.743488,-0.072952,0.604045
4896883652,16.907642,28.523497,3.486508,0.717825,-0.065393,0.625281
4896903697,21.020763,20.514545,-0.651336,0.722066,-0.027331,0.665331
4896923743,21.803633,21.242453,-3.050172,0.695635,0.003499,0.688282
4896943787,22.743866,22.258717,-6.189461,0.698875,-0.004320,0.722967
4896963832,15.464313,19.202147,-5.696515,0.722266,-0.053701,0.712802
4896983877,9.491236,25.678020,-0.110721,0.717019,-0.117193,0.646279
4897003921,20.142033,33.651348,3.868249,0.696032,-0.164309,0.643055
4897023966,45.028370,27.799873,3.324914,0.707621,-0.106124,0.556987
4897044011,66.839798,20.164879,2.745895,0.713609,0.050620,0.523143
4897064054,68.809372,29.027328,6.600128,0.737306,0.196389,0.658770
4897084098,43.193661,35.478912,4.992510,0.856421,0.273384,0.748137
4897104143,22.311485,37.509708,18.673172,0.783133,0.182684,0.886829
4897124188,39.225033,33.884842,35.672848,0.649042,0.008196,0.799341
4897144232,69.265251,10.418617,19.420580,0.635796,0.065382,0.750428
4897164277,26.461805,8.825802,12.253865,0.675388,0.377791,0.791749
4897184321,-3.311025,-9.829709,15.105232,0.692948,0.360445,0.611570
4897204366,-15.888118,-24.055727,13.386722,0.804692,0.374348,0.559739
4897224411,-31.002562,-0.929467,12.254196,0.804829,0.340375,0.451768
4897244455,-32.655491,24.507023,19.198324,0.758832,0.252247,0.561595
4897264499,-37.913872,29.994804,9.314432,0.639765,0.165749,0.669782
4897284544,-34.950367,12.526235,-6.667341,0.648580,0.159926,0.652050
4897304590,-50.069298,-4.232869,-17.803040,0.721083,0.171348,0.604414
4897324635,-69.822647,-3.740831,-26.367382,0.780122,0.083507,0.619227
4897344679,-66.430534,9.629827,-34.428097,0.776391,0.046135,0.649917
4897364724,-61.577488,21.312376,-41.363293,0.781678,0.169652,0.771664
4897384769,-75.511909,18.677408,-45.703049,0.736153,0.196386,0.818818
4897404813,-84.411911,13.332997,-48.379963,0.692835,0.099063,0.848257
4897424857,-87.293457,5.700625,-56.715542,0.636953,0.064444,0.811717
4897444902,-91.090210,-5.882804,-63.912857,0.638319,0.082696,0.779620
4897464945,-96.582802,-15.115813,-70.352806,0.693537,0.050582,0.727118
4897484990,-101.525887,-16.413834,-76.050255,0.699407,0.024856,0.686768
4897505035,-110.659317,-22.133730,-85.931946,0.717431,0.049282,0.660386
4897525080,-113.494789,-25.051977,-90.425079,0.747508,0.020915,0.620143
4897545124,-113.101654,-27.357790,-95.880615,0.756009,-0.030818,0.581756
4897565169,-112.587013,-30.827280,-102.813934,0.760513,-0.028646,0.551362
4897585213,-116.014206,-30.804029,-108.371887,0.816768,0.039690,0.536550
4897605258,-125.077866,-23.926792,-111.965683,0.853276,0.078803,0.524294
4897645347,-124.054466,-18.809866,-123.169647,0.839958,0.076750,0.490345
4897665391,-125.807816,-17.493372,-123.043175,0.890709,0.081820,0.489764
4897685436,-137.293472,-17.009359,-116.731422,0.948396,0.107033,0.490341
4897705482,-147.454636,-12.174741,-118.059853,0.984993,0.137130,0.467144
4897725527,-156.404388,-3.722818,-118.456322,1.014952,0.117871,0.475533
4897745571,-160.745285,3.876018,-114.042091,1.026249,0.019187,0.493001
4897765616,-150.941589,6.193302,-114.180382,1.024085,-0.113496,0.521302
4897785660,-142.362488,19.978556,-119.942451,0.944123,-0.196347,0.559732
4897805705,-117.805267,40.148968,-127.539558,0.839437,-0.177888,0.600786
4897845794,-102.176910,24.292892,-116.734985,0.774119,0.049100,0.689389
4897865838,-116.055061,15.828465,-103.524712,0.755222,0.015907,0.636810
4897885882,-113.261154,11.298354,-98.391891,0.767763,-0.017431,0.528925
4897905927,-121.246475,18.344391,-96.409904,0.808358,-0.021882,0.639695
4897925971,-126.280952,28.710577,-91.779648,0.800337,-0.057501,0.652040
4897946016,-125.875946,34.945293,-86.250153,0.743283,-0.096607,0.647940
4897966061,-121.247406,37.831451,-82.052597,0.689785,-0.120181,0.655665
4897986106,-109.892052,32.699509,-80.435928,0.679107,-0.100394,0.634301
4898006150,-101.854485,25.432940,-82.562851,0.742433,-0.061273,0.728490
4898026194,-112.965164,30.469652,-75.793556,0.774647,-0.072199,0.809299
4898046239,-123.185104,48.217651,-60.838219,0.692859,-0.194953,0.785223
4898066284,-119.967995,56.608864,-54.585724,0.557495,-0.332904,0.829985
4898086328,-102.573929,50.746449,-60.038738,0.427696,-0.459532,0.838731
4898106375,-66.801582,28.062428,-66.789963,0.365706,-0.506842,0.774483
4898126419,-11.375611,1.877131,-63.769554,0.406483,-0.430229,0.762768
4898146464,26.786133,-2.972315,-58.557156,0.487868,-0.266454,0.810537
4898166508,29.163935,4.111328,-54.460579,0.530162,-0.093552,0.866959
4898186552,12.461137,-0.460420,-44.165390,0.555835,0.007987,0.929402
4898206597,-5.724121,-12.381865,-36.312592,0.544850,0.065085,0.885604
4898226642,-25.133554,-28.256474,-32.583405,0.569263,0.095419,0.882437
4898246686,-28.266056,-47.406101,-29.440634,0.630475,-0.013476,0.752041
4898266730,-10.702487,-62.212494,-30.026016,0.779008,-0.083869,0.705454
4898286774,6.907595,-70.673599,-33.413670,0.947051,-0.116995,0.595971
4898306819,9.575329,-60.124020,-28.713131,1.066280,-0.167849,0.480361
4898326864,15.950352,-25.815231,-18.189777,1.047949,-0.200838,0.394462
4898346908,44.882282,4.061163,-17.647547,0.932386,-0.116304,0.284941
4898366953,66.054642,3.694464,-31.789108,1.001556,0.175712,0.390924
4898386998,32.546692,63.525055,-33.173367,1.120990,0.288980,0.541995
4898407043,45.752579,111.824524,-14.449761,0.575637,0.038363,0.434014
4898427087,43.642212,87.040009,18.196156,0.431500,-0.059981,0.491495
4898447132,60.914890,56.030251,36.811195,0.495876,0.135536,0.781967
4898467176,44.842815,18.344246,19.006111,0.770667,0.185459,0.553401
4898487221,62.393471,79.168526,26.691359,0.742299,0.029150,0.575971
4898507267,46.000256,81.607483,27.089001,0.414192,-0.041612,1.050595
4898527311,37.018627,18.490774,8.720316,0.472379,0.125528,1.099624
4898547356,18.695671,-8.788837,5.755472,0.639560,0.293619,0.789633
4898567400,-1.150928,6.893151,5.344296,0.730219,0.370462,0.799493
4898587445,-6.540769,8.666647,0.645364,0.770853,0.276344,0.840900
4898607489,-3.588382,7.073494,-3.916271,0.743483,0.173859,0.820150
4898627534,-7.834819,-0.386495,-3.411944,0.652456,0.050667,0.804569
4898647592,-7.943581,-18.926168,-7.111310,0.664580,-0.017033,0.759421
4898667622,-7.218425,-32.724133,-11.712894,0.739993,-0.020928,0.617520
4898687666,-6.743333,-32.185471,-12.989303,0.832703,0.016098,0.522021
4898707711,-12.781984,-17.319851,-10.671568,0.883802,0.066033,0.498493
4898727756,-12.703798,-2.215842,-7.364870,0.844299,0.095576,0.555774
4898747800,-10.600535,-2.315866,-6.032464,0.827060,0.109721,0.622449
4898767845,-12.881361,-4.358041,-5.053140,0.830749,0.115591,0.634809
4898787889,-10.571855,-2.695148,-4.310590,0.849999,0.110000,0.632811
4898807935,-6.236589,0.221145,-1.276413,0.866702,0.064170,0.620747
4898827979,-6.780900,7.929221,-0.167256,0.828866,0.028543,0.608110
4898848023,-3.088446,13.040802,-1.274579,0.781779,0.072280,0.620788
4898868068,-8.589684,12.141638,-0.012622,0.782355,0.145884,0.626376
4898888113,-14.543278,11.721159,0.025804,0.777985,0.156182,0.641919
4898908158,-6.748924,14.464566,-2.885793,0.754982,0.125183,0.656938
4898928203,-1.009040,14.278108,-0.857449,0.748850,0.114907,0.647782
4898948248,-8.539216,13.486301,-1.377956,0.745807,0.114282,0.655959
4898968292,-14.770657,12.829100,-4.308311,0.765740,0.108669,0.639672
4898988337,-16.963791,18.608557,-2.019089,0.761092,0.090725,0.644885
4899008382,-15.775941,26.741434,0.546717,0.733396,0.085121,0.644638
4899028426,-13.742930,26.426682,-2.485418,0.746196,0.098962,0.693781
4899048475,-21.981323,25.513765,-3.251784,0.762132,0.082336,0.709330
4899068514,-43.371475,28.613029,2.310659,0.730361,0.001598,0.736532
4899088559,-50.005009,26.504858,0.298954,0.657533,-0.123525,0.806317
4899108603,-37.822998,16.158508,-14.068971,0.642518,-0.201524,0.793377
4899128648,-29.484055,6.749724,-29.848175,0.668223,-0.141222,0.776770
4899148692,-23.007334,7.301862,-40.304947,0.659737,0.030445,0.746794
4899168737,-14.564340,7.864964,-39.547440,0.652743,0.218305,0.665073
4899188781,-18.275537,6.275843,-31.084030,0.674269,0.424107,0.551911
4899208826,-51.176849,6.692718,-12.418739,0.658712,0.437520,0.771923
4899228871,-169.386444,-2.039008,17.254915,0.582348,-0.186843,1.145887
4899248916,-245.367508,-25.689426,46.801739,0.359410,-0.936523,0.997856
4899268960,-88.958870,-44.083187,42.785915,0.230516,-1.417724,0.854487
4899289005,184.930161,-82.586525,15.109657,0.442451,-1.034380,0.562621
4899309051,322.874237,-84.319420,9.772174,0.674391,-0.310291,0.745435
4899329095,316.748779,-65.180733,15.194798,0.753834,0.378321,0.888278
4899349140,199.103638,-27.468204,21.127312,0.636792,0.808947,0.816405
4899369184,69.649818,-4.005994,23.499439,0.425851,0.866110,0.683106
4899389229,-19.668926,-34.564419,29.797365,0.318199,0.668314,0.829624
4899409274,-56.609375,-72.052078,24.188999,0.354504,0.353029,0.812461
4899429318,-44.912411,-82.732193,10.381245,0.510045,0.118522,0.665492
4899449374,-22.784389,-75.738701,4.079864,0.681228,0.017675,0.639806
4899469406,-5.360131,-61.023335,4.671331,0.798445,-0.041346,0.688219
4899489451,12.800184,-51.668808,1.475931,0.841131,-0.052627,0.628990
4899509495,26.020945,-45.647526,-3.522074,0.833497,-0.039397,0.652315
4899529540,26.817678,-43.245300,-1.092599,0.817040,-0.031818,0.645213
4899549585,21.145418,-49.129738,1.569530,0.825062,0.025814,0.588530
4899569629,6.913582,-55.100540,-1.408735,0.859527,0.139523,0.550151
4899589674,-1.067331,-40.271656,-0.005507,0.885668,0.140146,0.501628
4899609718,15.044632,-8.373738,9.097033,0.815561,0.103831,0.515891
4899629763,13.372596,-15.509539,8.674737,0.789947,0.099479,0.554161
4899649808,15.846476,-13.586963,12.524047,0.815253,0.054775,0.564274
4899669853,16.568678,-5.356018,12.556437,0.740209,0.031147,0.582950
4899689898,22.558563,-11.533551,11.236478,0.736826,0.039205,0.593420
4899709943,25.418236,-10.638310,13.072571,0.745009,0.077577,0.571403
4899729988,22.185410,-3.846160,17.364799,0.758126,0.071765,0.576463
4899750032,23.885582,-4.879637,21.100943,0.771941,0.055418,0.601008
4899770077,22.648312,-9.606744,19.895969,0.805224,0.099586,0.650415
4899790121,15.647295,-11.730999,15.228313,0.801937,0.159668,0.606558
4899810166,12.737370,-10.035467,10.937065,0.838197,0.204567,0.612188
4899830211,10.776524,-11.334934,7.746027,0.877418,0.195414,0.562657
4899850256,8.292438,-3.830483,8.672173,0.883878,0.141322,0.496688
4899870299,4.085150,8.123913,14.140211,0.893299,0.125019,0.555889
4899890343,2.260136,11.172668,12.589570,0.886006,0.160950,0.630104
4899910388,0.499892,7.833230,3.167154,0.848419,0.157188,0.624489
4899930432,-13.409374,8.733880,1.741669,0.827208,0.128988,0.576769
4899950477,-19.206776,16.078688,13.107581,0.824532,0.087968,0.546952
4899970521,-22.111219,22.529669,19.942123,0.812008,0.033784,0.516899
4899990566,-31.007580,29.990992,14.083865,0.817598,-0.003531,0.512058
4900010611,-25.346590,40.823792,12.079936,0.810384,-0.043016,0.483288
4900030656,-2.041971,54.585503,16.017363,0.824108,-0.090138,0.513094
4900050700,23.526293,58.520752,10.180067,0.854525,-0.104938,0.483757
4900070745,38.679920,67.371414,-3.687893,0.842570,0.026368,0.475212
4900090791,29.393234,87.452591,-4.298467,0.822808,0.254758,0.574879
4900110836,9.464205,97.007759,10.502900,0.787724,0.468225,0.696772
4900130880,-30.354076,96.639984,12.004613,0.672748,0.443242,0.910640
4900150925,-98.340424,95.463776,3.979258,0.544320,0.162826,1.086367
4900170969,-116.439301,77.068192,15.654280,0.458041,-0.179845,1.087472
4900191014,-70.388321,58.553440,20.781025,0.392296,-0.426686,0.994981
4900211059,12.824729,49.867844,-0.806705,0.325027,-0.351177,1.047491
4900231103,57.863991,45.645027,-8.644439,0.270467,-0.025493,1.090655
4900251146,31.262234,41.399162,-2.532285,0.149100,0.164860,1.128530
4900271191,-21.036312,23.926815,2.090514,0.066582,0.149188,1.097557
4900291235,-39.322372,0.784523,4.827580,0.075727,0.019489,0.995358
4900311280,-22.154730,-5.213387,1.867618,0.095339,-0.035883,0.943426
4900331325,-11.958908,-9.152643,-0.103787,0.081252,0.002930,0.961212
4900351369,-21.933081,-22.444098,2.445962,0.085392,0.012831,0.964802
4900371414,-30.550741,-32.612232,6.338415,0.217398,-0.022271,0.885481
4900391458,-34.211395,-39.227383,10.524708,0.386100,-0.077611,0.869144
4900411503,-37.406494,-30.817600,11.973494,0.461602,-0.150560,0.847081
4900431547,-23.220179,-29.264502,11.109045,0.481026,-0.164727,0.894683
4900451592,-10.163128,-38.732235,8.473375,0.535639,-0.126218,0.974519
4900471637,-14.289892,-42.445324,8.660892,0.660165,-0.131495,0.944244
4900491683,-17.161474,-35.556931,7.952658,0.711184,-0.186577,0.934055
4900511727,-6.616869,-28.073423,4.253664,0.693715,-0.219510,0.920178
4900531772,1.032502,-27.168924,2.083891,0.638310,-0.210908,0.898307
4900551817,4.270187,-26.905882,1.670286,0.595420,-0.188107,0.873861
4900571861,8.154309,-24.720818,0.389039,0.522219,-0.147767,0.829565
4900591906,6.546080,-25.830267,-2.134474,0.461031,-0.107050,0.849085
4900611950,-1.503506,-31.942146,-2.737388,0.431379,-0.099953,0.861374
4900631995,-7.790798,-33.000561,-2.177756,0.401038,-0.124396,0.835042
4900652038,-5.167315,-37.660984,0.191062,0.365217,-0.139239,0.826345
4900672083,0.795209,-54.798672,-1.064997,0.378985,-0.128160,0.873788
4900692127,-1.633516,-72.538567,-5.440597,0.495725,-0.164918,0.886052
4900712172,-2.153394,-70.568504,-3.152984,0.591098,-0.255273,0.843155
4900732217,23.571781,-69.485573,3.619494,0.613987,-0.295757,0.801776
4900752261,52.570530,-76.974472,3.678495,0.666025,-0.260171,0.762896
4900792350,49.825581,-74.940094,-7.356530,0.786611,-0.057539,0.668601
4900812395,45.047440,-66.307877,-4.455959,0.810786,0.002408,0.587526
4900832440,37.314030,-58.485931,-0.587295,0.815825,0.010606,0.559363
4900852484,21.173527,-51.784801,-3.745746,0.835580,-0.065562,0.568967
4900872529,17.608896,-50.075409,-12.260140,0.862050,-0.178450,0.482325
4900892575,37.606918,-49.236366,-17.929909,0.927616,-0.213168,0.431650
4900912620,62.701946,-37.895847,-19.824301,1.035342,-0.138810,0.423356
4900932664,65.835457,-17.595945,-17.269678,1.112477,-0.024001,0.498630
4900952709,42.657135,2.902521,-12.456568,1.050860,0.039031,0.552105
4900972758,24.504086,10.185871,-9.337899,0.906608,-0.027424,0.531479
4901012843,27.456253,-0.110924,-15.773023,0.853464,0.035626,0.529660
4901032907,24.088411,5.436216,-8.408407,0.888377,0.055702,0.503983
4901052931,27.093636,14.778510,-0.357270,0.842620,-0.001486,0.506397
4901072975,24.309134,14.513824,-2.720197,0.802514,0.018118,0.536989
4901093020,7.840388,10.203148,-2.947913,0.788937,0.128002,0.512857
4901113065,0.254925,6.114957,1.555578,0.832111,0.164369,0.512872
4901133109,16.969761,1.762829,6.665307,0.918194,0.036067,0.497990
4901153154,20.384840,11.603525,8.313462,0.932991,-0.040790,0.402771
4901173198,10.840976,25.962095,8.792068,0.875002,0.016106,0.434745
4901193243,6.605658,21.497444,10.779045,0.820485,0.046813,0.433001
4901213288,8.942554,12.184221,10.000485,0.838476,0.049227,0.375846
4901233332,4.484368,12.704457,8.975232,0.874316,0.007726,0.384280
4901253377,9.650426,24.168314,6.471694,0.880494,-0.048482,0.452890
4901273423,17.167322,44.071579,14.303034,0.820399,-0.006575,0.562998
4901293467,5.196926,27.832008,15.141521,0.776574,0.092399,0.656183
4901313512,10.643523,7.325814,9.793961,0.842156,0.018536,0.738665
4901333557,31.336842,5.499201,10.292204,0.797033,-0.090622,0.653928
4901353601,40.066643,2.901501,14.006401,0.792791,-0.113213,0.597636
4901373646,35.461292,-2.870475,15.281332,0.854053,-0.036579,0.593354
4901393691,47.446209,4.790570,20.362640,0.917200,-0.009171,0.493349
4901413735,62.752335,26.029913,22.617350,0.937863,0.074275,0.276671
4901433778,59.457569,39.389763,11.507268,0.837077,0.110378,0.345013
4901453823,43.273010,45.894043,26.800852,0.701042,0.051641,0.637576
4901473867,30.462849,18.627262,45.970592,0.649488,0.009219,0.552423
4901493912,21.279833,-33.087540,29.146801,0.854390,0.173539,0.541092
4901513956,-2.891812,-31.336668,5.736611,1.108427,0.358978,0.563814
4901534001,-8.261692,29.472725,3.937610,1.102722,0.242584,0.405314
4901554046,-19.076218,74.247391,31.472624,0.959780,0.052109,0.533031
4901574090,-32.084476,68.208481,48.345936,0.756252,-0.067130,0.628672
4901594135,-15.959832,30.766321,26.164648,0.635484,-0.055676,0.538381
4901614180,2.196434,12.887068,5.031087,0.690102,0.054899,0.624268
4901634224,-12.625526,28.960676,6.218949,0.700239,0.162025,0.696020
4901654269,-43.147888,31.424854,1.780624,0.735576,0.080025,0.850821
4901674315,-68.726471,12.258493,-7.741323,0.729934,-0.242544,0.948948
4901694359,-63.306820,16.052406,22.054403,0.560164,-0.546982,0.582492
4901714404,2.350260,-16.658379,35.591969,0.617984,-0.690938,0.387719
4901734449,101.921516,-37.005600,6.842924,0.795969,-0.430156,0.359553
4901754494,155.806686,4.806271,9.894665,0.841475,0.003172,0.542677
4901774538,48.004128,54.186188,35.373032,0.759641,0.481992,0.902214
4901794583,-28.103098,6.148979,39.514008,0.526058,0.111911,0.616772
4901814627,-26.692345,-44.046288,24.771154,0.702130,-0.030822,0.783572
4901834670,-19.815361,-29.453560,2.901069,0.869260,0.028795,0.575627
4901854715,-37.009815,-7.275515,-14.898682,0.913330,0.254476,0.597211
4901874759,-58.072521,-16.408344,-31.260262,0.880480,0.307607,0.589522
4901894804,-67.230896,-29.541153,-46.132343,0.913387,0.193026,0.534170
4901914849,-84.478012,-28.526361,-53.657455,0.974407,0.117805,0.470595
4901934893,-96.375786,-19.620226,-63.752693,0.959392,0.210848,0.422010
4901954938,-98.807648,-9.616349,-82.233101,0.909005,0.312088,0.412157
4901974982,-101.341255,-11.113197,-85.998558,0.912535,0.167184,0.401361
4901995027,-111.654831,-16.350838,-90.576935,0.932490,0.093776,0.389730
4902015072,-126.563095,-5.076974,-97.764000,0.932900,0.215848,0.378073
4902035116,-128.765732,4.469597,-101.763367,0.909849,0.252330,0.395358
4902055161,-120.468536,6.018743,-105.820419,0.840914,0.140180,0.389133
4902075207,-120.097977,-0.345820,-111.271950,0.846568,0.082587,0.416599
4902095252,-128.102325,-16.161774,-107.325531,0.952343,0.154329,0.408131
4902115296,-140.960403,-18.664371,-102.607895,1.058313,0.244498,0.363913
4902135341,-145.465729,-3.579989,-101.033478,1.100558,0.241479,0.336660
4902155386,-143.140182,13.847026,-99.643166,1.065584,0.155662,0.373348
4902175430,-144.528702,13.786864,-100.874237,1.008086,0.066760,0.428380
4902195475,-149.874374,7.802414,-100.248611,0.981711,0.038263,0.454552
4902215521,-148.743195,6.883559,-96.249191,0.993420,0.028047,0.452810
4902235563,-139.324341,14.363078,-94.103935,0.964604,0.012348,0.416038
4902255607,-127.583183,24.348688,-92.253113,0.945613,0.000051,0.428474
4902275652,-113.759300,31.733570,-89.273056,0.882724,-0.022713,0.440676
4902295697,-104.651367,38.703415,-88.671448,0.839209,-0.019287,0.496049
4902315741,-102.328796,27.575937,-84.359161,0.805897,-0.048244,0.494861
4902335786,-107.712799,9.027549,-83.782303,0.808140,-0.059544,0.512542
4902355830,-108.606125,5.370925,-87.017387,0.865002,-0.058557,0.577318
4902375875,-95.905098,6.963878,-86.628708,0.887150,-0.038016,0.526690
4902395919,-88.795830,11.191393,-86.481514,0.883277,0.006842,0.569355
4902415964,-95.876297,16.199213,-85.487297,0.860581,0.034039,0.576795
4902436009,-99.959091,13.480466,-88.203621,0.822180,0.042636,0.539024
4902456055,-107.972687,11.304626,-91.217918,0.829221,0.045322,0.571920
4902476099,-115.772820,13.103874,-93.993813,0.813556,0.014832,0.546656
4902496144,-117.292519,16.220001,-97.253357,0.792804,-0.023152,0.595982
4902516188,-111.090393,16.501402,-101.834068,0.774557,-0.037262,0.623916
4902536233,-103.591789,11.005980,-104.590866,0.792858,-0.016497,0.608583
4902556278,-104.983353,8.134710,-103.282372,0.821642,0.015524,0.670803
4902576322,-110.647598,12.663715,-99.517868,0.804060,0.002918,0.668867
4902596367,-102.218193,9.826244,-88.731369,0.767331,0.058461,0.546231
4902616410,-98.623260,-2.560760,-77.129311,0.808959,0.271891,0.507810
4902636455,-144.876755,-8.368779,-83.846588,0.894864,0.425907,0.439064
4902656499,-170.263870,4.625453,-88.456139,0.879627,0.207194,0.494839
4902676544,-134.869263,25.757896,-65.694527,0.796166,-0.095188,0.563370
4902696589,-106.315819,31.066168,-54.955746,0.790911,-0.283720,0.540124
4902716633,-90.971741,28.021095,-53.059280,0.777431,-0.412452,0.561846
4902736678,-62.860912,36.012024,-44.033756,0.647553,-0.449770,0.565758
4902756723,-15.686989,30.750589,-41.853577,0.555030,-0.361823,0.646933
4902776767,17.546949,-1.133581,-43.959961,0.629977,-0.152957,0.714040
4902796812,-11.280787,-7.135404,-42.560043,0.796514,0.161347,0.826104
4902816856,-72.125381,6.349209,-38.937073,0.844715,0.240030,0.613035
4902836901,-67.330193,7.055124,-31.866638,0.886203,0.072026,0.713144
4902856947,-46.510654,15.541762,-33.108467,0.920417,-0.090586,0.662295
4902876991,-32.336735,34.915886,-39.771957,0.899006,-0.179000,0.608150
4902897036,-14.918879,51.715340,-35.876068,0.815107,-0.160453,0.591269
4902917081,6.801846,47.784824,-30.111855,0.790860,-0.086933,0.634460
4902937125,9.202172,54.181801,-31.743765,0.734081,-0.137582,0.748542
4902957170,-0.641469,79.918327,-15.633256,0.403024,-0.167384,0.594416
4902977215,19.652336,45.670902,9.262012,0.361277,-0.181043,0.761200
4902997259,44.596375,-14.603712,4.038726,0.632873,-0.016639,0.785863
4903017303,13.118826,19.631966,-0.925121,0.784988,0.088857,0.575153
4903037348,27.950909,83.573288,20.071951,0.642056,-0.051956,0.749803
4903057392,36.314301,68.949524,19.183641,0.419003,0.005243,1.122532
4903077437,38.420540,9.766207,13.684945,0.457467,0.184680,0.954083
4903097481,18.615940,-11.488172,20.035322,0.603537,0.261001,0.793280
4903117526,4.177338,-3.290734,17.860405,0.704038,0.155417,0.760471
4903137570,6.272500,4.755376,15.162713,0.728042,0.125210,0.843200
4903157615,5.708506,2.066533,18.079767,0.714812,0.120527,0.911608
4903177659,6.859304,-3.948583,13.711348,0.697155,0.113960,0.874842
4903197704,3.365115,-11.092810,7.970224,0.689401,0.120849,0.765748
4903217748,-6.395052,-21.717945,7.544677,0.719945,0.114653,0.678711
4903237793,-13.795157,-27.337864,3.569031,0.775241,0.069500,0.601098
4903257839,-13.757394,-21.838013,-3.117705,0.810828,0.036051,0.525339
4903277883,-14.114532,-10.299616,-2.607831,0.809696,0.024690,0.515318
4903297928,-16.538393,-1.805612,1.676587,0.788389,0.016002,0.555294
4903317973,-11.116907,-1.254579,3.592400,0.781776,0.005933,0.611321
4903338018,-8.225638,6.458026,4.469518,0.787965,-0.008600,0.606297
4903358062,-11.952163,9.124375,10.864466,0.816493,-0.008193,0.608232
4903378107,-15.480730,19.875978,13.463957,0.851753,-0.003999,0.630851
4903398150,-14.156425,41.134056,13.631781,0.821787,-0.004312,0.651302
4903418195,-9.822569,49.933647,17.467945,0.779557,-0.017057,0.717288
4903438239,-14.005640,45.311058,23.263819,0.733806,-0.072470,0.725606
4903458284,-20.784212,36.620361,20.261452,0.698644,-0.099896,0.768002
4903478329,-19.438822,32.434280,10.221800,0.682518,-0.084758,0.747911
4903498373,-16.926800,30.869278,-0.179719,0.645792,-0.058299,0.750247
4903518418,-18.720539,24.165823,-2.818413,0.628162,-0.058005,0.791996
4903538462,-14.414759,13.436548,-4.974406,0.647535,-0.062001,0.758758
4903558507,-15.456709,10.182309,-9.496226,0.672203,-0.068877,0.766733
4903578552,-22.095737,16.633625,-9.070508,0.632499,-0.095165,0.780772
4903598596,-23.001945,16.208685,-9.253616,0.568262,-0.124309,0.815414
4903618641,-18.391804,9.482982,-15.255348,0.549015,-0.089079,0.806333
4903638687,-10.921190,5.817441,-22.241812,0.552848,0.004287,0.878426
4903658731,-17.021324,6.476806,-21.273853,0.522892,0.069222,0.957881
4903678776,-31.015705,-2.383831,-10.439233,0.460203,0.026915,0.878200
4903698820,-36.254555,-25.653477,4.547177,0.467183,-0.118294,0.870163
4903718865,-51.237667,-25.276850,18.839348,0.504918,-0.426326,1.063355
4903738910,-50.463371,-16.287479,32.172169,0.438820,-0.751526,0.988624
4903758954,29.577976,-16.326275,32.015614,0.338613,-0.915187,0.842661
4903778999,151.704514,-28.344467,26.633907,0.315817,-0.702987,0.765722
4903799043,229.367767,-43.393658,24.102396,0.345161,-0.255973,0.679123
4903819087,237.083099,-60.974907,20.166916,0.400281,0.112491,0.788287
4903839131,193.216782,-75.057671,23.365801,0.555598,0.514490,0.838727
4903859176,131.446991,-69.139740,33.219543,0.672782,0.808487,0.789813
4903879221,47.263092,-37.531181,34.467426,0.605517,0.852619,0.815179
4903899266,-26.533873,-30.320875,21.877247,0.471666,0.638037,0.843559
4903919310,-60.956913,-60.417625,10.970735,0.471443,0.343919,0.828595
4903939355,-52.183773,-83.682854,12.014882,0.565439,0.105919,0.701326
4903959399,-12.982088,-79.096275,10.285357,0.652898,-0.001043,0.665155
4903979444,19.228725,-58.917561,2.058196,0.685765,-0.014067,0.646930
4903999488,28.003181,-55.476864,-3.352758,0.689218,0.035377,0.670856
4904019533,18.751511,-69.202057,-0.533879,0.729496,0.077109,0.688104
4904039579,2.705567,-75.966141,3.625621,0.797005,0.065088,0.615951
4904059624,-3.841090,-69.728439,2.458609,0.865795,0.067398,0.548880
4904079668,5.643358,-52.530125,-0.791963,0.887187,0.124418,0.498309
4904099713,17.729208,-33.493137,-0.605512,0.869695,0.228157,0.473562
4904119760,7.607738,-24.254004,6.365532,0.846570,0.275692,0.506232
4904139802,-6.839531,-27.080210,15.171450,0.820349,0.186435,0.526807
4904159847,-8.565614,-28.163618,19.611937,0.856731,0.087199,0.507589
4904179891,1.713576,-19.104990,19.326487,0.899430,0.100612,0.496865
4904199935,2.728195,0.762066,18.698080,0.857023,0.160382,0.542494
4904219979,6.377915,6.089498,24.226416,0.778968,0.109612,0.583587
4904240024,11.522023,-4.500778,28.516560,0.768695,0.032029,0.599994
4904260068,14.406033,-7.196630,22.501396,0.823872,0.012585,0.559678
4904280113,17.564587,5.993904,19.074568,0.809839,0.036812,0.552729
4904300158,15.260262,9.195914,19.355848,0.770651,0.030914,0.638711
4904320202,12.481674,-0.872657,19.249542,0.789260,-0.029550,0.649179
4904340247,18.808073,-5.074492,17.506128,0.830552,-0.039687,0.631446
4904360292,32.912895,4.154878,15.522778,0.801554,0.042148,0.630013
4904380336,31.763771,7.744292,17.501331,0.764520,0.118140,0.635761
4904400380,5.908410,-5.754601,18.420834,0.799329,0.129749,0.661594
4904420425,-13.648548,-9.653338,15.610950,0.836179,0.050279,0.640942
4904440471,-11.042069,6.091301,11.728840,0.769233,-0.024517,0.635516
4904460516,-0.046908,13.476770,10.593849,0.692293,-0.068905,0.641330
4904480560,16.852306,-1.185006,9.175414,0.699939,-0.071263,0.521044
4904520653,30.543392,-1.044625,-7.240463,0.908445,0.033076,0.455244
4904540694,5.390155,23.735825,-0.016495,1.009630,-0.006037,0.362621
4904560739,-4.820939,39.140762,10.408113,1.131926,-0.006611,0.309984
4904580808,8.284473,75.284233,6.601442,1.165720,0.043163,0.366632
4904600827,18.805920,128.364334,2.920462,0.977239,0.092129,0.581264
4904620871,20.051718,143.711044,7.261685,0.676784,0.099002,0.794333
4904640916,1.123194,112.328773,6.956531,0.452562,0.070113,0.923037
4904660960,-12.078984,74.516930,2.133991,0.412737,0.031324,0.947830
4904681005,-2.766767,58.449253,3.532879,0.456745,-0.016816,0.937623
4904701050,13.879728,53.676548,2.884097,0.462945,0.006159,0.925461
4904721094,18.465391,48.471375,-2.288491,0.406662,0.044132,0.966526
4904741139,10.834639,39.903816,-3.532232,0.395003,0.016697,0.955924
4904761184,14.043386,35.195477,-5.167460,0.399252,-0.020963,0.913384
4904781228,24.344824,38.978474,-7.063174,0.331532,0.018301,0.945432
4904801273,26.864672,32.463402,-5.065104,0.269606,0.110500,0.997298
4904821317,17.663465,23.138590,-3.081167,0.220456,0.187889,1.007408
4904841363,8.227290,13.539599,-2.771195,0.218508,0.212393,1.013109
4904861408,1.504133,4.105306,-2.847857,0.250295,0.169523,1.000403
4904881452,-1.238864,-0.073415,-4.415099,0.273029,0.104138,0.981989
4904901497,3.687939,-6.348664,-5.345900,0.296556,0.098211,0.980207
4904921541,6.337104,-12.325204,-5.581491,0.361900,0.127896,0.972154
4904941586,4.650270,-13.296311,-4.859138,0.420535,0.164433,0.927032
4904961631,-1.973614,-10.827819,-4.536427,0.423029,0.171663,0.948568
4904981681,-8.197710,-13.064761,-4.783705,0.421401,0.127555,0.947554
4905001718,-4.457418,-16.898846,-5.014452,0.470829,0.123336,0.920546
4905021763,-3.203049,-12.195225,-5.295157,0.484331,0.148150,0.912974
4905041808,-5.327370,-12.238459,-4.105610,0.440089,0.128177,0.921192
4905061852,-3.330591,-18.532528,-1.814244,0.425825,0.110749,0.914767
4905081897,-4.038819,-20.210543,0.676337,0.413870,0.115842,0.913454
4905101941,-4.825362,-24.373655,3.756477,0.413224,0.146271,0.909283
4905121986,-14.092653,-28.378796,3.808462,0.421811,0.157843,0.926094
4905142031,-23.369305,-34.321899,4.327068,0.442835,0.085698,0.927480
4905162076,-16.844509,-41.380161,6.134961,0.478318,0.039452,0.884329
4905182120,-1.387800,-43.788078,5.363554,0.472535,0.044018,0.973745
4905202164,-0.965882,-50.584248,3.622155,0.431448,0.059136,0.949649
4905222211,0.008144,-70.271935,1.309720,0.464065,0.085316,0.956226
4905242255,-1.275889,-79.370392,-2.092448,0.540476,0.086485,0.923361
4905262300,0.010991,-78.034737,-4.198608,0.547705,0.081923,0.837597
4905282344,0.518241,-83.911293,-5.933913,0.548072,0.079673,0.742112
4905302389,-3.286659,-96.031609,-7.036026,0.612091,0.072290,0.698666
4905322433,-9.123960,-97.220345,-8.033854,0.676428,0.052855,0.615991
4905342478,-7.886295,-87.311531,-11.199067,0.698987,0.037609,0.534160
4905362523,6.263228,-80.081749,-14.460746,0.744109,0.045773,0.483710
4905382566,14.656629,-76.281883,-16.296137,0.842439,0.028724,0.498043
4905402611,14.919388,-73.393967,-16.559904,1.002351,0.013100,0.471754
4905422655,19.555544,-62.839462,-14.038062,1.144595,0.048178,0.410957
4905442700,14.458252,-31.975208,-11.765527,1.216727,0.128825,0.416736
4905462745,4.218898,1.536750,-13.432819,1.142989,0.235202,0.463482
4905482789,-3.243695,21.585894,-14.179243,0.972756,0.337501,0.540330
4905502834,-24.556339,21.043520,-10.472816,0.843428,0.334991,0.555521
4905522878,-40.136665,7.044053,-4.359760,0.832354,0.229873,0.557309
4905542943,-40.275040,4.293135,-3.441903,0.883079,0.140907,0.488128
4905562967,-33.756668,21.114841,-4.780039,0.877279,0.099524,0.464573
4905583012,-29.250256,38.152287,-3.497497,0.796081,0.087073,0.490668
4905603057,-27.783138,38.135796,-3.546821,0.739820,0.057156,0.535753
4905623103,-26.863613,25.486530,-5.575997,0.785904,0.023113,0.537645
4905643147,-21.640404,21.763393,-9.749259,0.872986,0.027913,0.462038
4905663192,-14.763245,36.214958,-7.575871,0.939235,0.051618,0.485997
4905683236,-8.767518,47.362656,-1.697728,0.936610,0.072505,0.544530
4905703281,1.459655,52.172695,-1.628323,0.870120,0.052540,0.470372
4905723326,6.041078,57.847572,0.837604,0.834575,0.030765,0.486771
4905743370,0.640748,50.616756,1.685767,0.868124,0.060792,0.560423
4905763415,1.236377,53.806355,-3.144197,0.887667,0.089667,0.421849
4905783458,7.787590,78.973877,-3.850539,0.785851,0.142661,0.403733
4905803503,9.216002,85.183662,-1.079065,0.731647,0.150813,0.572977
4905823547,12.000891,81.803955,-6.841417,0.733121,0.068667,0.487720
4905843592,4.052119,104.235168,-18.594803,0.592527,0.109975,0.487626
4905863636,-4.011144,115.216461,-20.996456,0.424031,0.168654,0.737558
4905883681,0.565203,93.027199,-18.488909,0.342025,0.159674,0.888259
4905903726,-7.281016,77.677567,-25.141193,0.388559,0.190014,0.893811
4905923770,-14.052135,78.476761,-18.766848,0.420508,0.132024,0.933399
4905943815,-9.268416,73.785110,-14.113838,0.396206,0.091446,0.969883
4905963859,-9.106848,68.501144,-17.065979,0.376263,0.117663,1.023602
4905983904,-13.667898,58.981747,-16.336363,0.360569,0.088325,1.068887
4906003949,-13.973920,45.489864,-18.355345,0.391109,0.087861,1.093150
4906023995,-10.816753,39.748287,-19.067389,0.368193,0.097371,1.062313
4906044039,-4.804417,33.618988,-14.521477,0.288607,0.124636,1.074799
4906064084,-4.367723,14.853343,-12.640600,0.258775,0.162579,1.053328
4906084128,-9.550798,-5.679088,-12.253862,0.309116,0.134111,1.003401
4906104182,-7.338252,-11.881810,-9.248116,0.363939,0.077185,0.935623
4906124218,-2.220421,-13.756359,-10.039794,0.404875,0.121002,0.927549
4906144262,-6.706787,-21.444614,-10.539026,0.455207,0.177770,0.889391
4906164307,-14.700537,-24.524210,-11.907066,0.497326,0.209894,0.830346
4906184350,-20.623549,-26.153849,-13.239024,0.520710,0.260933,0.813980
4906204394,-31.628410,-28.667662,-12.992287,0.550672,0.247859,0.820316
4906224439,-35.079147,-28.771858,-14.695085,0.586550,0.178646,0.779087
4906244484,-31.516510,-25.457211,-23.067570,0.594523,0.155912,0.778422
4906264528,-31.986526,-21.172577,-28.751266,0.594085,0.133392,0.814841
4906284573,-35.513149,-25.066820,-24.614283,0.624329,0.076423,0.765731
4906304617,-31.951794,-24.508080,-26.021029,0.629308,0.010893,0.740997
4906324662,-27.028156,-16.092030,-28.832176,0.669404,-0.060750,0.737694
4906344707,-9.504544,-18.385170,-23.951527,0.731092,-0.074758,0.681175
4906364752,17.435205,-10.117496,-27.091322,0.758891,0.048573,0.660876
4906384796,19.464918,12.379324,-25.954933,0.693109,0.257641,0.729048
4906404841,2.901629,25.680346,-7.564222,0.490744,0.363334,0.892944
4906424887,-3.277113,3.114964,-0.143858,0.433732,0.245932,0.953769
4906444932,-26.564444,-27.220051,4.398180,0.497180,-0.029466,0.948766
4906464976,-21.657267,-29.053463,10.152193,0.574340,-0.174610,0.743402
4906485021,14.785246,-22.264290,-0.441190,0.624261,0.016491,0.748198
4906505065,8.951588,0.602025,-4.021535,0.580745,0.420619,0.907241
4906525110,-26.793034,-12.088399,1.010721,0.470173,0.428550,0.804853
4906545154,-44.204212,-56.537827,0.134914,0.555434,0.227530,0.780186
4906565213,-52.314999,-69.971184,-5.039205,0.725025,0.020865,0.667231
4906585242,-46.024246,-54.413368,-11.631024,0.801643,-0.071745,0.551381
4906605286,-31.940849,-35.099876,-18.080452,0.816813,-0.031691,0.574559
4906625331,-26.057821,-24.206295,-19.705227,0.778243,0.086894,0.679821
4906645376,-30.607759,-28.312965,-16.657230,0.756251,0.101351,0.666886
4906665420,-25.615646,-30.238380,-12.511241,0.849834,-0.004925,0.599799
4906685465,-13.756380,-9.671805,-8.675334,0.856829,-0.060618,0.615514
4906705510,-11.421837,-3.775099,-7.380843,0.760146,-0.068897,0.656848
4906725554,-8.390958,-8.893990,-9.608548,0.738035,-0.047331,0.655871
4906745599,-2.716293,-14.059192,-8.344444,0.816618,-0.028431,0.621237
4906765643,3.120361,-12.260826,-3.819918,0.875837,-0.054109,0.571989
4906785688,-0.929092,-3.797449,-3.141698,0.870894,-0.042727,0.572496
4906805733,-2.899815,7.086808,-6.778424,0.840761,-0.017900,0.614680
4906825779,-3.559978,13.019693,-15.265754,0.750417,0.039164,0.703410
4906845823,-10.107649,7.398247,-20.992523,0.680585,0.045389,0.763666
4906865868,-12.404841,-11.253385,-24.332184,0.702127,0.030029,0.714240
4906885913,-16.069620,-15.463723,-30.356649,0.745762,0.068187,0.635581
4906905957,-20.893299,-5.353233,-36.119133,0.765680,0.109915,0.635382
4906926002,-28.304256,-0.454636,-41.993977,0.727134,0.106089,0.644237
4906946046,-38.874863,-0.206264,-50.811333,0.697507,0.150806,0.702102
4906966104,-53.770596,-12.814355,-59.232933,0.731637,0.182367,0.687159
4906986134,-66.243317,-19.569038,-61.081203,0.759883,0.146348,0.643962
4907006179,-59.606251,-6.507513,-57.403858,0.735068,0.091077,0.689759
4907026223,-55.305946,-10.129615,-58.416164,0.699625,0.162592,0.747633
4907046268,-69.518463,-22.535444,-55.240524,0.793742,0.192088,0.747622
4907066312,-71.410667,-18.056065,-53.165695,0.805163,0.105639,0.667754
4907086357,-65.922295,-18.136892,-53.344830,0.733672,0.117986,0.676325
4907106402,-65.206512,-38.286068,-51.380985,0.794576,0.110047,0.550193
4907126446,-66.692398,-34.642536,-48.020988,0.907085,0.113704,0.470137
4907146491,-70.416901,-9.215882,-49.997223,0.823521,0.057957,0.529985
4907166535,-77.176003,-12.659143,-46.414875,0.814871,-0.093145,0.594536
4907186580,-74.844589,-11.266844,-55.751244,0.734906,-0.081358,0.571275
4907206625,-89.200333,-14.767212,-58.509968,0.857980,0.128830,0.643457
4907226671,-92.139717,-13.232423,-48.516529,0.882626,0.093912,0.618888
4907246715,-89.024757,-9.708508,-48.779907,0.866488,0.045600,0.661687
4907266760,-89.394379,-16.090151,-42.965900,0.859560,0.033204,0.635336
4907286805,-83.551041,-18.289001,-36.769234,0.874003,0.018188,0.555901
4907306850,-76.334969,-8.846786,-35.035572,0.876926,-0.038315,0.502126
4907326894,-70.102119,7.365845,-39.182098,0.785615,-0.138285,0.507565
4907346938,-69.878975,14.460786,-47.860138,0.664194,-0.183223,0.596728
4907366996,-69.960945,6.501243,-51.592567,0.649689,-0.184426,0.652078
4907387026,-72.491127,0.687635,-54.386440,0.652358,-0.134704,0.637484
4907407070,-75.073708,-3.210870,-57.882607,0.700511,-0.078036,0.681434
4907427115,-80.528938,-6.695504,-59.269726,0.768247,-0.081428,0.718010
4907447160,-75.067207,-5.592210,-63.015137,0.774714,-0.081686,0.633297
4907467205,-76.289841,-1.480798,-66.605476,0.811547,-0.030240,0.687859
4907487249,-82.573830,-1.178595,-65.833847,0.800061,-0.010090,0.664484
4907507294,-90.727669,-8.673154,-65.200493,0.785343,-0.051816,0.663173
4907527338,-93.764526,-14.057757,-61.507721,0.776556,-0.156354,0.636749
4907547383,-89.195190,-14.932888,-55.089233,0.787571,-0.249740,0.567405
4907567428,-84.050598,-7.926797,-49.124462,0.802558,-0.308460,0.521840
4907587472,-66.698494,8.794342,-50.469387,0.742263,-0.292248,0.608486
4907607517,-52.713326,21.188356,-63.417542,0.662857,-0.092637,0.789804
4907627563,-69.124390,5.158617,-60.853939,0.678906,-0.003753,0.784727
4907647607,-82.998726,-17.187935,-38.001057,0.705536,-0.199455,0.706235
4907667652,-87.198135,-18.392374,-20.179001,0.731091,-0.356188,0.681313
4907687697,-67.386528,-8.643942,-23.174122,0.726484,-0.446728,0.607643
4907707742,-21.436081,-2.037231,-32.507030,0.721447,-0.455637,0.575723
4907727786,30.889189,-5.031393,-32.288307,0.717982,-0.364265,0.584230
4907747830,63.255558,-9.428634,-29.827808,0.723566,-0.227176,0.617281
4907767894,61.648773,-9.912995,-28.283754,0.750287,-0.057072,0.770666
4907787918,19.139322,-12.007401,-17.922552,0.754215,0.062558,0.731377
4907807963,-3.820134,-25.033243,-7.457120,0.755283,-0.051297,0.660036
4907828007,6.439947,-27.976673,-9.003334,0.771263,-0.141892,0.646242
4907848052,28.106382,-22.038795,-14.225999,0.770330,-0.087179,0.583509
