Timestamp (us),Gyroscope X (deg/s),Gyroscope Y (deg/s),Gyroscope Z (deg/s),Accelerometer X (g),Accelerometer Y (g),Accelerometer Z (g)
9597903329,0.520254,-0.914434,-0.050199,0.006395,0.978194,0.228086
9597905826,0.581202,-1.036126,-0.049317,0.011497,0.981776,0.230349
9597908323,0.642340,-1.157922,-0.109124,0.013747,0.984681,0.226035
9597910821,0.581372,-1.097026,-0.109674,0.009357,0.983259,0.227430
9597913318,0.398849,-0.914547,-0.232700,0.008602,0.982530,0.229596
9597915816,0.093862,-0.488372,-0.175424,0.009398,0.984724,0.224534
9597918313,-0.333117,-0.122793,-0.118253,0.008727,0.986200,0.220177
9597920811,-0.759907,0.242682,-0.121770,0.005896,0.985532,0.211420
9597923308,-1.064763,0.486365,-0.124188,0.004497,0.988462,0.208520
9597925806,-1.369201,0.851431,-0.248645,0.007378,0.986255,0.209262
9597928304,-1.551876,1.155606,-0.311645,0.009554,0.984061,0.207816
9597930801,-1.734758,1.399089,-0.313626,0.011688,0.981127,0.209997
9597933298,-1.673544,1.520476,-0.374759,0.013108,0.978205,0.210718
9597935796,-1.429561,1.641667,-0.374549,0.014527,0.978903,0.215099
9597938293,-0.941670,1.640866,-0.372802,0.014436,0.978142,0.223813
9597940791,-0.331787,1.700661,-0.370950,0.011492,0.978153,0.227415
9597943288,0.339252,1.699456,-0.429236,0.011478,0.977424,0.228136
9597945802,1.009875,1.576868,-0.365483,0.013667,0.976684,0.226701
9597948282,1.619283,1.332893,-0.240597,0.011438,0.974512,0.229567
9597950779,2.228881,1.088813,-0.176400,0.012912,0.975955,0.228867
9597953277,2.716526,0.905730,-0.112970,0.011493,0.976706,0.225950
9597955774,3.082387,0.722742,-0.110666,0.008577,0.976728,0.226645
9597958272,3.387280,0.600650,-0.108911,0.007144,0.976749,0.224449
9597960769,3.569614,0.418276,0.074803,0.005698,0.976040,0.222974
9597963267,3.691132,0.175102,0.197942,0.006465,0.978946,0.221551
9597965764,3.812479,-0.007172,0.381437,0.007872,0.975295,0.222993
9597968262,3.873049,-0.128655,0.503694,0.006371,0.971668,0.224402
9597970759,3.933599,-0.310934,0.626283,0.006405,0.974578,0.223698
9597973256,3.872367,-0.493116,0.687748,0.005692,0.973866,0.221504
9597975754,3.689351,-0.675203,0.688087,0.004278,0.976790,0.220057
9597978251,3.628515,-0.796799,0.627843,0.002165,0.980457,0.216428
9597980749,3.506693,-0.918294,0.567382,0.000686,0.976115,0.214925
9597983247,3.506845,-1.039990,0.507357,-0.000088,0.971034,0.214879
9597985744,3.384834,-1.161382,0.507583,0.000661,0.971036,0.212707
9597988241,3.202025,-1.282777,0.446903,0.003652,0.973216,0.206215
9597990739,3.019066,-1.282477,0.446247,0.000820,0.974720,0.199655
9597993236,2.897283,-1.282381,0.385123,0.000827,0.975447,0.199660
9597995734,2.775557,-1.099898,0.323003,0.001485,0.972517,0.204006
9597998231,2.654209,-0.917624,0.139508,-0.001420,0.968199,0.199581
9598000729,2.532483,-0.735141,0.077389,0.001522,0.971083,0.198908
9598003227,2.471554,-0.552654,0.076176,0.005142,0.973218,0.202598
9598005724,2.532598,-0.370367,0.075400,0.002158,0.969593,0.206898
9598008221,2.715822,-0.127589,0.014041,0.004277,0.968101,0.211998
9598010719,2.899047,0.115190,-0.047318,0.007933,0.968078,0.209858
9598013216,3.082461,0.357864,-0.169365,0.011534,0.968033,0.213531
9598015713,3.265439,0.418359,-0.169041,0.012232,0.969463,0.217910
9598018211,3.448569,0.357159,-0.228743,0.012169,0.967990,0.222985
9598020709,3.570503,0.235367,-0.227643,0.011433,0.971613,0.227365
9598023206,3.753443,0.174271,-0.226657,0.012179,0.973787,0.227389
9598025704,3.814410,0.113375,-0.226107,0.014367,0.974495,0.227419
9598028201,3.936610,0.234662,-0.287021,0.015870,0.975950,0.223813
9598030699,3.936800,0.234558,-0.347709,0.015184,0.977421,0.220909
9598033196,3.875775,0.113067,-0.347265,0.014455,0.980322,0.223830
9598035694,3.814504,-0.190708,-0.285138,0.010092,0.981084,0.224514
9598038191,3.753252,-0.433686,-0.223342,0.007205,0.981117,0.222303
9598040688,3.752986,-0.676765,-0.161328,0.007212,0.981120,0.221576
9598043186,3.691792,-0.737356,-0.100527,0.010114,0.979644,0.220870
9598045683,3.691375,-0.858738,0.021512,0.008662,0.976037,0.217193
9598048181,3.752115,-1.041121,0.083413,0.007963,0.977503,0.215743
9598050679,3.873841,-1.223604,0.145532,0.007961,0.980398,0.218672
9598053176,3.995605,-1.284496,0.206989,0.004313,0.978252,0.217889
9598055673,4.117427,-1.163000,0.267451,0.007208,0.976050,0.217177
9598058171,4.239230,-1.102300,0.328244,0.009431,0.977496,0.214306
9598060668,4.361221,-1.041705,0.328349,0.006543,0.978253,0.212826
9598063166,4.483025,-0.981005,0.389142,0.003547,0.972451,0.216383
9598065663,4.544011,-0.981105,0.389361,0.000672,0.975385,0.215647
9598068161,4.605206,-0.920514,0.328560,0.005042,0.975350,0.214968
9598070658,4.605375,-0.981414,0.268203,0.005021,0.974618,0.216415
9598073155,4.605545,-1.042314,0.207846,0.002845,0.976811,0.217862
9598075653,4.605318,-1.163801,0.269197,0.007125,0.973845,0.223700
9598078151,4.605279,-1.285392,0.269860,0.005692,0.974590,0.222237
9598080648,4.605431,-1.407088,0.209835,0.004972,0.973151,0.220038
9598083146,4.483420,-1.528479,0.210062,0.004952,0.972418,0.221485
9598085643,4.239436,-1.649671,0.209851,0.005012,0.978235,0.220803
9598088141,3.995263,-1.770757,0.270329,0.005836,0.979716,0.212102
9598090638,3.568321,-1.891648,0.269463,0.001510,0.979043,0.207689
9598093136,3.202345,-2.073435,0.269148,0.003753,0.981945,0.204102
9598095633,2.836540,-2.316122,0.208475,0.008201,0.979770,0.193233
9598098131,2.470772,-2.437217,0.147140,0.007460,0.979046,0.193946
9598100628,2.105233,-2.436825,0.024454,0.005320,0.981978,0.192492
9598103126,1.800718,-2.314942,-0.098677,0.007557,0.981981,0.186702
9598105623,1.557189,-2.193159,-0.221590,0.008293,0.979806,0.183787
9598108121,1.251898,-2.131654,-0.101637,0.011235,0.981967,0.182382
9598110618,1.068977,-2.009762,-0.102955,0.009703,0.981948,0.190359
9598113116,0.947061,-1.827175,-0.104386,0.013341,0.978298,0.186738
9598115613,0.947706,-1.584305,-0.287776,0.010448,0.976157,0.183056
9598118110,0.887155,-1.402027,-0.410365,0.010441,0.975430,0.183051
9598120608,0.947820,-1.219531,-0.289765,0.013286,0.975380,0.189623
9598123106,1.008277,-1.097726,-0.108145,0.013952,0.971729,0.192509
9598125603,1.191142,-0.793944,-0.048460,0.012492,0.969567,0.191024
9598128100,1.313211,-0.490165,-0.049680,0.011716,0.968830,0.195370
9598130598,1.435279,-0.186387,-0.050901,0.013156,0.968811,0.196839
9598133095,1.618106,-0.004196,0.009448,0.019672,0.969468,0.200550
9598135593,1.862051,-0.004596,0.010321,0.020335,0.969436,0.207098
9598138090,2.105997,-0.004996,0.011194,0.012321,0.973119,0.212124
9598140588,2.289107,-0.126992,-0.048176,0.013040,0.975282,0.215055
9598143086,2.411003,-0.370375,-0.046413,0.009376,0.974578,0.217190
9598145583,2.532691,-0.674450,0.016369,0.009327,0.973834,0.221544
9598148080,2.654739,-1.039529,-0.041893,0.012905,0.975952,0.229594
9598150578,2.715630,-1.343607,-0.040018,0.019489,0.980256,0.229699
9598153075,2.654339,-1.708177,0.022441,0.018814,0.975215,0.219479
9598155573,2.531912,-1.950951,0.144706,0.009439,0.976051,0.212114
9598158070,2.348914,-2.072242,0.144714,0.007311,0.980435,0.210671
9598160567,2.349293,-2.072451,0.023338,0.010151,0.977487,0.215040
9598163066,2.654699,-1.769181,-0.098604,0.005798,0.973908,0.210605
9598165564,3.386839,-1.405713,-0.158660,0.002843,0.968846,0.210534
9598168062,4.301919,-1.103340,-0.217731,0.002250,0.969629,0.197452
9598170559,5.216961,-0.922558,-0.276138,0.005413,0.968257,0.169860
9598173056,5.887943,-1.106151,-0.333430,0.008753,0.976369,0.132894
9598175554,6.131793,-1.410530,-0.330899,0.005426,0.980143,0.104542
9598178051,5.887620,-1.531616,-0.270421,0.004994,0.982438,0.076211
9598180549,5.278099,-1.044354,-0.335945,0.004173,0.985304,0.088579
9598183046,4.851349,0.050774,-0.282752,0.002673,0.981382,0.164841
9598185544,4.912566,1.388284,-0.229138,0.005502,0.973790,0.241124
9598188041,5.461560,2.360219,-0.171788,0.013051,0.969922,0.284056
9598190539,5.888541,2.602701,-0.171586,0.017798,0.964674,0.314593
9598193036,5.888501,1.873048,-0.228296,0.024012,0.962315,0.346620
9598195534,5.095389,0.354352,-0.283536,0.022670,0.963096,0.335710
9598198031,3.387160,-1.588309,-0.279042,0.019034,0.974283,0.271074
9598200529,0.886146,-3.408077,-0.278050,0.015212,0.978880,0.219467
9598203026,-1.858869,-4.801770,-0.219564,0.003006,0.989909,0.213602
9598205524,-4.420752,-5.648602,-0.163406,0.002304,0.994994,0.215812
9598208021,-6.372620,-6.010069,-0.107716,0.001735,0.991442,0.196157
9598210519,-7.470432,-6.190655,-0.110652,-0.006915,0.984306,0.181473
9598213016,-7.714548,-6.129355,-0.051169,-0.005484,0.974872,0.174877
9598215514,-7.226712,-5.704481,0.008945,-0.003276,0.966174,0.163934
9598218011,-6.311896,-5.037125,0.069263,-0.006126,0.963326,0.155160
9598220509,-4.970307,-4.187978,0.190802,-0.006111,0.961884,0.152243
9598223006,-3.384186,-3.278749,0.130819,-0.003895,0.962603,0.149366
9598225504,-1.615125,-2.430615,0.071822,-0.003918,0.965490,0.154474
9598228001,0.092950,-1.582382,0.012607,-0.001108,0.965426,0.164679
9598230498,1.679052,-0.733949,-0.047044,0.005349,0.968956,0.177132
9598232996,3.142822,0.175689,0.013912,0.011059,0.970312,0.189560
9598235494,4.606705,0.842040,0.015506,0.012343,0.972404,0.209212
9598237991,6.009677,1.143613,-0.041817,0.015822,0.973759,0.226703
9598240489,7.412363,1.141311,-0.036795,0.020799,0.972946,0.237653
9598242986,8.632372,0.835122,-0.152147,0.026477,0.969944,0.249321
9598245483,9.547186,0.286355,-0.206576,0.022791,0.970680,0.255099
9598247983,10.156858,-0.322603,-0.201078,0.017741,0.975808,0.255809
9598250478,10.460992,-1.052339,-0.013944,0.014264,0.980971,0.244182
9598252976,10.277237,-1.781274,0.171443,0.016642,0.982478,0.225324
9598255473,9.544812,-2.448617,0.293845,0.016838,0.984728,0.207174
9598257971,8.263794,-2.811186,0.351937,0.012687,0.984850,0.185327
9598260468,6.677960,-2.808479,0.406948,0.009966,0.990742,0.171533
9598262966,4.848295,-2.440598,0.459096,0.010817,0.995853,0.163587
9598265463,2.957927,-1.768742,0.448681,0.007252,0.995189,0.155548
9598267961,1.189799,-0.854009,0.376688,0.005022,0.994464,0.159879
9598270459,-0.334176,0.121016,0.244550,0.003429,0.990077,0.170002
9598272956,-1.431304,0.912953,0.114934,-0.001834,0.985707,0.183720
9598275453,-2.162400,1.461002,-0.072734,-0.003455,0.982757,0.198215
9598277951,-2.588793,1.887064,-0.197959,-0.001357,0.979809,0.204030
9598280448,-2.649533,2.069447,-0.259860,0.001510,0.979043,0.207689
9598282946,-2.527541,2.130043,-0.259755,0.002931,0.975397,0.207677
9598285443,-2.405587,2.069047,-0.258986,0.001514,0.972528,0.201099
9598287941,-2.283425,2.068742,-0.319238,0.001563,0.972548,0.196013
9598290438,-1.978304,2.068137,-0.378834,0.000843,0.971833,0.194546
9598292936,-1.612007,2.067328,-0.498900,0.005245,0.976879,0.195359
9598295433,-1.307322,1.884545,-0.436126,0.006706,0.976870,0.194649
9598297931,-1.063453,1.640962,-0.433927,0.005970,0.979769,0.198296
9598300428,-0.819603,1.336583,-0.431396,0.005215,0.980488,0.201927
9598302946,-0.697348,1.032195,-0.550678,0.005996,0.983400,0.199050
9598305426,-0.636059,0.788704,-0.670510,0.004618,0.986338,0.193970
9598307919,-0.574922,0.666908,-0.730317,0.006093,0.987058,0.192538
9598310417,-0.636268,0.728012,-0.609490,0.008260,0.986310,0.193283
9598312914,-0.758808,0.728526,-0.427863,0.004632,0.985620,0.191785
9598315412,-0.881349,0.729039,-0.246235,0.003204,0.989987,0.193255
9598317909,-0.942524,0.729243,-0.185765,0.003190,0.989982,0.194709
9598320407,-1.003908,0.668756,-0.064276,0.000255,0.986376,0.193922
9598322904,-0.943111,0.668761,-0.003369,-0.000443,0.985669,0.190276
9598325401,-1.004287,0.668965,0.057100,0.001017,0.987831,0.191761
9598327899,-0.943130,0.607965,-0.003038,0.001702,0.987808,0.196129
9598330397,-0.821138,0.668561,-0.002933,0.002388,0.984890,0.197568
9598332894,-0.637971,0.728952,-0.063297,0.000941,0.984905,0.196826
9598335392,-0.515809,0.728647,-0.123549,-0.000499,0.984923,0.195357
9598337889,-0.393874,0.606856,-0.122449,0.000193,0.984179,0.198266
9598340386,-0.271580,0.424060,-0.242394,0.000139,0.981261,0.201150
9598342884,-0.149646,0.302268,-0.241294,-0.000607,0.976915,0.198929
9598345381,-0.027882,0.241376,-0.179838,0.000800,0.973264,0.200370
9598347879,0.033105,0.241276,-0.179620,0.000079,0.974721,0.201100
9598350376,0.155248,0.180176,-0.239540,0.000826,0.976894,0.201125
9598352874,0.216385,0.058380,-0.299346,0.001526,0.976153,0.203307
9598355371,0.155152,-0.123803,-0.237882,0.002273,0.977603,0.202599
9598357868,0.032782,-0.184189,-0.116611,0.003697,0.979751,0.207719
9598360366,-0.028621,-0.305472,0.005210,0.005816,0.978259,0.212818
9598362864,-0.028640,-0.366268,0.005541,0.008768,0.976803,0.207025
9598365361,-0.028887,-0.548550,0.067224,0.008753,0.977522,0.209211
9598367858,0.031985,-0.913425,0.069431,0.008733,0.976789,0.210659
9598370356,0.153824,-1.339195,0.072188,0.009509,0.977527,0.206312
9598372854,0.275512,-1.643269,0.134970,0.006607,0.978278,0.206286
9598375351,0.275454,-1.825656,0.135964,0.000769,0.977596,0.207670
9598377848,0.336194,-2.008039,0.197865,0.001483,0.976860,0.208399
9598380346,0.457561,-2.129518,0.381029,0.006616,0.975386,0.202631
9598382843,0.579098,-2.311897,0.503837,0.005912,0.971057,0.196049
9598385341,0.639648,-2.494175,0.626426,0.005200,0.969621,0.193124
9598387838,0.639800,-2.615870,0.566400,0.005947,0.971795,0.193148
9598390336,0.639780,-2.676666,0.566732,0.003107,0.975467,0.189511
9598392833,0.700767,-2.676766,0.566950,0.006036,0.976898,0.188827
9598395331,0.822948,-2.616275,0.506367,0.009658,0.976138,0.189588
9598397828,0.945110,-2.616580,0.446116,0.013238,0.973912,0.193245
9598400326,1.127861,-2.677572,0.507791,0.013917,0.970991,0.195410
9598402823,1.249606,-2.799259,0.569578,0.017587,0.973145,0.194014
9598405321,1.249587,-2.860054,0.569910,0.019703,0.975997,0.203506
9598407818,1.188619,-2.799159,0.569360,0.016745,0.976002,0.208561
9598410316,1.188677,-2.616771,0.568366,0.013158,0.977501,0.204899
9598412813,1.249740,-2.373688,0.567258,0.010998,0.977528,0.202695
9598415311,1.371657,-1.948214,0.626063,0.008812,0.973201,0.199005
9598417808,1.493404,-1.461840,0.745224,0.006659,0.973231,0.196074
9598420306,1.554165,-0.975366,0.864166,0.005940,0.971792,0.193875
9598422804,1.676082,-0.549892,0.922971,0.008144,0.969610,0.189522
9598425301,1.798245,0.057866,0.920093,0.008128,0.972500,0.193905
9598427798,1.858987,0.483544,1.039367,0.009616,0.975397,0.193216
9598430296,1.858893,0.787627,1.098397,0.013273,0.973926,0.189611
9598432793,1.798115,0.848419,1.037160,0.014743,0.971024,0.185245
9598435290,1.920239,0.726523,0.977571,0.012596,0.973228,0.183785
9598437788,1.859404,0.604927,0.917328,0.011168,0.976871,0.184523
9598440286,1.859157,0.422644,0.979010,0.015535,0.979732,0.186773
9598442783,1.675990,0.362253,1.039375,0.015577,0.981197,0.183878
9598445280,1.553809,0.301762,1.099958,0.014836,0.981198,0.185323
9598447778,1.492406,0.180479,1.221778,0.017744,0.981173,0.185355
9598450275,1.553145,-0.001904,1.283679,0.021351,0.981130,0.188301
9598452773,1.735820,-0.306078,1.346680,0.018381,0.978958,0.192613
9598455271,1.979878,-0.549766,1.288191,0.019044,0.980375,0.200625
9598457768,2.223728,-0.854145,1.290722,0.018302,0.980375,0.202070
9598460265,2.528413,-1.036928,1.353496,0.016061,0.986163,0.213717
9598462778,2.771753,-1.158606,1.537097,0.018927,0.986845,0.218841
9598465260,3.076495,-1.159003,1.598877,0.015265,0.983245,0.218047
9598467758,3.320024,-1.280786,1.721789,0.018872,0.983203,0.220993
9598470255,3.564101,-1.463677,1.662969,0.017391,0.982480,0.223152
9598472753,3.685828,-1.646160,1.725088,0.013014,0.981788,0.223825
9598475250,3.685581,-1.828443,1.786771,0.013077,0.983261,0.218750
9598477748,3.685505,-2.071626,1.788097,0.013032,0.986864,0.226771
9598480245,3.563209,-2.496891,1.850668,0.007195,0.986182,0.228155
9598482743,3.440705,-2.982848,1.974260,0.005034,0.987657,0.227415
9598485240,3.318011,-3.468701,2.158539,0.002956,0.991337,0.220152
9598487738,3.073913,-3.954666,2.160318,0.002979,0.988450,0.215044
9598490235,2.768886,-4.258144,2.160883,0.005104,0.987685,0.220149
9598492732,2.463820,-4.683214,2.162112,0.000735,0.987719,0.220827
9598495230,2.219779,-4.986792,2.162896,0.003652,0.985525,0.217936
9598497728,1.975908,-5.351270,2.103323,0.005208,0.991346,0.212910
9598500225,1.793062,-5.594258,2.043306,0.006706,0.989179,0.206369
9598502723,1.671183,-5.898140,1.983839,0.006714,0.987734,0.204178
9598505220,1.488148,-6.141023,1.984509,0.003806,0.987035,0.203414
9598507718,1.305151,-6.262314,1.984517,-0.001283,0.986355,0.202626
9598510215,1.122381,-6.262118,1.923174,0.000828,0.985584,0.209184
9598512712,1.122608,-6.140631,1.861823,0.005156,0.983361,0.210669
9598515210,1.061792,-6.201431,1.801248,0.008183,0.985555,0.200544
9598517707,0.878833,-6.201131,1.800593,0.005250,0.980502,0.198294
9598520206,0.634906,-6.139935,1.799388,0.006044,0.974730,0.185904
9598522704,0.452137,-6.139739,1.738045,0.008994,0.976169,0.183040
9598525201,0.269367,-6.139543,1.676702,0.009023,0.974009,0.177937
9598527699,0.025723,-6.382535,1.555778,0.013399,0.965287,0.168472
9598530196,-0.279134,-6.746912,1.495987,0.004720,0.958140,0.156694
9598532694,-0.705964,-7.111091,1.435759,0.002633,0.953852,0.142831
9598535191,-1.315753,-7.474968,1.374877,0.009938,0.944390,0.130485
9598537689,-2.047476,-7.717054,1.312894,0.005585,0.940811,0.126050
9598540186,-2.657037,-7.959446,1.190660,0.000575,0.937266,0.114340
9598542684,-2.961799,-8.019846,1.129212,-0.003079,0.932945,0.112087
9598545181,-2.839618,-7.959354,1.068629,-0.008331,0.933649,0.129476
9598547678,-2.290892,-7.838559,1.130620,-0.008403,0.935792,0.138939
9598550176,-1.254407,-7.536073,1.254050,-0.006267,0.929963,0.138192
9598552674,0.026081,-7.051600,1.377360,-0.007657,0.940138,0.141160
9598555171,1.428788,-6.385045,1.439424,-0.003950,0.950272,0.143458
9598557669,2.892633,-5.840286,1.441681,0.000575,0.959712,0.135585
9598560166,4.234335,-5.234426,1.503858,0.001451,0.970626,0.130590
9598562663,5.454045,-4.689162,1.565930,0.005207,0.980780,0.127800
9598565161,6.490966,-4.204497,1.566990,0.015441,0.994471,0.135284
9598567659,7.344928,-3.719533,1.567395,0.022084,1.005316,0.135439
9598570156,7.893958,-3.234068,1.566709,0.028794,1.020531,0.132721
9598572653,8.138225,-2.809002,1.504574,0.032341,1.026982,0.148070
9598575151,8.260522,-2.383737,1.442002,0.038860,1.032708,0.156180
9598577648,8.199800,-2.140558,1.379770,0.054837,1.041252,0.166595
9598580146,8.017089,-1.957975,1.317432,0.059112,1.044800,0.179023
9598582644,7.651511,-2.079175,1.195409,0.061999,1.045491,0.181967
9598585141,7.102974,-2.200074,1.072730,0.067066,1.047610,0.186400
9598587638,6.371440,-2.442265,0.950060,0.067720,1.040334,0.187079
9598590136,5.517612,-2.501660,0.947334,0.068327,1.029419,0.189184
9598592633,4.541830,-2.500058,0.943841,0.070493,1.019981,0.181869
9598595131,3.565877,-2.437557,1.000704,0.067521,1.009844,0.178853
9598597628,2.589964,-2.253464,1.056904,0.061656,0.996841,0.171422
9598600126,1.552913,-1.947575,1.172910,0.057988,0.980930,0.159634
9598602623,0.637683,-1.520191,1.349379,0.050659,0.961419,0.147051
9598605129,-0.216333,-0.971420,1.464715,0.038998,0.949199,0.138109
9598607620,-0.887598,-0.483640,1.641726,0.023714,0.939187,0.129871
9598610116,-1.375695,0.064531,1.758372,0.017204,0.930568,0.118106
9598612613,-1.619488,0.551297,1.754846,0.012800,0.918280,0.110698
9598615111,-1.680132,1.037659,1.691288,0.003263,0.907466,0.109058
9598617608,-1.435863,1.462724,1.629153,-0.002635,0.900967,0.111124
9598620106,-1.068997,2.069663,1.384396,-0.001170,0.906028,0.114812
9598622603,-0.518983,2.676198,1.079606,-0.003404,0.911818,0.125732
9598625101,0.213972,3.221636,0.775802,-0.004913,0.921221,0.140321
9598627598,1.068653,3.584592,0.534118,-0.005715,0.928439,0.154902
9598630096,2.166994,3.643273,0.355653,-0.009410,0.933515,0.165801
9598632593,3.265051,3.398080,0.239533,-0.007984,0.944352,0.178980
9598635090,4.362842,2.909808,0.185427,-0.004363,0.955900,0.191461
9598637588,5.338622,2.300145,0.131547,-0.004348,0.965320,0.198800
9598640086,6.192429,1.690683,0.077231,-0.004407,0.970364,0.209739
9598642583,6.863069,1.020829,0.083279,-0.003713,0.977586,0.219975
9598645080,7.289215,0.412484,0.270187,-0.005275,0.980452,0.233788
9598647578,7.532289,0.047727,0.515801,-0.005442,0.977489,0.248299
9598650075,7.592479,-0.073547,0.759435,-0.002661,0.978138,0.262143
9598652573,7.653087,-0.073438,0.881029,0.000208,0.984614,0.272398
9598655071,7.530964,0.048458,0.940618,0.006001,0.988899,0.279034
9598657568,7.286906,0.292145,0.999107,0.011062,0.988844,0.281997
9598660065,6.981540,0.718529,1.177759,0.011117,0.990314,0.277648
9598662572,6.676061,1.388200,1.415773,0.014095,0.993213,0.273342
9598665059,6.370640,2.240258,1.652793,0.017090,1.001187,0.271982
9598667556,5.882657,3.153203,1.767450,0.019447,1.012099,0.264096
9598670054,5.334066,4.066040,1.760513,0.018124,1.017232,0.255399
9598672551,4.785475,4.978876,1.753576,0.013830,1.020193,0.251013
9598675049,4.175840,5.709425,1.747414,0.009534,1.026050,0.249557
9598677546,3.444801,6.439862,1.558752,0.006008,1.031917,0.243748
9598680044,2.652908,6.987907,1.310178,0.002454,1.037049,0.240114
9598682541,1.678036,7.475457,1.061280,-0.002642,1.036366,0.240053
9598685039,0.642460,7.658919,0.692445,-0.007018,1.035674,0.240726
9598687536,-0.393211,7.538402,0.325267,-0.010603,1.034277,0.234135
9598690034,-1.428920,7.296295,-0.041247,-0.015607,1.032183,0.223163
9598692531,-2.342713,6.871600,-0.406331,-0.022779,1.032285,0.212910
9598695029,-3.073510,6.568196,-0.771422,-0.028525,1.031639,0.204847
9598697526,-3.499185,6.264187,-1.196110,-0.032886,1.029505,0.202603
9598700024,-3.680668,6.142061,-1.681607,-0.032872,1.029510,0.201150
9598702521,-3.557201,6.080230,-2.166344,-0.032844,1.029522,0.198243
9598705019,-3.190034,5.835716,-2.588524,-0.033397,1.033217,0.183730
9598707516,-2.883988,5.165732,-3.008603,-0.033797,1.040594,0.156891
9598710014,-2.943765,4.192266,-3.489022,-0.035671,1.045080,0.129288
9598712511,-3.674810,3.098518,-3.849805,-0.036007,1.051034,0.094445
9598715008,-5.016380,2.310166,-3.971675,-0.034302,1.056913,0.074159
9598717506,-6.663126,1.948094,-3.975582,-0.030186,1.055330,0.098176
9598720003,-8.187747,2.072188,-3.981704,-0.020447,1.049275,0.138209
9598722501,-9.346166,2.499555,-4.048861,-0.011965,1.043311,0.157879
9598724998,-10.016294,2.986709,-4.235979,-0.003378,1.038112,0.167383
9598727496,-10.381870,3.473571,-4.300629,0.005880,1.032886,0.182707
9598729993,-10.381566,3.838240,-4.363306,0.014461,1.026237,0.191473
9598732491,-10.259650,4.263715,-4.304502,0.024482,1.019570,0.201707
9598734988,-10.076784,4.567497,-4.244815,0.037164,1.014951,0.239603
9598737496,-10.015949,4.689093,-4.184572,0.049775,1.009581,0.284034
9598739984,-10.016233,4.385219,-4.122227,0.059829,1.007272,0.295028
9598742481,-10.199820,3.595384,-3.997196,0.064357,1.002231,0.273238
9598744978,-10.566820,2.562874,-3.750119,0.062930,0.992842,0.261523
9598747476,-10.995203,1.469878,-3.381552,0.060849,0.990004,0.248397
9598749973,-11.423418,0.315982,-3.073342,0.062719,0.990881,0.206273
9598752471,-11.668823,-0.716518,-2.704452,0.066015,0.990286,0.165607
9598754968,-11.669961,-1.323954,-2.397696,0.065446,0.986010,0.145219
9598757466,-11.427170,-1.384524,-2.032363,0.061981,0.983937,0.125543
9598759963,-10.879426,-0.776736,-1.608896,0.060696,0.984017,0.108088
9598762461,-9.904436,0.316611,-1.247240,0.063570,0.982530,0.110289
9598764958,-8.624380,1.835029,-0.886813,0.064206,0.981764,0.119011
9598767456,-6.917212,3.413437,-0.585877,0.065516,0.975901,0.128429
9598769953,-4.965757,4.869645,-0.404781,0.068182,0.969263,0.147304
9598772451,-2.770415,6.143064,-0.221817,0.069550,0.970665,0.157504
9598774948,-0.636097,7.294994,-0.038409,0.070941,0.969903,0.163327
9598777445,1.375793,8.204148,0.267265,0.070693,0.961115,0.180700
9598779943,3.265654,8.931115,0.573497,0.071904,0.955938,0.201024
9598782441,4.728533,9.415602,0.879526,0.073282,0.952999,0.206104
9598784938,5.887029,9.839478,1.002730,0.071079,0.954457,0.209724
9598787435,6.557558,10.020972,1.125514,0.068868,0.956636,0.214804
9598789933,6.800746,10.020990,1.369140,0.065313,0.963216,0.212634
9598792430,6.677562,9.778634,1.734158,0.057413,0.964048,0.203105
9598794928,6.188610,9.415182,2.037840,0.051579,0.969159,0.209620
9598797426,5.455694,8.991334,2.340981,0.046566,0.971406,0.203768
9598799923,4.479249,8.689271,2.521209,0.039544,0.978808,0.184851
9598802420,3.259066,8.448299,2.639544,0.035207,0.983200,0.186290
9598804918,1.856342,8.329009,2.635185,0.033737,0.986103,0.190656
9598807415,0.575628,8.331111,2.630599,0.029421,0.991227,0.190647
9598809913,-0.521918,8.393603,2.565650,0.025088,0.989104,0.185496
9598812410,-1.558478,8.455997,2.500918,0.022340,0.990641,0.170215
9598814908,-2.412040,8.639680,2.436178,0.020912,0.994284,0.170954
9598817405,-3.143422,8.883855,2.310856,0.020822,0.992076,0.178204
9598819903,-3.631047,9.127734,2.247095,0.014355,0.993611,0.171603
9598822400,-4.057535,9.249818,2.123528,0.012260,0.990044,0.159198
9598824898,-4.301442,9.371810,2.121991,0.016554,0.987083,0.163584
9598827395,-4.544990,9.432796,1.999410,0.015037,0.987070,0.170108
9598829893,-4.727759,9.432993,1.938067,0.005726,0.986483,0.154739
9598832390,-4.849373,9.372189,1.816586,0.000566,0.985775,0.161217
9598834888,-4.849411,9.250597,1.817248,0.000488,0.987192,0.170675
9598837386,-4.788652,9.129009,1.878818,-0.002469,0.985026,0.173533
9598839883,-4.788879,9.007523,1.940169,-0.006054,0.983629,0.166942
9598842380,-4.850074,8.946931,2.000970,-0.006908,0.983585,0.180014
9598844878,-4.789296,8.886140,2.062208,-0.007651,0.985757,0.183656
9598847375,-4.667362,8.764348,2.063308,-0.009867,0.985762,0.187265
9598849873,-4.484650,8.581766,2.125645,-0.009835,0.990119,0.188025
9598852370,-4.424099,8.399487,2.248235,-0.007717,0.990075,0.194589
9598854868,-4.485919,8.156823,2.492094,-0.007102,0.989300,0.205491
9598857365,-4.608176,7.853149,2.554003,-0.004165,0.988563,0.201884
9598859863,-4.852067,7.427875,2.494762,-0.000556,0.985625,0.201902
9598862360,-5.156734,7.063392,2.374283,-0.002094,0.984880,0.209874
9598864857,-5.461800,6.638322,2.375511,0.002152,0.979003,0.216417
9598867355,-5.706068,6.213257,2.437647,0.003580,0.976084,0.216411
9598869852,-6.072158,5.666696,2.439320,0.009273,0.970192,0.223696
9598872350,-6.438418,5.181035,2.501349,0.010736,0.968011,0.220789
9598874848,-6.865646,4.756270,2.562829,0.015195,0.970908,0.213593
9598877345,-7.171299,4.270718,2.746454,0.018769,0.967956,0.217244
9598879844,-7.354979,3.784966,2.930515,0.024438,0.956986,0.222311
9598882341,-7.477463,3.359805,3.053775,0.025131,0.954071,0.223023
9598884839,-7.599569,2.934435,3.055658,0.030196,0.948948,0.220860
9598887336,-7.721865,2.509169,3.118230,0.028734,0.949682,0.222303
9598889834,-7.843971,2.083799,3.120114,0.030202,0.949675,0.220866
9598892331,-8.149396,1.719734,3.242387,0.032373,0.944583,0.217217
9598894829,-8.455029,1.294978,3.425680,0.031521,0.940920,0.226628
9598897326,-8.882825,0.870526,3.669225,0.028456,0.932917,0.235255
9598899824,-9.371380,0.567661,3.851199,0.029121,0.930714,0.239606
9598902321,-9.859706,0.386283,3.971823,0.029831,0.935046,0.245461
9598904819,-10.348033,0.204905,4.092447,0.020294,0.935817,0.254809
9598907316,-10.714236,-0.098368,4.153482,0.017290,0.930012,0.259093
9598909813,-10.958694,-0.523329,4.276305,0.014339,0.930744,0.264153
9598912311,-10.898011,-0.888099,4.339200,0.005566,0.928628,0.266947
9598914808,-10.532265,-1.435861,4.343494,-0.001026,0.925769,0.269033
9598917306,-9.983371,-1.984028,4.287755,-0.006113,0.922193,0.265316
9598919804,-9.373489,-2.532294,4.232233,-0.008211,0.925141,0.259501
9598922301,-8.702792,-3.019761,4.237287,-0.014688,0.931016,0.258021
9598924798,-8.031868,-3.385741,4.180989,-0.024894,0.928197,0.257887
9598927296,-7.421531,-3.691033,4.002766,-0.030724,0.927517,0.258544
9598929793,-6.811138,-3.813938,3.823548,-0.035130,0.928262,0.263589
9598932291,-6.261674,-3.754356,3.643118,-0.042444,0.930479,0.270065
9598934788,-5.650845,-3.695084,3.341529,-0.051977,0.924012,0.272092
9598937286,-5.039865,-3.757506,2.979916,-0.050499,0.920388,0.266267
9598939783,-4.428696,-3.820034,2.557614,-0.052660,0.921139,0.264795
9598942281,-4.183104,-4.003760,2.013289,-0.053271,0.926984,0.258292
9598944778,-4.181666,-4.247778,1.529110,-0.058299,0.930673,0.255357
9598947276,-4.363377,-4.491392,1.104964,-0.067107,0.927095,0.260320
9598949773,-4.544860,-4.613518,0.619467,-0.064249,0.929222,0.267635
9598952270,-4.726363,-4.796440,0.134302,-0.061289,0.936458,0.269176
9598954768,-4.785495,-4.918974,-0.472134,-0.062729,0.937200,0.268439
9598957265,-4.662217,-4.980701,-0.896183,-0.058369,0.940058,0.271416
9598959763,-4.172792,-4.921541,-1.380273,-0.051878,0.945774,0.282432
9598962260,-3.378418,-4.802086,-1.863602,-0.046076,0.946442,0.284681
9598964760,-2.462260,-4.682726,-2.285806,-0.035122,0.949263,0.282643
9598967255,-1.546442,-4.441566,-2.587297,-0.024271,0.948423,0.287843
9598969753,-0.874777,-4.260698,-2.828642,-0.013430,0.950476,0.296699
9598972250,-0.263948,-4.201425,-3.130230,-0.003279,0.950377,0.299717
9598974748,0.285648,-4.324335,-3.370355,0.005403,0.951734,0.305637
9598977245,0.773613,-4.690014,-3.427307,0.014046,0.948005,0.310792
9598979743,1.200176,-5.176976,-3.362439,0.019801,0.945759,0.315199
9598982240,1.504557,-5.724429,-3.236987,0.026296,0.943511,0.318160
9598984737,1.747820,-6.089291,-3.052061,0.027751,0.942775,0.317444
9598987235,2.051900,-6.393352,-2.806559,0.026316,0.946415,0.318909
9598989733,2.417344,-6.697723,-2.682215,0.024847,0.947870,0.321811
9598992230,2.660626,-7.001788,-2.497620,0.023407,0.947164,0.319610
9598994727,2.843130,-7.245063,-2.374263,0.024113,0.947149,0.321798
9598997225,3.086621,-7.488437,-2.250688,0.023331,0.944238,0.324674
9598999723,3.452311,-7.610525,-2.188026,0.022659,0.946438,0.321049
9599002220,3.818191,-7.732716,-2.186053,0.021294,0.950106,0.315248
9599004717,4.184110,-7.733316,-2.184743,0.017657,0.953033,0.318137
9599007215,4.549896,-7.551426,-2.123739,0.016915,0.955205,0.321779
9599009712,4.916080,-7.308948,-2.184443,0.016888,0.953022,0.322489
9599012210,5.282283,-7.005674,-2.245479,0.013217,0.952316,0.325350
9599014707,5.648807,-6.884997,-2.426896,0.016797,0.950814,0.329739
9599017205,5.954495,-6.885914,-2.668556,0.018917,0.947875,0.333374
9599019702,6.138231,-6.825837,-2.910985,0.015945,0.948599,0.340614
9599022208,6.077604,-6.886741,-3.032248,0.015196,0.948596,0.342786
9599024698,5.895174,-7.008345,-3.214305,0.016686,0.948598,0.339169
9599027193,5.651682,-7.373033,-3.395254,0.019711,0.952964,0.331241
9599029691,5.225212,-7.798214,-3.576526,0.020543,0.954447,0.321813
9599032188,4.676258,-8.040498,-3.577166,0.019848,0.948674,0.313041
9599034686,4.127400,-7.978801,-3.579462,0.022136,0.947249,0.300701
9599037183,3.700382,-7.734812,-3.521628,0.028094,0.947255,0.286232
9599039681,3.578524,-7.369838,-3.524054,0.033912,0.945034,0.284099
9599042178,3.578469,-6.944164,-3.465686,0.036095,0.942843,0.281926
9599044676,3.761581,-6.458098,-3.467683,0.038240,0.932673,0.276059
9599047173,4.188468,-5.911533,-3.408450,0.046203,0.921005,0.268791
9599049671,4.554368,-5.364868,-3.349435,0.052961,0.917414,0.243402
9599052168,4.798335,-4.696411,-3.291520,0.042316,0.927024,0.225189
9599054666,4.981144,-3.966954,-3.173466,0.034159,0.921961,0.236689
9599057163,5.530005,-3.420589,-3.113796,0.041090,0.902214,0.253332
9599059661,6.383569,-2.996211,-2.991683,0.041229,0.893580,0.230739
9599062158,7.419997,-2.876112,-2.867258,0.039224,0.883532,0.203024
9599064656,8.517201,-2.816805,-2.681595,0.035316,0.868249,0.216674
9599067153,9.675754,-2.818602,-2.616758,0.033671,0.857325,0.226021
9599069650,11.017283,-2.759904,-2.551598,0.027927,0.853783,0.215030
9599072148,12.298205,-2.701314,-2.608032,0.018480,0.856039,0.216397
9599074646,13.457382,-2.521037,-2.726254,0.011174,0.856811,0.220682
9599077143,14.555573,-2.340661,-2.844694,0.003820,0.854668,0.227126
9599079641,15.471013,-2.099292,-3.024809,-0.003415,0.853297,0.221948
9599082138,16.325106,-1.796819,-3.084098,-0.010568,0.855579,0.211712
9599084635,17.057568,-1.615946,-3.264536,-0.017931,0.857053,0.222543
9599087133,17.790199,-1.495973,-3.505331,-0.023086,0.859243,0.231224
9599089630,18.522982,-1.497696,-3.806151,-0.028045,0.865855,0.223952
9599092128,19.377907,-1.560519,-4.166892,-0.033861,0.874594,0.231948
9599094625,20.293818,-1.623442,-4.527413,-0.037675,0.878899,0.254467
9599097123,21.270794,-1.443283,-4.889043,-0.037028,0.882481,0.266130
9599099621,22.064489,-1.080227,-5.130945,-0.036004,0.892730,0.245142
9599102118,22.736418,-0.656280,-5.434304,-0.036002,0.901420,0.253202
9599104615,23.407799,-0.171224,-5.555931,-0.030248,0.911482,0.269330
9599107113,24.140186,0.374528,-5.677670,-0.021284,0.923811,0.256440
9599109610,24.811586,0.920380,-5.799627,-0.016009,0.932530,0.245663
9599112108,25.360977,1.344840,-5.921359,-0.009379,0.939749,0.243610
9599114605,25.727388,1.708805,-6.043414,-0.002670,0.946999,0.233564
9599117103,25.910763,1.829888,-6.164798,0.008227,0.950522,0.238072
9599119601,25.971767,1.890583,-6.164911,0.018619,0.959932,0.225176
9599122098,25.788847,2.012475,-6.166229,0.026059,0.971522,0.218804
9599124595,25.483765,2.134671,-6.107296,0.034669,0.975021,0.234187
9599127093,25.239498,2.317668,-5.987787,0.046348,0.980732,0.235086
9599129590,24.994854,2.500873,-5.746902,0.053196,0.991658,0.214168
9599132088,24.567326,2.927561,-5.507999,0.059841,0.998883,0.210662
9599134585,23.956062,3.294171,-5.026667,0.066228,1.000212,0.228185
9599137083,23.161991,3.539386,-4.606015,0.070137,1.003910,0.203546
9599139580,22.367939,3.845396,-4.185694,0.075347,1.002466,0.189784
9599142078,21.574057,4.090506,-3.825730,0.071012,1.003239,0.187562
9599144575,20.841162,4.335516,-3.465547,0.069752,1.008397,0.172325
9599147072,20.291376,4.458530,-3.164735,0.069784,1.002617,0.163561
9599149570,19.924740,4.581140,-2.923956,0.065273,0.991734,0.168517
9599152068,20.168364,4.763335,-2.802701,0.063687,0.988798,0.179378
9599154565,20.838913,5.005626,-2.680248,0.060802,0.984488,0.172773
9599157063,21.692608,5.247512,-2.617829,0.057216,0.985263,0.168379
9599159560,22.423801,5.611502,-2.374445,0.056294,0.980123,0.183592
9599162057,23.094049,6.097185,-2.131943,0.053090,0.969169,0.203823
9599164555,23.581562,6.704655,-1.951447,0.049878,0.958213,0.224781
9599167052,24.129684,7.312233,-1.649356,0.054802,0.952311,0.236418
9599169550,24.677540,7.676733,-1.285251,0.056154,0.946465,0.241477
9599172047,25.042568,7.859042,-0.981495,0.056341,0.951608,0.226982
9599174545,25.102798,7.859359,-0.738524,0.054543,0.959743,0.195047
9599177043,24.918835,7.677794,-0.434744,0.054429,0.960423,0.207405
9599179540,24.734684,7.496333,-0.070276,0.054433,0.955355,0.202280
9599182038,24.672676,7.253773,0.234272,0.051200,0.965684,0.170345
9599184535,24.732828,7.010907,0.478569,0.042598,0.970876,0.162295
9599187032,24.854137,6.707041,0.662727,0.045204,0.970731,0.193573
9599189530,25.219221,6.463675,0.908115,0.045459,0.980245,0.176206
9599192027,25.645823,6.098304,0.972321,0.040514,0.984691,0.165284
9599194525,26.316729,5.671529,0.916355,0.026606,0.988393,0.178240
9599197022,27.048754,5.062163,0.800914,0.019912,0.990562,0.195624
9599199520,27.963755,4.513291,0.685796,0.011254,0.997180,0.194852
9599202017,28.878170,3.903937,0.753074,0.001970,1.008913,0.188297
9599204515,29.731468,3.477175,0.879828,-0.005391,1.017629,0.205724
9599207012,30.706924,3.050108,0.946330,-0.011358,1.021963,0.225313
9599209510,31.804358,2.622840,1.013269,-0.017813,1.025676,0.219456
9599212007,32.779984,2.134873,1.019414,-0.022674,1.032327,0.202010
9599214505,33.694607,1.586210,1.025673,-0.024855,1.032346,0.201986
9599217002,34.243462,0.916452,0.970596,-0.030015,1.031637,0.208465
9599219500,34.609528,0.186095,0.854508,-0.044927,1.036979,0.176364
9599221997,34.792679,-0.422372,0.737101,-0.043695,1.031809,0.194507
9599224494,34.792961,-0.726559,0.617383,-0.040878,1.031024,0.203253
9599226992,34.610531,-0.848163,0.435326,-0.041227,1.035525,0.168399
9599229489,34.062408,-0.847680,0.190609,-0.041259,1.040581,0.176431
9599231987,33.331539,-0.786205,-0.115783,-0.037761,1.035426,0.185879
9599234485,32.600517,-0.603034,-0.362151,-0.036755,1.039876,0.161214
9599236982,32.052528,-0.176981,-0.609188,-0.039548,1.036326,0.145895
9599239480,31.748890,0.309259,-0.977061,-0.030778,1.032648,0.137969
9599241978,31.689383,0.794994,-1.404748,-0.020300,1.039920,0.114157
9599244476,31.751429,1.159146,-1.709959,-0.012880,1.037745,0.096780
9599246973,31.996851,1.644381,-2.136554,-0.000732,1.028141,0.109923
9599249471,32.668983,2.129019,-2.500932,0.013517,1.022107,0.134745
9599251968,33.585396,2.430662,-2.984819,0.024080,1.028689,0.101480
9599254466,34.379749,2.489322,-3.467817,0.028256,1.044078,0.060217
9599256963,34.869137,2.426890,-3.951243,0.023200,1.047032,0.059457
9599259461,34.931446,2.426059,-4.375841,0.021005,1.047045,0.060887
9599261958,34.505775,2.730112,-4.743156,0.015600,1.053775,0.024540
9599264456,33.591869,3.156766,-4.991504,0.013242,1.054448,0.043415
9599266953,32.373653,3.765995,-5.424003,0.012461,1.051965,0.121876
9599269451,31.216396,4.253531,-5.855620,0.014357,1.056178,0.155360
9599271948,30.364197,4.558076,-6.345839,0.005711,1.064973,0.155331
9599274445,29.511732,4.619542,-6.774044,-0.000036,1.067222,0.150197
9599276943,28.597675,4.559831,-7.019741,-0.008908,1.074775,0.097103
9599279441,27.256105,4.379540,-7.084238,-0.016027,1.080691,0.086895
9599281938,25.609377,4.078264,-7.088476,-0.015348,1.089354,0.100049
9599284435,23.535877,3.595197,-7.153936,-0.010665,1.095237,0.072529
9599286933,21.218582,2.990834,-7.280295,-0.006701,1.100404,0.043541
9599289430,18.718328,2.386772,-7.407309,-0.002354,1.103257,0.047971
9599291928,16.523197,1.782104,-7.593919,-0.000857,1.113399,0.053152
9599294425,14.694021,1.298428,-7.779882,0.004379,1.116309,0.040877
9599296923,13.596360,0.996146,-7.842843,0.013847,1.112614,0.035866
9599299420,13.108185,0.693073,-7.782245,0.008929,1.109830,0.015442
9599301918,13.046138,0.328921,-7.477034,0.005617,1.111437,-0.016560
9599304415,13.044661,-0.156715,-7.049565,0.001609,1.118857,-0.046345
9599306913,12.859844,-0.641841,-6.501375,-0.006895,1.126260,-0.062371
9599309410,12.614252,-1.066175,-6.014423,-0.012690,1.125595,-0.065347
9599311908,12.246781,-1.186331,-5.529566,-0.010613,1.122639,-0.057352
9599314405,11.818741,-1.185005,-5.166965,-0.006922,1.125525,-0.060197
9599316903,11.268805,-0.940295,-4.806128,-0.006343,1.124736,-0.045661
9599319400,10.901997,-0.756785,-4.504992,-0.000872,1.114412,-0.019516
9599321898,10.839972,-0.452080,-4.142739,0.000354,1.105620,-0.004307
9599324395,11.083179,-0.391267,-3.899445,0.006069,1.100461,0.001531
9599326892,11.448282,-0.573837,-3.654388,0.006535,1.088042,0.016704
9599329390,11.935282,-0.999791,-3.407569,0.000595,1.083698,0.025327
9599331888,12.422415,-1.608235,-3.220443,-0.000053,1.080840,0.014397
9599334385,12.604767,-2.337875,-3.094434,-0.003607,1.075110,0.000507
9599336882,12.543191,-3.006320,-2.969630,-0.007169,1.069378,-0.012657
9599339380,12.176723,-3.552672,-2.846580,-0.008536,1.065081,-0.025786
9599341877,11.505153,-4.037623,-2.664266,-0.003065,1.064465,-0.065702
9599344375,10.651078,-4.279301,-2.605309,-0.006491,1.068924,-0.083148
9599346872,9.492109,-4.398886,-2.548106,-0.018853,1.070477,-0.081819
9599349370,8.394903,-4.458193,-2.733770,-0.018186,1.065379,-0.080397
9599351867,7.480676,-4.457005,-2.919109,-0.013166,1.063135,-0.075271
9599354365,6.810811,-4.334835,-3.225615,-0.014628,1.065317,-0.072364
9599356863,6.323942,-4.091373,-3.532128,-0.015290,1.063177,-0.081108
9599359360,5.958517,-3.726207,-3.656803,-0.008006,1.063843,-0.081750
9599361857,5.836848,-3.361337,-3.719917,0.000642,1.063738,-0.073661
9599364355,6.142613,-3.119072,-3.962903,0.012284,1.060745,-0.077189
9599366852,6.753442,-3.059799,-4.264492,0.015214,1.060005,-0.080069
9599369350,7.425011,-3.182909,-4.504179,0.011598,1.062940,-0.079360
9599371847,8.034798,-3.427093,-4.500669,0.013780,1.062197,-0.080068
9599374345,8.644680,-3.367298,-4.498817,0.022498,1.051258,-0.089502
9599376842,9.193541,-2.820933,-4.439147,0.026032,1.043222,-0.086617
9599379340,9.742685,-1.970693,-4.441823,0.025159,1.040274,-0.074294
9599381837,10.291945,-0.755680,-4.446487,0.018497,1.037387,-0.064942
9599384356,10.901831,0.520238,-4.329889,0.019113,1.034440,-0.056236
9599386836,11.389915,1.735456,-4.274084,0.021184,1.030033,-0.048979
9599389329,11.938340,2.707705,-4.034670,0.016742,1.022074,-0.048361
9599391826,12.365115,3.497557,-3.916075,0.016725,1.016275,-0.052039
9599394323,12.730316,4.227027,-3.615302,0.024626,1.013271,-0.044707
9599396821,13.095857,4.834697,-3.435242,0.031010,1.008807,-0.032315
9599399318,13.461153,5.260084,-3.193500,0.034460,1.001462,-0.019978
9599401816,13.948742,5.502675,-3.071702,0.034371,0.997082,-0.014925
9599404313,14.497260,5.562778,-2.948693,0.032839,0.997063,-0.006947
9599406811,15.228737,5.622582,-2.825028,0.032727,0.994847,0.002482
9599409308,16.082033,5.803881,-2.640901,0.031961,0.990493,0.002441
9599411806,17.057590,6.288855,-2.518683,0.025322,0.984719,0.006685
9599414303,18.155176,6.956015,-2.397022,0.016513,0.984036,0.014577
9599416801,19.130827,7.744967,-2.276462,0.011346,0.983325,0.021782
9599419298,19.983921,8.473635,-1.973942,0.003993,0.978287,0.025297
9599421796,20.776028,9.202404,-1.671641,0.001046,0.973228,0.024499
9599424293,21.506880,9.688194,-1.307544,0.000098,0.965181,0.039690
9599426791,22.238207,9.869695,-1.123854,0.001380,0.958584,0.051282
9599429288,22.908222,9.625827,-0.877374,0.001997,0.954913,0.059256
9599431785,23.700495,9.077574,-0.750176,0.001898,0.954150,0.068696
9599434283,24.431725,8.347034,-0.622202,0.008389,0.949728,0.070188
9599436780,25.102533,7.616280,-0.676510,0.011258,0.943895,0.068722
9599439278,25.651030,7.007526,-0.610542,0.006132,0.945373,0.073764
9599441776,26.078159,6.520251,-0.727738,-0.003230,0.949110,0.067875
9599444273,26.383545,6.154664,-0.906722,-0.006711,0.949203,0.051849
9599446770,26.384150,5.667881,-1.146822,-0.004520,0.945567,0.047485
9599449268,26.140640,5.242397,-1.327440,-0.006092,0.941913,0.056161
9599451765,25.775269,4.573828,-1.567856,-0.006120,0.941901,0.059068
9599454263,25.410275,3.905049,-1.929648,-0.007610,0.942624,0.063417
9599456760,25.228012,3.114483,-2.229434,-0.017154,0.942669,0.072760
9599459258,25.045374,2.324126,-2.407845,-0.021567,0.944134,0.079263
9599461755,24.984575,1.716060,-2.526124,-0.026762,0.944136,0.090107
9599464253,24.862488,1.351486,-2.524572,-0.029663,0.943440,0.088617
9599466750,24.497137,1.351773,-2.707947,-0.027369,0.944190,0.077746
9599469248,23.765490,1.352870,-2.771255,-0.025182,0.945622,0.078508
9599471745,22.545801,1.476463,-2.776285,-0.024446,0.943447,0.075593
9599474243,21.143076,1.357173,-2.780644,-0.028805,0.937693,0.069687
9599476740,19.374187,1.056202,-2.724631,-0.027314,0.934075,0.062409
9599479238,17.421715,0.573456,-2.486214,-0.021477,0.925344,0.052233
9599481735,15.164120,0.091315,-2.188200,-0.018531,0.920990,0.044238
9599484232,12.784552,-0.390625,-1.890624,-0.016230,0.921018,0.031909
9599486730,10.588132,-0.872970,-1.653081,-0.012542,0.916663,0.022469
9599489227,8.696892,-1.173533,-1.476128,-0.011318,0.912939,0.042804
9599491725,7.476181,-1.292601,-1.176391,-0.012946,0.908538,0.056561
9599494222,6.682658,-1.108495,-0.937472,-0.014348,0.903503,0.046333
9599496720,6.255150,-0.621012,-0.698900,-0.017171,0.902838,0.036849
9599499218,5.950069,0.109246,-0.582593,-0.020147,0.897767,0.038958
9599501715,5.705955,0.778608,-0.465737,-0.015830,0.891195,0.037503
9599504212,5.461614,1.326483,-0.287529,-0.013604,0.887574,0.029506
9599506710,5.034067,1.692375,-0.048294,-0.013473,0.893418,0.021557
9599509208,4.546005,1.754076,0.010316,-0.015544,0.896377,0.012836
9599511705,3.936046,1.451098,0.009790,-0.016232,0.902192,0.014325
9599514202,3.326408,0.965525,-0.111118,-0.013390,0.906485,0.025290
9599516700,2.960620,0.175572,-0.229495,-0.009835,0.910766,0.037716
9599519197,2.899896,-0.797372,-0.406474,-0.012074,0.912934,0.045702
9599521695,3.083060,-1.953104,-0.581586,-0.009893,0.924500,0.056715
9599524192,3.388348,-3.230732,-0.816285,-0.010716,0.932433,0.074208
9599526690,3.754622,-4.508460,-1.050766,-0.015072,0.943335,0.083690
9599529187,4.242718,-5.664693,-1.224786,-0.019341,0.951374,0.081523
9599531685,4.791460,-6.699225,-1.277874,-0.023747,0.953566,0.088032
9599534182,5.462023,-7.612262,-1.270499,-0.027442,0.958643,0.098930
9599536680,6.132454,-8.342808,-1.203432,-0.033220,0.964501,0.100364
9599539177,6.863929,-8.891066,-1.137140,-0.039767,0.969624,0.105418
9599541675,7.473111,-9.256529,-0.950903,-0.045576,0.968229,0.103163
9599544172,7.899220,-9.378402,-0.705960,-0.058691,0.966882,0.104462
9599546670,8.203281,-9.135199,-0.402753,-0.067359,0.966256,0.097821
9599549167,8.385901,-8.405636,-0.224012,-0.078212,0.960578,0.086757
9599551664,8.263705,-7.310800,-0.048351,-0.081131,0.954806,0.082321
9599554162,7.958607,-6.033276,0.125661,-0.085472,0.954128,0.079361
9599556659,7.531896,-4.816556,0.178191,-0.086916,0.948352,0.072761
9599559157,6.983344,-3.782129,0.170591,-0.081825,0.947585,0.072084
9599561654,6.374315,-2.930301,-0.018298,-0.080303,0.951220,0.068495
9599564152,5.704583,-2.382560,-0.327124,-0.072316,0.946078,0.064910
9599566649,4.973997,-2.017211,-0.695861,-0.062033,0.949652,0.057783
9599569147,4.243145,-1.894941,-1.002585,-0.066317,0.947549,0.047546
9599571644,3.573260,-1.833566,-1.308759,-0.062047,0.938785,0.048980
9599574142,2.842332,-1.954478,-1.614157,-0.057624,0.943116,0.046881
9599576639,2.233376,-2.075591,-1.919118,-0.047484,0.937945,0.046227
9599579137,1.746525,-2.379395,-2.283336,-0.042393,0.935730,0.044086
9599581634,1.320472,-2.683195,-2.586647,-0.039415,0.937180,0.038316
9599584132,0.954779,-3.169169,-2.706682,-0.035739,0.939338,0.036193
9599586629,0.528081,-3.715838,-2.826603,-0.029161,0.942191,0.035560
9599589127,0.040188,-4.323100,-2.885723,-0.025452,0.947982,0.033464
9599591624,-0.569715,-5.051752,-2.944617,-0.021607,0.951654,0.015366
9599594122,-1.302159,-5.779890,-2.821883,-0.019240,0.958950,0.003092
9599596619,-1.973957,-6.386329,-2.578218,-0.018394,0.971300,0.002468
9599599117,-2.524104,-6.810372,-2.213734,-0.018399,0.969126,0.000998
9599601614,-3.074401,-7.112720,-1.789226,-0.012525,0.989373,0.014297
9599604113,-3.868891,-7.596950,-1.303908,-0.013206,1.004898,-0.051001
9599606611,-4.846359,-8.141675,-0.818913,-0.018315,1.013623,-0.040817
9599609108,-5.946065,-8.929278,-0.272341,-0.016515,1.014177,-0.000822
9599611606,-6.862981,-9.656282,0.335242,-0.018884,1.031070,-0.040692
9599614103,-7.718913,-10.383385,0.943044,-0.026598,1.039940,-0.061786
9599616600,-8.391430,-10.867816,1.428799,-0.034802,1.042099,-0.038604
9599619098,-8.880551,-11.170367,1.792838,-0.043440,1.048726,-0.041556
9599621596,-9.125690,-11.351727,2.157087,-0.052643,1.056871,-0.059765
9599624093,-9.248287,-11.533602,2.339710,-0.057845,1.055422,-0.049659
9599626591,-9.248571,-11.837477,2.402055,-0.066023,1.062660,-0.024258
9599629088,-9.126734,-12.263247,2.404812,-0.072389,1.070752,-0.035169
9599631585,-8.944078,-12.628216,2.468144,-0.084631,1.073801,-0.044728
9599634083,-8.639204,-12.811104,2.470230,-0.085582,1.070098,-0.025145
9599636580,-8.151313,-12.811905,2.471977,-0.084876,1.070807,-0.022224
9599639078,-7.602208,-12.691319,2.412591,-0.076070,1.076557,-0.024991
9599641575,-7.235873,-12.570537,2.291862,-0.068073,1.077936,-0.023439
9599644073,-7.052099,-12.388866,2.048770,-0.061668,1.073481,-0.013227
9599646570,-7.112689,-12.328179,1.926844,-0.052281,1.064685,-0.014644
9599649068,-7.417658,-12.449270,1.926416,-0.054485,1.067590,-0.009559
9599651565,-7.784278,-12.873927,2.109490,-0.047225,1.063179,-0.012419
9599654063,-8.150746,-13.420280,2.232540,-0.032133,1.052840,-0.003610
9599656560,-8.456665,-14.148910,2.478178,-0.022612,1.054959,-0.008576
9599659058,-8.945750,-14.937932,2.784181,-0.020253,1.052115,-0.029647
9599661555,-9.373868,-15.787849,3.090734,-0.023574,1.035322,-0.002921
9599664053,-9.740849,-16.759562,3.337480,-0.020838,1.029436,0.009420
9599666550,-9.924682,-17.731678,3.524192,-0.019160,1.020823,-0.021877
9599669048,-9.986505,-18.582407,3.710679,-0.016384,1.006988,-0.021224
9599671545,-10.108894,-19.311649,3.774908,-0.017171,1.001902,-0.019817
9599674043,-10.475533,-19.797102,3.958314,-0.019819,1.002755,-0.046003
9599676540,-10.842532,-20.221550,4.262765,-0.018243,0.999170,-0.062001
9599679038,-11.453646,-20.584696,4.626698,-0.018872,1.001387,-0.069986
9599681535,-12.065478,-20.825836,5.232722,-0.015071,0.995629,-0.092516
9599684033,-13.043153,-20.823191,5.836110,-0.013516,0.992037,-0.106335
9599686530,-14.081964,-20.698750,6.499304,-0.010354,0.992837,-0.131730
9599689027,-15.303357,-20.574217,7.040467,-0.011011,0.992871,-0.139004
9599691526,-16.402567,-20.389194,7.521047,-0.010354,0.992113,-0.132462
9599694023,-17.318083,-20.265684,7.759861,-0.008101,0.990674,-0.141169
9599696520,-18.111473,-20.264071,7.939086,-0.009471,0.991444,-0.149173
9599699017,-18.722111,-20.323446,8.179987,-0.009331,0.992948,-0.162241
9599701515,-19.210760,-20.322227,8.420993,-0.009499,0.991433,-0.146266
9599704012,-19.394249,-20.200024,8.601739,-0.011851,0.994280,-0.125922
9599706510,-19.272482,-19.652853,8.720569,-0.008100,1.000088,-0.132377
9599709007,-18.967680,-18.862801,8.838727,-0.005047,1.005189,-0.142479
9599711505,-18.662556,-17.647284,8.893878,-0.011627,1.008126,-0.135989
9599714003,-18.296425,-16.371067,8.948915,-0.013270,1.004444,-0.120047
9599716500,-17.929710,-15.034373,8.821556,-0.009858,1.000704,-0.100415
9599718997,-17.563047,-13.880064,8.695191,-0.009096,1.001435,-0.103308
9599721495,-17.440092,-13.151133,8.448898,-0.000336,1.002822,-0.105381
9599723992,-17.622255,-13.029659,8.204828,0.009780,1.002709,-0.098730
9599726490,-17.925787,-13.394768,7.720221,0.014770,1.003350,-0.087769
9599728987,-18.351236,-14.185350,7.176808,0.013313,1.007706,-0.083391
9599731485,-18.776896,-15.036625,6.694416,0.011291,1.012857,-0.095003
9599733982,-19.324905,-15.887490,6.332963,0.015747,1.020821,-0.097074
9599736480,-19.995226,-16.616354,6.091786,0.021596,1.025852,-0.095518
9599738977,-20.665472,-17.102037,5.849283,0.030998,1.026476,-0.089596
9599741475,-21.336094,-17.587511,5.728157,0.038186,1.035793,-0.072004
9599743972,-22.007193,-18.376755,5.730064,0.048450,1.046600,-0.070356
9599746470,-22.556870,-19.105087,5.914141,0.061648,1.050876,-0.077446
9599748981,-23.045782,-19.346951,6.217161,0.066604,1.049331,-0.065048
9599751463,-23.473669,-18.859255,6.577109,0.062137,1.047155,-0.056392
9599753961,-24.023472,-18.188976,6.935627,0.054134,1.045049,-0.057950
9599756458,-24.817295,-17.761480,7.294596,0.046729,1.044335,-0.044956
9599758956,-25.550287,-17.820446,7.656436,0.043008,1.046504,-0.034079
9599761453,-26.161270,-18.366085,7.960676,0.033604,1.047329,-0.038537
9599763951,-26.711134,-19.094316,8.205441,0.017753,1.053316,-0.048114
9599766448,-27.382685,-19.518473,8.387424,0.005568,1.065801,-0.054695
9599768945,-28.054443,-19.395258,8.687799,0.001000,1.067205,-0.032206
9599771443,-28.482292,-18.785976,9.047086,0.002994,1.072905,-0.007431
9599773941,-28.665703,-17.812525,9.283878,0.009034,1.088873,-0.015239
9599776438,-28.787579,-16.900284,9.339158,0.013524,1.099023,-0.018746
9599778936,-28.970402,-15.866353,9.393556,0.013565,1.111349,-0.011386
9599781433,-29.275026,-14.893124,9.387160,0.020152,1.122171,-0.005417
9599783930,-29.579672,-13.980686,9.381096,0.027285,1.127846,0.014326
9599786428,-29.701189,-13.129450,9.315331,0.030969,1.140144,0.021000
9599788926,-29.700752,-12.339211,9.250334,0.034881,1.149635,0.001493
9599791423,-29.639858,-11.427166,9.366956,0.039996,1.153946,0.003035
9599793920,-29.334827,-10.515627,9.423763,0.045455,1.150134,0.036497
9599796418,-28.664164,-9.300499,9.601601,0.053900,1.147775,0.063462
9599798915,-27.566216,-8.086283,9.659590,0.064043,1.149121,0.068672
9599801413,-26.224909,-6.932948,9.900847,0.076341,1.148266,0.074615
9599803910,-24.883907,-6.144284,10.204782,0.089351,1.147399,0.082019
9599806408,-23.726151,-5.659193,10.570408,0.100320,1.148778,0.077063
9599808905,-23.178162,-5.477184,10.874820,0.109213,1.150218,0.061184
9599811403,-23.361763,-5.719754,11.057554,0.118280,1.157519,0.032995
9599813900,-24.399084,-6.265005,11.178202,0.122964,1.161954,0.004011
9599816398,-25.985088,-6.809460,11.236196,0.125229,1.163417,-0.003221
9599818895,-27.875553,-7.049645,11.170065,0.126564,1.161185,0.006951
9599821393,-29.766302,-6.985642,11.223653,0.123952,1.150896,0.041729
9599823890,-31.473881,-6.861248,11.216876,0.122389,1.133916,0.112079
9599826388,-32.998581,-6.980338,11.212080,0.125614,1.116049,0.212998
9599828885,-34.400909,-7.647101,11.028640,0.123984,1.103387,0.294280
9599831383,-35.864208,-8.861032,10.787276,0.106421,1.092631,0.295459
9599833880,-37.449570,-10.378740,10.547133,0.080512,1.072688,0.248511
9599836378,-38.791142,-11.775153,10.367890,0.064875,1.053846,0.268545
9599838875,-39.339588,-12.808198,10.128807,0.053323,1.037030,0.319164
9599841373,-38.790413,-13.660552,9.953349,0.042312,1.023325,0.316759
9599843870,-37.448753,-14.392406,9.901443,0.026414,1.013364,0.296886
9599846368,-35.558933,-15.003153,10.093590,0.008877,1.005515,0.298087
9599848865,-33.425243,-15.249421,10.345311,-0.002885,0.996875,0.302979
9599851362,-31.047813,-14.948719,10.716298,-0.008761,0.990385,0.302866
9599853860,-28.609381,-13.979260,11.144546,-0.015821,0.991255,0.281719
9599856357,-26.414679,-12.340649,11.568274,-0.022154,0.993567,0.262044
9599858855,-24.707680,-10.093280,11.986938,-0.025216,0.991359,0.275802
9599861352,-23.365536,-7.481056,12.098865,-0.017203,0.989124,0.272240
9599863850,-22.267529,-4.868328,12.270606,-0.010475,0.987693,0.251954
9599866348,-21.352156,-2.437896,12.321311,0.003834,0.987475,0.276093
9599868845,-20.497927,-0.493730,12.374448,0.021749,0.990111,0.306107
9599871342,-19.765781,1.085862,12.429138,0.038421,0.992843,0.314306
9599873840,-19.155365,2.239876,12.364335,0.055071,0.996291,0.325417
9599876338,-18.789370,3.090520,12.421693,0.070263,0.996129,0.333577
9599878835,-18.605993,3.819664,12.357682,0.081834,0.993832,0.338048
9599881332,-18.788759,4.427920,12.353712,0.096340,0.994417,0.342573
9599883830,-19.459663,4.854696,12.409678,0.107214,1.000827,0.352189
9599886327,-20.496717,5.160585,12.525684,0.115092,1.001435,0.365362
9599888825,-21.655212,5.344769,12.459853,0.124412,0.998405,0.376343
9599891322,-22.874729,5.407462,12.394467,0.120763,0.996983,0.376292
9599893820,-24.094456,5.409464,12.390100,0.108451,0.999280,0.373266
9599896317,-25.314583,5.350879,12.507441,0.093299,1.003802,0.365139
9599898815,-26.473873,5.413889,12.685024,0.078142,1.005426,0.354810
9599901312,-27.572079,5.780778,12.861170,0.064423,1.009927,0.348878
9599903810,-28.487064,6.390445,12.975956,0.054992,1.009293,0.345863
9599906307,-29.279657,7.121295,12.969140,0.044108,1.008671,0.342831
9599908805,-29.766941,7.851436,12.842039,0.030185,1.012367,0.357240
9599911302,-29.949348,8.398687,12.717024,0.022129,1.014585,0.365162
9599913800,-29.704947,8.641261,12.595195,0.016228,1.014602,0.373818
9599916297,-29.094725,8.579256,12.476335,0.011086,1.008108,0.372986
9599918795,-28.422985,8.395246,12.176291,0.009655,1.005233,0.367861
9599921292,-27.750757,7.967741,11.695508,0.005359,0.999505,0.355416
9599923790,-27.139910,7.479748,11.336214,-0.000386,0.997411,0.345889
9599926287,-26.590487,6.809677,11.099073,-0.000318,0.990921,0.332759
9599928784,-25.918919,6.078506,10.802012,-0.002532,0.985859,0.331243
9599931282,-25.308546,5.286743,10.565752,-0.003962,0.982260,0.325386
9599933779,-24.637337,4.616576,10.389736,-0.006789,0.975077,0.310039
9599936277,-23.844101,4.128596,10.213163,-0.002471,0.967781,0.307852
9599938774,-22.989441,3.822695,9.914436,0.001166,0.966302,0.306427
9599941272,-22.134535,3.699076,9.554028,-0.001050,0.953998,0.298316
9599943769,-21.218414,3.696844,9.132486,0.007699,0.949588,0.291838
9599946267,-20.302444,3.816308,8.770970,0.008318,0.941574,0.295418
9599948764,-19.325680,3.935776,8.470360,0.008979,0.934301,0.295371
9599951262,-18.531492,4.055336,8.047719,0.016391,0.933570,0.280185
9599953759,-17.737459,4.296591,7.685103,0.023603,0.927692,0.280947
9599956257,-16.942986,4.720025,7.200116,0.029324,0.921811,0.285327
9599958754,-16.209900,5.082972,6.836619,0.036577,0.916673,0.282461
9599961252,-15.477004,5.446023,6.533810,0.042316,0.905731,0.280261
9599963749,-14.744296,5.809179,6.291689,0.047300,0.904921,0.290485
9599966247,-13.950544,6.354622,6.048792,0.051636,0.902701,0.291242
9599968746,-13.034801,6.960661,5.806000,0.056680,0.897570,0.291259
9599971243,-12.057654,7.687982,5.441387,0.061769,0.897527,0.291315
9599973741,-11.141304,8.415298,5.015868,0.068294,0.893843,0.289906
9599976238,-10.346889,9.264405,4.589250,0.067574,0.894576,0.289903
9599978736,-9.735434,10.113814,4.161975,0.067017,0.903339,0.280516
9599981233,-9.246198,10.781139,3.795948,0.065464,0.904036,0.291405
9599983731,-8.879369,11.266489,3.551853,0.061221,0.905569,0.280469
9599986228,-8.573754,11.630448,3.368892,0.057554,0.898347,0.276740
9599988725,-8.207760,11.873031,3.368876,0.055371,0.889676,0.268656
9599991223,-7.902829,11.872530,3.369968,0.053801,0.884574,0.275868
9599993721,-7.597935,11.750439,3.371723,0.050479,0.879661,0.238730
9599996218,-7.231734,11.445651,3.253314,0.041595,0.885465,0.260478
9599998715,-6.865343,11.140759,3.074217,0.026235,0.884112,0.268293
9600001213,-6.499142,10.835971,2.955809,0.018876,0.879071,0.272534
9600003710,-5.949944,10.652473,2.837392,0.016685,0.881983,0.276166
9600006208,-5.217767,10.529473,2.719299,0.009429,0.882051,0.274633
9600008705,-4.424793,10.406477,2.662112,0.005125,0.877767,0.264379
9600011203,-3.692598,10.344271,2.543688,0.004220,0.869014,0.274477
9600013700,-3.082375,10.282266,2.424827,0.003517,0.865409,0.268628
9600016198,-2.715908,10.220556,2.244404,0.002833,0.863261,0.262064
9600018695,-2.532439,10.037556,2.063989,-0.003715,0.870556,0.269314
9600021193,-2.592933,9.794159,1.883032,-0.005145,0.877095,0.272981
9600023690,-2.775648,9.368681,1.763321,0.004993,0.875542,0.275988
9600026188,-3.140962,8.882499,1.521911,0.007203,0.873363,0.270909
9600028685,-3.628287,8.274925,1.280726,0.008702,0.869748,0.262904
9600031183,-4.481908,7.668161,1.159608,0.018405,0.875559,0.242706
9600033680,-5.701486,6.940405,1.037842,0.028014,0.884229,0.234883
9600036178,-7.042620,6.334232,0.793601,0.032222,0.882682,0.249453
9600038675,-8.200548,5.910042,0.488332,0.038740,0.878271,0.248038
9600041173,-8.931287,5.789025,0.122246,0.041722,0.873207,0.235678
9600043670,-9.235065,5.849695,-0.243305,0.040939,0.873191,0.241483
9600046168,-9.051064,6.152852,-0.547748,0.049027,0.875330,0.234321
9600048665,-8.745621,6.577712,-0.670353,0.053575,0.883331,0.222803
9600051162,-8.379379,7.002578,-0.732051,0.050809,0.892102,0.216298
9600053660,-7.952417,7.184264,-0.731517,0.051555,0.895723,0.217787
9600056165,-7.586896,7.123076,-0.608500,0.053064,0.899353,0.215651
9600058655,-7.465378,6.879903,-0.485361,0.049640,0.899468,0.193812
9600061152,-7.466420,6.576446,-0.180263,0.047627,0.900278,0.177080
9600063650,-7.650402,6.334085,0.123848,0.049037,0.903144,0.184385
9600066148,-7.834156,6.213211,0.366609,0.048359,0.903894,0.180023
9600068645,-7.956299,6.274312,0.426529,0.049038,0.901696,0.182921
9600071142,-8.138406,6.578173,0.181464,0.047618,0.903895,0.181468
9600073640,-8.198351,6.881730,-0.123852,0.044770,0.908288,0.179289
9600076137,-8.136662,7.306887,-0.308019,0.039737,0.919215,0.183677
9600078635,-8.014746,7.732361,-0.249214,0.036825,0.925032,0.189503
9600081132,-7.771044,8.157740,-0.129285,0.036150,0.931575,0.190271
9600083630,-7.588577,8.400934,0.052108,0.033296,0.935242,0.188087
9600086127,-7.344972,8.522334,0.173695,0.027548,0.938940,0.184418
9600088625,-7.101215,8.522038,0.235257,0.020286,0.946247,0.190207
9600091122,-6.918484,8.400250,0.297263,0.021145,0.949913,0.180069
9600093620,-6.674955,8.278469,0.420175,0.022635,0.949915,0.176452
9600096117,-6.492242,8.095885,0.482513,0.016024,0.944152,0.177789
9600098615,-6.370535,7.852607,0.544964,0.009591,0.947148,0.169020
9600101112,-6.066116,7.426745,0.669752,0.011894,0.955143,0.164018
9600103610,-5.639800,6.757500,0.796303,0.023469,0.958640,0.173620
9600106107,-5.030393,5.905464,0.863815,0.026937,0.955646,0.188171
9600108604,-4.420569,5.174809,0.809288,0.024689,0.950569,0.190288
9600111123,-3.750100,4.565856,0.875693,0.024660,0.950558,0.193195
9600113603,-3.018605,4.078394,0.941653,0.027505,0.951232,0.200499
9600116096,-2.409103,3.530336,1.007508,0.028958,0.951943,0.201247
9600118593,-1.860795,2.921687,1.134164,0.030413,0.951931,0.201263
9600121090,-1.434460,2.313238,1.260384,0.032587,0.951185,0.201281
9600123588,-1.069282,1.765789,1.446742,0.036181,0.950413,0.204949
9600126085,-0.826266,1.218645,1.693351,0.036864,0.953286,0.212245
9600128583,-0.766227,0.611005,1.939636,0.041972,0.957594,0.214514
9600131080,-0.827991,-0.057335,2.125128,0.048646,0.963382,0.206637
9600133578,-0.950306,-0.543396,2.188032,0.049467,0.972102,0.205259
9600136075,-1.133588,-0.968561,2.250385,0.045176,0.980857,0.206004
9600138573,-1.439315,-1.089235,2.492709,0.043832,0.984534,0.198023
9600141070,-1.744853,-1.210013,2.674344,0.049698,0.985951,0.194464
9600143568,-2.172685,-1.147995,2.975925,0.052716,0.991038,0.187995
9600146065,-2.783494,-1.146472,3.277182,0.048462,0.997636,0.182911
9600148563,-3.516069,-1.084058,3.516983,0.046368,1.004206,0.180030
9600151060,-4.248473,-1.082544,3.696427,0.044283,1.008607,0.174226
9600153558,-4.858753,-1.202925,3.816282,0.047143,1.007115,0.177880
9600156055,-5.407858,-1.323512,3.875668,0.051430,1.004151,0.182993
9600158553,-5.896033,-1.626585,3.936267,0.051387,1.004858,0.188085
9600161050,-6.262066,-1.990759,3.936945,0.049210,1.008499,0.190995
9600163548,-6.444989,-2.476929,3.878254,0.045609,1.010716,0.189519
9600166045,-6.383966,-2.963499,3.820436,0.039744,1.009298,0.193077
9600168543,-6.262108,-3.328474,3.822862,0.040409,1.007095,0.197428
9600171040,-6.079093,-3.754448,3.765149,0.046933,1.004135,0.196751
9600173538,-5.956838,-4.058836,3.645867,0.045487,1.002703,0.194544
9600176035,-5.834601,-4.424018,3.526917,0.044782,1.001269,0.190892
9600178532,-5.833901,-4.606823,3.285158,0.045557,1.003455,0.188010
9600181030,-5.894282,-4.485445,3.102213,0.042006,1.004243,0.179982
9600183528,-5.954643,-4.303271,2.918936,0.040620,0.996318,0.165372
9600186025,-6.075366,-3.938923,2.552382,0.039169,0.991263,0.160231
9600188522,-6.196505,-3.695957,2.307867,0.039227,0.989114,0.152221
9600191020,-6.378763,-3.270400,2.122827,0.040006,0.984060,0.142017
9600193518,-6.439028,-2.784248,1.937892,0.040716,0.977530,0.137615
9600196015,-6.499105,-2.298199,1.692270,0.046407,0.964397,0.138306
9600198512,-6.376411,-1.812347,1.507990,0.054983,0.955574,0.145601
9600201010,-6.192770,-1.448186,1.324592,0.057088,0.953353,0.151422
9600203507,-5.765013,-1.145325,1.081711,0.059175,0.945332,0.153565
9600206005,-5.337615,-0.781460,0.959874,0.063463,0.941644,0.157945
9600208502,-4.849232,-0.417695,0.838256,0.066338,0.937986,0.157949
9600211000,-4.544204,-0.114217,0.837690,0.065551,0.931451,0.157891
9600213497,-4.238798,0.189052,0.715748,0.069846,0.927767,0.161544
9600215995,-3.933620,0.370834,0.655158,0.069749,0.924832,0.168788
9600218492,-3.567436,0.613312,0.594454,0.073288,0.920418,0.174608
9600220990,-3.201461,0.795099,0.594769,0.075406,0.921098,0.181904
9600223487,-2.835277,1.037577,0.534066,0.075333,0.924689,0.192832
9600225985,-2.652241,1.280460,0.533395,0.070990,0.927631,0.193533
9600228482,-2.529984,1.584134,0.471486,0.068083,0.924760,0.190572
9600230980,-2.469110,1.827321,0.531067,0.062994,0.924804,0.190516
9600233477,-2.469053,2.009708,0.530072,0.059364,0.927010,0.191946
9600235975,-2.590741,2.313782,0.467290,0.056412,0.928466,0.197739
9600238472,-2.834421,2.557261,0.404402,0.049052,0.924872,0.203444
9600240970,-3.077363,2.739527,0.099094,0.039551,0.923486,0.206963
9600243467,-3.320740,2.739614,-0.083844,0.034424,0.927135,0.214201
9600245964,-3.624934,2.678901,-0.327356,0.031417,0.926397,0.223610
9600248462,-3.807742,2.557506,-0.388036,0.025495,0.925681,0.233714
9600250961,-3.929015,2.374901,-0.630231,0.018950,0.928633,0.236571
9600253457,-4.111332,2.010010,-0.871650,0.020388,0.930786,0.240237
9600255955,-4.415621,1.645318,-1.113505,0.017442,0.935141,0.248232
9600258452,-4.659132,1.219836,-1.294122,0.010915,0.942444,0.253302
9600260949,-5.024466,0.672857,-1.535202,0.008013,0.943920,0.254008
9600263447,-5.389969,0.186779,-1.715924,0.006563,0.948279,0.257659
9600265944,-5.816100,-0.360204,-2.017910,0.010243,0.954782,0.259202
9600268442,-6.181583,-0.785487,-2.198964,0.011706,0.953325,0.257027
9600270939,-6.608073,-1.271465,-2.379905,0.014613,0.954747,0.258523
9600273437,-7.095530,-1.696547,-2.561395,0.020631,0.960570,0.243371
9600275934,-7.643935,-1.999938,-2.743767,0.025875,0.960588,0.227441
9600278432,-8.253269,-2.120842,-2.927352,0.026691,0.965685,0.223128
9600280929,-8.801826,-2.302537,-3.049700,0.027500,0.969332,0.218077
9600283427,-9.167423,-2.484533,-3.171391,0.031242,0.969343,0.207217
9600285924,-9.350080,-2.727624,-3.292097,0.037814,0.969298,0.204382
9600288422,-9.350156,-2.970807,-3.290771,0.040597,0.965603,0.213833
9600290919,-9.106268,-3.153594,-3.288903,0.045586,0.957554,0.216734
9600293416,-8.679533,-3.093395,-3.227018,0.052776,0.951667,0.219676
9600295914,-8.069782,-2.851109,-3.165472,0.060711,0.950849,0.225571
9600298411,-7.399385,-2.487122,-2.982995,0.065081,0.950815,0.224893
9600300909,-6.667794,-2.062544,-2.861319,0.066471,0.952225,0.232913
9600303406,-6.057985,-1.637871,-2.800767,0.067791,0.941298,0.236479
9600305904,-5.630758,-1.213106,-2.862247,0.072888,0.939809,0.234343
9600308401,-5.264535,-0.849036,-2.923614,0.068450,0.936196,0.238628
9600310899,-5.020665,-0.484558,-2.864042,0.068394,0.935450,0.243709
9600313396,-4.715865,-0.302567,-2.803256,0.063277,0.935482,0.246560
9600315894,-4.533057,-0.181171,-2.742576,0.060312,0.935485,0.252341
9600318391,-4.411066,-0.120576,-2.742471,0.059509,0.931841,0.256665
9600320889,-4.227879,0.000611,-2.803167,0.057245,0.928930,0.262432
9600323386,-4.105868,0.122002,-2.803393,0.051381,0.926065,0.264526
9600325884,-3.922662,0.303985,-2.864420,0.046248,0.928264,0.271027
9600328381,-3.739855,0.425381,-2.803740,0.040943,0.923153,0.288372
9600330880,-3.556687,0.485772,-2.864105,0.032252,0.924690,0.286107
9600333378,-3.251245,0.302571,-3.044083,0.032223,0.926127,0.290478
9600335875,-2.823092,0.057957,-3.466045,0.028446,0.926826,0.305704
9600338372,-2.394996,-0.369044,-3.887013,0.023341,0.928312,0.308566
9600340870,-1.844758,-0.857146,-4.367901,0.021920,0.932682,0.309310
9600343367,-1.416662,-1.284147,-4.788868,0.022678,0.939205,0.312274
9600345865,-1.049874,-1.528452,-5.089673,0.021955,0.944281,0.316665
9600348362,-0.683029,-1.590370,-5.391472,0.030040,0.950764,0.313896
9600350860,-0.316316,-1.469797,-5.633577,0.035218,0.956547,0.310363
9600353357,0.050228,-1.288324,-5.815326,0.042531,0.957226,0.306815
9600355855,0.538593,-0.985354,-5.936613,0.049701,0.949158,0.309740
9600358352,1.392914,-0.561394,-6.057252,0.059933,0.954161,0.309164
9600360850,2.551997,-0.077034,-6.116444,0.069284,0.946798,0.312845
9600363347,4.138155,0.345725,-6.234463,0.082217,0.935763,0.318719
9600365845,5.967501,0.768501,-6.108857,0.090848,0.927686,0.320933
9600368342,7.918990,1.130177,-6.043170,0.106184,0.921065,0.307971
9600370840,9.870232,1.309570,-5.915801,0.108075,0.922674,0.264399
9600373337,11.334132,1.428655,-5.971911,0.120851,0.923457,0.222394
9600375835,12.187999,1.609641,-5.969849,0.116189,0.927291,0.181674
9600378332,12.431718,2.095815,-5.850251,0.111462,0.933996,0.150422
9600380830,12.309178,2.704390,-5.611250,0.111967,0.939694,0.178814
9600383327,12.247477,3.434561,-5.312006,0.112626,0.936469,0.258012
9600385825,12.247062,3.921240,-5.132593,0.116949,0.933948,0.335076
9600388322,12.307858,3.921244,-5.071687,0.125170,0.927156,0.380901
9600390820,12.002944,3.374478,-5.130483,0.124898,0.921980,0.404115
9600393317,11.088089,2.585531,-5.190137,0.113547,0.922192,0.374922
9600395814,9.685439,2.101363,-5.253196,0.094994,0.924666,0.340578
9600398312,8.099679,1.739191,-5.256885,0.077655,0.926309,0.330225
9600400809,6.635950,1.559206,-5.261131,0.065294,0.927139,0.330822
9600403307,5.537930,1.317928,-5.203046,0.060971,0.921399,0.321283
9600405804,5.233149,1.196733,-5.264164,0.049461,0.915032,0.302213
9600408302,5.538289,1.256924,-5.324091,0.035007,0.910847,0.288940
9600410800,6.514393,1.680788,-5.383606,0.025588,0.913838,0.288132
9600413297,8.039263,2.347039,-5.381793,0.012618,0.917617,0.279297
9600415795,9.991569,3.498747,-5.502481,0.006290,0.921380,0.260360
9600418292,12.187894,4.893236,-5.623621,0.002028,0.918561,0.247210
9600420789,14.567106,6.652304,-5.685406,-0.003046,0.916438,0.243504
9600423287,17.007324,8.472068,-5.747304,-0.000156,0.912786,0.242055
9600425784,19.508488,10.170139,-5.808321,0.007020,0.906893,0.246450
9600428282,21.949007,11.746511,-5.990270,0.017120,0.908946,0.256752
9600430779,24.328671,13.140492,-6.232130,0.030705,0.903668,0.275757
9600433277,26.708126,14.473783,-6.412971,0.037772,0.902076,0.295445
9600435774,29.209707,15.685176,-6.653401,0.048469,0.899003,0.314436
9600438272,31.588879,16.714590,-6.771896,0.061381,0.898097,0.332013
9600440769,33.906834,17.622620,-6.829259,0.073671,0.897962,0.339415
9600443267,35.858326,18.592356,-6.706200,0.084550,0.896410,0.340977
9600445764,37.321716,19.502203,-6.523867,0.100647,0.903553,0.337575
9600448262,38.114067,20.413256,-6.283248,0.114636,0.907848,0.323953
9600450760,38.296711,21.203613,-6.104838,0.118345,0.913639,0.321857
9600453257,37.930260,21.934179,-5.867373,0.121349,0.919444,0.317574
9600455754,37.075905,22.604752,-5.631324,0.123666,0.926720,0.310387
9600458252,35.855404,23.154436,-5.335234,0.122356,0.934031,0.302433
9600460749,34.573936,23.765018,-5.039694,0.118874,0.937019,0.289336
9600463247,33.109524,24.436695,-4.745140,0.110861,0.937806,0.291433
9600465744,31.888935,25.290461,-4.390019,0.104325,0.936417,0.289171
9600468241,30.912493,26.204521,-4.095044,0.097081,0.938663,0.288381
9600470739,30.119219,27.178972,-3.860435,0.089110,0.940914,0.287583
9600473239,29.569834,27.970634,-3.623956,0.080390,0.943888,0.289690
9600475742,29.264751,28.700891,-3.507649,0.070883,0.941775,0.293203
9600478230,29.203899,29.126562,-3.510188,0.062861,0.935317,0.289432
9600480728,29.326479,29.247641,-3.692479,0.057684,0.927362,0.290768
9600483225,29.693058,28.942642,-3.932264,0.048860,0.927397,0.300846
9600485722,30.181835,28.150871,-4.290336,0.033584,0.928250,0.302137
9600488220,30.975071,27.054831,-4.524283,0.014741,0.932057,0.299051
9600490718,31.707491,25.897989,-4.818805,-0.001139,0.938033,0.292380
9600493215,32.744251,24.680164,-4.929841,-0.016255,0.941121,0.279156
9600495712,33.902897,23.766224,-4.981408,-0.030674,0.948536,0.273238
9600498210,35.060860,23.095882,-4.791548,-0.038486,0.955919,0.260853
9600500707,36.157532,22.669031,-4.481857,-0.045700,0.954556,0.253496
9600503205,37.132160,22.607260,-4.113903,-0.047249,0.948014,0.257063
9600505702,38.290581,22.787954,-3.989373,-0.044339,0.945094,0.254166
9600508200,39.571407,23.150629,-3.986776,-0.042808,0.947284,0.248386
9600510697,40.730076,23.513607,-3.923928,-0.040487,0.949493,0.236073
9600513195,41.705551,23.755396,-3.800385,-0.037430,0.948079,0.219381
9600515692,42.376045,23.815298,-3.676938,-0.033161,0.939315,0.220816
9600518190,43.107880,23.814096,-3.674318,-0.031142,0.928371,0.227296
9600520687,43.778522,23.752306,-3.610896,-0.031016,0.929869,0.215681
9600523185,44.327042,23.812410,-3.487886,-0.027851,0.937911,0.196881
9600525682,44.692429,23.933714,-3.305175,-0.021364,0.937832,0.202766
9600528180,45.057457,24.116022,-3.001419,-0.016525,0.932620,0.223855
9600530677,45.605824,24.297823,-2.818383,-0.010810,0.926013,0.228229
9600533175,46.214989,24.479624,-2.574442,-0.002867,0.924474,0.232666
9600535672,47.007076,24.539537,-2.329182,0.001454,0.933109,0.245133
9600538170,47.920868,24.356171,-2.021472,0.005066,0.938137,0.252478
9600540667,48.773785,23.929617,-1.773343,0.013045,0.944578,0.260609
9600543164,49.504425,23.138594,-1.462973,0.015506,0.959876,0.246217
9600545662,49.868923,22.226685,-1.092562,0.016538,0.968679,0.223038
9600548160,49.928299,21.315378,-0.662555,0.023156,0.974445,0.220975
9600550657,49.682629,20.647861,-0.174277,0.029257,0.982473,0.199300
9600553155,48.949448,19.980936,0.190878,0.030545,0.997895,0.155825
9600555652,47.972187,19.496901,0.614853,0.028069,1.017642,0.129784
9600558149,46.568233,19.074259,0.976279,0.030621,1.034424,0.107409
9600560647,44.859402,18.834505,1.335620,0.028141,1.048377,0.076237
9600563144,43.090210,18.776924,1.511683,0.023193,1.057890,0.070440
9600565642,41.626366,18.840229,1.566800,0.017999,1.056444,0.079820
9600568139,40.589809,18.902620,1.502068,0.017417,1.061576,0.069678
9600570637,39.797363,18.903711,1.377853,0.014194,1.078425,0.042879
9600573134,38.883308,18.844000,1.132157,0.008020,1.095282,0.020409
9600575632,37.908112,18.906082,0.946268,0.004496,1.097530,0.010939
9600578129,36.994091,18.967962,0.699908,0.008787,1.088051,0.009462
9600580627,36.384983,18.968548,0.454973,0.010308,1.082996,-0.002187
9600583124,35.653492,18.847948,0.331639,0.006973,1.087492,-0.029080
9600585622,34.800003,18.666752,0.208200,0.006390,1.093348,-0.038490
9600588119,33.885189,18.607460,0.205257,0.005417,1.093256,-0.013065
9600590617,33.275551,18.729946,0.141722,0.008686,1.080770,0.013040
9600593114,33.032421,18.912315,-0.102898,0.011444,1.072721,0.021004
9600595612,33.094013,19.033495,-0.285407,0.015909,1.077792,0.015277
9600598109,33.216515,18.911390,-0.466372,0.024696,1.081362,0.012494
9600600607,33.156036,18.728790,-0.647660,0.037686,1.079039,0.020614
9600603104,32.851959,18.424791,-0.950535,0.045759,1.083344,0.017102
9600605601,32.242947,18.121288,-1.254501,0.047303,1.086264,0.010600
9600608099,31.389818,17.879089,-1.498985,0.043190,1.093641,-0.008285
9600610597,30.353430,17.880583,-1.624073,0.043440,1.098809,-0.029319
9600613094,29.317286,18.064360,-1.810844,0.048422,1.101619,-0.015435
9600615592,28.342186,18.430424,-1.998391,0.045635,1.111829,-0.018296
9600618089,27.489021,18.674690,-2.184838,0.037936,1.117809,-0.043772
9600620586,26.452669,18.797775,-2.310589,0.033757,1.128781,-0.052456
9600623084,25.416128,18.920963,-2.375652,0.030832,1.132420,-0.047374
9600625581,24.196646,19.105251,-2.441701,0.033061,1.135316,-0.049508
9600628079,22.977167,19.289534,-2.507751,0.034600,1.135337,-0.058211
9600630576,21.819050,19.473511,-2.694959,0.032563,1.141930,-0.066905
9600633074,20.600286,19.535786,-3.003098,0.028366,1.147826,-0.078535
9600635571,19.442739,19.719448,-3.372370,0.027615,1.151443,-0.072702
9600638069,18.407335,19.842010,-3.801561,0.025309,1.148516,-0.062575
9600640566,17.432749,20.025372,-4.170177,0.022522,1.158002,-0.066168
9600643064,16.518917,20.087147,-4.477225,0.013259,1.159606,-0.084427
9600645561,15.787913,20.331114,-4.723924,0.010845,1.159533,-0.060471
9600648059,15.361635,20.513887,-4.908510,0.012006,1.155059,-0.034329
9600650556,15.118145,20.757261,-5.032086,0.002887,1.163238,-0.061258
9600653054,14.752454,20.879351,-5.094748,0.006614,1.163967,-0.069932
9600655551,14.386423,21.123238,-5.036695,0.017278,1.168121,-0.040713
9600658049,13.959197,21.306536,-4.917842,0.024861,1.175424,-0.066011
9600660546,13.470737,21.307650,-4.737525,0.026578,1.183481,-0.085553
9600663044,12.860211,21.004984,-4.555986,0.022138,1.184211,-0.076876
9600665541,12.310575,20.398241,-4.372572,0.019132,1.182749,-0.068199
9600668039,11.638889,19.548513,-4.188269,0.019803,1.181997,-0.063110
9600670536,10.844985,18.516705,-3.942720,0.014995,1.182152,-0.092232
9600673034,9.868482,17.424194,-3.818871,0.011521,1.182972,-0.108253
9600675531,8.647993,16.210487,-3.695233,0.006345,1.175740,-0.106184
9600678028,7.305533,14.996984,-3.572031,0.007835,1.163433,-0.121522
9600680526,5.902237,13.661885,-3.509072,0.003559,1.160608,-0.133218
9600683023,4.499244,12.083394,-3.566164,-0.002864,1.159264,-0.147108
9600685521,3.340365,10.443603,-3.682739,-0.002933,1.155617,-0.143502
9600688019,2.425471,8.925001,-3.799103,0.003240,1.139484,-0.120300
9600690516,1.937576,7.709681,-3.915597,-0.001159,1.130818,-0.124774
9600693013,1.694082,6.736931,-4.153919,-0.003161,1.125839,-0.148090
9600695512,1.694969,5.945961,-4.513738,-0.005523,1.110581,-0.143870
9600698010,1.878873,5.337077,-4.873897,-0.005166,1.093049,-0.122196
9600700507,2.184371,4.728202,-5.112243,-0.008868,1.087262,-0.120827
9600703005,2.428901,4.180223,-5.351139,-0.015318,1.083011,-0.134738
9600705502,2.734021,3.571557,-5.468108,-0.014112,1.062626,-0.128338
9600708000,2.856559,2.962981,-5.707109,-0.008411,1.056737,-0.121779
9600710497,2.857106,2.293811,-5.946215,-0.008283,1.055340,-0.136323
9600712995,2.796307,1.685745,-6.064495,-0.006445,1.040703,-0.114611
9600715492,2.735281,0.956192,-6.121424,-0.007441,1.041327,-0.086274
9600717990,2.734920,0.409135,-6.057752,-0.003581,1.043557,-0.107290
9600720487,2.612396,-0.137617,-5.933830,0.004280,1.036193,-0.099991
9600722984,2.489684,-0.684265,-5.749218,0.003293,1.024510,-0.084102
9600725482,2.366991,-1.170118,-5.564939,0.003211,1.020133,-0.079775
9600727979,2.061357,-1.594874,-5.381646,0.012585,1.020021,-0.071678
9600730477,1.755743,-1.958835,-5.198685,0.001050,1.020885,-0.081247
9600732974,1.328156,-2.322596,-5.016160,-0.000393,1.025246,-0.078323
9600735472,0.778388,-2.746847,-4.773052,-0.001281,1.023016,-0.063815
9600737970,0.228810,-3.171203,-4.590633,0.001435,1.014950,-0.051491
9600740467,-0.198569,-3.474273,-4.469128,-0.002345,1.009855,-0.041396
9600742964,-0.564525,-3.595264,-4.469775,-0.001630,1.006224,-0.043596
9600745462,-0.930367,-3.351480,-4.472411,0.008449,0.997407,-0.041371
9600747959,-1.051770,-2.743532,-4.597539,0.018436,1.000140,-0.018711
9600750457,-0.929360,-1.953492,-4.662099,0.016730,0.997156,0.004504
9600752954,-0.563610,-1.285131,-4.543059,0.018864,0.993498,0.005953
9600755452,-0.197937,-0.859953,-4.422693,0.027653,0.993448,-0.000491
9600757949,0.167301,-0.616953,-4.179956,0.032771,0.992692,-0.004074
9600760447,0.411095,-0.495657,-4.119058,0.041412,0.991859,0.004009
9600762944,0.715876,-0.374462,-4.057941,0.044210,0.988170,0.012006
9600765442,0.959992,-0.435762,-4.117424,0.044230,0.989626,0.011291
9600767939,1.081358,-0.557241,-3.934261,0.047913,0.993234,0.009905
9600770437,1.080336,-0.799902,-3.629494,0.052199,0.990994,0.015749
9600772935,1.017759,-1.042149,-3.142882,0.049118,0.985882,0.028758
9600775432,0.894177,-1.345093,-2.656156,0.053360,0.975659,0.031635
9600777929,0.891999,-1.647923,-1.986930,0.059206,0.973449,0.026596
9600780433,1.072592,-1.950950,-1.256360,0.059867,0.966900,0.027280
9600782924,1.314379,-2.193385,-0.586592,0.061994,0.963239,0.029456
9600785422,1.678139,-2.436020,0.083613,0.061231,0.963955,0.033814
9600787919,2.164118,-2.496573,0.692573,0.058299,0.956730,0.029367
9600790417,2.588752,-2.496021,1.422358,0.053124,0.946603,0.028506
9600792914,3.013821,-2.313290,2.029773,0.055351,0.941534,0.019045
9600795412,3.438663,-2.252047,2.698539,0.052478,0.941573,0.015380
9600797909,3.864092,-2.130321,3.184910,0.049480,0.937942,0.021133
9600800407,4.411795,-2.252187,3.551666,0.045791,0.932883,0.021781
9600802904,5.020296,-2.374049,3.979330,0.039906,0.929286,0.025323
9600805401,5.690124,-2.617810,4.286498,0.034005,0.929302,0.033979
9600807899,6.481943,-2.800977,4.593771,0.027416,0.922824,0.032404
9600810397,7.396151,-2.862961,4.779442,0.026601,0.916278,0.035253
9600812894,8.371553,-2.864354,4.904312,0.027260,0.911901,0.038134
9600815391,9.103428,-2.743963,4.906270,0.025755,0.903204,0.035145
9600817889,9.835056,-2.805856,4.969909,0.020618,0.900333,0.037247
9600820386,10.444541,-2.806648,5.093469,0.021989,0.897391,0.043054
9600822884,11.054027,-2.807440,5.217029,0.024802,0.892983,0.048866
9600825381,11.663947,-2.626053,5.218218,0.018210,0.890848,0.051684
9600827879,12.091308,-2.383780,5.097044,0.009452,0.886566,0.050828
9600830377,12.396902,-2.080615,4.914414,0.005804,0.883696,0.049313
9600832873,12.458363,-1.776945,4.791599,0.002877,0.890954,0.058056
9600835371,12.458610,-1.594662,4.729917,0.004202,0.895235,0.075545
9600837881,12.458837,-1.473175,4.668566,0.002624,0.890854,0.084216
9600840367,12.398040,-1.473179,4.607659,-0.003208,0.892346,0.087070
9600842862,12.337261,-1.412388,4.546421,-0.009027,0.896015,0.090667
9600845360,12.154360,-1.229701,4.544772,-0.014914,0.894589,0.096405
9600847857,11.910320,-0.925217,4.602929,-0.020059,0.893163,0.100698
9600850355,11.544347,-0.498942,4.659986,-0.020807,0.892437,0.102138
9600852852,10.995755,-0.194167,4.595675,-0.023023,0.891718,0.105015
9600855350,10.325378,0.110703,4.470240,-0.024525,0.890263,0.108621
9600857847,9.533427,0.476361,4.222661,-0.024572,0.886624,0.110047
9600860345,8.680640,0.720423,3.914837,-0.027495,0.887367,0.112201
9600862842,7.949921,0.660202,3.548420,-0.028984,0.886641,0.115086
9600865339,7.341476,0.356390,3.062389,-0.033353,0.885952,0.115032
9600867837,6.855363,-0.008628,2.455750,-0.039743,0.887518,0.100439
9600870335,6.430255,-0.312950,1.848998,-0.041777,0.888319,0.085887
9600872832,5.882797,-0.616862,1.363185,-0.048294,0.890558,0.085106
9600875330,5.335376,-0.799184,0.876710,-0.054084,0.892791,0.084332
9600877827,4.848981,-0.860014,0.389790,-0.056201,0.892835,0.077768
9600880324,4.423590,-0.860148,-0.097244,-0.061188,0.897264,0.071206
9600882822,3.875829,-0.920669,-0.463006,-0.064734,0.901675,0.066113
9600885319,3.328276,-0.920499,-0.889788,-0.066099,0.904620,0.059579
9600887817,2.780345,-0.920120,-1.195193,-0.063808,0.910437,0.053834
9600890314,2.171617,-0.919746,-1.561506,-0.060063,0.914794,0.046641
9600892812,1.562302,-0.979854,-1.745422,-0.057107,0.917684,0.044515
9600895309,1.074922,-1.161754,-1.928239,-0.057067,0.921321,0.043816
9600897807,0.709703,-1.343958,-2.171307,-0.057005,0.923517,0.039473
9600900304,0.466647,-1.526466,-2.474626,-0.053246,0.928604,0.031558
9600902802,0.162623,-1.648079,-2.778496,-0.052409,0.934434,0.025797
9600905299,-0.141817,-1.891075,-2.960326,-0.054654,0.934427,0.032313
9600907796,-0.385044,-2.012683,-3.203288,-0.054656,0.937323,0.035242
9600910294,-0.689295,-2.255783,-3.445807,-0.055977,0.939560,0.023617
9600912792,-0.992998,-2.559992,-3.870058,-0.056671,0.941752,0.022172
9600915289,-1.541101,-3.106775,-4.172480,-0.055205,0.945365,0.024396
9600917787,-2.394363,-3.774544,-4.414643,-0.057317,0.948307,0.020034
9600920284,-3.430792,-4.502704,-4.596442,-0.063101,0.951991,0.019998
9600922782,-4.711186,-5.291259,-4.778782,-0.062382,0.953429,0.022197
9600925279,-6.174691,-5.957819,-4.901753,-0.064528,0.953462,0.018540
9600927777,-7.699143,-6.502688,-5.025604,-0.071828,0.955685,0.023563
9600930274,-9.040580,-6.865469,-5.149795,-0.076894,0.962255,0.027191
9600932771,-10.077045,-7.107160,-5.273558,-0.081174,0.965222,0.021352
9600935269,-10.503648,-7.349850,-5.395136,-0.081298,0.960828,0.030038
9600937767,-10.198357,-7.411355,-5.515089,-0.073446,0.958529,0.043189
9600940264,-9.099903,-7.595962,-5.752917,-0.066168,0.958469,0.042542
9600942761,-7.452382,-7.781572,-6.049468,-0.062994,0.961446,0.017890
9600945259,-5.865885,-8.088676,-6.345573,-0.060163,0.971098,-0.040146
9600947756,-4.950958,-8.272669,-6.401992,-0.056770,0.974162,-0.087324
9600950254,-4.950618,-8.394468,-6.522705,-0.056429,0.981538,-0.115608
9600952751,-5.621032,-8.211189,-6.647478,-0.048326,0.983683,-0.124223
9600955249,-6.352299,-7.602240,-6.774789,-0.034061,0.986345,-0.092796
9600957746,-6.839865,-6.567912,-6.782171,-0.020685,0.988948,-0.044663
9600960244,-6.777759,-5.413310,-7.031003,-0.008701,0.993037,-0.001622
9600962741,-6.532447,-4.076727,-7.340863,-0.005838,0.996614,0.006431
9600965239,-6.531799,-2.617734,-7.409506,-0.001846,0.991656,-0.034987
9600967736,-7.202816,-1.339610,-7.236804,0.003934,0.982902,-0.039350
9600970234,-8.972288,-0.484941,-6.883649,0.009338,0.998189,-0.057344
9600972731,-11.901224,-0.722485,-6.407300,0.016095,1.007631,-0.070280
9600975229,-15.623251,-1.809868,-5.929147,0.020627,1.008090,-0.012086
9600977726,-19.467707,-3.748086,-5.386104,0.021273,1.023981,0.011297
9600980224,-22.763115,-5.748105,-4.901451,0.018857,1.027098,-0.036672
9600982721,-25.021830,-7.384947,-4.354387,0.022148,1.013896,-0.013479
9600985219,-26.121044,-8.416047,-3.988554,0.017718,1.008839,-0.011386
9600987716,-26.366125,-9.023083,-3.682672,0.008754,1.006941,-0.063825
9600990214,-26.244629,-9.327052,-3.559202,0.003099,0.996194,-0.090858
9600992711,-25.939960,-9.570631,-3.496096,-0.001981,0.991898,-0.096034
9600995209,-25.391500,-9.692915,-3.372092,-0.017899,0.991342,-0.104935
9600997706,-24.782431,-9.815090,-3.126493,-0.021379,0.990711,-0.121693
9601000203,-24.051710,-9.754869,-2.760075,-0.027655,1.001735,-0.139121
9601002701,-23.199171,-9.573152,-2.333196,-0.036267,1.002579,-0.150111
9601005199,-22.102627,-9.209449,-1.906438,-0.028444,0.987959,-0.145774
9601007696,-20.883921,-8.846049,-1.539931,-0.027280,0.979142,-0.124026
9601010194,-19.665062,-8.604346,-1.233449,-0.028165,0.972569,-0.113910
9601012691,-18.385048,-8.423643,-0.987106,-0.018850,0.965193,-0.106596
9601015188,-16.983063,-8.243141,-0.740326,-0.012592,0.959954,-0.081857
9601017686,-15.702840,-8.001747,-0.555002,-0.008250,0.959185,-0.080361
9601020184,-14.545366,-7.820529,-0.127031,-0.008263,0.957007,-0.081104
9601022681,-13.693412,-7.699295,0.482244,-0.004134,0.958325,-0.055613
9601025178,-13.024814,-7.638348,1.212571,-0.000617,0.956798,-0.044684
9601027676,-12.600350,-7.576897,2.002714,0.009654,0.956747,-0.054019
9601030174,-12.480440,-7.515153,2.670388,0.012054,0.967677,-0.066265
9601032671,-12.787793,-7.391704,3.457578,0.008389,0.969869,-0.061202
9601035169,-13.339340,-7.450138,4.305578,0.007786,0.974992,-0.069164
9601037666,-14.195799,-7.447275,5.152154,0.007771,0.974987,-0.067711
9601040163,-15.113035,-7.383622,5.937493,0.014292,0.978542,-0.061798
9601042661,-15.968452,-7.077303,6.478971,0.015771,0.983608,-0.059563
9601045158,-16.701099,-6.650010,6.777472,0.016160,0.971882,-0.035665
9601047656,-17.066694,-6.223943,6.713153,0.012272,0.969641,-0.011742
9601050153,-17.126600,-5.798795,6.407174,0.001690,0.980724,-0.035031
9601052651,-16.942223,-5.495847,5.981355,-0.006753,0.992496,-0.053204
9601055148,-16.696499,-5.254004,5.434710,0.005342,0.999526,-0.018860
9601057647,-16.267550,-5.377444,4.769331,0.009845,1.011853,-0.021625
9601060145,-16.021238,-5.683180,3.982917,0.007453,1.031633,-0.056386
9601062642,-15.958286,-6.049203,3.317555,0.009619,1.044642,-0.042456
9601065140,-16.017456,-6.293329,2.711782,0.011763,1.059090,-0.024881
9601067637,-16.077097,-6.233164,2.286416,0.006276,1.073752,-0.045180
9601070135,-16.136854,-5.929712,1.920411,0.015781,1.078761,-0.045764
9601072632,-16.258656,-5.382350,1.916991,0.028499,1.094002,-0.068038
9601075130,-16.746752,-4.834179,2.033637,0.044752,1.100483,-0.088159
9601077627,-17.418415,-4.406986,2.332355,0.059152,1.111887,-0.062478
9601080124,-18.212317,-4.222672,2.692651,0.065038,1.114761,-0.066752
9601082622,-19.005743,-4.342649,2.872540,0.065103,1.111891,-0.076221
9601085120,-19.738510,-4.888192,3.115655,0.066205,1.100877,-0.050129
9601087617,-20.593153,-5.737617,3.299303,0.064933,1.113271,-0.057317
9601090115,-21.569845,-6.830026,3.483840,0.057854,1.122099,-0.068956
9601092612,-22.851454,-7.861138,3.666955,0.057015,1.121336,-0.058070
9601095109,-24.255772,-8.830838,4.092052,0.057107,1.130786,-0.058724
9601097607,-25.599232,-9.618145,4.577063,0.054334,1.141002,-0.063038
9601100104,-26.820814,-10.101571,5.121541,0.049790,1.148208,-0.037598
9601102602,-27.859135,-10.220625,5.603997,0.047636,1.150410,-0.038332
9601105099,-28.775465,-10.279084,6.086557,0.049096,1.152572,-0.036846
9601107597,-29.752325,-10.094470,6.446198,0.048304,1.165586,-0.017861
9601110094,-30.667801,-9.849369,6.684349,0.046091,1.171384,-0.009121
9601112592,-31.644226,-9.482575,6.921619,0.037886,1.175715,0.016258
9601115089,-32.620918,-9.358861,7.220903,0.031264,1.176465,0.024911
9601117587,-33.597702,-9.539124,7.521844,0.029738,1.178621,0.034359
9601120084,-34.513802,-10.084159,7.885681,0.023917,1.185186,0.040885
9601122582,-35.674080,-10.750279,8.309996,0.011629,1.194010,0.041542
9601125079,-37.017712,-11.476687,8.855363,-0.003456,1.203627,0.031274
9601127577,-38.422314,-12.142199,9.400179,-0.005000,1.199984,0.037044
9601130074,-39.705166,-12.929398,10.006783,-0.000857,1.191170,0.051558
9601132572,-40.804306,-13.717314,10.371292,-0.002921,1.194856,0.042842
9601135069,-41.964264,-14.566031,10.675223,-0.009250,1.201514,0.026834
9601137567,-43.185184,-15.353851,10.978607,-0.010816,1.199310,0.036248
9601140064,-44.040508,-15.959675,11.403681,-0.005212,1.190486,0.050051
9601142566,-44.469265,-16.444401,11.950997,0.002566,1.170056,0.053617
9601145059,-44.532242,-16.747234,12.559318,0.007609,1.154788,0.044109
9601147557,-44.411652,-16.929092,12.985566,0.008874,1.140219,0.049827
9601150054,-43.985882,-16.929167,13.351222,0.018650,1.121145,0.073774
9601152551,-43.193703,-16.565277,13.594825,0.031993,1.096221,0.099170
9601155049,-42.096684,-15.897803,13.898549,0.038102,1.069925,0.119388
9601157546,-40.877579,-14.865757,14.200722,0.039078,1.045828,0.146106
9601160044,-39.597412,-13.590627,14.501787,0.050312,1.030364,0.173003
9601162541,-38.317028,-12.254805,14.741832,0.056369,1.006944,0.201237
9601165039,-36.975140,-11.040989,14.800694,0.059420,0.984234,0.240344
9601167537,-35.693798,-10.252954,14.679594,0.064255,0.973228,0.256303
9601170034,-34.717354,-9.950891,14.499366,0.059025,0.961631,0.259791
9601172531,-33.863544,-9.952291,14.502423,0.051473,0.959409,0.286581
9601175029,-33.070023,-10.136397,14.263504,0.046140,0.965149,0.317089
9601177526,-32.459476,-10.380999,14.024261,0.040179,0.970210,0.336684
9601180024,-31.909767,-10.747195,13.724774,0.031477,0.978259,0.341736
9601182521,-31.482430,-11.173779,13.546558,0.018511,0.986385,0.336567
9601185019,-31.360043,-11.660659,13.367583,0.004844,0.998871,0.332876
9601187516,-31.542379,-12.086345,13.126496,-0.009489,1.015009,0.326299
9601190014,-32.090973,-12.389631,13.004812,-0.015089,1.029626,0.317627
9601192511,-32.944443,-12.510031,12.881042,-0.017712,1.045695,0.303184
9601195009,-33.798042,-12.447939,12.816965,-0.023437,1.057366,0.304662
9601197509,-34.651245,-12.325259,12.631181,-0.028643,1.063880,0.322823
9601200013,-35.199306,-12.142388,12.385469,-0.028621,1.073302,0.329435
9601202500,-35.564167,-11.777535,12.078729,-0.029164,1.082794,0.319326
9601204997,-35.928967,-11.230295,11.770995,-0.031929,1.090117,0.311356
9601207495,-36.233063,-10.378968,11.583200,-0.029764,1.093712,0.316495
9601209992,-36.536949,-9.466949,11.334382,-0.026225,1.090022,0.323047
9601212490,-36.535889,-8.494635,11.086327,-0.014042,1.081157,0.333289
9601214987,-36.412476,-7.522730,10.717330,0.000438,1.078835,0.337791
9601217485,-36.167107,-6.611821,10.349103,0.009226,1.079509,0.332079
9601219982,-35.982784,-5.883198,9.981651,0.026581,1.072805,0.335854
9601222480,-35.615559,-5.337264,9.615850,0.046668,1.056592,0.349035
9601224977,-35.065426,-4.974016,9.251698,0.058119,1.044110,0.356334
9601227475,-34.332115,-4.489582,8.826850,0.066157,1.036817,0.345467
9601229972,-33.599159,-3.944143,8.523046,0.078357,1.021441,0.347665
9601232469,-32.926926,-3.155526,8.157010,0.086727,1.003123,0.367242
9601234967,-32.193989,-2.062822,7.910911,0.094584,0.991414,0.370874
9601237465,-31.460806,-0.787835,7.603130,0.105402,0.986940,0.376047
9601239962,-30.606028,0.487161,7.417161,0.113893,0.977359,0.391330
9601242460,-29.751270,1.701361,7.231524,0.120946,0.965625,0.402947
9601244957,-28.896738,2.794074,7.107238,0.127452,0.958313,0.400057
9601247455,-28.164200,3.826192,6.982848,0.127491,0.951812,0.389834
9601249953,-27.553440,4.858405,6.797331,0.118264,0.952706,0.367209
9601252449,-27.308622,5.830423,6.610837,0.109646,0.951376,0.354750
9601254947,-27.246933,6.863641,6.484044,0.102876,0.941205,0.368407
9601257444,-27.368582,7.897369,6.477972,0.094170,0.933323,0.358803
9601259942,-27.611994,8.991986,6.410444,0.083544,0.935700,0.331814
9601262439,-27.977568,10.086909,6.403167,0.066110,0.943097,0.336765
9601264937,-28.221247,10.938450,6.397653,0.054227,0.935858,0.355475
9601267434,-28.038229,11.728598,6.454687,0.049713,0.919905,0.356032
9601269932,-27.488760,12.396243,6.331630,0.035086,0.908411,0.353604
9601272429,-26.573435,12.880898,6.210877,0.019743,0.904168,0.357036
9601274927,-25.474657,13.121758,5.910041,0.010227,0.904948,0.364204
9601277424,-24.192806,13.119030,5.550498,0.006369,0.899098,0.381560
9601279922,-22.728094,12.812022,5.193267,0.000478,0.894050,0.384364
9601282419,-21.263439,12.322628,4.837031,-0.003832,0.889040,0.374104
9601284917,-19.676792,11.893830,4.480900,-0.003249,0.881736,0.382050
9601287414,-18.029367,11.404241,4.186007,-0.002860,0.870734,0.406680
9601289912,-16.503914,10.914850,3.890677,0.000882,0.868573,0.393624
9601292409,-15.283585,10.426066,3.654943,0.000280,0.871526,0.383465
9601294907,-14.307027,9.876781,3.357980,-0.004267,0.874386,0.405239
9601297404,-13.330529,9.145109,3.062011,-0.002793,0.876553,0.405272
9601299902,-12.537557,8.414050,2.947451,0.008325,0.875820,0.382859
9601302399,-11.988510,7.744190,2.831686,0.017717,0.869922,0.383645
9601304897,-11.622348,7.317810,2.713940,0.025076,0.864826,0.369880
9601307394,-11.316963,6.952222,2.534956,0.036136,0.867690,0.356942
9601309892,-11.072697,6.769226,2.415448,0.041976,0.864029,0.351165
9601312389,-10.767575,6.768621,2.355852,0.047093,0.866168,0.350510
9601314886,-10.401221,6.950199,2.234791,0.054447,0.867587,0.343335
9601317384,-10.034999,7.314269,2.173424,0.057569,0.875611,0.328895
9601319881,-9.485761,7.860425,2.111718,0.063389,0.881355,0.334089
9601322379,-8.753488,8.649464,2.049341,0.070599,0.877648,0.337048
9601324876,-7.960207,9.499197,1.986851,0.070735,0.874806,0.320313
9601327374,-7.227725,10.348927,1.863454,0.075150,0.868997,0.309416
9601329871,-6.617007,11.259550,1.678601,0.076665,0.873353,0.307286
9601332369,-6.127883,12.170163,1.371935,0.073887,0.879946,0.300037
9601334866,-5.638968,13.020084,1.126289,0.071739,0.882875,0.299309
9601337364,-5.150052,13.870007,0.880643,0.076129,0.883572,0.297182
9601339861,-4.539221,14.537340,0.636428,0.079020,0.877748,0.293537
9601342359,-3.928429,15.083085,0.392876,0.072650,0.882217,0.279692
9601344856,-3.500464,15.446635,0.088975,0.062541,0.893194,0.282570
9601347354,-3.011890,15.810297,-0.093332,0.056025,0.894709,0.281056
9601349851,-2.584342,16.052465,-0.275193,0.051791,0.902763,0.275256
9601352349,-2.218385,16.173456,-0.274546,0.044713,0.910866,0.262884
9601354846,-1.913245,16.233648,-0.334474,0.031505,0.910931,0.275094
9601357344,-1.669546,16.050964,-0.271918,0.024966,0.914610,0.277957
9601359841,-1.242927,15.746389,-0.208044,0.024997,0.921139,0.280913
9601362339,-0.694051,15.137428,-0.263452,0.029896,0.900021,0.280808
9601364836,-0.083432,14.527946,-0.561394,0.035388,0.910274,0.248969
9601367334,0.344644,14.040151,-0.982031,0.031227,0.915460,0.232974
9601369831,0.650956,13.613245,-1.464124,0.027845,0.905884,0.272835
9601372328,1.018463,13.246931,-2.007018,0.028443,0.908723,0.288852
9601374826,1.447013,13.062904,-2.550687,0.033221,0.920436,0.257016
9601377323,1.753194,12.818490,-2.973086,0.034589,0.923285,0.268680
9601379821,1.875639,12.513997,-3.153057,0.038069,0.934778,0.295695
9601382318,1.936661,12.027428,-3.210875,0.038724,0.926778,0.295642
9601384816,2.179659,11.419489,-2.963934,0.046081,0.924577,0.284805
9601387313,2.544136,10.446782,-2.593191,0.053088,0.917169,0.305176
9601389811,2.969561,9.352385,-2.221568,0.058485,0.922316,0.278384
9601392308,3.333981,8.197293,-1.849831,0.070421,0.923784,0.248730
9601394806,3.637869,7.285275,-1.601015,0.071646,0.917164,0.266136
9601397303,3.941644,6.616542,-1.292836,0.066528,0.918645,0.270451
9601399801,4.306691,6.251585,-1.046785,0.066084,0.927453,0.249437
9601402298,4.610600,6.008424,-0.740927,0.074366,0.936185,0.228518
9601404796,4.853183,5.887163,-0.314574,0.077221,0.931795,0.229970
9601407293,5.157168,5.887184,-0.010041,0.077996,0.933256,0.226356
9601409791,5.400017,6.009002,0.354298,0.077318,0.933282,0.221262
9601412288,5.643281,6.252202,0.596598,0.068653,0.939897,0.221216
9601414786,5.764176,6.435015,0.960168,0.065147,0.947220,0.214692
9601417283,5.946227,6.556828,1.263601,0.065821,0.940677,0.213923
9601419782,5.884086,6.496759,1.627843,0.062241,0.942178,0.209534
9601422279,5.700331,6.375885,1.870603,0.054456,0.940883,0.186183
9601424777,5.516407,6.315911,2.173720,0.042814,0.943152,0.188978
9601427274,5.210756,6.438421,2.414718,0.036994,0.948993,0.194772
9601429772,4.904954,6.682626,2.715740,0.034272,0.954885,0.180978
9601432269,4.599002,7.048526,3.076788,0.027100,0.954262,0.169993
9601434767,4.415192,7.353328,3.377917,0.029259,0.956407,0.174394
9601437264,4.292709,7.536228,3.558550,0.029349,0.959339,0.167876
9601439762,4.292141,7.536541,3.740614,0.019170,0.958703,0.167032
9601442259,4.169713,7.293767,3.862880,0.019753,0.962984,0.185967
9601444757,4.047191,6.747015,3.986802,0.027839,0.969466,0.183198
9601447254,3.985577,5.956979,4.112269,0.024838,0.970903,0.194077
9601449752,4.045501,4.984565,4.360544,0.010876,0.968791,0.206988
9601452249,4.166581,3.951151,4.548679,0.010884,0.968794,0.206262
9601454747,4.287264,2.857150,4.858523,0.017513,0.978909,0.207138
9601457244,4.468952,1.823844,5.168254,0.015385,0.983293,0.205694
9601459742,4.650432,0.729847,5.539004,0.010257,0.987666,0.213665
9601462239,4.771038,-0.607337,5.850174,0.007333,0.990581,0.218015
9601464736,4.769671,-1.944321,6.160907,0.007498,0.997887,0.207897
9601467234,4.646389,-3.098717,6.470210,0.012015,0.999359,0.193423
9601469731,4.462121,-4.253014,6.779293,0.011426,1.003765,0.183275
9601472229,4.033926,-5.346115,7.087172,0.012993,1.003797,0.171665
9601474726,3.483608,-6.317319,7.454639,0.012381,1.011090,0.166626
9601477224,2.811204,-7.045036,7.881031,0.010350,1.019857,0.159402
9601479721,2.261076,-7.408284,8.245184,0.008355,1.026467,0.146348
9601482219,1.710836,-7.528244,8.668698,0.012655,1.024956,0.151472
9601484716,1.404428,-7.405317,9.152449,0.016354,1.024226,0.144240
9601487214,1.037528,-6.917724,9.512614,0.023862,1.027879,0.123274
9601489712,0.670722,-6.126153,9.871124,0.027630,1.030072,0.111704
9601492209,0.121072,-4.969507,10.226989,0.029761,1.031482,0.118279
9601494706,-0.489526,-3.691170,10.581973,0.035661,1.033637,0.111820
9601497204,-1.099764,-2.473838,10.815912,0.042810,1.027009,0.118389
9601499701,-1.588030,-1.256705,11.050289,0.051226,1.012330,0.136540
9601502199,-2.014591,-0.161682,11.042794,0.059133,0.999916,0.134353
9601504700,-2.562557,0.933229,10.852798,0.062801,0.994105,0.125629
9601507194,-3.170638,1.784535,10.360469,0.059569,0.980968,0.146570
9601509692,-3.717641,2.331658,9.809327,0.054139,0.972911,0.174066
9601512189,-4.142425,2.452801,9.139566,0.052071,0.971527,0.160951
9601514686,-4.566888,2.391350,8.349424,0.051994,0.971496,0.168944
9601517184,-5.113513,2.330202,7.619533,0.049662,0.964215,0.177585
9601519681,-5.782282,2.330155,6.949563,0.043109,0.955578,0.170180
9601522179,-6.512055,2.269412,6.279705,0.039450,0.949083,0.166457
9601524676,-7.180711,2.026078,5.550371,0.038597,0.935282,0.166343
9601527174,-7.849575,1.722052,4.882057,0.032771,0.928088,0.160411
9601529671,-8.457301,1.296230,4.153937,0.030739,0.925994,0.142931
9601532169,-8.942827,0.991695,3.364902,0.025660,0.920973,0.137023
9601534666,-9.123176,0.868943,2.515277,0.025572,0.915146,0.140612
9601537164,-9.059331,0.928073,1.604842,0.027126,0.913001,0.128258
9601539661,-8.874063,1.048112,0.876577,0.030242,0.908713,0.102824
9601542159,-8.688586,1.228842,0.087293,0.028927,0.900816,0.080947
9601544656,-8.502919,1.409467,-0.762680,0.029733,0.897945,0.070033
9601547154,-8.561936,1.651706,-1.371105,0.031964,0.897946,0.064970
9601549651,-8.803686,2.015733,-2.041537,0.036245,0.892084,0.067880
9601552148,-9.350707,2.502060,-2.592347,0.043251,0.886848,0.090448
9601554646,-9.958867,3.110183,-3.083350,0.042180,0.884545,0.123849
9601557143,-10.445430,3.718315,-3.452540,0.041967,0.886633,0.147845
9601559641,-10.688504,4.083072,-3.698155,0.045453,0.888714,0.165341
9601562151,-10.932373,4.326655,-3.700354,0.047571,0.889394,0.172637
9601564637,-10.871557,4.387455,-3.639779,0.049026,0.887934,0.171189
9601567132,-10.688749,4.508851,-3.579099,0.050459,0.887913,0.173384
9601569630,-10.505922,4.691041,-3.518750,0.051017,0.887116,0.190100
9601572127,-10.567060,4.812838,-3.458943,0.053761,0.889922,0.209774
9601574624,-10.872180,4.813443,-3.399347,0.052304,0.895725,0.215615
9601577122,-11.482140,4.510465,-3.399873,0.049432,0.892869,0.209021
9601579619,-12.214337,3.964609,-3.338822,0.045071,0.890735,0.206777
9601582117,-12.702778,3.418457,-3.216209,0.042120,0.890743,0.211105
9601584614,-12.764713,2.811017,-2.970360,0.042814,0.888551,0.212549
9601587112,-12.460540,2.202873,-2.783890,0.037145,0.888660,0.197226
9601589609,-11.850999,1.776406,-2.718698,0.034446,0.891664,0.178323
9601592107,-11.119806,1.532335,-2.532687,0.033013,0.891685,0.176128
9601594604,-10.266435,1.348756,-2.407259,0.030098,0.890984,0.176090
9601597102,-9.352244,1.225976,-2.221257,0.027229,0.896816,0.177556
9601599616,-8.315874,1.163688,-2.095837,0.024261,0.901162,0.187731
9601602097,-7.157870,1.223000,-1.849268,0.027090,0.904002,0.198684
9601604594,-5.999848,1.343107,-1.603030,0.030645,0.909007,0.211843
9601607092,-4.841410,1.584597,-1.478831,0.032739,0.913298,0.224980
9601609589,-3.621606,1.825778,-1.475790,0.035589,0.916147,0.233754
9601612086,-2.523605,2.006259,-1.533542,0.037773,0.922646,0.239641
9601614584,-1.608922,2.248045,-1.470904,0.040753,0.932786,0.241930
9601617081,-0.938242,2.307845,-1.408146,0.043677,0.941456,0.248569
9601619579,-0.450692,2.428844,-1.285686,0.045867,0.949406,0.255194
9601622077,-0.267884,2.550240,-1.225005,0.044514,0.956699,0.251600
9601624574,-0.328983,2.793627,-1.165862,0.045317,0.960343,0.247276
9601627072,-0.695354,3.159315,-0.987096,0.045405,0.965447,0.242955
9601629569,-1.305103,3.525090,-0.991269,0.042631,0.976386,0.239373
9601632066,-2.097754,4.073553,-0.997091,0.036908,0.983715,0.236458
9601634564,-2.950785,4.743393,-1.185858,0.032618,0.991746,0.236471
9601637061,-3.925770,5.474230,-1.375394,0.031163,0.993206,0.237920
9601639559,-4.900527,6.326554,-1.626281,0.030443,0.993215,0.237185
9601642056,-5.936460,7.179082,-1.816698,0.036266,0.994616,0.237987
9601644554,-6.910839,8.031198,-2.188961,0.043490,0.990190,0.238760
9601647051,-7.885067,8.761615,-2.621248,0.041316,0.990936,0.238741
9601649549,-8.798308,9.491936,-3.053318,0.035556,1.001869,0.243121
9601652046,-9.467643,10.100263,-3.483852,0.030987,1.003997,0.266342
9601654544,-9.710640,10.708202,-3.730792,0.028568,1.000301,0.287363
9601657041,-9.648573,11.133151,-4.036335,0.031574,1.002487,0.279419
9601659539,-9.464554,11.497104,-4.341109,0.029393,1.002506,0.279395
9601662036,-9.097802,11.739267,-4.583877,0.025501,0.994471,0.298187
9601664534,-8.426118,11.980932,-4.825553,0.026106,0.987175,0.303953
9601667031,-7.632539,11.979214,-5.065467,0.028428,0.988660,0.290908
9601669529,-6.777632,11.855595,-5.425876,0.027694,0.987216,0.290162
9601672026,-5.923142,11.610593,-5.664246,0.027598,0.982833,0.295942
9601674524,-5.068634,11.426388,-5.902946,0.026049,0.977015,0.300242
9601677021,-4.275282,11.303183,-6.081510,0.023148,0.977043,0.299483
9601679518,-3.481740,11.179872,-6.320760,0.022256,0.969743,0.309593
9601682016,-2.749715,11.178567,-6.378829,0.022870,0.959555,0.311703
9601684514,-2.201027,11.177771,-6.316175,0.027949,0.952990,0.306622
9601687011,-1.713344,11.116279,-6.253408,0.031437,0.941315,0.310933
9601689509,-1.286421,11.176373,-6.252212,0.027539,0.931829,0.328987
9601692006,-0.554603,11.114377,-6.249259,0.031541,0.911374,0.347046
9601694503,0.299187,11.052180,-6.245871,0.035680,0.896043,0.355697
9601697001,1.336106,10.928782,-6.302184,0.036411,0.889521,0.349115
9601699498,2.434162,10.683589,-6.418304,0.039929,0.875686,0.348323
9601701996,3.532598,10.438188,-6.655801,0.046309,0.866152,0.356316
9601704493,4.692000,10.131890,-6.892747,0.046934,0.859588,0.360633
9601706991,5.728862,9.826105,-6.948065,0.046958,0.855977,0.354793
9601709488,6.582746,9.459826,-7.003708,0.050778,0.853847,0.333743
9601711986,7.192704,9.154741,-7.060555,0.053002,0.853121,0.328675
9601714483,7.619720,8.910753,-7.118389,0.050129,0.853160,0.325010
9601716981,7.863760,8.606271,-7.176546,0.045175,0.850362,0.308219
9601719478,8.046453,8.362892,-7.113877,0.048802,0.853223,0.311914
9601721976,8.168179,8.180409,-7.051758,0.050304,0.855402,0.309040
9601724473,8.107211,8.241305,-7.052308,0.049596,0.859036,0.310513
9601726970,8.168444,8.423488,-7.113772,0.041654,0.859851,0.305344
9601729468,8.351669,8.666265,-7.175131,0.036217,0.851068,0.332835
9601731965,8.840054,9.030030,-7.296749,0.031168,0.853300,0.330616
9601734463,9.450221,9.393700,-7.357243,0.028217,0.854756,0.336408
9601736960,10.182380,9.817965,-7.417631,0.025349,0.867831,0.344469
9601739458,11.036948,10.424207,-7.599953,0.021707,0.867859,0.345156
9601741955,12.135820,10.969045,-7.902446,0.015088,0.875127,0.359673
9601744453,13.539058,11.513696,-8.021783,0.018122,0.888909,0.359810
9601746951,15.125026,11.936560,-8.079114,0.016836,0.902021,0.354808
9601749448,16.893803,12.480819,-8.075765,0.026343,0.925857,0.371807
9601751945,18.784571,13.085673,-8.072310,0.032985,0.938873,0.374159
9601754443,20.918718,13.690440,-7.885920,0.039604,0.954052,0.380887
9601756940,23.052673,14.295312,-7.638840,0.054993,0.975691,0.389214
9601759438,25.125000,14.657414,-7.208588,0.067646,0.993078,0.375677
9601761935,27.014101,14.776739,-6.716978,0.070602,1.006106,0.383075
9601764433,28.537188,14.592684,-6.225019,0.077725,1.005985,0.398414
9601766930,29.755327,14.348334,-5.733821,0.083148,1.015486,0.373110
9601769428,30.485743,14.043886,-5.304727,0.083223,1.019136,0.368777
9601771925,30.728306,13.861829,-4.878043,0.090394,1.020482,0.380495
9601774423,30.666296,13.619267,-4.573494,0.102106,1.007380,0.360176
9601776920,30.360476,13.194616,-4.329514,0.095617,1.011078,0.357952
9601779418,29.811047,12.648563,-4.207119,0.092186,1.010467,0.336107
9601781915,28.834961,12.285495,-4.147935,0.090767,1.000356,0.322934
9601784414,27.554001,12.105314,-4.090838,0.082286,0.992564,0.290078
9601786912,26.150766,12.168725,-3.914128,0.070719,0.999207,0.289274
9601789409,24.930565,12.475018,-3.738088,0.070591,0.990467,0.294293
9601791906,24.015089,12.720119,-3.499937,0.074858,0.984599,0.298657
9601794404,23.221607,13.025817,-3.261681,0.069155,0.982522,0.284770
9601796902,22.794361,13.148318,-3.142496,0.059480,0.967309,0.293270
9601799399,22.672029,13.209523,-3.021888,0.057769,0.949118,0.302561
9601801896,22.915993,13.269918,-3.021346,0.054240,0.936882,0.279901
9601804394,23.220793,13.451908,-2.960561,0.054352,0.938375,0.269739
9601806891,23.464985,13.633792,-3.021370,0.055088,0.947784,0.277812
9601809389,23.586824,13.816083,-2.961239,0.057311,0.947783,0.273476
9601811886,23.708458,13.937683,-2.840089,0.056513,0.948485,0.281467
9601814384,23.830338,14.241566,-2.780622,0.056378,0.949879,0.296738
9601816881,23.829733,14.728349,-2.540521,0.057291,0.957911,0.285180
9601819379,23.707024,15.397823,-2.241164,0.056592,0.968066,0.291790
9601821876,23.340389,16.128494,-1.943011,0.053654,0.970252,0.296861
9601824374,22.973793,16.980757,-1.645522,0.051861,0.970854,0.332457
9601826871,22.728580,17.772337,-1.165200,0.048819,0.971549,0.346963
9601829369,22.788471,18.502518,-0.744142,0.044446,0.975927,0.352036
9601831866,23.152876,19.110813,-0.199954,0.035536,0.978825,0.373762
9601834364,23.883331,19.536016,0.285851,0.035528,0.980994,0.376685
9601836861,24.918512,19.900030,0.833767,0.030524,0.978900,0.365713
9601839359,26.075817,20.142145,1.322094,0.025552,0.982610,0.356965
9601841856,27.171907,20.262875,1.871555,0.020631,0.984169,0.340934
9601844354,28.146099,20.018927,2.361879,0.017238,0.990813,0.322051
9601846852,28.876417,19.410498,2.792631,0.013204,0.995326,0.292244
9601849349,29.362906,18.559181,3.163147,0.011297,0.996902,0.265345
9601851846,29.483646,17.647570,3.471996,-0.003101,0.992016,0.245527
9601854343,29.482565,16.614462,3.720384,-0.009619,0.984841,0.235953
9601856841,29.298901,15.581441,3.846740,-0.012987,0.985703,0.209033
9601859338,29.115673,14.730601,3.850726,-0.019277,0.986584,0.183534
9601861836,28.871519,14.062249,3.853499,-0.026572,0.980120,0.179771
9601864334,28.810398,13.636778,3.855601,-0.027462,0.969201,0.186220
9601866831,29.176014,13.271508,3.919588,-0.026913,0.949574,0.186078
9601869334,29.908115,12.905324,3.802821,-0.027004,0.937952,0.184536
9601871826,30.945507,12.477634,3.566101,-0.033551,0.930766,0.177869
9601874323,32.044086,12.110538,3.268579,-0.037917,0.925010,0.172690
9601876821,32.959526,11.743844,3.031091,-0.028485,0.912611,0.163252
9601879318,33.875023,11.559538,2.792608,-0.020511,0.905293,0.158925
9601881816,34.608051,11.740098,2.430106,-0.018338,0.896581,0.151616
9601884313,35.462692,11.981462,2.189084,-0.013274,0.892907,0.150917
9601886811,36.439533,12.344113,1.887148,-0.009624,0.891434,0.148039
9601889308,37.416172,12.646073,1.646232,-0.005212,0.892140,0.143733
9601891806,38.392803,12.948033,1.405316,-0.000694,0.903025,0.138050
9601894303,39.308243,13.189402,1.225201,0.005197,0.907349,0.134514
9601896801,40.223434,13.248488,1.106769,0.014602,0.915214,0.147032
9601899298,40.955559,12.943099,0.989670,0.023601,0.928281,0.131241
9601901796,41.504433,12.334137,0.934262,0.027546,0.940682,0.111029
9601904293,41.748341,11.604083,0.878425,0.026107,0.950114,0.118352
9601906791,41.748299,10.874430,0.821715,0.028540,0.965400,0.106866
9601909288,41.565048,9.962794,0.826032,0.030240,0.977795,0.093170
9601911786,41.137821,8.929968,0.830139,0.031932,0.991635,0.081665
9601914283,40.466644,7.897543,0.833372,0.027226,1.010656,0.059954
9601916781,39.429176,6.865926,0.956671,0.017333,1.026787,0.045432
9601919278,38.086563,5.774118,1.139898,0.016054,1.039179,0.038970
9601921775,36.500011,4.682710,1.322252,0.015594,1.051601,0.023070
9601924273,34.791538,3.773890,1.503175,0.010066,1.064798,0.005667
9601926786,33.082855,2.804378,1.745117,0.003776,1.075817,-0.010308
9601929267,31.557364,1.956053,1.926363,-0.004794,1.087538,-0.015401
9601931764,30.276609,1.228502,1.865067,-0.011280,1.096307,-0.013226
9601934261,29.301035,0.682733,1.743181,-0.014886,1.105038,-0.008113
9601936759,28.691225,0.258060,1.682629,-0.020666,1.114516,-0.003018
9601939256,28.264545,-0.227814,1.562377,-0.021333,1.120338,-0.003708
9601941754,27.898645,-0.774480,1.503362,-0.022831,1.121782,0.002100
9601944251,27.777069,-1.321754,1.323844,-0.029516,1.121782,0.016561
9601946749,27.838659,-1.808637,1.083962,-0.035969,1.124046,0.009240
9601949246,28.144613,-2.174538,0.722914,-0.045841,1.127877,-0.019183
9601951744,28.206886,-2.296960,0.298979,-0.052276,1.124355,-0.033816
9601954241,27.903639,-2.358195,-0.247975,-0.057982,1.127346,-0.042577
9601956739,27.356483,-2.297438,-0.796464,-0.065010,1.133298,-0.062232
9601959236,26.565062,-2.053684,-1.225445,-0.066408,1.134056,-0.067329
9601961734,25.712353,-1.566440,-1.534595,-0.059154,1.138332,-0.061403
9601964231,24.921005,-1.079503,-1.964902,-0.048145,1.144071,-0.066326
9601966729,24.129850,-0.592672,-2.455897,-0.038691,1.141094,-0.069151
9601969226,23.521994,-0.227940,-3.066950,-0.028118,1.132903,-0.042206
9601971723,23.341494,-0.228997,-3.856551,-0.016769,1.136311,-0.009352
9601974221,23.404865,-0.473637,-4.643951,-0.013879,1.142071,-0.002009
9601976718,23.712709,-0.840581,-5.611881,-0.012548,1.147802,0.016218
9601979216,23.898033,-1.146217,-6.398513,-0.011024,1.159403,0.019956
9601981713,23.839432,-1.390657,-7.186351,-0.012889,1.172581,-0.000314
9601984211,23.231575,-1.633987,-7.854778,-0.012746,1.181326,-0.006788
9601986708,22.196583,-1.998103,-8.463381,-0.011231,1.185682,-0.008918
9601989206,20.735218,-2.483424,-9.254915,-0.007409,1.191518,-0.022640
9601991703,18.846664,-3.271919,-9.985632,-0.006350,1.201781,-0.047261
9601994201,16.408358,-4.423868,-10.473573,-0.006081,1.211301,-0.066082
9601996698,13.603154,-5.696288,-10.658720,-0.001796,1.211956,-0.057308
9601999196,10.919126,-7.090082,-10.600016,0.008239,1.206019,-0.047795
9602001693,8.418264,-8.423484,-10.601676,0.016300,1.195114,-0.064503
9602004191,6.283341,-9.696692,-10.602357,0.026416,1.183416,-0.068840
9602006689,4.331642,-10.727121,-10.664397,0.034969,1.177480,-0.056436
9602009186,2.806564,-11.454062,-10.605190,0.037730,1.164363,-0.053598
9602011683,1.952053,-11.877919,-10.423862,0.049708,1.145279,-0.031807
9602014181,1.707124,-11.998589,-10.120633,0.060376,1.131333,-0.020166
9602016678,1.828586,-11.816088,-9.939126,0.069954,1.121165,-0.042667
9602019176,2.133064,-11.451501,-9.757958,0.074242,1.116753,-0.039019
9602021673,2.498587,-10.904627,-9.577568,0.081149,1.101341,-0.015803
9602024171,2.924698,-10.418440,-9.275250,0.087574,1.088204,-0.015831
9602026669,3.168229,-9.932161,-9.094965,0.087634,1.082435,-0.027502
9602029166,3.106827,-9.445382,-8.915771,0.083926,1.073749,-0.028335
9602031663,2.801500,-8.897408,-8.737781,0.083720,1.065702,-0.014590
9602034161,2.496229,-8.167045,-8.560786,0.087187,1.053294,-0.008831
9602036658,2.130238,-7.193504,-8.446024,0.082052,1.046804,-0.010390
9602039155,1.703678,-6.098480,-8.453519,0.075441,1.040317,-0.009785
9602041653,1.276947,-4.942556,-8.400658,0.070164,1.035941,0.005385
9602044151,0.788643,-3.847015,-8.165619,0.064359,1.039617,0.007529
9602046648,0.239163,-2.751270,-7.870111,0.060849,1.041870,-0.003394
9602049146,-0.432347,-1.837711,-7.574044,0.062301,1.034616,-0.009973
9602051643,-1.164881,-1.045644,-7.277533,0.057039,1.028074,0.001547
9602054141,-1.836656,-0.375164,-6.919453,0.045262,1.020876,0.009358
9602056638,-2.264354,0.112424,-6.620193,0.043823,1.008585,-0.003833
9602059136,-2.325983,0.477716,-6.379648,0.037172,0.998462,-0.002529
9602061633,-2.021600,0.538325,-6.196823,0.029122,0.991994,-0.003393
9602064130,-1.412570,0.294558,-5.950561,0.021828,0.983358,-0.009352
9602066628,-0.498476,-0.132200,-5.762901,0.012248,0.973976,-0.005168
9602069125,0.598539,-0.680850,-5.573923,0.015842,0.960895,-0.013222
9602071623,2.001072,-1.169517,-5.566249,0.023121,0.948526,-0.025589
9602074120,3.647400,-1.536889,-5.497676,0.017964,0.943474,-0.023504
9602076618,5.659326,-1.722266,-5.307413,0.015687,0.949248,-0.008224
9602079115,7.731727,-1.725043,-4.935860,0.031576,0.929518,-0.015465
9602081613,9.499233,-1.605728,-4.566062,0.044755,0.917856,-0.035757
9602084110,10.840461,-1.303638,-4.380851,0.042577,0.912808,-0.040906
9602086608,11.815600,-0.940047,-4.136594,0.040026,0.896026,-0.018531
9602089105,12.546625,-0.515156,-3.832854,0.031917,0.892430,-0.010654
9602091603,13.093742,-0.089443,-3.226328,0.026512,0.910746,-0.036011
9602094100,13.335361,0.337083,-2.438829,0.022904,0.923821,-0.026505
9602096598,13.454420,0.703327,-1.469372,0.027115,0.928792,-0.006072
9602099095,13.695699,1.251654,-0.561161,0.028370,0.920011,0.006230
9602101593,13.875992,1.800081,0.346833,0.026345,0.918644,-0.011244
9602104090,14.056341,2.530895,1.253831,0.021422,0.922374,-0.025079
9602106588,13.931701,3.079822,2.160733,0.017138,0.933304,-0.022863
9602109085,13.685658,3.628637,2.885134,0.017152,0.933310,-0.024316
9602111583,13.439725,3.934164,3.550172,0.017058,0.936169,-0.011941
9602114080,13.255139,4.178586,4.094384,0.009033,0.934055,-0.011319
9602116578,13.314670,4.361708,4.579112,0.004609,0.931895,-0.007023
9602119075,13.618163,4.605226,5.064383,0.000234,0.940617,0.002442
9602121573,14.165792,4.848238,5.489839,-0.004092,0.938496,-0.003436
9602124070,14.896929,5.029842,5.734217,-0.000619,0.927540,0.003061
9602126568,15.750645,5.332524,5.796305,-0.010277,0.929711,0.026226
9602129065,16.787659,5.513105,5.738334,-0.011078,0.922448,0.026890
9602131563,17.885849,5.693482,5.619894,-0.012526,0.923911,0.027611
9602134060,18.923450,5.934546,5.379528,-0.016280,0.921723,0.037728
9602136558,19.839287,6.236502,5.077705,-0.015586,0.919531,0.039173
9602139055,20.633360,6.599348,4.714427,-0.018655,0.915872,0.052193
9602141552,21.183905,7.083978,4.228235,-0.020020,0.920988,0.047856
9602144050,21.490673,7.508109,3.680813,-0.023578,0.921050,0.039823
9602146547,21.614464,7.871744,3.133068,-0.020811,0.920969,0.054388
9602149046,21.798956,7.931404,2.647887,-0.015978,0.914307,0.074740
9602151544,21.983580,7.808573,2.103012,-0.013840,0.914995,0.079856
9602154041,22.533628,7.320576,1.682812,-0.013191,0.916406,0.089321
9602156539,23.327887,6.467196,1.144099,-0.011200,0.915587,0.108233
9602159036,24.487440,5.431140,0.789754,-0.012032,0.914104,0.117660
9602161534,25.707998,4.455781,0.435296,-0.005431,0.913346,0.111186
9602164032,26.684078,3.602726,0.261366,-0.007232,0.914240,0.072655
9602166529,27.049711,2.690190,0.267649,-0.014336,0.917989,0.058797
9602169026,26.805233,1.596372,0.333430,-0.024342,0.923214,0.045645
9602171523,26.011311,0.503767,0.579310,-0.030702,0.921895,0.025216
9602174021,25.156683,-0.284863,0.762627,-0.039544,0.918303,0.033812
9602176518,24.424278,-0.891410,0.884698,-0.047210,0.917485,0.073693
9602179016,24.119364,-1.438176,0.825901,-0.052847,0.914414,0.127387
9602181513,24.180859,-2.229037,0.587676,-0.058960,0.913623,0.157110
9602184011,24.119965,-3.141082,0.471054,-0.071892,0.913797,0.140980
9602186509,23.144501,-3.930138,0.289805,-0.084450,0.923533,0.095130
9602189006,21.010164,-4.534801,0.164101,-0.088727,0.933741,0.095887
9602191503,18.021624,-5.198649,0.157048,-0.082748,0.945046,0.165079
9602194001,15.276934,-6.166877,0.152526,-0.071527,0.949851,0.212478
9602196498,13.386503,-7.501594,-0.029015,-0.064212,0.946910,0.205269
9602198996,12.777335,-8.899522,-0.387703,-0.061323,0.945428,0.206016
9602201493,13.327175,-10.056272,-0.804256,-0.062706,0.944021,0.197269
9602203991,14.486632,-10.788243,-1.099570,-0.063862,0.941256,0.163805
9602206488,15.645714,-10.911945,-1.216135,-0.066294,0.945815,0.118754
9602208985,16.134136,-10.426589,-1.338416,-0.069898,0.962807,0.056342
9602211483,15.707480,-9.635544,-1.344254,-0.073853,0.976040,0.026601
9602213981,14.549214,-8.721810,-1.414063,-0.068794,0.980328,0.033957
9602216478,13.086528,-7.990278,-1.666033,-0.062888,0.983934,0.028235
9602218976,11.624030,-7.258848,-1.978692,-0.065644,0.987640,0.015878
9602221473,10.527829,-6.528229,-2.411417,-0.065045,0.978170,0.020174
9602223970,10.041304,-5.798506,-2.781270,-0.065936,0.970870,0.030284
9602226468,10.103295,-5.008679,-3.028113,-0.064653,0.962101,0.039679
9602228965,10.653198,-4.158857,-3.273541,-0.058943,0.952596,0.041851
9602231463,11.507861,-3.248636,-3.457520,-0.052429,0.953976,0.046294
9602233965,12.240872,-2.520810,-3.762319,-0.047355,0.956822,0.050732
9602236458,12.668707,-1.974766,-4.006526,-0.037876,0.958924,0.050125
9602238955,12.730943,-1.610719,-4.372425,-0.034893,0.964721,0.048021
9602241453,12.427052,-1.306762,-4.678615,-0.028336,0.966118,0.048104
9602243950,11.757244,-1.002204,-4.986115,-0.020243,0.971880,0.043877
9602246448,10.537933,-0.878820,-5.112520,-0.016382,0.983523,0.031652
9602248945,8.952250,-0.997809,-5.117535,-0.015487,0.985032,0.015685
9602251443,6.939037,-1.298172,-4.941019,-0.010964,0.987231,0.001216
9602253940,4.742714,-1.476538,-4.705132,-0.009351,0.993074,-0.009623
9602256438,2.546599,-1.594214,-4.530266,-0.010664,0.993866,-0.023440
9602258935,0.533481,-1.590598,-4.355407,-0.012771,0.998259,-0.027064
9602261433,-1.113529,-1.587687,-4.239927,-0.014172,1.003361,-0.027767
9602263930,-2.455835,-1.706763,-4.062003,-0.017128,1.001195,-0.024909
9602266428,-3.431864,-1.887444,-4.003814,-0.016567,0.996054,-0.012587
9602268925,-3.980855,-2.251318,-4.003790,-0.016600,0.991697,-0.013347
9602271423,-4.163986,-2.798180,-4.001462,-0.016637,0.983717,-0.017041
9602273920,-4.102870,-3.588833,-4.118311,-0.021097,0.980820,-0.009845
9602276418,-3.919421,-4.440690,-4.355768,-0.024846,0.982978,0.003938
9602278915,-3.675365,-5.292439,-4.471630,-0.028545,0.982984,0.010438
9602281413,-3.187571,-6.205281,-4.525599,-0.032229,0.981548,0.014021
9602283910,-2.638734,-6.935834,-4.580344,-0.037990,0.983068,0.009608
9602286408,-1.967697,-7.545101,-4.696003,-0.040829,0.984569,0.003774
9602288905,-1.296621,-8.032778,-4.812326,-0.045220,0.984595,0.006633
9602291419,-0.747499,-8.459456,-4.929417,-0.050172,0.990486,-0.002098
9602293899,-0.564484,-8.885431,-4.987129,-0.052237,0.996344,-0.008618
9602296396,-0.564637,-9.371797,-4.984478,-0.050066,1.000665,-0.003474
9602298894,-0.626306,-9.736158,-4.800642,-0.049291,1.004298,-0.004892
9602301391,-0.748791,-10.161320,-4.677383,-0.048531,1.007202,-0.005588
9602303889,-0.870878,-10.525893,-4.675830,-0.046212,1.012306,-0.014972
9602306386,-1.114730,-10.829576,-4.735734,-0.045318,1.016711,-0.028010
9602308884,-1.419738,-11.072259,-4.735500,-0.042500,1.014477,-0.020728
9602311381,-1.542317,-11.193337,-4.553210,-0.038952,1.007895,-0.017832
9602313879,-1.603890,-11.253719,-4.371033,-0.033043,1.006433,-0.028679
9602316376,-1.421669,-11.192807,-4.127956,-0.031542,1.010784,-0.029356
9602318873,-1.239428,-11.071098,-3.885212,-0.027905,1.007857,-0.032245
9602321371,-0.996523,-10.766892,-3.521868,-0.020728,1.000517,-0.029315
9602323868,-0.814566,-10.340997,-3.159404,-0.019359,1.001194,-0.019847
