Timestamp (us),Gyroscope X (deg/s),Gyroscope Y (deg/s),Gyroscope Z (deg/s),Accelerometer X (g),Accelerometer Y (g),Accelerometer Z (g)
639093933,-3.276330,-1.048896,5.499126,0.757831,-0.553128,0.348220
639113931,-1.249716,-1.514369,5.013222,0.762218,-0.550525,0.352420
639133929,0.220712,-1.789820,4.065436,0.757456,-0.548269,0.350513
639153929,0.561313,-2.304140,3.534259,0.748110,-0.545096,0.355113
639173927,0.396820,-3.190005,3.143860,0.749598,-0.550128,0.361408
639193925,0.341772,-3.504283,2.757970,0.755078,-0.550665,0.357458
639213923,1.251648,-2.961223,2.037014,0.753709,-0.545782,0.347244
639233921,1.732275,-2.925351,1.844673,0.735634,-0.549444,0.356788
639253946,1.058530,-3.384315,1.127894,0.742654,-0.545171,0.354512
639273916,1.458170,-2.605863,-0.108553,0.746946,-0.535825,0.353317
639293914,0.002122,-2.367508,-0.558942,0.749842,-0.536630,0.364852
639313912,-1.996024,-2.307726,-0.390500,0.745850,-0.540828,0.364147
639333910,-2.546183,-2.409744,-1.337441,0.758170,-0.546844,0.355880
639353909,-1.321217,-1.422665,-1.491899,0.766245,-0.552844,0.355141
639373907,-1.399549,-0.342108,-0.379337,0.758020,-0.540563,0.356238
639393905,-3.718286,-0.473465,1.113721,0.741429,-0.526942,0.336980
639413903,-5.997785,-0.200425,1.062101,0.723543,-0.537792,0.327297
639433901,-4.995835,-1.146174,-0.017294,0.729729,-0.549599,0.343595
639453900,-2.719874,-1.852782,-2.995828,0.734383,-0.487667,0.326728
639473899,-10.794568,-4.116355,-5.988417,0.741088,-0.468238,0.322209
639493897,-16.159040,-6.373854,-4.433812,0.748388,-0.546441,0.293292
639513895,-16.395264,-4.987324,-1.581668,0.714956,-0.572836,0.311422
639533893,-14.877918,-3.313415,-3.062858,0.679594,-0.469847,0.315595
639553891,-14.392189,-11.768280,-5.762511,0.632253,-0.419039,0.321088
639573888,-28.584894,-24.200130,-6.811623,0.766533,-0.526924,0.350003
639593886,-34.819260,-18.128765,-6.894260,0.919951,-0.647987,0.318562
639613885,-21.489269,-9.967218,1.701493,0.858131,-0.712901,0.353600
639633883,-6.040761,-1.931887,7.415591,0.727640,-0.689387,0.367705
639653881,9.503534,6.760090,0.366992,0.727000,-0.465574,0.373199
639673879,2.928972,14.730825,-11.144502,0.831444,-0.253734,0.396445
639693877,-14.132644,15.203787,-11.570267,0.782261,-0.289889,0.344421
639713875,-26.973999,10.772197,-8.201007,0.730535,-0.502150,0.350810
639733874,-25.919725,15.527090,-3.348604,0.846435,-0.764496,0.389849
639753873,-11.423914,24.646458,-6.062731,0.923556,-0.797023,0.416392
639773871,-7.674280,24.928612,-15.192740,0.941594,-0.582235,0.384267
639793869,-4.323481,25.472383,-15.924850,0.880516,-0.429112,0.315350
639813867,-1.903380,20.360929,-10.175236,0.782097,-0.355778,0.301009
639833866,-1.089429,9.156636,-2.240053,0.849915,-0.373615,0.298500
639853864,9.009768,4.672358,8.525200,0.964719,-0.311395,0.299794
639873861,17.725893,-1.885977,18.447445,0.896850,-0.290902,0.373502
639893859,14.224907,-9.295290,26.567516,0.888483,-0.423829,0.461295
639913857,-1.890978,-12.397479,28.539831,0.876153,-0.534782,0.484221
639933855,-10.889523,-11.189929,22.116026,0.821000,-0.513301,0.436176
639953853,-6.649746,-8.879323,13.324154,0.765563,-0.432705,0.332309
639973851,7.964909,-8.417833,8.300537,0.674389,-0.350696,0.286894
639993850,16.792505,-12.807754,7.527779,0.691833,-0.402290,0.239426
640013848,20.562006,-22.745720,10.853722,0.764861,-0.468449,0.202958
640033846,24.663160,-31.986849,15.010917,0.784050,-0.503543,0.288248
640053845,29.218348,-34.791210,13.209379,0.802293,-0.478824,0.403715
640073843,25.680574,-31.863630,4.495830,0.815244,-0.355449,0.449291
640093842,14.238496,-27.905333,-2.164862,0.817002,-0.290663,0.506966
640113840,-2.569862,-23.599340,-4.562188,0.875949,-0.333072,0.470356
640133838,-10.143070,-18.042135,-7.774904,0.939138,-0.404970,0.443911
640153836,-7.114167,-10.792106,-12.745975,0.894400,-0.405678,0.391660
640173833,-0.069090,-4.324378,-17.906630,0.824351,-0.413403,0.357962
640193831,4.475093,-0.512940,-26.790291,0.781616,-0.374851,0.371352
640213829,4.012147,2.698421,-36.560276,0.819266,-0.322672,0.357155
640233827,2.182443,8.522548,-42.824974,0.809328,-0.311688,0.341380
640253826,0.139932,11.023893,-47.226997,0.780674,-0.315561,0.364958
640273823,-1.397930,12.523714,-55.145279,0.824987,-0.289323,0.409150
640293822,-10.780169,18.484211,-64.499420,0.860457,-0.280909,0.363587
640313820,-16.785027,28.439413,-68.742355,0.821698,-0.278823,0.356689
640333818,-15.181044,30.985336,-72.834465,0.793538,-0.256842,0.383524
640353818,-16.849997,34.127003,-83.556152,0.842080,-0.251895,0.483545
640373816,-26.813663,39.084812,-102.204681,0.932073,-0.167795,0.490547
640393814,-38.813725,42.527740,-121.543770,1.030285,0.046062,0.327891
640413813,-55.165943,45.907898,-148.750809,0.998959,0.036878,0.249544
640433810,-70.745300,35.721294,-182.412537,0.913020,-0.093490,0.337703
640453808,-63.416096,45.479656,-214.141479,1.035999,-0.148420,0.296001
640473805,-41.802845,67.121994,-225.007767,1.308542,-0.152993,0.202308
640493803,-40.534660,70.402832,-205.908524,1.596666,-0.143074,0.166107
640513801,-65.274155,52.811005,-154.275848,1.497319,-0.658796,-0.032481
640533800,-27.067060,5.455525,-37.973476,1.349990,-1.909054,-0.207495
640553798,50.993248,-22.735428,78.462738,1.026771,-2.749146,0.341158
640573796,119.698822,-1.903612,131.128235,1.463347,-1.729319,0.660088
640593794,188.953674,57.762032,219.871613,2.098820,-0.465166,0.483785
640613792,137.952011,76.613983,300.534058,1.598174,-0.092360,0.427956
640633790,16.120363,14.119990,333.260681,1.333997,-0.258195,0.225708
640653790,-61.134567,-20.274515,332.849976,1.154022,-0.289271,0.144285
640673788,-66.655228,-32.988274,317.528931,0.948462,-0.064226,0.129180
640693786,-31.268694,-66.381943,308.635071,0.868599,0.026084,0.089863
640713784,22.805079,-95.489525,288.359009,0.833097,0.154615,-0.007973
640733782,57.300865,-106.598465,244.122437,0.661856,0.469180,0.204025
640753781,73.779823,-112.781273,155.010971,0.584442,0.750816,0.585312
640773777,101.516670,-61.905533,53.324116,0.346227,0.917373,0.951424
640793775,37.324524,-40.842876,-41.561028,0.103883,1.021567,1.069887
640813773,-52.971149,-35.433517,-145.428375,0.347952,0.900284,1.023948
640833772,-143.651321,4.405900,-178.882629,1.248952,0.012433,1.236756
640853770,-189.839722,57.897400,-84.097191,1.542360,-1.068966,0.701363
640873768,-195.778992,51.105297,-61.264069,1.089570,-0.833740,0.491510
640893766,-163.622223,72.152565,-47.987144,1.471246,-0.770159,-0.230067
640913764,-89.366821,78.947227,-39.070747,0.635906,-0.704039,-0.131401
640933763,-47.555252,20.825068,-42.638344,0.436780,-0.980396,0.056375
640953762,10.847771,33.127037,-57.422428,0.782751,-1.041237,0.294034
640973760,51.531738,68.739899,-89.048576,0.866875,-0.541320,0.363001
640993758,42.824402,77.289398,-115.006889,0.683203,-0.078660,0.347476
641013756,-8.763605,58.362698,-123.493080,0.551071,0.018581,0.295759
641033754,-50.539669,40.135624,-118.363647,0.619468,-0.129388,0.106801
641053753,-60.784515,50.938217,-128.184158,0.576979,-0.141048,0.099347
641073749,-45.218140,39.449013,-147.779068,0.496131,-0.134588,0.202329
641093748,-38.921906,27.131552,-164.189346,0.750132,-0.004516,0.380578
641113746,-27.704227,47.663185,-177.495697,0.972406,0.149725,0.269618
641133744,-25.992870,53.044952,-191.419525,0.997314,0.223311,0.449256
641153742,-62.141106,31.234684,-216.955276,1.139749,0.348456,0.441925
641173740,-85.904556,44.214577,-235.615143,1.554478,0.265220,0.302801
641193738,-73.036880,84.417877,-228.575989,1.597717,0.251309,0.137983
641213736,-127.149529,-25.343344,-202.419067,1.254264,-0.242735,-0.565360
641233735,-160.942093,-123.986275,-67.886848,3.020493,-2.971030,-0.756870
641253734,-18.323689,75.668198,0.212132,1.622780,-4.396357,0.564751
641273732,331.761108,-8.303040,22.004421,1.000135,-1.721730,0.256418
641293731,374.919312,-7.496084,150.072800,1.597728,-0.375355,0.096804
641313729,221.234192,39.494797,220.179337,1.881516,0.234720,0.097950
641333727,44.472591,42.975414,262.972473,1.305358,0.037045,0.410249
641353725,-52.245987,-17.889326,269.564484,1.208634,-0.326497,0.209350
641373722,-67.072136,-39.536140,277.040863,1.130855,-0.655707,0.116935
641393720,-34.429382,-55.537346,294.131226,1.049858,-0.600299,-0.006232
641413718,31.257872,-43.607143,297.120789,1.038927,-0.355622,0.018996
641433716,86.012978,-33.944859,287.973663,1.014817,-0.063029,0.095167
641453714,95.291809,-36.286152,270.676208,1.058076,0.249390,0.125556
641473712,67.493210,-51.615818,240.254944,0.800033,0.445503,0.126330
641493711,18.344608,-89.635193,192.623993,0.446462,0.473829,0.286069
641513709,-23.867476,-125.852806,118.735481,0.457647,0.460617,0.484690
641533707,-1.616485,-107.266418,24.029064,0.662618,0.649869,0.545873
641553706,40.136391,-41.830505,-68.379852,0.397157,0.916714,0.802899
641573704,-29.989216,-19.066498,-161.733337,0.196968,0.863754,1.048986
641593702,-164.405289,-21.342697,-241.547989,1.141142,0.522958,1.127397
641613701,-210.135666,40.982250,-166.836548,2.251070,-0.722668,0.553034
641633699,-208.642609,72.575630,-53.049755,1.731075,-1.889193,0.480800
641653697,-99.668060,151.495163,-78.557541,1.265004,-0.597299,-0.557797
641673694,18.667355,144.699554,-99.061127,0.646521,-0.346087,-0.080240
641693692,33.904125,71.400764,-112.682449,0.458115,-0.555604,0.118658
641713690,9.341230,71.913200,-149.847305,0.753456,-0.404943,0.126249
641733688,2.148320,71.089149,-172.167953,0.756730,-0.072576,0.189132
641753686,-4.725089,58.202225,-191.084091,0.700454,0.066397,0.167639
641773685,-16.916607,56.398651,-209.023041,0.743986,0.074098,0.217581
641813681,-63.054314,62.261929,-256.273926,1.074190,0.079999,0.293332
641833679,-73.884743,84.953316,-266.130432,1.185986,0.166225,0.252541
641853679,-34.312706,117.743752,-253.138214,1.184164,0.402709,0.417549
641873677,-8.548043,88.745369,-232.940628,1.405487,0.251732,0.225799
641893675,-83.481926,-89.576714,-69.019821,2.626769,-2.566759,-0.176965
641913673,-74.641273,28.065327,28.209969,2.017191,-3.568512,0.987275
641933671,65.928932,35.429977,27.694061,1.251364,-1.351856,0.798375
641953669,216.230576,14.827887,160.226059,1.610575,-0.524120,0.316224
641973677,200.032700,53.342422,236.886337,1.580861,-0.241071,0.409542
641993664,104.163315,38.507530,248.418121,1.302712,-0.209599,0.278281
642013662,14.264713,11.486048,232.225128,1.157113,-0.074265,0.092485
642033661,-21.222235,-6.371518,256.512482,0.923183,-0.096073,0.242159
642053659,-17.902130,-34.486412,292.311249,0.851027,-0.280081,0.280472
642073657,-4.172356,-40.162216,298.315735,1.025657,-0.274257,0.190195
642093655,22.315434,-35.027992,288.733093,0.990533,-0.074436,0.214957
642113653,36.583134,-47.663795,275.882324,0.812050,0.043535,0.336223
642133651,26.968548,-69.321259,256.562531,0.724149,0.049286,0.385510
642153650,10.895748,-83.078766,230.222229,0.628687,0.018872,0.354915
642173649,1.813347,-88.316383,192.404770,0.388082,-0.013022,0.425044
642193647,-3.191544,-94.879143,129.724854,0.273768,0.008047,0.470181
642213645,1.651020,-82.199547,56.030499,0.355708,0.116693,0.522607
642233644,8.155178,-53.359695,-17.668716,0.519982,0.300193,0.629715
642253641,-0.841575,-30.533854,-98.588036,0.515030,0.650375,0.603944
642273640,-55.992908,-37.028286,-178.388458,0.311429,0.697342,0.636838
642293636,-168.358887,-44.411667,-215.374847,0.853470,-0.059670,0.834079
642313635,-209.354324,-24.711639,-115.338005,2.256137,-1.593481,0.934159
642333633,-171.052139,51.326012,-83.932846,1.762291,-1.888231,0.575235
642353631,-77.333824,144.146408,-102.206985,1.141824,-0.571243,0.153055
642373629,-9.646854,151.687714,-162.417923,0.467102,0.165992,-0.047407
642393627,33.180908,122.295776,-185.035141,0.415902,-0.494142,0.228299
642413626,16.517517,119.673447,-214.402161,0.479581,-0.459208,-0.050354
642433624,27.098131,111.544106,-244.081467,0.469049,0.036205,-0.106052
642453622,32.818687,85.680496,-294.259949,0.530054,0.210031,-0.002115
642473621,10.864111,62.078617,-337.254883,0.797816,0.321012,0.171093
642493619,-16.951246,69.657249,-339.419189,1.176283,0.481416,0.290199
642513618,-38.154594,62.390984,-298.389771,1.337176,0.772244,0.453547
642533622,-129.258972,-17.176857,-210.159775,2.145157,-0.871525,0.113679
642553614,-172.098129,-36.463657,-3.957465,1.688135,-3.031191,0.580374
642573612,-122.215958,-14.980472,-28.570185,1.314699,-1.944684,0.706141
642593609,52.522442,-9.929401,73.663322,1.575328,-1.002115,0.174530
642613607,190.588852,18.334284,149.498230,1.635558,-0.646543,0.101078
642633605,232.287979,4.704590,209.457489,1.472556,-0.366386,0.137913
642653604,170.895599,-26.874519,236.828308,1.373075,-0.096306,0.206283
642673602,78.821884,-37.705200,250.870422,1.258750,0.135095,0.281300
642693600,18.897430,-54.329193,268.279999,1.099890,0.004652,0.338806
642713598,0.036061,-69.295555,289.810913,1.003832,-0.306427,0.349186
642733596,10.460090,-69.979401,304.706726,0.998669,-0.451532,0.333941
642753594,43.695244,-51.277309,299.819336,1.072664,-0.334890,0.259921
642793592,59.324348,-32.062263,227.892715,0.707159,0.120599,0.217226
642813590,32.910877,-51.670090,185.173599,0.448313,0.303219,0.239452
642833588,14.481001,-76.238045,122.013489,0.391694,0.509881,0.341974
642853586,18.316896,-69.851212,30.987768,0.286470,0.692721,0.454772
642873584,13.530857,-29.246429,-77.214188,0.135959,0.770968,0.712934
642893581,-62.152527,-9.922095,-193.590668,0.168958,0.999385,0.861268
642913579,-140.206497,-27.582443,-253.599197,1.447232,0.627945,1.167176
642933578,-218.784943,23.652382,-202.564560,2.426617,-0.793581,0.323563
642953576,-166.442139,119.904724,-134.899155,1.727936,-1.337732,0.229841
642973574,-82.464638,156.646881,-211.959412,0.728505,-0.088777,-0.070050
642993572,51.386211,144.704010,-275.287201,0.420392,0.211815,0.061700
643013570,125.509430,153.737701,-322.326660,0.480055,0.012007,0.283834
643033569,77.139473,116.586472,-361.598236,0.988899,0.413569,0.131185
643053566,-3.984106,51.368244,-368.348999,1.567176,1.110147,0.095747
643073566,-104.636971,22.023901,-315.586731,1.555852,0.894798,0.892709
643093564,-283.216034,-24.855194,-206.511154,2.442414,-1.236252,-0.062803
643113562,-281.597900,-38.343670,-34.742825,2.147818,-3.371024,-0.156933
643133561,-141.624222,36.953571,-43.383667,1.331170,-2.672057,0.258480
643153559,135.966583,24.750542,62.227509,1.225283,-1.139048,0.111447
643173557,269.983582,50.352463,119.231422,1.487133,-0.136189,0.052975
643193560,272.894531,58.491741,144.479401,1.420969,0.529765,0.194409
643213552,181.886536,35.523304,144.778870,1.084271,0.711291,0.590313
643233550,31.557888,-1.413645,140.503448,0.830532,0.576149,0.782302
643253548,-77.519554,-10.048004,162.311371,0.741252,0.183084,0.670138
643273546,-95.896500,-11.847843,206.517624,0.695188,-0.113423,0.400762
643293544,-75.591316,-24.578266,232.403915,0.813006,-0.220167,0.211851
643313542,-62.014648,-38.378071,221.324615,0.874402,-0.271857,0.083006
643333541,-35.744244,-47.214546,196.600037,0.859522,-0.325641,0.044186
643353539,14.041868,-47.502407,166.675720,0.952085,-0.338340,0.113361
643373537,66.799911,-38.798561,138.931274,0.990223,-0.279274,0.193655
643393537,106.010994,-35.443069,115.384193,0.922363,-0.212713,0.291284
643413535,110.425072,-30.575291,95.910461,0.846129,-0.156741,0.443265
643433533,91.253448,-22.418375,75.898804,0.761862,-0.132978,0.562367
643453532,65.896446,-13.937552,54.584068,0.755861,-0.099872,0.611784
643473530,39.112087,-4.172541,34.721493,0.712340,-0.061179,0.621241
643493527,8.832479,3.296827,17.529856,0.659034,-0.014966,0.563532
643513524,-22.667259,5.824604,1.103334,0.648367,-0.043034,0.517518
643533522,-45.199146,8.181221,-18.805878,0.692522,-0.219972,0.478995
643553520,-36.506119,20.053453,-42.837307,0.743389,-0.358098,0.449977
643573519,-19.425632,35.806221,-63.588539,0.769737,-0.248991,0.433150
643593517,-28.047253,39.586826,-72.305534,0.751939,-0.137146,0.459712
643613515,-57.012138,32.732708,-73.251656,0.800512,-0.178183,0.484548
643633513,-77.826408,33.737110,-78.047508,0.852658,-0.306628,0.479658
643653511,-81.191864,41.006855,-87.526260,0.909614,-0.451985,0.456194
643673509,-69.915466,50.123581,-91.107193,0.925812,-0.513955,0.425019
643713507,-59.737751,52.689667,-49.976910,0.853196,-0.420086,0.479947
643733505,-69.544662,54.137291,-43.084076,0.820610,-0.471213,0.454499
643753503,-74.048462,54.207237,-50.381981,0.830205,-0.520855,0.391963
643773502,-74.105293,50.495720,-53.275444,0.906114,-0.381394,0.352729
643793500,-79.636559,44.076935,-41.647293,0.974910,-0.234419,0.357823
643813496,-85.419838,40.935352,-30.496407,0.898686,-0.307682,0.397951
643833494,-84.680870,42.520683,-31.821651,0.822747,-0.446152,0.385723
643853493,-75.150169,45.429924,-36.612759,0.811308,-0.420828,0.366063
643873491,-76.055351,44.553707,-38.641273,0.850116,-0.269747,0.353278
643893489,-91.718246,40.714119,-39.175468,0.858458,-0.209267,0.361189
643913487,-106.808342,37.193512,-41.263988,0.879567,-0.251927,0.333506
643933485,-110.152924,38.327927,-43.632446,0.970930,-0.244895,0.293271
643953484,-120.211227,40.634384,-43.992123,1.020194,-0.242520,0.271747
643973482,-134.733795,42.716011,-46.192223,0.973149,-0.352726,0.244598
643993481,-139.353592,47.296112,-52.750107,0.876531,-0.483427,0.185704
644013479,-128.040009,53.205723,-58.923248,0.862271,-0.509868,0.114636
644033477,-121.179192,57.716820,-63.557430,0.889303,-0.466867,0.084967
644053476,-122.228760,58.945854,-68.763756,0.933182,-0.439030,0.049680
644073474,-119.090027,57.072487,-74.507103,0.932115,-0.458336,0.020320
644093472,-113.149872,53.606258,-76.783119,0.954999,-0.449043,-0.007869
644113486,-108.588943,51.291645,-71.701912,1.015593,-0.450486,0.012831
644133467,-102.102562,55.880501,-63.225887,1.016358,-0.468557,0.066113
644173463,-121.753632,50.613014,-63.332626,0.823164,-0.219431,0.055962
644193461,-141.501205,30.106724,-69.251732,0.942003,-0.155254,-0.092146
644213459,-168.406906,9.966711,-69.645477,1.056577,-0.147389,-0.154144
644233458,-152.620575,-7.386141,-67.974670,1.111133,-0.605857,-0.418194
644253456,-64.188911,8.848159,-78.224953,1.102484,-0.776191,-0.251383
644273454,-17.324839,23.460318,-95.087013,1.058530,-0.468154,0.131386
644293452,-8.961102,37.324219,-94.587723,1.149711,-0.293105,0.289244
644313452,-23.354919,40.067116,-74.388565,1.155640,-0.372334,0.408920
644333450,-77.165390,36.459850,-62.879391,1.163144,-0.404868,0.331870
644353448,-104.862358,38.672596,-53.142151,1.111271,-0.490995,0.239630
644373446,-90.405563,47.523453,-39.964664,1.073275,-0.604274,0.176316
644393445,-59.068428,56.772919,-30.855757,1.065448,-0.567730,0.177408
644413443,-38.856213,60.562126,-23.700296,1.018927,-0.416097,0.197506
644433439,-38.435612,56.648190,-15.811562,0.991421,-0.304657,0.219415
644453438,-50.687660,52.108292,-7.542932,0.993420,-0.309671,0.253171
644473436,-65.888657,49.951973,-0.061967,0.985646,-0.358538,0.295347
644493434,-73.864708,53.503429,2.906910,0.941301,-0.361298,0.303609
644513432,-75.444374,56.714874,2.246025,0.918929,-0.305884,0.293137
644533430,-84.007431,51.281624,-2.173839,0.915699,-0.214113,0.278833
644553428,-105.887161,38.373405,-10.230262,0.849933,-0.082703,0.299230
644573427,-137.580139,23.452852,-22.404774,0.802078,-0.075813,0.119036
644593424,-142.993652,-0.981052,-19.890692,0.868822,-0.516278,-0.133036
644613424,-99.138611,12.066874,-14.397467,1.010916,-0.992425,0.009161
644633423,-26.043545,57.959835,-34.370892,0.881361,-0.759552,0.196290
644653421,39.405220,74.937363,-36.487064,0.774679,-0.219443,0.320002
644673419,6.831588,58.331661,-24.803204,0.843459,-0.055693,0.404743
644693417,-82.432236,36.587658,-25.763559,0.859763,-0.241175,0.356767
644713415,-127.245598,30.045197,-25.035242,0.854982,-0.473873,0.300456
644733412,-106.757645,36.184921,-22.162523,0.868165,-0.639902,0.247771
644753410,-62.847031,41.565983,-17.440325,0.934495,-0.698898,0.155666
644773408,-34.338131,47.030750,-15.482708,0.947959,-0.615987,0.125065
644793406,-33.536205,45.500275,-14.544714,0.887865,-0.477674,0.217017
644813404,-46.187225,39.381565,-11.487848,0.844184,-0.416216,0.305117
644833403,-53.549419,40.510612,-9.278327,0.847109,-0.418242,0.332999
644853401,-55.567940,46.249725,-11.020173,0.833471,-0.398460,0.335750
644873399,-64.687752,43.783421,-12.342813,0.776637,-0.408177,0.271293
644893397,-69.956024,39.706177,-15.051226,0.797143,-0.500029,0.229218
644913395,-59.978371,43.933846,-22.973682,0.766908,-0.521072,0.213183
644933395,-43.172791,51.554989,-29.977592,0.784401,-0.464267,0.320851
644953393,-39.468842,53.280212,-37.092510,0.829218,-0.376891,0.318409
644973391,-43.601334,48.535145,-35.190285,0.814498,-0.380843,0.363474
644993389,-61.282387,45.665459,-38.235035,0.666213,-0.393753,0.429589
645013388,-80.387421,42.370827,-62.838272,0.456383,-0.176284,0.405983
645033386,-86.022827,41.706455,-98.959564,0.401392,0.164609,0.285897
645053383,-71.821075,44.189743,-139.760529,0.505605,0.197473,0.494415
645073381,-67.656509,57.331863,-170.502441,0.939877,0.009170,0.760462
645093379,-75.672241,79.694077,-177.323029,0.948596,0.095115,0.623590
645113377,-108.424744,55.951797,-167.285431,0.944008,0.098816,0.418067
645133375,-165.344131,59.288376,-122.394455,1.220056,-0.262116,0.437247
645153373,-163.038925,83.694931,-147.243851,0.714775,-0.035445,0.180659
645173371,-97.410835,64.775795,-189.550598,0.692321,0.096754,0.110719
645193370,-51.604576,61.726486,-220.492935,0.942731,0.077024,0.189253
645213368,-51.657230,52.780357,-227.466324,1.170797,0.123867,0.096968
645233367,-68.035240,28.322548,-200.842560,1.343691,0.250312,0.200205
645253365,-179.062714,-11.470274,-174.302063,1.486396,-0.287499,0.245936
645273363,-239.588181,-35.226753,-87.984619,2.064516,-1.706867,-0.005833
645293371,-180.149796,-14.953529,-13.646550,1.744246,-2.565296,0.225059
645313360,-52.012066,-22.466022,18.866894,1.515311,-1.931978,0.176081
645333358,82.188599,-11.179682,102.882111,1.507768,-1.295189,0.113224
645353355,157.008606,18.282593,160.625290,1.364750,-0.720066,0.133323
645373353,142.017288,21.170048,204.794830,1.221185,-0.366948,0.164580
645393352,93.596329,15.062068,232.606476,1.184574,-0.235255,0.146317
645413350,47.152824,0.706503,249.153900,1.031620,-0.155772,0.290323
645433347,-12.534866,-38.430588,262.560791,0.955769,-0.120536,0.340556
645453346,-44.335312,-61.060280,274.656006,0.972958,-0.221830,0.256359
645473344,-29.526531,-60.086269,271.726624,0.856208,-0.317246,0.301893
645493342,5.283401,-58.072136,245.675140,0.785187,-0.226971,0.260568
645513340,29.846884,-55.942608,199.060547,0.717993,0.137609,0.202205
645533340,31.974724,-70.000198,131.009308,0.508260,0.517160,0.210225
645553338,5.063360,-82.647675,50.317440,0.317450,0.811562,0.394514
645573336,-27.520514,-56.640316,-32.955532,0.276937,0.588549,0.625392
645593334,-66.122566,-40.286575,-87.393768,0.487038,0.212454,0.510052
645613332,-80.706894,-29.109474,-114.264267,0.798994,-0.205419,0.503833
645633330,-76.718918,-3.777082,-108.143059,1.357321,-0.803654,0.818019
645653327,-63.442604,40.542133,-84.930267,1.226694,-0.801547,0.574765
645673326,-59.367104,32.296890,-65.160828,1.063481,-0.740951,0.412835
645693324,-64.860336,49.432381,-43.593300,0.926371,-0.664213,0.236052
645713322,-40.889229,50.497677,-75.229675,0.631085,-0.118176,0.208726
645733320,-21.876776,46.148685,-103.452354,0.600241,-0.245066,0.265734
645753318,-23.411015,57.230743,-116.748817,0.790183,-0.554837,0.441886
645773316,-15.160389,67.642502,-127.282791,0.825896,-0.470189,0.375087
645793315,-9.484297,66.622345,-146.310013,0.957124,-0.327195,0.334258
645813313,-36.918213,54.296886,-161.882248,0.886691,-0.176917,0.383051
645833312,-70.285095,40.466209,-160.527252,0.867312,0.029024,0.318850
645853310,-89.809830,42.708477,-160.737015,0.879842,0.090151,0.143084
645873308,-86.627007,44.332958,-171.762741,0.952697,-0.012444,0.012308
645893307,-59.258804,31.850849,-194.393585,0.894618,-0.106057,0.042078
645913305,-35.645386,10.535843,-215.075043,0.927066,0.049972,0.225906
645933303,-41.156952,7.248491,-223.470215,1.125473,0.277537,0.305590
645953316,-41.447144,38.850906,-227.556213,1.251816,0.403171,0.251479
645973298,-2.675967,57.107437,-216.819824,1.113422,0.539461,0.251184
645993296,-32.906151,-21.239597,-178.117126,1.237084,0.168522,0.171108
646013295,-118.254288,-105.252769,-84.801720,2.814166,-2.083677,-0.312028
646033293,-70.647102,58.225895,2.141268,1.822049,-3.234003,0.702599
646053291,104.042679,23.379333,27.095829,0.984281,-1.873299,0.612142
646073289,221.590439,-7.695193,150.660110,1.633127,-0.947902,0.287844
646093287,164.384247,25.829113,226.382843,2.056376,-0.195223,0.068005
646113286,69.073898,42.840775,266.895966,1.622799,0.033708,-0.159436
646153283,-41.601898,-54.588329,280.822845,1.164946,-0.475631,0.211201
646173281,-4.476398,-57.278198,306.708374,1.149516,-0.667081,0.156521
646193280,34.436279,-49.598927,317.226074,1.177134,-0.374411,0.181309
646213278,41.220802,-45.117004,312.827972,1.254802,-0.029303,0.247390
646233276,41.262993,-49.051739,296.537415,1.198601,0.101816,0.242529
646253274,26.091646,-73.572365,281.207642,1.111566,0.075997,0.297692
646273271,9.044834,-89.810547,252.109283,0.877865,0.030084,0.345028
646293269,26.909603,-82.742409,202.599945,0.422813,0.142945,0.410956
646313267,29.858999,-76.109901,121.159935,0.202431,0.408775,0.371633
646333265,1.885779,-70.743164,22.798792,0.224275,0.714090,0.445608
646353263,-23.642160,-48.061970,-59.852989,0.374145,0.607005,0.750507
646373262,-6.710855,3.307153,-129.461533,0.514021,0.457805,0.841775
646393259,-19.986790,42.781395,-166.748169,0.582271,0.058617,1.024370
646413258,-99.613174,57.762154,-120.651161,1.196447,-0.891347,0.963054
646433256,-136.499329,88.300034,-79.364319,1.352644,-1.040827,0.563472
646453255,-128.984573,95.119530,-33.605560,1.203431,-0.949642,0.145898
646473254,-95.957756,103.970901,-43.341312,0.770447,-0.343236,-0.129387
646493252,-68.854027,64.326546,-68.203629,0.451775,-0.510586,0.021669
646513250,-37.904278,37.524345,-87.145859,0.672230,-0.929513,0.181106
646533248,-7.984737,62.957680,-118.760269,0.844962,-0.808363,0.187278
646553246,20.943672,81.927589,-150.424469,0.725116,-0.358413,0.203969
646573243,17.549162,76.215935,-173.720612,0.634356,-0.068481,0.186012
646593241,-3.417205,62.819786,-181.216675,0.622984,-0.016426,0.249315
646613239,-46.230186,43.742317,-182.446884,0.817936,0.014786,0.324318
646633237,-84.755569,38.285477,-201.730850,0.977281,0.069610,0.243259
646653236,-104.768417,51.020103,-237.930801,1.016666,0.172802,0.219904
646673234,-99.547241,74.797119,-283.088501,1.116397,0.402970,0.125699
646693232,-63.406525,81.872574,-318.455383,1.309154,0.558224,0.010048
646713230,-44.829636,40.799107,-282.439575,1.539426,0.652050,-0.149982
646733228,-136.434402,-112.332535,-161.569061,2.302183,-1.432608,-0.772232
646753228,-203.743881,-26.872559,-57.325310,2.389025,-3.506139,0.160354
646773226,-147.136429,35.395538,-99.274940,1.056512,-2.702260,0.752124
646793225,147.787506,-2.823117,8.761181,1.317386,-1.447992,-0.136279
646813223,281.914154,26.470467,67.708496,1.404082,-0.916527,-0.406367
646833221,299.248077,28.865320,97.749817,1.182889,-0.314706,-0.351617
646853219,234.900208,-2.362306,130.011337,1.282929,0.200992,-0.032981
646873216,126.687866,-26.676834,166.287140,1.243133,0.404653,0.329450
646913212,-27.458122,-75.500931,189.037872,0.992219,-0.528028,0.137112
646933210,-1.668287,-73.417557,199.998047,1.104904,-0.802535,0.033095
646953208,66.817200,-56.813656,202.953674,1.341178,-0.768174,0.103449
646973207,151.977936,-14.057395,223.762970,1.449802,-0.503338,0.100930
646993205,205.110245,12.479755,244.716095,1.261916,-0.185859,0.180634
647013203,175.374496,9.095218,256.365051,1.108200,0.066899,0.285849
647033201,90.185265,-4.123874,239.996811,0.967174,0.249870,0.323030
647053199,1.970885,-24.395781,203.984436,0.814816,0.287204,0.387511
647073199,-58.373806,-48.423210,182.194153,0.768873,0.183749,0.376415
647093197,-68.408340,-61.159607,170.723923,0.787853,-0.076890,0.270421
647113195,-19.132597,-57.705246,153.156708,0.725174,-0.241253,0.183652
647133193,31.753502,-56.232826,125.286400,0.619206,-0.142610,0.198857
647153191,55.192543,-46.924561,82.026108,0.474599,0.033711,0.350399
647173190,48.208187,-19.897066,20.266888,0.330850,0.176833,0.597325
647193186,33.125675,22.521677,-56.868172,0.252536,0.253568,0.812271
647213184,-19.202423,55.493885,-135.021378,0.418871,0.202771,1.180778
647233183,-118.384689,70.748260,-148.004700,1.174565,-0.360424,0.983410
647253181,-146.519073,101.756432,-181.689392,1.208160,0.158179,0.409234
647273179,-131.687607,110.188606,-223.439743,0.883322,0.070346,0.066527
647293177,-95.893600,105.008995,-228.481339,0.836146,-0.604431,0.163441
647313175,-61.610374,119.462418,-218.436752,1.010920,-0.867897,0.014545
647333174,-21.740080,112.483521,-216.109863,1.189151,-0.893409,0.045829
647353172,9.070834,97.244911,-253.767822,1.027627,-0.539577,0.360853
647373171,1.185347,86.677490,-289.233582,0.995944,0.061975,0.442508
647393169,-13.492579,106.915909,-297.663147,1.103366,0.256753,0.402286
647413167,-21.397976,117.233276,-292.475861,1.007604,0.389813,0.283888
647433166,-30.020550,88.277496,-274.051605,0.983772,0.737281,0.129444
647453164,-124.606033,14.967609,-233.907501,1.184972,0.562379,0.040204
647473162,-248.114258,-109.677406,-140.355164,2.218837,-1.597877,-0.559091
647493159,-163.333374,13.355759,-83.735184,1.806180,-2.691426,0.358334
647513157,8.845805,52.133362,-103.118256,1.125281,-1.675237,0.603404
647533156,181.631500,28.625984,-25.451813,1.378417,-0.661106,0.385954
647553154,170.633682,51.057983,13.352141,1.428873,0.046529,0.303073
647573152,116.821609,37.923161,33.772934,1.037643,0.326141,0.351210
647593150,44.620861,1.667349,44.351410,0.804783,0.198085,0.440407
647613148,2.575390,-15.796342,52.761528,0.723716,-0.005117,0.451926
647633146,7.206438,-20.000687,63.033726,0.674449,-0.126286,0.366910
647653145,47.089989,-8.506916,72.936951,0.696712,-0.152150,0.339437
647673144,86.979507,14.361095,80.744370,0.678706,-0.087272,0.399647
647693142,96.953026,31.436577,82.521248,0.664979,0.067313,0.445935
647713140,78.002274,31.328707,77.425545,0.760647,0.249068,0.443832
647733139,47.785130,20.044888,69.308655,0.919199,0.356409,0.435934
647753136,13.957281,5.747520,68.426086,0.930587,0.303416,0.472255
647773135,-11.218453,-8.518025,71.387115,0.894940,0.118995,0.472267
647793137,-11.704032,-16.011444,69.880630,0.917729,-0.013965,0.451370
647813130,4.980514,-15.129149,66.403511,0.944075,-0.079618,0.451002
647833128,24.048609,-13.635998,64.538994,0.933054,-0.065984,0.440922
647853126,31.982647,-16.298681,60.829155,0.907066,-0.027793,0.441259
647873124,28.077785,-22.278048,56.565277,0.897171,-0.024943,0.422416
647893122,24.298294,-29.048969,51.058117,0.873152,-0.024467,0.388326
647913121,17.095337,-39.062134,48.028278,0.845631,-0.070240,0.426880
647933119,13.019153,-41.169643,46.566982,0.825593,-0.176355,0.458867
647953117,24.863377,-32.984180,43.109268,0.832354,-0.247800,0.469428
647973115,43.447021,-21.972179,36.689812,0.829124,-0.214481,0.467880
647993115,49.442986,-14.461442,28.930246,0.834116,-0.130458,0.464359
648013113,41.308418,-13.384325,27.731428,0.841336,-0.099703,0.458030
648033111,26.289196,-21.811169,29.844460,0.862019,-0.113280,0.454616
648053109,12.575022,-28.150049,29.213902,0.896042,-0.171900,0.467991
648073108,12.149843,-25.607252,24.865095,0.911963,-0.239806,0.491634
648093106,25.833357,-17.125744,20.599709,0.911378,-0.235286,0.508069
648113102,36.586830,-10.708107,18.363283,0.906836,-0.166505,0.486169
648133101,31.423744,-8.541397,15.527297,0.905478,-0.137086,0.456331
648153099,15.091474,-8.447428,12.766924,0.874412,-0.180910,0.441550
648173097,6.280672,-8.202313,9.348362,0.853498,-0.203159,0.405833
648193095,6.483603,-8.156743,2.925790,0.853968,-0.184524,0.393784
648213093,4.512368,-9.403262,-7.166672,0.880611,-0.152243,0.351323
648233092,0.868634,-13.333185,-11.631020,0.877062,-0.177441,0.344833
648253090,6.619182,-15.829356,-5.528507,0.839384,-0.238471,0.363088
648273088,27.202177,-7.675454,0.906335,0.870113,-0.248176,0.422837
648293088,42.481159,2.715539,-3.337000,0.859053,-0.145896,0.470685
648313085,27.137421,-0.536447,-11.710229,0.823164,-0.025931,0.504237
648333083,-2.853912,-7.981781,-15.772313,0.814675,0.010743,0.462541
648353082,-16.620359,-7.613461,-15.399527,0.821899,-0.071263,0.421914
648373080,-17.012892,-4.876254,-17.294777,0.867990,-0.178543,0.419557
648393078,-16.820034,-5.400664,-23.319553,0.941193,-0.229734,0.387513
648413075,-13.719809,-4.283180,-27.062456,0.974203,-0.237575,0.358594
648433073,-5.632493,-4.413620,-22.387217,1.004178,-0.237483,0.307813
648453071,7.334050,-0.590238,-13.914526,0.951697,-0.246176,0.340438
648473069,5.959162,0.203107,-9.785402,0.883798,-0.187980,0.387023
648493068,-5.130239,-4.350167,-10.177667,0.914725,-0.153163,0.350221
648513066,-6.719050,-6.377928,-11.027540,0.960678,-0.174040,0.331576
648533064,-2.090622,-5.255761,-9.602297,0.934324,-0.199874,0.342197
648553062,0.339658,-2.653356,-9.283224,0.889991,-0.194525,0.358088
648573060,-1.462574,-1.268445,-10.968324,0.885081,-0.161298,0.373126
648593060,-4.369246,-1.279203,-11.752926,0.902836,-0.169875,0.384474
648613058,-5.972236,0.069513,-11.280560,0.924480,-0.173533,0.376903
648653054,-8.658832,2.917826,-10.369279,0.891398,-0.170507,0.367858
648673052,-11.080301,2.162845,-10.218007,0.890920,-0.187377,0.350781
648693051,-12.400888,2.062796,-11.207035,0.908749,-0.189217,0.312131
648713047,-6.075376,0.562851,-8.576962,0.924194,-0.213183,0.311925
648733046,0.513929,-1.521745,-6.887762,0.919987,-0.237531,0.344912
648753043,1.794745,-1.596953,-7.524016,0.956606,-0.217917,0.378547
648773042,-0.483725,-2.031033,0.984417,1.038290,-0.277605,0.368793
648793040,1.294156,3.869734,8.351300,0.930001,-0.244149,0.373665
648813038,5.038848,1.072192,2.639775,0.864069,-0.077712,0.319545
648833036,15.380973,-2.921105,-8.583185,0.913274,-0.007317,0.305824
648853034,16.763283,-3.197370,-17.889835,0.940639,-0.003959,0.352386
648873033,4.859061,-3.821273,-21.487911,0.881151,0.034790,0.367428
648893032,-5.408568,-10.648499,-20.125772,0.866752,0.044522,0.371877
648913030,-10.075624,-10.471596,-19.345322,0.889562,-0.030332,0.415764
648933029,-15.932930,0.025545,-23.378603,0.951651,-0.086949,0.394637
648953027,-11.148942,4.986754,-21.074749,0.988793,-0.137357,0.344795
648973025,-10.793146,-1.068069,-16.109358,0.977177,-0.149479,0.344500
648993023,-20.534897,-4.862824,-13.289097,0.954163,-0.143764,0.334967
649013022,-21.868793,-4.777347,-12.120693,0.940936,-0.202227,0.340020
649033018,-14.438220,-1.611616,-9.000063,0.963676,-0.272161,0.359201
649053016,-8.628981,3.995902,-6.468245,0.952238,-0.236366,0.366107
649073014,-7.267781,4.709954,-6.226921,0.933830,-0.174745,0.318820
649093012,-7.901052,1.306914,-5.471467,0.914581,-0.198419,0.287611
649113011,-6.512573,-2.142222,-3.577538,0.889721,-0.241600,0.295230
649133009,-1.868938,-0.750093,-4.737361,0.875284,-0.204219,0.294146
649153007,4.707957,-1.771347,-7.194562,0.898972,-0.141905,0.287771
649173005,8.626157,-3.677992,-9.810389,0.914034,-0.102706,0.324081
649193003,8.923654,-3.437512,-12.009047,0.929000,-0.076568,0.362323
649213003,6.095828,-1.091642,-14.263765,0.942537,-0.055527,0.372535
649233001,2.495887,-1.151246,-12.871572,0.970489,-0.070942,0.365847
649252999,-2.603043,-0.567082,-10.054373,0.931643,-0.061392,0.365857
649272997,-8.984149,-1.486290,-9.899467,0.922097,-0.071327,0.362538
649292996,-9.958178,-0.783010,-11.729647,0.928676,-0.106553,0.350102
649312994,-4.593461,-0.002088,-14.341466,0.962724,-0.119144,0.327469
649332991,3.471282,0.294242,-12.981372,0.979755,-0.129788,0.333095
649352989,1.880824,0.821900,-10.354726,0.925838,-0.093043,0.375224
649372987,-6.645673,0.989710,-8.948659,0.908939,-0.066783,0.381127
649392985,-10.971702,0.502607,-6.472105,0.958007,-0.101517,0.370661
649412983,-11.129360,2.092040,-0.953873,1.003273,-0.171552,0.371646
