Timestamp (us),Gyroscope X (deg/s),Gyroscope Y (deg/s),Gyroscope Z (deg/s),Accelerometer X (g),Accelerometer Y (g),Accelerometer Z (g)
5198808117,41.418064,-3.350049,-9.394341,1.070562,-0.031819,-0.095188
5198828170,34.577042,-0.636371,-6.589503,1.062398,0.014010,-0.078509
5198848220,27.336523,1.585182,-4.358830,1.021107,0.035595,-0.074870
5198868272,20.822403,2.989952,-4.778233,1.000866,0.037039,-0.059671
5198888325,12.564595,4.167351,-4.536871,1.005662,0.041235,-0.040055
5198908377,3.101114,5.546745,-3.522732,0.996807,0.046426,-0.025091
5198928429,-6.564047,6.413013,-3.006963,0.981548,0.041424,-0.016689
5198948481,-14.841269,6.877015,-2.710084,0.983064,0.019817,-0.015701
5198968533,-22.532019,7.066461,-2.018359,0.990412,0.005087,-0.017660
5198988585,-28.319937,7.328547,-1.410919,0.992618,0.001168,-0.018871
5199008638,-33.427757,7.401108,-1.462433,0.996871,-0.013218,-0.021673
5199028690,-37.402229,7.558000,-1.355477,0.998796,-0.031503,-0.029991
5199068794,-42.555538,7.554829,-1.330925,1.000749,-0.057614,-0.039127
5199088847,-44.223759,7.719492,-1.179329,1.001821,-0.067249,-0.046006
5199108899,-46.478340,7.843471,-0.853071,0.998058,-0.072469,-0.054697
5199128951,-47.658504,7.529167,-0.116416,0.996733,-0.077898,-0.059279
5199149004,-48.443611,7.436733,0.482915,0.993130,-0.088385,-0.061455
5199169056,-49.588108,7.758430,0.914208,0.992289,-0.089961,-0.057172
5199209160,-51.141483,8.728218,2.207412,0.990399,-0.092099,-0.060250
5199229213,-52.257664,9.467732,2.652413,0.985527,-0.086961,-0.055982
5199249265,-53.324486,9.808627,2.439400,0.977512,-0.089019,-0.071647
5199269317,-54.486549,9.404923,2.228988,0.977849,-0.099546,-0.077248
5199289369,-54.054134,7.870363,2.817704,0.983221,-0.116338,-0.083287
5199309422,-51.407112,6.531224,3.207918,0.984775,-0.121578,-0.081489
5199329475,-47.528740,5.661825,3.376293,0.982559,-0.136709,-0.084601
5199349527,-44.097649,4.762595,2.893137,0.992564,-0.153450,-0.087790
5199369580,-41.287117,4.304042,3.105944,1.000533,-0.158667,-0.091672
5199389632,-38.578712,4.550020,3.187517,0.995662,-0.153569,-0.103035
5199409684,-35.969280,5.267852,2.358023,0.989630,-0.174426,-0.105654
5199429736,-32.938721,5.937359,0.656969,1.011606,-0.192975,-0.097286
5199449788,-29.323421,6.224050,0.237872,1.008315,-0.195125,-0.094648
5199469840,-26.050339,6.087799,0.517617,1.000936,-0.193710,-0.096171
5199489893,-23.781437,6.281077,-0.075002,0.983444,-0.175516,-0.091871
5199509945,-20.735025,6.349226,-0.849357,0.974051,-0.184189,-0.087020
5199529997,-17.903111,6.651793,-1.548656,0.980547,-0.181035,-0.077013
5199550049,-13.248733,6.425828,-2.474139,0.973550,-0.186157,-0.078367
5199570101,-11.262609,6.785041,-2.945968,0.976623,-0.180453,-0.061052
5199590153,-7.691959,5.925493,-4.497943,0.976116,-0.168022,-0.042932
5199610206,-4.218503,4.806044,-6.230883,0.976920,-0.141057,-0.038058
5199630258,-0.801371,2.707682,-7.839166,0.988509,-0.131676,-0.044628
5199650309,1.929845,1.191885,-10.252586,0.980476,-0.117053,-0.050125
5199670361,4.290874,-1.255529,-11.942667,0.974010,-0.107161,-0.056284
5199690413,5.873481,-2.923488,-8.435995,0.972564,-0.109901,-0.057081
5199710465,8.024239,-3.332303,-9.276604,0.986004,-0.085476,-0.060267
5199730518,9.907997,-3.775333,-6.858049,1.005349,-0.058283,-0.061354
5199750570,11.646834,-3.078708,-6.542743,1.006250,-0.056721,-0.060275
5199770622,11.828054,-2.796491,-6.521042,0.992983,-0.064574,-0.048190
5199790674,11.394937,-2.557586,-4.316236,1.005421,-0.074115,-0.050173
5199810726,11.087358,-1.618522,-1.969888,1.011245,-0.054823,-0.042539
5199830779,9.540265,-0.772942,0.081638,1.013470,-0.050034,-0.051122
5199850831,9.706367,-0.266106,-0.374904,1.020343,-0.039459,-0.062465
5199890935,11.767818,-0.106950,-0.148806,0.983598,-0.067622,-0.063036
5199910988,13.096637,0.134578,0.653266,0.997788,-0.076177,-0.053475
5199931040,14.575752,0.246834,2.463732,1.003036,-0.075979,-0.046715
5199951092,14.391576,0.159290,3.214415,0.988104,-0.090492,-0.042744
5199971144,13.628096,-0.721038,2.853926,0.982540,-0.086618,-0.044192
5199991196,11.418288,-0.995618,1.339854,0.989419,-0.076508,-0.056257
5200011249,10.950899,-2.400670,-0.663564,0.973814,-0.085296,-0.064900
5200031301,12.605325,-2.669986,-4.134378,0.952805,-0.123250,-0.085513
5200051353,12.426813,-2.516348,-6.059900,0.968958,-0.118975,-0.074905
5200071405,10.846567,-2.530371,-4.247928,0.991199,-0.079418,-0.063118
5200091458,11.260739,-5.433598,-2.782909,0.979190,-0.054282,-0.095394
5200111510,11.019568,-7.814362,-2.054620,0.949227,-0.027226,-0.098465
5200131563,9.750840,-10.396867,-0.953907,0.985067,0.009761,-0.103456
5200171667,-0.531615,-14.864383,4.294568,0.980115,0.040172,-0.098117
5200191720,-6.829410,-16.720318,3.045062,0.967496,0.047454,-0.095201
5200211772,-14.219665,-17.681248,1.595801,0.973095,0.029781,-0.092957
5200231824,-21.124538,-18.702187,0.957525,0.992362,-0.007679,-0.110655
5200251876,-25.963636,-19.514507,-1.235879,1.008261,-0.029243,-0.121653
5200271929,-29.858475,-20.809103,-2.639740,1.015869,-0.063867,-0.142556
5200291981,-32.823528,-21.166983,-3.342312,1.012007,-0.070872,-0.148955
5200312033,-33.224766,-21.407396,-3.727870,1.007154,-0.064424,-0.148428
5200332085,-34.434074,-20.281656,-3.337220,0.998136,-0.046288,-0.143158
5200352137,-34.639172,-18.660614,-3.691366,0.993978,-0.039077,-0.152905
5200372190,-36.069923,-17.062136,-3.946478,0.986806,-0.050894,-0.152182
5200412294,-36.384239,-14.220798,0.288057,0.995997,-0.058230,-0.145580
5200432351,-33.935307,-14.747297,2.130701,1.010417,-0.081191,-0.152392
5200452397,-29.985783,-15.214161,3.449665,1.014240,-0.094778,-0.175655
5200472450,-23.866217,-13.662721,3.555861,0.998591,-0.093857,-0.165961
5200492502,-15.959951,-12.983107,3.209697,0.978498,-0.116535,-0.179474
5200512554,-11.524191,-9.695309,3.515131,0.982069,-0.126488,-0.177152
5200532606,-7.614239,-7.785408,3.764865,0.982992,-0.106395,-0.189102
5200552658,-5.160759,-6.159627,2.613981,0.997427,-0.093808,-0.200688
5200572711,-2.270795,-5.497281,2.322687,1.000954,-0.084929,-0.215762
5200592763,-1.512841,-4.727068,2.084820,1.009360,-0.074132,-0.224461
5200612815,-0.575087,-3.206230,1.510829,1.003972,-0.079754,-0.235613
5200632867,0.479268,-0.742073,1.123021,0.994560,-0.085625,-0.244519
5200652920,-0.043750,0.857577,0.117270,1.003806,-0.032572,-0.246430
5200672972,-0.044118,3.902804,0.265935,0.987442,-0.068210,-0.251860
5200693024,-0.060396,5.551175,0.434576,0.993412,-0.086077,-0.250611
5200713076,2.041603,6.124475,-1.114243,0.985005,-0.129441,-0.225539
5200733129,5.151645,6.096364,-2.767447,0.971992,-0.120787,-0.202737
5200753181,7.457765,6.021974,-2.510314,0.952479,-0.065041,-0.183345
5200773233,9.441872,6.056134,-1.563757,0.939651,-0.027537,-0.144426
5200793285,8.492899,6.609884,-0.655858,0.949176,-0.035702,-0.132267
5200813337,7.171224,7.318027,-0.157624,0.956753,-0.045865,-0.113373
5200833390,5.624979,7.730501,-0.560188,0.976014,-0.048099,-0.100942
5200853442,4.914323,7.211596,-1.444890,0.999362,-0.069130,-0.107622
5200873494,4.739174,6.082187,-2.183674,1.023755,-0.089270,-0.122030
5200893546,5.925465,4.746761,-2.096119,1.022856,-0.073786,-0.131940
5200913600,6.988118,3.415046,-1.296112,1.008568,-0.053850,-0.146177
5200933652,7.507705,2.566171,-0.414210,0.989972,-0.044512,-0.151143
5200953705,7.346316,2.343907,0.617351,0.971469,-0.038064,-0.154894
5200973757,6.350287,1.832270,1.172726,0.968318,-0.032083,-0.149078
5200993809,5.173902,1.126301,1.198308,0.975233,-0.025320,-0.134565
5201013861,3.585513,0.667488,1.117076,0.974829,-0.030459,-0.125329
5201033913,1.372972,0.227081,0.990526,0.969149,-0.038473,-0.132184
5201053966,0.310231,-0.184382,0.651263,0.963992,-0.047782,-0.134294
5201094070,0.418350,-0.382450,0.432118,0.976557,-0.049289,-0.146366
5201114122,0.715566,-0.538873,0.599290,0.984509,-0.051034,-0.148925
5201134175,0.740279,-0.895756,0.562616,0.987335,-0.052652,-0.148159
5201154227,0.323034,-1.291850,0.783917,0.991591,-0.050808,-0.159693
5201174279,-0.033655,-1.604234,0.974592,0.998751,-0.047033,-0.170047
5201194331,-0.825141,-1.759701,1.217932,0.993689,-0.043268,-0.179215
5201214382,-1.511162,-1.694322,1.460473,0.990437,-0.046323,-0.182747
5201234434,-1.815945,-1.703041,1.597031,0.990358,-0.045813,-0.185207
5201254486,-2.088415,-2.023571,1.613389,0.990449,-0.050954,-0.182511
5201294591,-3.971536,-2.894449,1.503365,0.980970,-0.056574,-0.180151
5201314643,-4.519248,-2.643857,0.881219,0.981313,-0.059858,-0.174748
5201334695,-4.148851,-3.253665,0.110137,0.988901,-0.069096,-0.173860
5201354747,-3.149568,-3.402378,-0.427807,0.984268,-0.083761,-0.169361
5201374799,-2.536852,-2.759095,-0.180132,0.989043,-0.072376,-0.180910
5201394852,-4.376879,-0.399090,0.358065,0.946892,-0.077339,-0.203964
5201414904,-6.813199,1.299816,0.216643,0.968659,-0.062805,-0.207522
5201434956,-6.219203,2.476454,0.788381,1.013523,-0.065348,-0.207992
5201455008,-5.148982,3.593209,-0.193528,0.998151,-0.068173,-0.212613
5201475061,-5.785423,4.822823,-0.773543,0.982368,-0.055729,-0.216777
5201495113,-4.819842,5.701728,-2.042595,0.981244,-0.061525,-0.208902
5201515165,-2.185222,5.173020,-4.330541,0.987488,-0.093424,-0.184949
5201535217,1.748140,3.831278,-6.873825,0.987202,-0.119739,-0.169742
5201555269,4.375921,2.550723,-7.999597,0.970426,-0.099976,-0.163818
5201575322,6.684806,1.101166,-9.109517,0.956108,-0.073340,-0.160593
5201595374,8.994250,-0.792204,-9.573695,0.961364,-0.071540,-0.156214
5201615426,11.304602,-2.395314,-10.955931,0.977525,-0.074001,-0.159252
5201635478,13.548790,-3.371060,-11.506618,0.984995,-0.087323,-0.151592
5201655531,15.803095,-3.974315,-10.792905,0.977207,-0.086111,-0.161022
5201675584,17.674187,-3.317708,-8.544874,0.961995,-0.053517,-0.179502
5201695636,18.374210,-3.211455,-5.680639,0.971546,-0.033597,-0.185755
5201715689,20.135654,-3.159048,-4.021645,1.003178,-0.033433,-0.185532
5201735741,20.104034,-1.990437,-2.873660,1.010998,-0.041848,-0.177927
5201755793,19.444178,0.121428,-1.978810,1.006916,-0.054316,-0.159544
5201775845,20.305916,-0.075790,0.749993,0.985456,-0.058786,-0.151101
5201795898,21.441690,-0.481232,3.881102,0.984460,-0.060469,-0.167084
5201815950,21.335169,1.572414,5.799118,1.015548,-0.052694,-0.155411
5201836002,22.550806,2.920651,4.058465,1.016430,-0.052441,-0.150591
5201856054,23.910984,2.590550,-0.313932,1.007617,-0.050548,-0.156674
5201876106,24.751585,2.756847,-4.884911,0.977675,-0.025155,-0.193625
5201896159,24.941051,4.312427,-7.588447,0.978357,0.002915,-0.168497
5201916211,24.473572,4.868131,-4.475246,0.979640,0.067925,-0.139794
5201936263,14.859032,2.587988,0.234931,0.976309,0.136715,-0.119256
5201956315,-1.790845,1.403419,0.601054,1.028819,0.212332,-0.125666
5201976366,-15.442623,1.043052,-0.249347,1.007670,0.224552,-0.131956
5201996418,-27.500422,0.621519,0.779487,0.965724,0.155662,-0.127003
5202016470,-37.327278,1.093799,2.782145,0.945107,0.101172,-0.128518
5202036523,-43.553791,0.228604,4.454678,0.946521,0.067645,-0.135209
5202056575,-48.926910,-1.008139,6.514718,0.955724,0.050225,-0.141304
5202096679,-51.509148,-2.145293,9.429861,0.955108,0.004223,-0.168768
5202116731,-52.992760,-2.494063,9.833267,0.964157,0.018531,-0.179867
5202136784,-54.015839,-2.575653,11.190539,0.984168,0.033438,-0.195257
5202156836,-54.732403,-2.435231,11.326728,0.988838,0.014236,-0.204635
5202176888,-55.679932,-2.855984,10.600929,0.985696,-0.008986,-0.201480
5202196940,-58.468559,-2.500013,10.949311,0.983666,-0.016998,-0.208764
5202216993,-60.919090,-3.132001,11.983086,0.992282,-0.011600,-0.188316
5202237045,-64.592575,-5.502950,15.403072,0.946786,-0.014846,-0.185875
5202257097,-67.954025,-7.714262,18.534399,0.966007,-0.026975,-0.223951
5202277149,-78.972748,-3.403256,17.750347,0.939626,0.042839,-0.268480
5202297201,-76.240906,-5.059166,12.396776,1.009803,-0.024197,-0.278203
5202317254,-66.585251,-3.682208,5.287166,0.979409,-0.132812,-0.295611
5202337306,-54.363533,-6.497787,6.005012,0.958863,-0.308542,-0.248735
5202357358,-42.922337,-7.797458,8.339803,0.994840,-0.356057,-0.234934
5202377410,-31.295589,-7.970548,7.366221,0.991355,-0.324889,-0.246862
5202397463,-19.169374,-9.542803,4.320652,0.972553,-0.285556,-0.231727
5202417515,-8.622343,-12.065147,1.529015,0.947978,-0.237865,-0.215731
5202437569,-1.454797,-13.601341,-0.294730,0.940317,-0.205447,-0.215797
5202457621,2.684968,-13.654377,0.242110,0.933215,-0.189245,-0.225396
5202477673,4.669944,-13.997289,1.584072,0.932338,-0.161957,-0.229444
5202497725,5.837764,-14.098961,3.501489,0.976349,-0.134293,-0.239540
5202517778,8.941036,-11.171246,4.665052,1.012760,-0.116718,-0.223217
5202537830,12.555414,-8.876447,3.663036,1.008821,-0.104220,-0.257381
5202557882,13.160305,-7.445281,2.460418,0.978472,-0.109682,-0.240628
5202577934,13.918558,-8.066728,1.848398,0.958760,-0.087624,-0.232662
5202597986,13.592742,-8.042480,1.219375,0.978741,-0.061416,-0.232823
5202618038,13.350744,-9.071381,-0.360997,0.998463,-0.059553,-0.238976
5202638091,14.555025,-8.085117,-2.903768,0.993634,-0.084405,-0.273622
5202658143,19.416893,-8.138477,-1.965496,0.971229,-0.044051,-0.281973
5202698247,29.123377,-2.747719,-1.100732,1.005695,-0.072690,-0.237500
5202718300,30.328312,-2.164418,-0.148215,1.000613,-0.025547,-0.218360
5202738353,26.662144,-1.115317,2.661247,1.008652,0.054878,-0.199239
5202758403,19.148815,1.056500,4.513238,0.992164,0.138518,-0.212139
5202778455,10.254253,2.448303,3.306503,0.964471,0.165873,-0.213743
5202798507,-1.173099,4.669917,2.681374,0.986186,0.153298,-0.226076
5202818559,-15.301067,8.002198,5.198631,0.983307,0.139848,-0.225850
5202838612,-27.644632,10.700715,7.694710,1.003191,0.148167,-0.231713
5202858664,-37.248337,12.911960,8.342244,0.976289,0.126618,-0.235108
5202878716,-47.471409,13.810091,9.669046,0.978586,0.127843,-0.238741
5202898768,-56.245304,15.104002,12.055032,1.003306,0.149464,-0.236362
5202918821,-65.245483,17.669849,14.125976,1.010301,0.162220,-0.254092
5202938873,-73.711845,20.596706,15.111698,0.986579,0.142017,-0.271930
5202958925,-82.008713,22.957226,16.402470,0.984434,0.120258,-0.268331
5202978977,-92.050240,23.881819,18.123224,0.987018,0.101023,-0.279633
5202999030,-102.049706,24.871931,18.161209,0.972063,0.099647,-0.278268
5203019082,-113.377213,26.769537,17.817583,0.986224,0.087785,-0.277576
5203039134,-122.571564,28.965010,19.147133,1.009921,0.071393,-0.283944
5203059186,-125.883926,30.187466,20.197557,0.945032,0.059036,-0.312254
5203079239,-122.334351,30.346975,18.945234,0.863620,0.022336,-0.324857
5203099291,-120.301086,31.418907,19.478935,0.876405,-0.057079,-0.288948
5203119343,-123.534630,32.676334,22.370897,0.972717,-0.054274,-0.266303
5203139395,-121.431725,30.660526,19.572891,1.035415,-0.035986,-0.286974
5203159447,-117.283417,25.971441,16.904646,1.047813,-0.045110,-0.297959
5203179500,-114.480225,23.454163,12.122438,0.998111,-0.053515,-0.306303
5203199552,-112.690697,21.758410,6.246384,0.975875,-0.082041,-0.309039
5203219605,-111.127892,19.337238,1.138384,0.994528,-0.079360,-0.257588
5203239657,-109.996033,15.766256,-2.874134,0.987322,-0.083580,-0.208240
5203259709,-108.581352,11.234341,-5.473754,0.947617,-0.066332,-0.177548
5203279762,-106.910378,6.522724,-6.746526,0.912399,-0.052949,-0.163865
5203299814,-104.760284,3.168664,-7.531512,0.882076,-0.054453,-0.169061
5203319866,-103.715866,0.757136,-9.387991,0.892807,-0.063696,-0.175422
5203339918,-102.989059,-0.990520,-10.382645,0.921339,-0.072188,-0.201932
5203359970,-97.522263,-2.691040,-7.635118,0.936172,-0.049935,-0.223897
5203380023,-92.339592,-4.439876,-3.833849,0.979826,-0.016066,-0.238430
5203400075,-88.909554,-5.130481,-1.346772,1.014411,-0.001456,-0.251441
5203420127,-91.060089,-6.300934,5.448760,1.088943,0.010984,-0.250693
5203440180,-93.389801,-6.127699,11.224144,1.060231,0.046403,-0.253670
5203460232,-95.370964,-3.042555,14.920319,0.958709,0.022162,-0.294280
5203480284,-92.194702,2.202708,18.728504,0.980244,-0.039315,-0.282510
5203500336,-86.132370,5.963904,24.966061,1.032588,-0.008627,-0.253774
5203520397,-83.788887,7.271001,28.742636,1.035541,0.072823,-0.238428
5203540439,-87.234932,9.950355,28.620926,0.976971,0.161597,-0.228873
5203560492,-94.689362,12.341630,21.923077,0.971192,0.202474,-0.196578
5203580544,-106.818222,15.401927,14.208979,1.002365,0.196149,-0.192558
5203600596,-122.766243,19.189701,10.222559,1.038846,0.129265,-0.192797
5203620648,-137.339355,21.268528,10.675236,1.043230,0.052907,-0.202607
5203640701,-141.352402,20.211531,13.340496,1.009422,0.032330,-0.225966
5203660753,-139.854111,16.100071,15.900670,0.944030,0.007481,-0.193514
5203680805,-142.732162,11.438052,16.364897,0.881493,0.015989,-0.166972
5203700857,-149.390594,10.883841,19.635670,0.890534,0.047106,-0.216346
5203720909,-152.492889,14.956967,22.260201,0.890864,0.075401,-0.271202
5203740962,-152.312378,16.178368,20.740135,0.974223,0.021101,-0.249897
5203761014,-151.787476,17.761261,14.815333,1.107852,-0.059332,-0.253108
5203781066,-144.110229,18.512402,11.619315,1.026851,-0.067978,-0.209685
5203801118,-135.260101,15.194241,7.193959,1.001525,-0.097307,-0.198165
5203821170,-126.275749,10.691753,0.233688,0.991186,-0.123041,-0.178945
5203841223,-119.317223,5.578792,-5.132190,0.972236,-0.114955,-0.169630
5203861275,-113.159088,0.902025,-7.930024,0.926821,-0.095775,-0.130003
5203881327,-108.768326,-2.939252,-8.842958,0.901712,-0.065657,-0.122987
5203901379,-106.196945,-5.828478,-8.591375,0.910885,-0.032714,-0.133482
5203921431,-103.755203,-7.619503,-7.418900,0.945155,0.003789,-0.165835
5203941484,-100.394577,-8.270823,-4.651513,0.963969,0.002123,-0.170862
5203961536,-100.092293,-9.845866,-0.735449,0.971206,0.004762,-0.178112
5203981590,-99.209213,-11.002798,1.473705,1.007120,0.010278,-0.211003
5204001642,-97.354309,-9.871490,3.174422,1.057382,0.065836,-0.228376
5204021694,-96.759407,-8.835952,6.634229,1.104283,0.063505,-0.265370
5204041746,-100.132950,-5.821218,10.240185,1.012452,0.061334,-0.244184
5204061798,-101.239655,-5.195441,19.075480,1.028371,0.101496,-0.227177
5204081851,-105.385132,-2.414447,27.320835,1.016852,0.063439,-0.218184
5204101903,-109.121124,0.133343,30.693579,0.977071,0.053096,-0.191899
5204121955,-108.838570,1.036427,31.546791,0.972518,0.063347,-0.166693
5204142008,-109.341705,1.668849,27.641623,0.941784,0.120750,-0.131313
5204162060,-118.592133,3.421497,19.059441,0.979398,0.130626,-0.145429
5204182112,-129.841522,4.973709,15.647503,1.020986,0.063039,-0.176707
5204202164,-135.452225,5.561706,14.791019,0.999703,0.017636,-0.178059
5204222216,-137.693329,2.990716,15.118980,0.953400,-0.034541,-0.153517
5204242269,-137.200699,-1.136215,15.079975,0.970018,-0.026255,-0.193121
5204262321,-137.762161,-0.882141,19.808565,0.940118,-0.008671,-0.248976
5204282373,-140.628540,1.771701,22.248425,0.925020,0.030544,-0.274621
5204302424,-136.449249,0.736867,21.159161,0.972898,-0.026766,-0.248716
5204322476,-135.571976,2.507676,16.969164,1.104568,-0.043042,-0.276314
5204342528,-130.908173,6.135219,16.742823,1.041723,-0.062409,-0.261267
5204362581,-124.620544,5.751757,14.437940,1.006358,-0.087363,-0.234418
5204382633,-116.907394,4.135463,7.801641,0.984564,-0.154467,-0.215528
5204402685,-106.896088,1.024622,1.351583,0.958049,-0.211846,-0.189331
5204422737,-97.806168,-3.096244,-3.002879,0.919927,-0.206582,-0.158307
5204442789,-91.298180,-5.250656,-4.665105,0.906023,-0.162254,-0.156829
5204462841,-86.705605,-5.782270,-4.642144,0.922618,-0.138680,-0.169162
5204482894,-82.131859,-6.162701,-3.505591,0.947462,-0.091065,-0.185351
5204502946,-78.836830,-6.308073,0.101340,0.977673,-0.054690,-0.194101
5204522998,-76.760208,-6.730041,4.444809,1.026972,-0.014834,-0.210208
5204543051,-77.480263,-6.393651,5.558009,1.031234,0.002189,-0.214920
5204563103,-79.413773,-6.349872,8.468855,1.065328,0.001689,-0.229850
5204583155,-82.026550,-4.611547,14.723998,1.026713,0.010442,-0.240858
5204603208,-85.508606,-2.357729,20.560827,1.040017,0.040796,-0.255111
5204623260,-91.506859,-0.450737,25.778259,1.042179,0.020577,-0.271676
5204643312,-92.118530,5.700592,26.727383,0.988912,0.012174,-0.247417
5204663364,-95.000481,8.269135,26.507330,0.960257,-0.011867,-0.214897
5204683416,-95.131851,9.746521,27.366287,0.952928,0.018685,-0.192854
5204703469,-98.956985,12.157627,21.250677,0.968552,0.099755,-0.161508
5204723521,-111.443314,15.364872,13.134515,0.978588,0.097993,-0.146421
5204743573,-123.978798,17.998936,10.454454,0.996148,0.026056,-0.166821
5204763627,-130.952393,16.993067,9.869205,0.993815,-0.023876,-0.163715
5204783679,-135.941376,14.134281,10.744802,1.009424,-0.008232,-0.190506
5204803731,-138.666748,9.423301,14.104311,0.979101,-0.015200,-0.177462
5204823783,-143.436523,6.925694,17.835854,0.945146,0.038223,-0.165870
5204843836,-151.717728,10.619799,22.297611,0.896591,0.087930,-0.228045
5204863888,-161.186005,13.645712,21.979763,0.932847,0.069837,-0.292016
5204883941,-163.096069,15.900731,14.416439,1.139278,-0.055386,-0.312733
5204903993,-157.206039,18.050234,4.918116,1.084632,-0.160143,-0.285097
5204924045,-145.934677,14.502238,3.653130,1.026277,-0.222226,-0.252528
5204944097,-133.553894,11.944929,-1.753769,0.990995,-0.230741,-0.232504
5204964149,-119.609276,8.789456,-7.325891,0.969601,-0.222532,-0.195033
5204984201,-108.201378,5.622405,-12.108872,0.928366,-0.222477,-0.159245
5205004254,-98.680954,2.018619,-13.183580,0.883130,-0.212800,-0.129868
5205024306,-92.872238,-1.665156,-12.271024,0.848088,-0.166706,-0.115926
5205044358,-87.457520,-5.367307,-9.061844,0.856638,-0.125863,-0.132970
5205064428,-83.988007,-7.538484,-4.250517,0.915819,-0.078946,-0.158814
5205084461,-80.096802,-5.788980,0.653256,0.965928,-0.024851,-0.195984
5205104514,-76.648994,-6.782066,5.703056,1.044033,0.000739,-0.235806
5205124565,-74.353500,-6.095680,8.617786,1.048487,-0.033772,-0.216380
5205144618,-76.059967,-7.771692,9.457845,1.094695,0.058353,-0.198124
5205164670,-83.275948,-8.144946,13.107137,1.085965,0.115608,-0.214844
5205184722,-93.289215,-6.150271,19.530724,1.036507,0.112508,-0.220794
5205204774,-102.684090,-2.266630,27.493696,0.979346,0.133121,-0.199989
5205224827,-104.134758,1.682566,30.421230,0.935270,0.112509,-0.166708
5205244879,-104.899544,6.913005,27.576523,0.956886,0.072194,-0.117193
5205264931,-110.887909,11.113488,18.545187,1.013821,0.047456,-0.159673
5205284983,-121.041565,13.472511,10.741867,1.039269,-0.004059,-0.182799
5205305036,-132.305298,14.265043,8.461813,1.024266,-0.001211,-0.191027
5205325088,-136.459396,13.805893,8.578534,1.008607,0.017921,-0.204083
5205345140,-138.027893,11.618499,10.041781,0.942710,-0.031054,-0.213345
5205365192,-136.897644,8.996032,10.747685,0.936619,-0.052258,-0.221231
5205385244,-138.864960,7.825750,11.396619,0.916405,-0.044024,-0.214108
5205405297,-142.625641,7.344958,12.483383,0.952387,-0.010188,-0.210609
5205425349,-142.626678,7.819951,11.966378,0.991053,-0.008108,-0.198090
5205445401,-146.931320,9.901130,15.371244,0.987507,-0.001412,-0.218641
5205465454,-153.594681,13.089620,16.249327,0.966230,0.013525,-0.251138
5205485506,-153.743317,13.499787,14.042491,1.019770,0.004428,-0.266558
5205505558,-149.995865,14.013433,6.180029,1.099631,-0.085320,-0.284039
5205525610,-140.663010,12.482644,2.976137,1.056471,-0.200695,-0.250928
5205545664,-131.404053,7.627665,2.398466,0.987714,-0.197345,-0.202831
5205565716,-122.324951,4.039532,-1.738039,0.980104,-0.140432,-0.192637
5205585768,-115.921616,2.494687,-5.334963,0.958006,-0.122582,-0.179913
5205605820,-111.690102,1.275308,-5.650558,0.950980,-0.091070,-0.147882
5205625873,-109.073364,0.816549,-4.073471,0.960348,-0.075530,-0.136362
5205645925,-108.078857,0.371982,-2.177548,0.959701,-0.062249,-0.141519
5205665977,-107.600021,0.114358,-1.396195,0.935926,-0.043543,-0.138541
5205686029,-107.691818,0.174875,-1.335740,0.946497,-0.029256,-0.144994
5205706082,-109.450584,-0.412904,-0.029518,0.966843,-0.022974,-0.166371
5205726134,-112.567223,-0.694793,1.829389,0.983919,0.002166,-0.183718
5205746186,-115.318283,-1.117284,3.885706,1.032088,0.024383,-0.200538
5205766238,-114.008530,-2.223534,2.873479,1.086587,0.045563,-0.208213
5205786290,-109.034515,-2.818299,-0.271481,1.065580,-0.001791,-0.193454
5205806343,-104.628685,-2.879839,-2.546499,1.045812,-0.074443,-0.175303
5205826395,-99.535217,-3.427061,-1.909764,1.023774,-0.087140,-0.157499
5205846446,-96.832115,-4.405557,2.617299,1.007205,-0.061260,-0.143193
5205866498,-96.966980,-4.828049,5.567016,0.973136,-0.009768,-0.126762
5205886550,-95.254906,-4.691926,8.506583,0.953361,-0.014831,-0.141113
5205906603,-94.635658,-5.384746,14.738657,0.949943,-0.015594,-0.117589
5205926655,-94.995308,-4.793938,17.290854,0.836038,0.009682,-0.092333
5205946707,-90.381065,-5.697490,18.497406,0.832047,-0.032945,-0.105591
5205966759,-79.495499,-7.960785,22.684980,0.961525,-0.184464,-0.142727
5205986811,-67.981094,-6.894213,18.584635,1.041857,-0.269595,-0.180616
5206006864,-65.778000,-0.120400,13.035463,1.042282,-0.197618,-0.211256
5206026916,-60.551502,3.647132,12.755388,1.030512,-0.121351,-0.232308
5206046968,-51.172802,4.013149,11.720103,1.123467,-0.191874,-0.222380
5206067021,-46.101486,6.497356,9.155660,1.125466,-0.217475,-0.208528
5206087073,-41.328785,8.076511,9.034863,1.072411,-0.158530,-0.176232
5206107125,-36.310238,8.534348,10.213845,1.067075,-0.114373,-0.143335
5206127177,-30.139158,10.135425,10.911011,1.039785,-0.138715,-0.125888
5206147229,-20.674704,10.099602,9.869502,1.023315,-0.201447,-0.068749
5206167282,-11.477461,12.842269,6.696405,1.021738,-0.320897,-0.066650
5206187334,-8.427588,19.234543,1.163409,1.008842,-0.271877,-0.099573
5206207386,1.037462,23.875416,14.513383,0.899168,-0.091005,-0.065090
5206227439,5.727879,26.736113,20.231577,0.974583,-0.106241,-0.030025
5206247491,8.363481,30.478882,21.112074,1.059060,-0.047569,-0.038194
5206267543,2.892771,35.229691,16.921612,1.053675,-0.025088,-0.079299
5206287595,-1.303238,37.303291,10.640561,1.030046,-0.056962,-0.138355
5206307649,1.998781,33.481987,6.817619,0.944774,-0.150854,-0.070345
5206327701,9.177047,26.918083,4.670142,0.938727,-0.177511,-0.020820
5206347754,13.491430,22.203463,2.593085,0.964572,-0.107748,-0.032260
5206367806,12.091553,20.423210,-0.151452,0.980325,-0.006896,-0.079303
5206387858,8.298717,17.299524,0.815588,0.900103,0.053302,-0.063300
5206407910,7.246123,10.253333,0.537078,0.902243,-0.000335,-0.059483
5206427962,6.760021,3.941464,0.543840,0.941003,-0.019361,-0.068077
5206448015,4.647909,1.124786,1.501655,1.007582,0.005757,-0.100978
5206468067,-0.680897,2.744919,1.497939,1.010143,0.043553,-0.152474
5206488119,-2.683023,2.627474,1.802203,0.986182,-0.012728,-0.158082
5206508171,-1.384642,0.476877,1.324105,1.033249,-0.103816,-0.085804
5206528224,2.758438,1.281758,1.865566,1.065441,-0.118916,-0.111212
5206548276,3.209327,4.403214,3.991918,1.054261,-0.011716,-0.154884
5206568328,-2.011301,7.872079,5.694638,1.049292,0.062710,-0.153054
5206588380,-6.119566,9.666142,4.325682,1.041509,0.020643,-0.126357
5206608431,-7.551920,11.058533,5.094439,1.043817,-0.053629,-0.078585
5206628483,-7.667482,13.906598,8.987829,1.045588,-0.049078,-0.071899
5206648535,-8.914925,16.989231,11.531753,1.021265,-0.005111,-0.081487
5206668588,-11.026476,18.100422,10.558557,0.999604,-0.011301,-0.053395
5206688640,-12.035265,17.492702,10.341213,0.999647,-0.002938,-0.033951
5206708692,-11.308121,16.430216,10.844831,0.992604,-0.029781,-0.016513
5206728744,-8.515232,14.485466,8.963393,0.972020,-0.086296,-0.007099
5206748796,-4.652600,11.004259,5.518032,0.933802,-0.135499,0.020829
5206768849,-0.495274,2.847518,3.119417,0.902329,-0.111843,0.028057
5206788901,4.846563,-9.407177,0.946719,0.867614,-0.089550,0.029371
5206808953,6.845432,-24.252073,-1.594832,0.849843,-0.121309,0.028522
5206829006,6.316419,-36.014694,-3.918749,0.865301,-0.155758,0.005945
5206849058,1.407952,-43.352886,-1.974268,0.867614,-0.235807,-0.084178
5206869110,2.326350,-40.971100,0.351522,0.620162,-0.161632,-0.209485
5206889162,9.953710,-29.116436,3.885270,1.085649,0.126753,-0.306405
5206909215,15.518143,-17.866299,-9.160935,1.351038,-0.258762,-0.239624
5206929267,23.271082,-4.744879,-15.499399,1.670334,-0.293791,0.020612
5206949319,16.701138,4.771003,-6.988404,1.408141,-0.341242,0.091374
5206969372,10.752155,4.075122,-4.043287,1.075489,-0.092350,0.043146
5206989423,1.095399,4.455643,0.074157,0.822332,0.012273,0.098307
5207009476,-2.372595,3.900893,-0.028823,0.726312,0.056892,0.126556
5207029528,-8.113044,1.084569,-0.062582,0.729114,0.028356,0.144810
5207049580,-13.321731,-2.648102,2.104528,0.775687,-0.018372,0.154770
5207069633,-12.790640,-4.203831,2.844861,0.831437,-0.126512,0.138331
5207089686,-11.010381,-3.447649,1.735105,0.931698,-0.137608,0.147531
5207109738,-8.560771,-1.058611,-2.359043,1.069174,-0.142139,0.165463
5207129791,-2.847541,4.280792,-11.459034,1.180909,-0.174978,0.094291
5207149843,0.954810,14.455951,-15.027222,1.225630,-0.139484,0.021399
5207169895,4.417675,21.831108,-2.472778,1.057840,-0.027343,0.004279
5207189947,2.691520,23.963371,7.524704,0.992324,-0.014748,0.101461
5207210000,1.152948,25.789177,7.314319,1.089660,-0.097324,0.132008
5207230052,2.660174,30.309002,7.389164,1.091931,-0.179077,0.049811
5207250104,6.457547,35.326092,6.900651,1.012015,-0.189070,0.017550
5207270156,6.774877,35.667809,4.193675,0.959140,-0.140917,0.102322
5207290208,6.237603,27.408503,1.236213,0.989104,-0.115148,0.063338
5207310261,7.083943,12.961260,-0.859145,0.878849,-0.110146,0.035960
5207330313,5.882927,-0.348855,-2.298336,0.827028,-0.108852,0.026398
5207350365,5.369337,-10.983397,-3.928882,0.763751,-0.070266,0.008598
5207370417,3.339071,-19.834703,-5.322515,0.724444,-0.047905,0.015422
5207390473,1.132718,-29.149616,-5.418487,0.752344,-0.025660,0.003730
5207410520,-1.957644,-39.007668,-4.057118,0.782267,-0.007149,-0.008996
5207430572,-3.621677,-46.617760,-5.235366,0.841730,-0.045819,-0.009309
5207450625,-5.363133,-49.834904,-5.557146,0.957271,-0.079158,-0.014011
5207470677,-6.899609,-47.069641,-2.481500,1.057940,-0.088132,-0.060090
5207490729,-4.760476,-40.750137,-2.989078,1.255680,-0.085749,-0.108339
5207510781,1.170622,-31.312338,-4.115046,1.537461,-0.073382,-0.112755
5207530834,1.606590,-14.510968,-2.035827,1.426911,-0.184101,-0.016556
5207550886,7.781225,-12.622489,-0.316494,1.263066,-0.146570,-0.124941
5207570938,14.088992,-12.834190,-1.894397,1.036758,-0.112240,-0.027061
5207590990,15.740700,-13.966794,-2.626231,0.967105,-0.082807,-0.010173
5207611043,15.498676,-14.384613,-2.420075,0.858032,-0.076737,0.024610
5207631095,14.396611,-14.628262,-2.593165,0.791944,-0.078303,0.039701
5207651147,11.582550,-14.884637,-3.008140,0.774936,-0.069464,0.044113
5207671199,10.397849,-15.086496,-3.689135,0.810951,-0.060338,0.054169
5207691252,12.561346,-14.829235,-4.857939,0.858389,-0.042138,0.055295
5207711304,14.573009,-13.138018,-6.008893,0.917652,-0.047255,0.056865
5207731356,13.377198,-11.205564,-6.515345,0.996927,-0.059608,0.038484
5207751408,11.862870,-10.192951,-5.692197,1.034740,-0.043726,0.018574
5207771461,8.659686,-11.237016,-4.217160,1.030420,-0.007965,-0.008863
5207791513,4.175400,-12.632279,-4.127414,1.044484,0.008386,-0.036764
5207811565,0.649296,-13.734145,-4.251225,1.057811,-0.024360,-0.054285
5207831617,0.206588,-14.810000,-4.649047,1.057633,-0.065087,-0.081444
5207851670,1.162894,-15.662990,-4.866233,1.065971,-0.065479,-0.103920
5207871723,3.453263,-16.834660,-5.234366,1.053919,-0.050394,-0.108270
5207891775,4.662226,-16.598627,-5.174971,1.044177,-0.036746,-0.086230
5207911827,3.957165,-15.541665,-5.375420,1.040503,-0.019600,-0.074639
5207931880,2.728385,-14.641738,-5.855564,1.022169,-0.003788,-0.065228
5207951932,0.560108,-13.327529,-5.882071,0.987479,-0.012501,-0.052831
5207971984,-0.427619,-13.638321,-5.986759,0.959350,-0.023397,-0.054449
5207992036,-0.477917,-14.268364,-5.923939,0.941768,-0.033842,-0.051454
5208012089,0.422927,-15.093895,-5.345408,0.939017,-0.042109,-0.044561
5208032141,2.131744,-16.419367,-4.227333,0.939862,-0.066201,-0.052183
5208052193,4.143905,-18.771086,-3.636354,0.928235,-0.079127,-0.084017
5208072246,6.086264,-20.722637,-3.319572,0.941540,-0.058697,-0.093338
5208092298,7.842933,-22.270596,-2.617589,0.987284,-0.051190,-0.109187
5208112350,9.842852,-23.463718,-2.477757,1.004280,-0.048539,-0.117095
5208132402,10.026662,-25.036182,-2.821035,0.995367,-0.043777,-0.138662
5208152454,8.586098,-25.914307,-3.332874,1.012883,-0.028934,-0.132621
5208172530,7.011859,-26.715366,-2.329140,1.006029,-0.008339,-0.139997
5208192557,3.694908,-26.280249,-0.927371,0.978741,0.010979,-0.144594
5208212609,-1.474808,-26.198151,-0.607527,0.975069,0.017796,-0.143790
5208232662,-3.935161,-25.594942,-1.116534,0.999465,-0.007490,-0.155958
5208252714,-2.891208,-24.409981,-0.893614,1.025595,-0.048477,-0.160751
5208272766,0.163550,-21.389235,-1.769094,1.020529,-0.038233,-0.110465
5208292819,0.644774,-16.699976,-2.649422,1.019751,-0.025950,-0.077167
5208312871,2.721391,-11.917839,-2.499891,1.051042,-0.073724,-0.119199
5208332923,7.874934,-7.794937,-1.735270,1.087411,-0.157134,-0.169780
5208352975,9.052795,-5.394167,-2.668587,1.118037,-0.136844,-0.178886
5208373028,6.430802,-1.503328,-2.946340,1.120089,-0.029361,-0.147215
5208393080,1.964394,0.540415,-1.686132,1.085887,0.009446,-0.070837
5208413132,-5.316074,-1.166501,0.027564,1.050110,0.001064,-0.028641
5208433184,-11.385122,-3.048321,1.642912,1.007076,-0.019539,-0.033252
5208453237,-14.934134,-3.569145,3.381531,0.949937,-0.033556,-0.045401
5208473289,-16.173347,-2.163858,5.984284,0.897188,-0.041155,-0.047686
5208493341,-15.559856,-0.836460,7.563497,0.889786,-0.046451,-0.042043
5208513393,-15.093301,0.469552,7.119254,0.954611,-0.057823,-0.053085
5208533446,-12.726859,1.454333,5.538609,1.000159,-0.096602,-0.058947
5208553498,-11.251390,2.171816,4.626145,1.014542,-0.108107,-0.065165
5208573550,-9.592689,3.440170,5.394248,1.008686,-0.099895,-0.081025
5208593602,-7.184047,4.516186,4.988011,1.043896,-0.086606,-0.091108
5208613654,-6.265097,4.298668,3.260437,1.066083,-0.075723,-0.102346
5208633707,-3.045030,3.572900,1.617177,1.060906,-0.112229,-0.087510
5208653761,0.701278,2.615570,0.027583,1.050740,-0.140867,-0.080798
5208673813,2.895500,1.571411,-1.682432,1.027210,-0.127594,-0.070212
5208693865,4.896873,-0.191270,-3.965904,1.010173,-0.104523,-0.068055
5208713917,6.658933,-1.197416,-6.418636,0.970589,-0.089873,-0.041240
5208733970,5.621446,-2.297047,-6.361432,0.946234,-0.077042,-0.029655
5208754022,2.913204,-2.569826,-3.487118,0.938971,-0.046327,-0.034515
5208774074,-0.522038,-2.417902,0.068092,0.956046,-0.011493,-0.040978
5208794127,-2.323055,-2.305801,1.644760,0.980090,-0.026979,-0.060350
5208814179,-2.002510,-2.553267,1.797079,0.991603,-0.039196,-0.058673
5208834231,-3.573849,-3.811339,2.559860,1.007560,-0.040923,-0.073990
5208854283,-2.891479,-5.667299,1.292752,1.032108,-0.061718,-0.083391
5208874335,-1.110828,-7.161490,-1.522095,1.015212,-0.073267,-0.087921
5208894387,1.618461,-8.275140,-3.967216,0.999894,-0.075500,-0.102000
5208914440,1.315055,-8.482192,-3.981555,0.995315,-0.055702,-0.108260
5208934492,-0.172580,-8.738684,-2.191516,0.990252,-0.027257,-0.145343
5208954544,-0.452387,-8.043959,-1.291916,0.998119,-0.039791,-0.159047
5208974595,1.826437,-7.672689,-0.164729,1.013982,-0.059645,-0.164794
5208994647,3.940890,-5.934092,0.063488,1.023171,-0.078834,-0.167506
5209014699,4.227803,-3.039680,1.273626,1.022342,-0.069705,-0.170708
5209034752,6.782257,0.411291,1.715578,1.047637,-0.049053,-0.172676
5209054804,11.776497,3.943309,0.451130,1.063068,-0.069966,-0.150694
5209074856,12.891627,5.384679,-0.865387,1.064979,-0.072183,-0.102395
5209094908,11.137632,6.228707,-1.239050,1.050260,-0.062746,-0.069072
5209114961,6.614577,7.459301,-0.051810,1.040142,-0.057178,-0.072026
5209135013,0.559901,10.464864,1.281429,1.008660,-0.000647,-0.110620
5209155065,-2.435981,14.303003,1.458726,0.958589,0.008998,-0.127446
5209175117,-3.216377,19.650345,1.501205,0.968228,-0.063390,-0.133629
5209195170,-2.051911,23.111120,3.724664,1.027300,-0.114485,-0.138708
5209215222,-0.121971,25.201529,6.945421,1.043193,-0.080975,-0.129531
5209235274,2.176376,24.242577,8.986661,1.005658,-0.049953,-0.133701
5209255327,5.651054,20.941811,8.057026,1.001339,-0.032973,-0.120932
5209275379,4.500655,17.123991,6.979215,1.041866,-0.045877,-0.076234
5209295431,1.796920,12.307488,8.042655,1.034096,-0.071052,-0.075634
5209315483,1.848720,8.348628,7.427225,0.983827,-0.041742,-0.115138
5209335535,1.413714,5.660617,4.200425,0.883789,-0.015041,-0.138786
5209355587,-1.960916,3.032095,1.414029,0.852820,-0.021542,-0.124753
5209375639,-3.953102,-0.813812,-0.830551,0.842241,-0.025074,-0.122333
5209395692,-6.475417,-4.276203,-1.909107,0.874672,-0.042217,-0.125267
5209415744,-11.870502,-5.125250,-0.941764,0.919133,-0.049631,-0.116868
5209435798,-13.140802,-5.330597,-0.887559,0.941479,-0.060523,-0.113130
5209455850,-10.919976,-6.436280,-3.946426,0.924899,-0.111330,-0.105480
5209475902,-8.680747,-6.961086,-6.408563,0.923103,-0.136055,-0.144378
5209495954,-8.759263,-8.931607,-4.605532,0.993009,-0.146750,-0.198107
5209516011,-5.283233,-5.311011,-4.702594,0.959481,-0.055298,-0.387353
5209536059,2.917954,-5.161106,-0.295029,1.132383,-0.069599,-0.435857
5209556111,-3.858418,-0.270664,5.708185,1.242267,-0.030047,-0.476252
5209576164,-4.092474,-4.329654,3.963935,1.072456,0.062837,-0.403278
5209596216,1.188943,-8.120329,2.929252,0.882149,-0.099420,-0.392207
5209616268,2.572382,-11.600636,-1.409562,0.901279,-0.148343,-0.334248
5209636320,4.314653,-11.557297,-1.160215,1.015220,-0.074747,-0.275035
5209656373,8.871510,-3.561790,-0.848309,0.924725,-0.062519,-0.193386
5209676425,10.211535,10.771732,-2.179013,0.824084,-0.016480,-0.077391
5209696477,6.984085,18.822927,-3.016575,0.911900,-0.035443,-0.025291
5209716530,7.563370,23.207533,-2.956096,1.248881,-0.034342,-0.031821
5209756632,10.160885,37.481216,4.133187,1.115841,-0.034417,-0.042124
5209776685,7.665393,40.277912,1.183789,1.059315,-0.085904,-0.031387
5209796737,3.398232,38.499344,0.463832,1.112988,-0.110563,0.047167
5209816789,0.954747,33.088554,2.120387,1.120472,-0.081672,0.077878
5209836841,-2.201135,27.605555,2.701228,1.045098,-0.055181,0.061223
5209856893,-7.568563,23.235638,2.710586,0.949811,-0.002436,0.053757
5209876946,-12.997184,19.582054,4.407606,0.846542,-0.024645,0.092453
5209896998,-15.159809,16.525814,4.752368,0.815997,-0.056897,0.078159
5209917050,-13.158015,14.417144,2.977878,0.814317,-0.085097,0.005675
5209937102,-8.078264,13.097647,1.563381,0.844534,-0.109155,-0.036003
5209957155,-3.421181,9.880761,-0.526536,0.813775,-0.080897,-0.043910
5209977207,-3.576415,5.170757,-2.056359,0.807811,-0.015153,-0.039078
5209997259,-6.663295,1.122917,-1.495645,0.896546,0.004709,-0.023319
5210017311,-7.623236,-2.015552,-0.991862,0.999889,-0.037683,-0.011099
5210037363,-6.429888,-5.509008,-2.420244,1.043128,-0.065801,-0.001651
5210057416,-4.816580,-9.782850,-2.838082,1.011434,-0.064451,-0.023249
5210077468,-2.619106,-12.934698,-1.713884,0.962298,-0.070866,-0.051425
5210097520,-0.473227,-14.715069,-0.950605,0.964689,-0.111393,-0.096927
5210117573,0.296985,-16.239449,-1.498886,1.080364,-0.092280,-0.150768
5210137625,-0.031796,-14.839558,-0.685067,1.104960,-0.052593,-0.245209
5210157677,1.897036,-13.383546,-1.729077,1.009076,-0.090490,-0.307797
5210177729,4.686924,-12.955498,1.838160,1.024736,-0.063703,-0.317630
5210197783,-0.684227,-12.386478,8.515142,1.077074,0.051043,-0.345307
5210217835,-4.146940,-11.394258,3.344086,1.150045,0.020304,-0.352249
5210237887,0.858351,-10.719921,0.369059,1.046079,-0.060405,-0.274346
5210257939,2.379940,-11.521653,-0.727660,0.939419,-0.097737,-0.225229
5210277992,5.388201,-11.131063,-2.094272,0.885339,-0.113956,-0.213792
5210298044,11.617508,-6.688402,-5.886083,0.845556,-0.114515,-0.176623
5210318096,9.385005,5.288850,-7.571206,0.826414,-0.047772,-0.054837
5210338148,5.230834,14.011428,-4.537910,0.924413,0.003528,-0.002114
5210358201,7.927880,16.624796,-4.638806,1.192061,-0.055660,-0.001531
5210378253,7.209513,20.818813,-5.759535,1.330563,-0.066366,-0.015512
5210398305,5.453793,25.610943,-1.281111,1.132899,-0.019080,-0.020459
5210418358,5.333822,24.634415,2.875565,0.979233,-0.024379,-0.024305
5210438410,2.172545,21.447880,4.054811,1.035648,-0.049646,-0.040063
5210458462,-1.248553,18.929571,4.329950,1.037429,-0.041022,-0.021700
5210478514,-4.200499,16.833553,4.868733,0.934525,-0.030212,0.000439
5210498567,-5.194983,14.121228,3.173163,0.926908,-0.044222,0.000365
5210518617,-4.788322,14.850891,0.495134,0.940242,-0.071160,-0.036764
5210538670,-6.309876,17.167374,-1.369160,0.946732,-0.063198,-0.059258
5210558722,-7.324806,17.661976,-1.340193,0.930001,-0.047861,-0.089910
5210578774,-7.374692,18.046902,-0.447185,0.926535,-0.046382,-0.074774
5210598826,-5.815912,18.904516,1.497106,0.943902,-0.060398,-0.060038
5210618879,-3.920642,19.295528,3.738466,0.973959,-0.093736,-0.038626
5210638931,-2.412916,18.658951,4.755712,1.013463,-0.109149,-0.036078
5210658983,-0.941209,16.273766,5.415206,1.032231,-0.089852,-0.074794
5210679036,1.450671,13.649170,6.878572,1.007486,-0.065309,-0.095702
5210699088,3.826839,11.528107,7.551997,1.014592,-0.059381,-0.082451
5210719140,4.429808,11.303052,7.355509,1.032403,-0.063673,-0.054828
5210739192,3.885503,10.870423,6.735715,1.029274,-0.075196,-0.059625
5210759244,3.230217,11.092783,6.560863,1.011106,-0.075264,-0.055209
5210779296,3.599742,10.942546,5.234933,0.995168,-0.075478,-0.042232
5210799349,3.685962,11.087009,3.983878,0.984154,-0.073970,-0.030331
5210819401,3.005111,10.517369,3.447973,0.976783,-0.073349,-0.017485
5210839453,2.512165,10.029776,3.684774,0.961210,-0.086232,-0.013720
5210859505,1.620595,8.995434,3.112649,0.964537,-0.089143,0.011058
5210879558,0.209277,8.405404,2.508860,0.988013,-0.079059,0.013744
5210899610,-0.131023,8.397747,1.652583,0.981003,-0.076482,0.010756
5210919662,-1.166213,8.181013,2.062956,0.960260,-0.076811,0.003614
5210939714,-1.948559,7.601922,2.535121,0.975679,-0.083121,0.004706
5210959766,-3.134075,7.462040,2.050965,1.005750,-0.086722,0.008778
5210979820,-3.198145,6.798366,1.613695,0.995542,-0.085757,0.007967
5210999872,-3.002509,5.766710,1.541392,0.992755,-0.098128,0.007363
5211019925,-2.571493,5.165466,0.861206,1.014941,-0.105194,0.005421
5211039977,-2.689608,4.435808,0.848604,1.012688,-0.086549,0.007098
5211060029,-3.408402,3.558175,0.867038,1.002562,-0.078166,0.004021
5211080081,-3.586452,2.885780,0.369206,0.993358,-0.082072,0.005455
5211100133,-3.856225,2.363704,-0.273112,0.988269,-0.090425,0.006697
5211120186,-4.464760,2.568733,-0.834448,0.985446,-0.081378,0.017206
5211140238,-4.837162,2.939868,-1.782967,0.996829,-0.082314,0.019842
5211160290,-5.418188,3.332227,-1.564325,0.996112,-0.076390,0.014861
5211180342,-5.548550,3.633692,-1.777529,0.988359,-0.082804,0.018697
5211200395,-5.932990,3.112068,-2.230335,0.967410,-0.090022,0.019087
5211220447,-5.315409,2.588636,-1.607273,0.975115,-0.084667,0.023896
5211240499,-4.801741,2.571578,-0.038550,0.999687,-0.081661,0.014220
5211260551,-3.936477,2.755733,0.574408,0.999434,-0.079728,0.009652
5211280617,-2.044768,2.555818,-0.577567,0.986009,-0.081956,0.014763
5211300654,-0.571138,2.029329,-1.319006,0.999595,-0.080307,0.013658
5211320707,-0.242829,1.849037,-1.356395,1.017244,-0.074767,0.017173
5211340759,-0.983130,2.328953,-1.532105,1.010999,-0.066190,0.020665
5211360811,-2.070961,2.260293,-1.660330,0.983745,-0.069145,0.021506
5211380863,-2.926968,2.765689,-1.290403,0.987941,-0.075187,0.024059
5211400916,-2.618956,3.310069,-0.761860,0.998318,-0.081080,0.029745
5211420968,-2.379094,3.658161,0.009911,0.983076,-0.085493,0.034868
5211441020,-2.839515,3.956703,0.873044,0.981985,-0.076031,0.029571
5211461072,-3.122595,4.003383,1.342878,1.002660,-0.070975,0.030477
5211481125,-3.522838,2.958129,2.134831,1.014422,-0.066263,0.027779
5211501177,-4.360867,0.498658,4.235392,0.988616,-0.048404,0.035387
5211521229,-7.625336,1.648490,4.558467,0.920633,-0.109987,0.015169
5211541281,-7.377241,3.104998,2.931465,0.935669,-0.164125,-0.050171
5211561333,-6.362303,4.904785,4.364910,0.981153,-0.110392,-0.029022
5211581386,-4.510243,4.438525,4.350710,0.872930,-0.052576,0.130408
5211601438,-3.953154,-3.280914,3.990588,0.873341,-0.001175,0.096734
5211621490,-5.252841,-6.990828,4.519197,0.892287,-0.036395,0.070556
5211641542,-7.608173,-8.411525,5.585971,0.814430,-0.064837,0.069515
5211661595,-12.315207,-9.323394,5.514972,0.852996,-0.043018,0.058084
5211681647,-12.557109,-16.861149,4.699765,1.005602,-0.050294,-0.061808
5211701699,-8.778079,-24.864876,4.074232,1.010934,-0.116995,-0.082719
5211721751,-5.980205,-35.842270,0.033599,1.004311,-0.137723,-0.140056
5211741803,-4.196871,-44.942581,-3.853988,1.025749,-0.123162,-0.211963
5211761857,-4.693046,-50.573586,-4.213359,1.078289,-0.086889,-0.250545
5211801962,-8.060610,-47.955879,-2.167303,1.074702,-0.078755,-0.342458
5211822014,-6.732379,-44.747162,-3.944721,1.006498,-0.098852,-0.345890
5211842066,-9.023046,-38.813457,-0.864572,0.960287,-0.105883,-0.328504
5211862118,-9.287782,-33.473026,-0.049196,0.981402,-0.114452,-0.333709
5211882171,-5.155215,-27.367048,-2.762214,0.992223,-0.135200,-0.318578
5211902223,0.589571,-23.125359,-4.226422,0.946471,-0.136917,-0.304431
5211922275,1.957509,-20.366774,-2.803984,0.936638,-0.090159,-0.298862
5211942327,0.426981,-19.216898,-1.867619,0.963365,-0.074661,-0.324845
5211962380,0.337042,-19.944408,-3.964452,1.015011,-0.063152,-0.354059
5211982432,1.600415,-20.801739,-5.182153,1.024858,-0.076164,-0.363381
5212002484,2.216393,-20.578857,-5.387768,1.037858,-0.090868,-0.396292
5212022537,3.808411,-19.075411,-5.787612,1.040400,-0.093544,-0.393153
5212042589,3.022289,-17.249489,-5.558681,1.023121,-0.082187,-0.390498
5212062639,-0.426210,-15.224076,-3.449924,1.023223,-0.065705,-0.400686
5212082692,-0.762052,-11.201197,-2.023666,1.030238,-0.031033,-0.417033
5212102744,-2.494342,-9.139402,-4.326588,1.019944,0.013067,-0.393804
5212142848,-7.965821,-2.115135,-0.779188,0.964830,0.046142,-0.308419
5212162901,-11.737469,-2.553866,-1.428146,1.033040,0.060449,-0.303194
5212182953,-21.597174,-0.621102,-1.332827,1.051801,0.142722,-0.341003
5212203005,-25.127069,2.759017,0.195290,0.984907,0.111426,-0.282494
5212223058,-25.792328,4.505490,0.939822,0.976915,0.038893,-0.251447
5212243110,-29.882038,6.831144,3.169032,0.998918,0.010226,-0.258139
5212263162,-35.022598,10.481964,5.947309,0.989424,0.049069,-0.259747
5212283214,-36.833359,13.598537,8.438259,0.964710,0.041444,-0.223480
5212303266,-40.732979,16.158737,4.360902,0.955624,0.009956,-0.212910
5212323319,-45.969276,17.675219,7.070777,0.965782,0.025311,-0.227284
5212343371,-52.150002,18.013494,9.322726,0.917827,0.044145,-0.205212
5212363423,-57.793423,16.027397,8.422071,0.902376,0.033753,-0.192478
5212383476,-64.685677,13.959432,7.870767,0.947307,0.019730,-0.214354
5212403528,-75.418427,13.346162,12.014750,0.952028,0.055964,-0.229100
5212423580,-85.116463,11.612350,15.571072,0.935032,0.083678,-0.251808
5212443632,-91.090141,9.530252,13.041389,0.932764,0.056055,-0.270863
5212463685,-93.147812,11.277750,10.595661,0.963332,-0.019535,-0.269044
5212483737,-99.858414,14.027308,12.938014,0.949094,0.011187,-0.265956
5212503789,-105.440887,15.974288,13.259155,0.927626,0.042510,-0.289737
5212523843,-107.919098,16.632725,10.703645,0.959984,0.029346,-0.313167
5212543895,-109.193611,16.659031,8.983577,0.980388,-0.014131,-0.319699
5212563947,-110.446495,18.371817,7.416850,0.967833,-0.075337,-0.309173
5212583999,-109.807487,18.256884,7.788390,0.954699,-0.117326,-0.333683
5212604052,-106.847733,17.559216,9.646603,0.997951,-0.117470,-0.324922
5212624104,-104.782036,16.050709,11.462447,1.039356,-0.084309,-0.344189
5212644156,-101.717339,14.431686,12.778113,1.058201,-0.121103,-0.321363
5212664208,-96.183609,15.716188,13.294697,1.052957,-0.146659,-0.315924
5212684260,-93.313797,17.140348,13.440366,1.004257,-0.192349,-0.352367
5212704313,-92.822983,18.578022,12.184711,1.020702,-0.230558,-0.339266
5212724365,-89.689445,21.619217,7.269548,1.047821,-0.295249,-0.298790
5212744417,-81.652763,20.887686,3.343355,1.037491,-0.290766,-0.218392
5212764469,-75.524567,19.853710,-0.816076,1.026206,-0.288026,-0.145341
5212784521,-72.010117,22.086685,-4.281005,0.948333,-0.283384,-0.113592
5212804574,-66.533745,19.279381,-6.077041,0.861721,-0.259023,-0.124940
5212824626,-63.351341,16.733984,-7.304755,0.837743,-0.213485,-0.100735
5212844677,-58.437458,14.828193,-5.230853,0.871090,-0.211652,-0.098338
5212864729,-57.305767,13.278167,-4.210327,0.871326,-0.181622,-0.075872
5212884781,-56.454285,11.366759,-6.015410,0.888390,-0.175267,-0.066100
5212904834,-55.920132,10.133541,-7.095139,0.931837,-0.171961,-0.076737
5212924886,-53.571899,6.345272,-7.120802,1.017948,-0.145232,-0.114334
5212944938,-51.861168,3.181738,-6.140394,1.058188,-0.116233,-0.119474
5212964990,-48.537891,1.066429,-6.733006,1.058655,-0.109042,-0.125007
5212985042,-45.764614,-0.635273,-7.379903,1.058232,-0.140915,-0.130094
5213005094,-42.948433,-0.991494,-6.599030,1.068115,-0.136616,-0.123167
5213025147,-42.934414,0.102509,-5.291644,1.063766,-0.077648,-0.141512
5213045199,-41.878754,3.024528,-4.112186,1.002983,-0.012006,-0.116255
5213065251,-39.787304,3.690984,-1.735422,0.993278,-0.054149,-0.088207
5213085304,-37.946003,4.297225,-2.609736,1.041306,-0.183503,-0.036383
5213105356,-34.631172,7.170157,-0.726057,0.994841,-0.098640,-0.099223
5213125409,-30.277063,12.738263,18.056625,0.890718,-0.021831,-0.042321
5213145461,-25.632187,12.887565,26.035128,0.991144,-0.041960,-0.010203
5213165513,-27.951670,15.439222,26.163568,1.046830,-0.017081,-0.019911
5213185565,-30.311443,18.348524,26.465103,1.037483,0.042827,-0.041665
5213205617,-36.710136,23.129210,21.956551,1.144613,0.075898,-0.122085
5213225670,-46.011086,26.509619,9.132143,1.022619,0.022130,-0.108331
5213245722,-51.837273,23.742977,3.853603,0.954814,-0.036800,-0.082591
5213265774,-53.316532,21.587727,3.111231,0.953600,-0.077771,-0.088397
5213285826,-51.779255,21.036001,4.310069,0.951776,-0.118989,-0.098748
5213305880,-52.592644,20.308191,5.305706,0.940074,-0.121319,-0.107438
5213325932,-56.179047,18.387054,6.541373,0.941279,-0.066203,-0.122791
5213345985,-59.292885,16.920996,9.616993,0.965372,-0.042846,-0.138795
5213366037,-61.975800,17.077253,10.686027,0.945009,-0.026262,-0.125862
5213386089,-64.079742,17.524994,8.040163,0.948652,-0.033502,-0.137204
5213406141,-63.119404,18.818033,5.041684,0.982825,-0.081287,-0.142134
5213426194,-55.647057,20.492329,2.774768,1.017849,-0.166170,-0.149174
5213446246,-48.954735,23.055311,0.186748,1.088483,-0.228658,-0.145860
5213466298,-45.938610,26.249691,-0.803001,1.098154,-0.148298,-0.125091
5213486350,-41.251648,27.087194,-1.663950,1.092978,-0.123651,-0.109781
5213506402,-33.337559,25.404432,-3.426820,1.133395,-0.207011,-0.151154
5213526455,-22.230974,26.351585,-5.586396,1.062946,-0.329768,-0.109062
5213546507,-17.260551,28.648481,-4.065102,0.959897,-0.329116,-0.072810
5213566559,-19.101385,27.407255,0.828247,0.927180,-0.204432,-0.059307
5213586611,-19.664787,26.136555,3.349037,1.002946,-0.237727,0.002689
5213606662,-8.653184,22.233181,0.183049,1.008204,-0.468471,0.029573
5213626715,19.858870,14.759757,-8.160772,1.068216,-0.511138,-0.015496
5213646767,34.318611,15.808332,-0.181228,0.872068,-0.355452,0.133271
5213666819,28.123077,7.061406,-1.172077,0.945851,0.021628,0.219587
5213686871,20.898558,4.654838,-2.101046,1.016631,0.260939,0.233951
5213706924,11.049754,4.116330,-1.443951,0.962459,0.313542,0.242137
5213726976,3.103601,3.901953,1.674521,0.907193,0.237312,0.205820
5213747028,-3.251143,3.153059,2.664592,0.815329,0.101417,0.221828
5213767080,-5.480601,-0.429060,6.345931,0.769814,-0.001278,0.246051
5213787133,1.600047,-4.777439,5.297382,0.896228,-0.220461,0.236669
5213807185,11.236679,-3.945592,-11.132460,1.083929,-0.403071,0.189218
5213827237,12.596648,2.139527,-13.078959,1.034711,-0.150496,0.138959
5213847289,13.595968,7.613440,5.083747,0.893958,0.152348,0.111099
5213867342,9.992538,11.214668,20.003145,0.919472,0.120846,0.159995
5213887394,5.346843,14.200686,29.968395,1.135640,0.044196,0.180046
5213907446,2.125707,23.398542,30.369827,1.190213,-0.087458,0.158599
5213927498,0.495273,30.279467,20.524357,1.062081,-0.130522,0.172095
5213947550,-5.889855,33.133743,11.512956,1.010963,-0.026931,0.193800
5213967602,-14.919113,34.249382,4.009105,1.068560,-0.024891,0.149469
5213987655,-17.302425,34.416225,-1.940117,0.998114,-0.131897,0.136394
5214007707,-14.995680,31.513449,-2.355344,0.926535,-0.233138,0.158325
5214027759,-12.220419,28.273182,2.187067,0.897948,-0.225095,0.178842
5214047812,-7.806365,20.917747,4.969607,0.835687,-0.221570,0.129646
5214067865,-4.314428,8.865166,5.449495,0.797599,-0.204109,0.117540
5214087917,-3.771798,-3.973919,5.857337,0.819486,-0.169228,0.145557
5214107970,-4.501888,-15.486549,7.246317,0.836678,-0.100765,0.133526
5214148074,-14.378089,-35.332897,-3.163536,0.881694,0.066035,0.100196
5214168126,-21.665194,-41.676056,-4.670076,0.896565,0.043177,0.094204
5214188178,-27.390728,-42.219612,-3.074617,0.897418,-0.049155,0.041384
5214208231,-32.134377,-41.541496,-9.767512,0.953053,-0.043858,0.034719
5214228283,-29.202530,-38.350250,-7.574059,1.287403,-0.071958,-0.005937
5214268388,-4.527621,-20.041059,-15.383905,1.316314,-0.387629,0.133975
5214288440,5.735124,-16.451534,-14.209971,1.190881,-0.270618,0.120553
5214308492,10.333171,-14.552402,-9.185698,0.989131,-0.192773,0.144033
5214328545,12.958166,-17.213524,-6.539969,0.877526,-0.124007,0.128449
5214348597,13.382669,-19.857267,-3.673741,0.813660,-0.097140,0.123687
5214368652,11.864544,-21.834745,-1.483656,0.785416,-0.110273,0.111733
5214388700,8.911177,-22.667776,3.082781,0.783327,-0.109935,0.110260
5214408752,6.042790,-21.418537,3.109797,0.842246,-0.095127,0.113869
5214428805,2.183544,-18.399107,3.168954,0.911121,-0.086656,0.117531
5214448857,-1.427310,-15.704787,1.986196,0.958045,-0.088165,0.138330
5214468909,-5.088339,-15.031738,0.560315,0.994998,-0.084422,0.146638
5214488961,-7.360882,-16.280706,-1.306588,1.025164,-0.073236,0.142723
5214509013,-9.228464,-17.793264,-3.256093,1.043307,-0.090691,0.120060
5214529065,-9.047167,-20.889111,-5.587387,1.035511,-0.115507,0.062853
5214549117,-6.774179,-23.521549,-5.238060,1.029364,-0.134129,0.032124
5214569170,-6.368495,-23.265873,-3.647501,1.033318,-0.104753,0.027177
5214589222,-6.294294,-23.380699,-2.677025,1.014087,-0.093439,0.020730
5214609274,-7.312686,-23.511177,-3.047587,1.002486,-0.081140,0.018505
5214629326,-7.328615,-23.104607,-3.564352,1.002845,-0.080585,0.019138
5214649379,-6.161366,-21.960020,-3.849126,1.003332,-0.088508,0.017779
5214669431,-6.269597,-20.415745,-3.240514,1.000240,-0.080052,0.012297
5214689483,-7.278214,-19.632957,-3.265595,0.995743,-0.062128,0.008422
5214709536,-8.055075,-19.531898,-3.288408,0.996288,-0.056526,0.006089
5214729588,-8.390635,-19.037567,-4.002416,0.996468,-0.063687,-0.005551
5214749640,-7.829987,-18.240103,-4.528308,0.996732,-0.083369,-0.009593
5214769692,-8.209096,-17.807648,-2.983558,0.986611,-0.084060,-0.024653
5214789745,-4.640370,-17.991501,-2.135331,0.981419,-0.080795,-0.011458
5214809797,-0.574632,-19.636032,-2.282667,1.028294,-0.076902,-0.000537
5214829849,1.571452,-20.801968,-2.794770,1.059384,-0.084600,0.002771
5214849903,3.800027,-20.633408,-2.455078,1.012010,-0.090102,0.000136
5214869955,5.989799,-20.901815,-3.940395,0.965092,-0.069223,-0.000256
5214890007,7.461406,-19.473591,-7.697416,0.962840,-0.067720,0.009980
5214910059,7.909101,-17.135021,-11.699741,0.979466,-0.071154,0.021499
5214930112,6.687289,-13.447699,-14.387392,0.997860,-0.079363,0.029176
5214950164,4.609711,-10.672911,-14.040015,1.045522,-0.089490,0.006093
5214970216,3.461052,-7.634220,-11.344395,1.061796,-0.060297,-0.000855
5214990269,-1.934045,-5.757786,-6.778861,1.073102,-0.012474,0.006124
5215010321,-9.237562,-4.566399,-1.725245,1.095376,0.010509,-0.010344
5215030373,-13.744569,-5.021444,5.386963,1.079388,0.004162,-0.032559
5215050425,-12.191989,-6.855605,9.053377,1.016558,-0.015832,-0.004054
5215070478,-11.631312,-10.369907,10.975188,0.959672,-0.041310,0.008380
5215090530,-9.497750,-13.900842,11.047239,0.935934,-0.081101,0.018760
5215110582,-8.375500,-16.391045,8.675634,0.907497,-0.095293,0.009089
5215130634,-6.293447,-17.999353,4.314967,0.895273,-0.097684,-0.003875
5215150685,-4.357906,-18.831593,-0.821375,0.906707,-0.126480,-0.011641
5215170737,-2.268099,-19.289248,-4.511483,0.921614,-0.135761,-0.014881
5215190790,-1.134112,-19.510025,-6.974280,0.964705,-0.107540,-0.023991
5215210842,2.485466,-18.375259,-7.744932,1.028309,-0.098166,-0.039099
5215250946,10.044830,-11.493578,-6.596554,1.088572,-0.117194,-0.076714
5215270999,12.295491,-5.594337,-5.253457,1.105424,-0.108814,-0.109773
5215291051,16.748180,-0.357227,-6.440222,1.143772,-0.115546,-0.116331
5215311103,19.349108,5.052958,-7.157039,1.152933,-0.089806,-0.090207
5215331155,19.949554,8.196920,-4.030395,1.129402,-0.065084,-0.054033
5215351208,19.391878,10.837597,-2.455297,1.090925,-0.048800,-0.014687
5215371260,17.234924,12.843818,-2.309875,1.076346,-0.036502,0.009060
5215391312,15.383053,14.190611,-1.116393,1.035502,-0.029021,0.036677
5215411365,12.085760,15.368531,0.078178,0.986864,-0.012064,0.067400
5215431417,8.824053,15.761724,0.797966,0.961191,-0.009964,0.091278
5215451469,5.421157,15.605670,1.246854,0.963254,-0.005237,0.110324
5215471521,1.328416,13.642346,1.141368,0.952523,0.001030,0.118173
5215491573,-1.284863,11.306904,0.688014,0.950840,-0.008435,0.130086
5215511626,-2.985391,9.181486,0.089617,0.953656,-0.031631,0.127738
5215531678,-3.469867,6.858473,0.598002,0.950356,-0.036142,0.117679
5215551730,-4.527622,3.791579,0.517993,0.977557,-0.040174,0.098287
5215571783,-3.926734,0.977206,0.239480,0.986283,-0.045546,0.089777
5215591835,-3.815358,-1.557122,0.331543,0.968993,-0.060493,0.076377
5215611888,-3.195936,-3.730942,0.482817,0.956682,-0.066051,0.064357
5215631940,-3.011331,-5.552818,0.314714,0.979322,-0.064274,0.058044
5215651993,-3.074761,-7.676473,-0.496473,0.991647,-0.074484,0.060158
5215672045,-3.583102,-9.449690,-0.656922,0.994571,-0.076116,0.059925
5215692097,-6.836208,-9.711283,0.951857,1.002607,-0.044467,0.041712
5215712150,-10.291548,-9.371196,3.074003,1.044931,-0.010601,0.020807
5215732202,-10.296534,-7.578171,4.492671,1.079808,-0.037342,-0.005810
5215752254,-7.783653,-3.113998,4.332407,1.054964,-0.091837,-0.032621
5215772307,-1.787682,3.378749,4.421619,1.047340,-0.120612,-0.055154
5215792359,3.282746,9.310493,4.391826,1.111413,-0.104105,-0.060708
5215812411,8.234953,12.518391,2.340298,1.143193,-0.120457,-0.046297
5215832464,10.929427,15.183012,3.141121,1.115212,-0.157715,0.002287
5215852516,9.805692,18.730631,1.067814,1.083930,-0.128948,0.036632
5215872568,9.146167,20.736698,2.038818,1.075075,-0.091960,0.051409
5215892620,12.078231,22.052963,1.866518,1.036567,-0.074869,0.064480
5215912672,15.939590,20.171848,1.735227,0.980102,-0.094436,0.064488
5215932723,20.978764,17.418400,4.092427,0.952220,-0.109765,0.038657
5215952776,23.794987,15.832208,7.249753,0.945379,-0.094668,0.047158
5215972828,25.498829,11.088475,8.061294,0.932565,-0.036305,0.057844
5215992880,27.568430,5.754064,3.940839,0.886288,-0.017105,0.073471
5216012932,26.887806,0.857507,-0.127108,0.866568,-0.071327,0.058690
5216032984,19.631618,-3.503238,-2.709123,0.892886,-0.084567,-0.007498
5216053037,12.109491,-9.711665,-1.881727,0.895599,0.017383,-0.039196
5216073089,6.983848,-15.500480,1.588441,0.917681,0.046202,-0.041372
5216093141,1.907753,-18.707973,7.421910,0.913084,-0.016171,-0.050226
5216113193,-1.442607,-21.066620,12.448481,0.925623,-0.061101,-0.036348
5216133246,-2.046745,-23.054556,14.441230,0.954063,-0.114877,-0.039977
5216153298,-1.683002,-23.216797,12.425659,0.924710,-0.214300,-0.037308
5216173350,2.728370,-24.945232,8.269222,0.906114,-0.272509,-0.070666
5216193403,2.593812,-25.387053,8.172265,0.930601,-0.280966,-0.106930
5216213455,3.686500,-23.500750,8.802015,0.967734,-0.165274,-0.231790
5216233507,11.265612,-24.282061,8.271527,1.114419,-0.100336,-0.326385
5216253560,10.880672,-22.076687,5.672059,1.184868,-0.019065,-0.378812
5216273611,2.560814,-22.643837,3.827660,1.082853,0.009031,-0.361502
5216293664,2.321711,-25.925957,8.469797,0.990098,-0.080326,-0.356763
5216313716,12.622389,-29.961540,6.736936,1.009076,-0.251669,-0.320564
5216333768,16.209919,-28.631683,3.244776,0.906885,-0.187153,-0.291407
5216353821,16.913872,-25.468166,4.559947,0.874093,-0.080540,-0.302780
5216373873,16.316317,-18.185230,0.775897,0.883890,-0.027314,-0.305417
5216393926,17.313972,-6.950480,-12.382340,0.928886,-0.119707,-0.190423
5216413979,12.337510,6.431447,-12.403973,1.049467,-0.201671,-0.082102
5216434031,7.796228,15.819524,-2.195561,1.250883,-0.046469,-0.009581
5216454083,9.508450,21.072624,5.554169,1.306894,-0.003758,-0.036853
5216474136,9.257771,26.266348,1.178460,1.228604,-0.103748,-0.021709
5216494188,3.210620,30.487034,0.180769,1.111667,-0.154783,0.030129
5216514240,-2.273202,32.049042,4.338154,1.051452,-0.147908,0.050072
5216534292,-3.320736,30.692820,5.843828,1.040286,-0.150843,0.043483
5216554344,0.362156,29.119139,0.504796,1.034987,-0.180856,0.029342
5216574402,1.292866,28.959059,-2.950983,0.947282,-0.185187,0.032224
5216594449,-0.379807,27.676481,-7.144720,0.862220,-0.158347,0.035218
5216614501,-1.456012,24.958719,-9.613297,0.833743,-0.169374,0.030872
5216634554,2.136380,19.373915,-4.509830,0.805207,-0.123540,-0.038387
5216654606,5.647566,14.625914,0.946993,0.818566,-0.077659,-0.085266
5216674658,6.514067,9.111935,3.269692,0.828818,-0.036520,-0.081761
5216694723,2.961624,5.304079,3.844900,0.848383,-0.055839,-0.050498
5216714761,-0.010753,2.437142,4.947190,0.933548,-0.071352,-0.030084
5216734813,-0.246980,1.270290,4.352556,1.032942,-0.086581,-0.011026
5216754866,-2.002845,0.169418,2.560751,1.044779,-0.119268,0.007795
5216774917,-3.311149,-3.316706,0.079745,0.986377,-0.106541,0.010960
5216794970,-5.040715,-7.001662,-0.998322,0.949107,-0.088116,-0.016601
5216815022,-6.103817,-9.594172,-2.883756,1.003726,-0.132424,-0.074049
5216835074,-6.759450,-10.356946,-3.972267,1.044590,-0.197487,-0.138534
5216855126,-8.626883,-8.765876,-0.157301,1.010694,-0.177203,-0.182815
5216875179,-9.112041,-10.479795,-0.568068,1.044927,-0.138897,-0.209736
5216895231,-2.334667,-11.634836,-5.333626,0.993897,-0.167638,-0.261478
5216915283,6.672288,-12.136319,-11.095058,0.982508,-0.197746,-0.294111
5216935336,8.455443,-11.023645,-11.061622,1.032427,-0.159523,-0.290927
5216955388,6.677279,-9.865803,-2.629610,1.023858,-0.019746,-0.267613
5216975440,9.317937,-9.971006,0.803096,0.954493,-0.062326,-0.248344
5216995492,11.718828,-10.637758,-5.053982,0.942171,-0.133627,-0.225794
5217015545,12.766225,-11.808094,-7.521056,0.933890,-0.115831,-0.206155
5217035597,14.712534,-10.672767,-2.887327,0.886604,-0.046909,-0.214286
5217055649,15.997150,-4.230041,-5.827876,0.880674,0.021977,-0.154687
5217075701,5.407627,4.062217,-12.537382,0.931422,-0.063190,0.033062
5217095753,-12.362919,6.132499,-8.938290,1.191010,-0.050038,0.112820
5217115806,-21.139196,9.883783,1.457766,1.337208,0.006801,0.042945
5217135858,-21.602816,14.801771,0.508770,1.186360,-0.030344,0.009769
5217155912,-20.024094,18.017736,-3.974450,1.043358,-0.052320,-0.063153
5217175964,-16.317171,20.647329,-0.165014,0.991447,-0.115649,-0.087236
5217196016,-14.268190,21.196804,4.159959,0.972731,-0.147369,-0.097907
5217216068,-12.757775,19.095257,4.015093,0.939348,-0.072366,-0.070293
5217236121,-11.139734,16.197239,-0.924546,0.956878,-0.056063,-0.082990
5217256173,-8.595247,14.274069,-3.935236,0.959186,-0.086529,-0.072624
5217276225,-9.977793,13.047301,-5.613053,0.955118,-0.063488,-0.074555
5217296277,-14.387150,13.811269,-6.296248,0.966177,-0.023938,-0.067936
5217316330,-16.996571,14.829311,-5.881999,0.991300,-0.030774,-0.073405
5217336387,-15.249799,14.921684,-7.482089,0.963620,-0.053871,-0.083240
5217356434,-15.046668,16.612236,-6.874090,0.946450,-0.052482,-0.078743
5217376487,-11.537497,16.488298,-3.699308,0.985527,-0.087308,-0.086788
5217396539,-8.508286,16.594736,-0.813153,1.016246,-0.107660,-0.091515
5217416591,-7.927369,18.009613,1.425139,1.004307,-0.064403,-0.082648
5217436643,-6.671280,17.567472,2.237171,1.006344,-0.026507,-0.075892
5217456698,-6.447110,16.720652,2.550748,0.986254,-0.031161,-0.067892
5217476747,-6.299364,16.773985,1.231774,1.022368,-0.051720,-0.075214
5217496799,-7.850613,16.542633,1.066378,1.039994,-0.044139,-0.068724
5217516851,-9.826340,16.862696,2.096705,1.017974,-0.033875,-0.065546
5217536903,-8.963760,17.154789,0.579605,0.998783,-0.050134,-0.049498
5217556955,-8.839098,16.856119,0.042484,1.007957,-0.065461,-0.036168
5217577008,-10.478621,14.959384,1.921597,1.014942,-0.061392,-0.032257
5217597060,-12.286215,12.838082,4.476069,0.985092,-0.057664,-0.027423
5217617112,-12.236141,12.415199,3.583191,0.940214,-0.061852,-0.021149
5217637164,-14.145815,12.723099,2.627851,0.967527,-0.051380,-0.004535
5217657217,-16.935078,11.277225,3.763074,0.975125,-0.053567,0.006632
5217677269,-17.397202,8.700566,4.954432,0.996085,-0.062341,0.012517
5217697321,-16.186010,7.457746,4.056395,0.987002,-0.072277,0.011659
5217717373,-14.943925,6.753979,1.936276,0.964112,-0.065812,0.009785
5217737426,-13.889836,6.695481,3.595901,0.948956,-0.059294,0.010421
5217757478,-11.892684,5.749068,4.333622,0.982400,-0.064551,-0.000188
5217777530,-9.995516,3.957451,1.186285,0.987759,-0.097641,0.004051
5217797582,-7.331542,1.422161,-2.701496,0.959868,-0.110074,0.009359
5217817634,-7.186998,-1.167170,-6.527577,0.954535,-0.090181,0.022633
5217837687,-11.638992,-2.596723,-7.089514,0.980706,-0.033316,0.024250
5217857739,-16.302671,-2.977716,-7.291200,1.011432,0.032962,-0.009381
5217877791,-19.619551,-2.546356,-8.875526,0.994736,0.054209,-0.033284
5217897843,-21.664660,-1.309709,-9.288336,0.980558,0.052719,-0.040002
5217917896,-23.508074,0.312545,-8.959806,1.001451,0.031886,-0.032342
5217937949,-28.194551,2.743169,-8.716434,0.995368,0.044661,-0.027534
5217958002,-35.817535,4.963225,-8.721416,0.994310,0.089269,-0.040328
5217978054,-42.395046,6.771135,-8.952711,1.004869,0.083957,-0.019379
5217998106,-45.201061,8.658186,-7.775914,0.975206,0.056871,-0.015549
5218018159,-43.658024,8.838459,-7.276864,1.009699,0.039366,-0.012376
5218038211,-44.431671,5.718462,-5.249840,1.010327,0.058440,-0.051218
5218058263,-46.795006,1.704276,-4.916863,0.972368,0.073196,-0.068290
5218078315,-49.800087,-1.955859,-4.357514,0.979569,0.083279,-0.088713
5218098367,-51.723900,-4.301494,-3.537810,1.015318,0.062240,-0.142565
5218118420,-48.958321,-4.387108,-4.326694,1.040117,0.054956,-0.185839
5218138472,-46.946510,-4.829597,-4.348611,1.024547,0.077957,-0.169584
5218158524,-48.476475,-4.637076,-4.735266,1.001664,0.088724,-0.143696
5218178577,-50.354546,-4.451782,-5.902406,1.046198,0.087397,-0.135276
5218198629,-49.795994,-5.107636,-5.748763,1.078470,0.089234,-0.151609
5218218681,-52.365105,-4.612284,-5.196306,1.060822,0.109311,-0.168235
5218238733,-60.275269,-3.381536,-4.083670,1.009323,0.122078,-0.176110
5218258784,-65.111954,-2.535218,-4.509315,0.994973,0.088718,-0.168645
5218278836,-66.856293,-2.078585,-4.927120,0.962843,0.046934,-0.156575
5218298888,-68.612709,-0.838706,-5.127831,0.956057,0.042103,-0.163020
5218318940,-69.506088,-0.470203,-4.757419,0.964046,0.048568,-0.176034
5218338993,-70.179039,-1.340473,-4.822394,0.970736,0.025456,-0.185899
5218359045,-69.359512,-2.097446,-5.320285,0.978098,0.004826,-0.187425
5218379097,-68.126854,-3.119299,-6.112986,1.002817,0.005390,-0.189892
5218399150,-67.423264,-3.775216,-6.118551,1.005840,0.002383,-0.191017
5218419202,-65.135063,-4.746635,-6.032636,1.021753,-0.011184,-0.208288
5218439254,-62.093449,-6.027746,-5.278969,1.034225,-0.024324,-0.214228
5218459307,-57.379200,-7.008244,-4.337451,1.033195,-0.036119,-0.219279
5218479359,-51.773205,-8.405732,-3.031018,1.032377,-0.040005,-0.217695
5218499411,-46.676434,-8.987426,-0.651005,1.037182,-0.039157,-0.229122
5218519463,-39.491680,-8.642801,1.990348,1.050381,-0.045758,-0.222499
5218539516,-31.094027,-8.146732,3.319594,1.040547,-0.047573,-0.208097
5218559568,-25.887655,-6.361790,2.879620,1.055691,-0.025473,-0.189705
5218579620,-26.378473,-1.793281,4.311630,1.054589,0.042645,-0.191229
5218599672,-27.971313,3.314957,6.992695,1.055672,0.096159,-0.185024
5218619725,-31.174770,7.861694,6.591622,1.080394,0.114205,-0.165699
5218639777,-38.819000,12.724631,6.759438,1.094855,0.176413,-0.144413
5218659829,-49.330124,17.550770,8.868596,1.070194,0.189281,-0.142920
5218679882,-58.597782,22.445814,9.787185,1.021495,0.150837,-0.136276
5218699934,-65.127419,26.172010,7.927366,1.008835,0.101624,-0.144885
5218719986,-69.185280,29.098314,5.478279,0.973393,0.073258,-0.134356
5218740040,-72.503342,30.751001,4.943219,0.952078,0.066081,-0.118247
5218760092,-75.961983,32.254013,6.091252,0.935531,0.042970,-0.098920
5218780144,-80.309502,32.828594,5.408688,0.937987,0.026750,-0.089808
5218800196,-87.054504,33.094563,5.220660,0.939718,0.022917,-0.072120
5218820249,-94.772690,31.600613,5.054194,0.957151,0.013162,-0.070793
5218840301,-101.270737,30.409021,3.423521,0.951415,-0.014294,-0.058337
5218860353,-98.631332,28.777685,-1.551157,0.930829,-0.116339,-0.088112
5218880405,-89.848709,27.436438,-10.212359,0.948607,-0.224099,-0.065563
5218900458,-80.273575,23.657373,-17.433014,0.967515,-0.274304,-0.046671
5218920510,-79.799744,20.821459,-18.582989,0.920485,-0.197505,-0.024808
5218940562,-88.560532,18.018900,-13.333204,0.882990,-0.047609,-0.032989
5218960614,-96.706306,14.541688,-6.163835,1.047228,-0.035773,-0.062953
5218980667,-108.535088,14.952443,-7.009953,1.242593,0.066653,-0.129281
5219000719,-106.577858,15.007709,-7.495881,1.253174,-0.032225,-0.049719
5219020771,-100.262558,12.145452,-6.851597,1.186222,-0.172697,0.011143
5219040822,-91.535141,12.105570,-11.363995,1.102959,-0.272292,0.003617
5219060874,-84.928581,13.263445,-16.357254,0.972609,-0.349738,0.008406
5219080927,-78.864441,13.275255,-18.352682,0.897206,-0.348991,0.040672
5219100979,-72.376907,12.340838,-20.352579,0.909369,-0.294990,0.053857
5219121031,-64.376190,14.126940,-21.096695,0.912195,-0.282725,0.078910
5219141083,-58.097145,15.672474,-14.904630,0.861449,-0.191461,0.089854
5219161136,-55.323608,18.756882,1.727160,0.821638,-0.094062,0.191962
5219181188,-41.199646,13.514221,10.418187,0.912209,-0.113045,0.178373
5219201241,-32.005611,9.291129,10.186993,1.055560,-0.029920,0.130077
5219221292,-30.732239,9.222948,6.503408,1.046911,0.044913,0.090796
5219241345,-36.071770,3.558834,1.128578,1.084573,0.009757,0.059842
5219261397,-36.994320,0.178682,-0.602612,1.042468,-0.001129,0.016409
5219281449,-33.181431,-4.256725,2.359551,0.961862,-0.012350,-0.006300
5219301501,-25.730352,-8.026540,1.180036,0.927839,-0.074669,0.012266
5219321554,-18.828815,-8.163433,2.405882,0.926697,-0.128311,0.016242
5219341606,-13.505596,-7.505543,6.085125,0.891983,-0.173170,0.004155
5219361658,-6.259818,-10.831195,6.920154,0.877776,-0.160645,-0.020175
5219381711,0.334306,-16.440216,5.110644,0.903201,-0.170090,0.001745
5219401763,4.033452,-23.205408,3.541080,0.945516,-0.158766,0.024817
5219421815,6.524928,-29.703749,3.395862,0.963908,-0.123847,0.011365
5219441867,10.563342,-37.268681,4.655886,0.943218,-0.109056,-0.012311
5219461920,16.916220,-45.040810,3.179809,0.916696,-0.147231,-0.041231
5219481972,23.386387,-51.886295,1.655025,0.884691,-0.196700,-0.077693
5219502024,23.173962,-60.669937,0.677365,0.858636,-0.135350,-0.142389
5219522078,16.302338,-71.182961,-0.375373,0.860191,-0.090846,-0.150073
5219542130,18.417900,-71.013725,-9.388077,0.840242,-0.105161,-0.316640
5219562182,26.249134,-57.931358,-7.601791,0.948943,0.082327,-0.400108
5219582234,28.534315,-37.956799,3.318068,1.193493,0.049241,-0.406898
5219602287,32.979279,-21.663095,1.418679,1.538172,0.029698,-0.301074
5219622339,31.976570,-10.104707,1.849097,1.622998,0.012643,-0.190941
5219642392,22.038954,-4.051702,6.485199,1.435005,-0.006145,-0.179696
5219662444,14.910995,6.820084,10.307922,1.285876,0.051718,-0.087267
5219682496,12.404083,13.731294,9.731722,1.036808,0.029419,-0.121857
5219702548,8.124218,21.578358,4.128067,0.894749,0.055099,-0.006375
5219722601,7.246700,26.343159,4.589430,0.824115,0.008143,0.076010
5219742653,7.311921,26.561581,5.445077,0.825832,-0.055495,0.079394
5219762705,7.542400,29.231180,2.389057,0.884926,-0.118100,0.076266
5219782757,7.744484,31.783432,-7.169295,0.959688,-0.148832,0.152586
5219802810,8.311660,28.223646,-13.622078,0.974671,-0.124051,0.212571
5219822876,3.729557,26.824635,-8.037540,1.001846,-0.019862,0.174840
5219842913,2.910642,34.054142,6.315116,1.050948,0.055156,0.050172
5219862965,6.533668,40.147552,15.311810,1.011241,-0.007510,0.089969
5219883017,10.316213,39.693436,16.418577,0.970396,-0.089751,0.178243
5219903070,9.934212,39.087296,12.214479,1.055157,-0.075336,0.143778
5219923122,3.986625,42.040115,7.515014,1.093633,-0.074878,0.080608
5219943174,2.914933,43.683056,0.734139,1.011458,-0.118972,0.046545
5219963226,5.318440,38.158295,-2.620301,0.846313,-0.246210,0.133187
5219983279,10.681109,23.662792,-2.617703,0.800653,-0.275841,0.145748
5220003331,14.862062,4.717541,0.841488,0.806685,-0.091540,0.128844
5220023383,17.137936,-11.456605,2.692637,0.760323,0.038158,0.088115
5220043435,14.549746,-25.071230,2.550983,0.685913,0.010488,0.089726
5220063488,11.449616,-39.419010,-1.339549,0.681547,-0.068280,0.065159
5220103592,10.265195,-65.524292,-8.070242,0.740465,-0.030156,-0.035928
5220123644,8.005167,-70.800789,-6.975057,0.871579,0.070236,-0.120320
5220143696,-1.698661,-68.380959,-9.246105,1.012209,0.075287,-0.131832
5220163749,-6.856076,-59.900730,-12.267209,1.154319,0.045180,-0.207274
5220183801,-3.364783,-46.408630,-10.829447,1.322588,0.034154,-0.229129
5220203853,-4.509262,-32.976505,-3.296374,1.568779,-0.047011,-0.211811
5220223905,-3.416678,-27.340698,-3.990704,1.545501,-0.095449,-0.260130
5220243958,-0.267043,-20.132677,-5.494542,1.409855,-0.065500,-0.152104
5220264010,0.430268,-14.778223,-5.854289,1.196621,-0.084411,-0.158396
5220284062,1.170655,-12.562561,-7.991870,1.005017,-0.067412,-0.109056
5220304115,3.795954,-9.326816,-8.041834,0.882848,-0.065390,-0.031057
5220324168,3.566414,-6.738528,-6.686460,0.844702,-0.084737,0.000797
5220344220,4.751246,-4.681108,-6.701544,0.806489,-0.102967,0.028093
5220364273,5.130735,-3.030055,-6.517892,0.760697,-0.073735,0.033519
5220384325,5.795337,-2.757983,-5.003271,0.766423,-0.023983,0.042799
5220404377,4.466424,-1.604766,-2.551197,0.852936,0.001641,0.061566
5220424430,1.998008,-0.831946,-0.248992,0.953970,0.015068,0.050948
5220444482,-0.157426,-1.772679,2.074165,1.000609,0.016666,0.041081
5220464534,-2.796142,-4.589386,3.570270,1.024759,-0.012338,0.010324
5220484586,-3.929775,-7.357391,2.814731,1.040911,-0.052244,-0.019092
5220504638,-1.579568,-10.153083,0.087538,1.039685,-0.050513,-0.044114
5220524691,3.517942,-11.598639,-2.069269,1.047416,-0.041701,-0.045433
5220544743,4.717250,-10.465281,-2.960332,1.067941,-0.010626,-0.016474
5220564795,2.846623,-7.122708,-4.274776,1.084225,-0.022234,-0.004681
5220584847,0.789918,-2.546774,-9.632987,1.047541,-0.068367,0.008862
5220604900,1.135622,0.151012,-13.151463,1.071969,-0.075663,0.028750
5220624963,0.893332,2.181821,-8.709528,1.111159,-0.062148,0.008332
5220645003,3.569601,6.090635,-3.236769,1.092638,-0.061212,0.025912
5220665055,2.749443,9.852051,0.555194,1.103129,-0.010118,0.045753
5220685108,-0.885995,12.790123,5.510560,1.095200,0.033500,0.085818
5220705160,-5.027993,14.760555,8.044171,1.067351,0.003142,0.108420
5220725212,-8.323917,16.370094,7.865462,1.025113,-0.054748,0.126695
5220745264,-13.041735,18.277760,9.474859,0.991617,-0.069164,0.140348
5220765317,-15.459135,19.333914,12.109545,0.974428,-0.031063,0.145329
5220785369,-14.910082,19.567507,11.267282,0.988133,-0.019839,0.165745
5220805421,-15.051299,18.917255,8.237988,0.977881,-0.048541,0.187090
5220825473,-17.332388,18.536507,8.012731,0.960419,-0.068436,0.190014
5220845525,-18.282492,17.649580,9.198438,0.966861,-0.060318,0.191238
5220865578,-17.415659,16.963930,7.927232,0.968135,-0.084758,0.203799
5220885630,-16.154205,16.171263,7.330784,0.971590,-0.098713,0.212256
5220905682,-15.104356,14.428604,7.988212,0.963825,-0.104736,0.217996
5220925734,-13.655008,12.447067,7.676215,0.962067,-0.122760,0.215829
5220945787,-10.606017,10.525569,6.802610,0.957562,-0.154243,0.206891
5220965839,-7.698524,9.011556,6.882598,0.962090,-0.160924,0.215544
5220985891,-5.908590,6.991982,7.404300,0.971923,-0.140084,0.222825
5221005943,-4.319450,4.742096,6.532337,0.972578,-0.142559,0.221131
5221025996,-1.800117,2.561951,4.924650,0.957727,-0.168453,0.217054
5221046048,1.143902,0.425904,3.847188,0.943511,-0.175897,0.219675
5221066100,2.817768,-1.953350,2.839220,0.951890,-0.163047,0.214769
5221086153,3.489398,-4.907706,1.962427,0.936741,-0.144458,0.208176
5221106205,4.967411,-7.480722,0.530774,0.918413,-0.146423,0.194163
5221126258,6.428610,-10.027469,-0.332542,0.923580,-0.146110,0.183472
5221146311,6.276243,-13.117466,-0.200578,0.925181,-0.127915,0.165732
5221166363,6.547216,-16.636120,-1.060128,0.924715,-0.119542,0.147636
5221186415,7.266203,-19.916748,-1.958550,0.931726,-0.119543,0.133690
5221206467,6.942389,-22.383192,-1.487621,0.950600,-0.099571,0.123232
5221246572,8.731723,-24.322395,-3.853779,0.966079,-0.080754,0.070411
5221266624,11.094516,-23.928667,-2.863120,1.027880,-0.094620,0.063375
5221286676,12.084884,-23.358250,-1.326904,1.090671,-0.096867,0.068118
5221306729,10.518017,-22.377790,-0.730996,1.073935,-0.071425,0.064524
5221326781,7.201938,-21.532341,-0.467485,1.070744,-0.038657,0.094750
5221346833,3.862850,-21.346546,1.147362,1.071832,-0.034942,0.093897
5221366885,1.455034,-21.206127,1.829828,1.058773,-0.069186,0.083749
5221386938,0.991189,-20.119331,2.493193,0.998532,-0.088207,0.058821
5221406990,4.266847,-17.847454,3.014745,0.997979,-0.124306,0.031333
5221427056,7.063150,-14.604254,1.570167,1.019426,-0.150426,0.024881
5221447093,9.493917,-10.422033,1.327536,1.054772,-0.153805,0.030987
5221467145,8.993553,-6.309903,1.434805,1.053252,-0.090303,0.056325
5221487198,5.688118,-2.659927,0.991385,1.095090,-0.016860,0.052045
5221507250,0.197914,1.351262,-0.096727,1.109886,-0.016625,0.047149
5221527302,-5.825059,3.502975,-0.556770,1.104666,-0.064470,0.044121
5221547354,-10.190854,5.670808,-0.183763,1.088656,-0.095844,0.038191
5221567407,-11.313543,6.636160,2.359833,1.032497,-0.050095,0.031083
5221587459,-14.471958,6.007041,3.378687,1.007425,-0.038148,0.025314
5221627563,-16.787237,-0.059592,0.846294,0.937035,-0.040970,-0.002509
5221647615,-12.355522,-2.036779,-1.854133,0.925451,-0.084132,-0.026630
5221667668,-8.308944,-5.328813,-3.193260,0.876991,-0.078044,-0.083029
5221687720,-6.790854,-7.400471,-3.421601,0.867715,-0.044611,-0.088117
5221707772,-10.391067,-7.428174,-0.487188,0.883167,-0.020340,-0.076837
5221727825,-14.996407,-6.490528,3.672041,0.912469,-0.020147,-0.067816
5221747877,-15.094544,-7.715521,5.737772,0.960597,-0.047076,-0.084158
5221767929,-13.148161,-8.357349,7.868990,0.996118,-0.098859,-0.114844
5221787982,-9.919809,-8.526182,7.845705,1.030484,-0.134773,-0.096371
5221808034,-8.719802,-8.178023,5.244502,1.054489,-0.128616,-0.088820
5221848138,-9.727790,-9.578363,-2.640015,1.028801,-0.072245,-0.120373
5221868190,-9.282385,-11.335931,-3.710326,1.023703,-0.077045,-0.150437
5221888243,-8.661127,-12.273273,-3.714893,1.022249,-0.073488,-0.168392
5221908296,-8.598869,-13.464650,-4.893126,1.017046,-0.094260,-0.203543
5221928349,-8.392773,-9.535487,-6.831793,0.982649,-0.077025,-0.238522
5221948401,-7.189723,-8.284085,-3.479048,0.930158,-0.017865,-0.287021
5221968453,-1.351714,-5.460145,0.048550,0.991295,-0.082362,-0.295657
5221988505,-0.423612,-6.550938,-6.511394,0.976441,-0.089174,-0.293229
5222008557,1.503387,-8.689734,-5.777118,1.067667,-0.037592,-0.251554
5222028610,0.188357,-9.362957,0.751144,0.948064,-0.039390,-0.282828
5222048662,-3.422583,-11.160098,2.410814,0.823231,-0.018111,-0.319768
5222068714,-0.713374,-13.701530,-1.295066,0.910151,-0.085228,-0.293018
5222088767,1.955474,-12.608673,0.685920,0.904537,-0.080316,-0.208683
5222108819,0.286282,-0.463204,4.593290,0.904590,-0.006113,-0.114749
5222128871,-6.242265,11.782002,6.493594,1.039341,0.004834,0.033677
5222148923,-11.501856,17.285095,4.589313,1.457963,-0.006670,0.009785
5222168976,-9.774046,26.373402,1.768335,1.370222,-0.073281,0.003208
5222189028,-9.829205,35.578110,2.380847,1.040584,-0.133360,0.046100
5222209080,-12.045643,36.916668,6.242280,0.971743,-0.099008,-0.000137
5222229131,-10.669078,33.662739,10.072805,1.058181,-0.081531,-0.011178
5222249183,-7.099566,28.025738,9.363400,1.057477,-0.108117,-0.002241
5222269235,-1.459304,23.278751,6.800936,1.010375,-0.110279,-0.006458
5222289288,4.923924,20.992205,3.585523,0.934491,-0.113415,-0.029954
5222309340,4.994350,20.399456,1.025853,0.883643,-0.079478,-0.050702
5222329392,2.620399,19.046917,3.282295,0.857122,-0.057221,-0.078776
5222349444,-0.718371,17.548538,5.084840,0.852037,-0.038207,-0.076215
5222369497,-2.729834,15.935408,8.971529,0.866313,-0.035611,-0.055604
5222389549,-4.086154,15.963646,12.427914,0.873716,-0.057432,-0.032305
5222409601,-4.405871,15.631661,13.080958,0.933680,-0.082907,-0.031221
5222429654,-1.073880,14.499665,13.106429,1.023399,-0.128791,-0.026055
5222449706,-0.019822,14.235176,12.212654,1.026689,-0.176978,-0.003298
5222469758,0.106576,13.021296,9.814263,0.978530,-0.195108,-0.005793
5222489810,1.047623,11.639768,7.673850,1.002581,-0.169936,-0.015548
5222509863,1.765567,9.231583,5.483999,1.042890,-0.093250,-0.040688
5222529915,-0.747203,8.216434,4.821428,1.014096,-0.044039,-0.083269
5222549967,-5.917158,7.999150,5.816830,1.001642,-0.043610,-0.089542
5222570019,-8.394483,7.118096,5.911681,1.037790,-0.061635,-0.103982
5222590072,-8.609656,6.675653,4.602121,1.049516,-0.082677,-0.103201
5222610124,-7.514599,6.149282,3.072603,1.025600,-0.136952,-0.101925
5222630176,-7.101769,6.380061,1.927240,0.997731,-0.172894,-0.088619
5222650228,-6.484312,6.989303,0.393975,0.978901,-0.191309,-0.070908
5222670280,-5.983475,8.327255,1.359296,0.986696,-0.154750,-0.050463
5222690334,-4.400721,9.459714,2.324946,0.985751,-0.139295,-0.036925
5222710386,-2.710569,9.409884,2.301789,0.981495,-0.122604,-0.018971
5222730439,-2.950447,9.369296,0.937801,0.944280,-0.123143,0.000038
5222750491,-4.811774,9.281019,-0.289034,0.902278,-0.105391,0.002534
5222770543,-6.279692,8.841205,0.107101,0.925589,-0.090248,-0.015925
5222790595,-6.363317,9.245363,-0.720369,0.969195,-0.115483,-0.008235
5222810647,-4.871634,9.518079,-1.153831,0.992346,-0.141224,0.005315
5222830700,-4.486311,10.022554,-1.011705,1.000870,-0.141727,0.013379
5222850752,-5.128456,10.850017,-1.552437,1.011639,-0.130955,0.021692
5222870804,-6.456574,10.756767,-2.915863,1.024008,-0.140151,0.031156
5222890857,-6.377536,10.397693,-3.354233,1.031619,-0.134505,0.005333
5222910909,-6.035035,10.733535,-1.028770,0.986064,-0.114490,-0.056023
5222930961,-8.213331,11.356132,1.228377,1.020480,-0.101536,-0.070470
5222951013,-10.098644,5.811439,5.136148,0.990925,-0.052815,-0.045160
5222971065,-8.402784,-1.150866,4.477439,0.865234,-0.047853,0.010149
5222991118,-9.972930,-5.946869,-3.167811,0.821789,-0.096273,0.042847
5223011169,-14.570000,-8.365826,-7.561241,0.790561,-0.188139,0.066047
5223031221,-15.365026,-15.632310,-6.929606,0.815239,-0.193190,-0.082044
5223051273,-15.689708,-20.826010,-6.744859,0.845307,-0.102006,-0.140325
5223071325,-14.024220,-24.811846,-7.292551,0.847818,-0.046908,-0.176299
5223091378,-11.944822,-28.220997,-7.114794,0.891515,-0.055441,-0.208063
5223111430,-9.035158,-34.430531,-7.640100,0.983864,-0.117951,-0.254309
5223131482,-5.158590,-39.254440,-10.936840,1.080402,-0.154782,-0.297186
5223151534,-2.599177,-40.794327,-14.577909,1.108364,-0.102693,-0.318676
5223191639,0.544839,-34.794659,-17.472109,1.139646,-0.079534,-0.285822
5223211691,0.612294,-26.809616,-17.772490,1.182621,-0.061032,-0.301182
5223231743,-1.564297,-18.055565,-14.209467,1.154036,0.032969,-0.292838
5223251796,-4.966379,-9.628041,-12.986787,1.117285,0.109666,-0.266994
5223271848,-13.968012,-4.565350,-12.243184,1.046903,0.119301,-0.255790
5223291900,-24.103182,0.765599,-6.338840,1.005816,0.070139,-0.313951
5223311953,-27.677265,1.761325,-9.645444,0.966262,0.053387,-0.323035
5223332005,-25.356216,4.229634,-8.290550,1.004576,0.073427,-0.306181
5223352057,-23.195127,4.271031,0.795720,0.965727,0.031835,-0.298796
5223372109,-19.475166,2.346880,8.387585,0.981004,-0.000478,-0.260596
5223392162,-22.192974,-0.691974,14.439436,1.030400,0.081519,-0.252288
5223412214,-27.945370,-2.879274,17.836781,0.980210,0.213413,-0.278528
5223432266,-36.106255,-2.888322,15.247666,0.932673,0.260176,-0.279497
5223452318,-47.249226,-0.828713,7.938356,0.936060,0.229296,-0.266482
5223472371,-60.599701,3.380110,-0.567483,0.999026,0.182191,-0.253585
5223492424,-74.524773,9.689791,-2.820142,1.078990,0.124289,-0.242260
5223512477,-85.297661,16.444836,-0.346170,1.063980,0.074470,-0.222886
5223532529,-90.237541,20.393715,3.734590,1.038480,0.055818,-0.233575
5223552581,-93.851982,23.467844,6.180845,1.047863,0.056716,-0.248515
5223572634,-96.206047,25.594395,8.743608,1.042577,0.056469,-0.233099
5223592686,-100.430016,27.095057,11.506235,0.997118,0.011094,-0.215992
5223612738,-107.477356,28.073483,15.037127,0.969499,0.026531,-0.193190
5223632790,-115.024147,27.410543,17.641632,0.968320,0.071609,-0.185632
5223652843,-122.830444,28.060061,17.975603,0.963301,0.099255,-0.183079
5223672895,-129.964630,28.663372,17.513706,0.939834,0.081301,-0.183310
5223692947,-133.420273,28.337116,15.121092,0.914893,0.042285,-0.201394
5223713000,-133.505035,25.208683,12.714211,0.905689,0.000677,-0.212429
5223733052,-132.225922,21.935795,10.064829,0.933120,-0.022772,-0.230050
5223753104,-127.742950,21.253733,5.631919,0.951151,-0.067834,-0.219857
5223773156,-123.056335,20.555080,1.964470,0.986104,-0.112271,-0.219459
5223793211,-120.499313,22.211384,1.927552,0.978215,-0.091047,-0.252751
5223813259,-121.972878,26.415562,4.384321,0.991735,-0.055180,-0.275428
5223853364,-126.389931,32.612667,-3.873814,1.186168,-0.175009,-0.196138
5223873416,-123.117493,37.179619,-6.566069,1.135150,-0.236716,-0.093541
5223893468,-116.951973,35.082840,-8.364794,1.033519,-0.282259,-0.105095
5223913520,-109.510323,32.052322,-10.274432,0.960751,-0.275617,-0.074060
5223933573,-104.023544,28.938297,-12.562048,0.931930,-0.269115,-0.059616
5223953625,-99.671577,25.548515,-14.067682,0.899572,-0.215816,-0.025017
5223973677,-96.844528,22.215073,-14.693818,0.907853,-0.164041,-0.001655
5223993730,-95.269836,19.423254,-14.813591,0.951262,-0.104502,0.012778
5224013782,-96.411156,16.647896,-15.523630,1.014837,-0.061512,0.016821
5224033834,-101.510880,13.187549,-14.820236,1.076170,-0.033193,0.037286
5224053886,-102.463676,14.305183,-7.593427,1.131842,-0.027820,-0.053448
5224073939,-96.306602,20.746685,1.007074,1.018681,-0.107411,-0.087138
5224093991,-96.762962,18.684515,1.916235,0.929016,-0.164978,0.012229
5224114043,-90.064529,13.366991,-5.510323,0.893291,-0.136409,0.027005
5224134095,-84.003433,11.155371,-4.959139,0.822911,-0.090241,0.019610
5224154148,-76.840286,11.162635,6.755396,0.847012,-0.198826,0.021401
5224174200,-66.177780,10.748391,8.253723,1.034228,-0.283687,-0.007554
5224194252,-59.896595,14.321341,3.737312,1.075786,-0.208969,-0.011578
5224214304,-56.267185,16.680611,-0.281357,1.014443,-0.098435,-0.068641
5224234357,-53.297047,15.976232,0.508241,1.021681,-0.055290,-0.096172
5224254410,-48.192757,14.671317,1.367373,1.125773,-0.079469,-0.081067
5224274462,-41.100471,15.063417,-1.577097,1.144270,-0.135107,-0.067205
5224294515,-33.031578,14.661327,-3.867382,1.098309,-0.160125,-0.036795
5224314567,-25.925732,15.432199,-0.969786,1.081376,-0.196525,-0.038220
5224334619,-21.143129,16.480556,4.981987,1.036362,-0.105428,-0.071858
5224354672,-17.004021,16.950138,7.722503,0.999588,-0.014459,-0.064628
5224374724,-16.892033,19.224545,7.115889,1.012268,-0.039674,-0.037981
5224394776,-19.684353,22.378860,9.387263,1.028347,-0.016121,-0.070949
5224414828,-23.200945,25.606276,11.961798,1.018180,0.046398,-0.094193
5224434881,-24.696766,27.994431,11.794935,0.995318,0.034018,-0.060403
5224454933,-23.524267,28.657692,7.434339,1.016874,-0.051867,-0.039988
5224474985,-21.565208,27.857515,4.935353,0.981830,-0.161725,-0.009973
5224495037,-17.381849,24.473032,6.832711,0.966631,-0.203371,0.021938
5224515090,-14.401012,21.372862,8.115616,0.966787,-0.160789,0.051802
5224535142,-13.880643,17.777714,8.105084,0.940896,-0.140856,0.026394
5224555194,-10.746156,11.758242,8.587046,0.907993,-0.168863,0.023395
5224575245,-5.729493,5.693460,8.363661,0.899578,-0.225018,0.056249
5224595297,-1.414146,-0.373358,8.542213,0.890621,-0.248349,0.071724
5224635402,2.159541,-11.505672,8.003321,0.899577,-0.114976,0.063701
5224655454,4.275679,-17.404339,4.642691,0.886958,-0.164749,0.079547
5224675506,6.589821,-24.797878,1.188616,0.875038,-0.172460,0.095002
5224695558,5.590024,-35.362904,-0.949790,0.860061,-0.106662,0.066687
5224715610,1.309060,-42.963722,-2.756207,0.888977,-0.050486,0.051337
5224735663,-3.807085,-52.044971,-2.510912,0.872786,-0.088786,-0.013590
5224755715,-0.916823,-50.637348,-1.402668,0.822818,-0.099289,-0.131064
5224775768,2.118330,-40.445316,3.267681,1.055736,-0.058177,-0.227771
5224795820,16.179432,-30.464828,-2.069324,1.340011,-0.367606,-0.154738
5224835924,31.278042,-7.770209,-0.417231,1.481418,-0.258062,0.115288
5224855976,25.911842,-3.808614,-2.270690,1.220747,-0.038584,0.057550
5224876029,20.461880,1.269559,-0.353646,0.921072,0.016526,0.094686
5224896081,13.724639,2.810088,-3.077442,0.783011,0.032232,0.108703
5224916133,6.757784,3.954742,-4.541686,0.739701,-0.018368,0.135065
5224936186,-0.239165,4.123448,-4.244237,0.801007,-0.064799,0.150943
5224956238,-4.877888,3.868510,-2.551627,0.811874,-0.089230,0.175478
5224976290,-6.707644,4.399790,0.509082,0.857048,-0.074810,0.160272
5224996342,-5.424949,6.201623,4.382850,0.991805,-0.089836,0.149768
5225016395,-6.545333,9.763578,0.975596,1.152044,-0.106647,0.163186
5225036447,-1.447509,11.969356,-8.408960,1.143000,-0.231277,0.166291
5225056501,9.453102,11.986722,-14.513898,1.070663,-0.351743,0.171717
5225076553,10.879683,14.694772,-9.150249,1.012502,-0.200016,0.142192
5225096605,4.461014,21.285727,2.462988,0.978627,-0.010407,0.134122
5225116657,7.140392,24.733437,4.655646,0.963659,0.008754,0.174056
5225136710,13.923887,25.310467,0.066013,1.013265,-0.157566,0.130709
5225156762,13.221055,30.024853,0.777594,1.069064,-0.202644,0.121175
5225176814,5.241691,32.250324,3.190407,0.931152,-0.056664,0.153407
5225196867,2.664546,27.415422,2.419758,0.897615,-0.014003,0.130136
5225216919,6.894423,19.384266,-1.798265,0.957283,-0.120065,0.144147
5225236971,7.786562,8.678762,-5.293482,0.939822,-0.168007,0.129764
5225257023,5.414512,-3.715860,-6.015417,0.847475,-0.118300,0.151073
5225277075,4.935272,-17.565443,-5.876578,0.750379,-0.059549,0.138163
5225297128,6.573075,-33.863026,-7.268574,0.703834,-0.051177,0.127102
5225317180,5.150015,-48.517342,-8.551476,0.714518,-0.045643,0.105756
5225337232,1.557873,-63.928844,-8.481954,0.719739,-0.060231,0.031073
5225357290,4.327044,-75.435623,-12.172120,0.740250,-0.075795,-0.069847
5225377335,13.024569,-76.991890,-13.950859,0.870657,-0.003424,-0.144012
5225397388,16.166775,-69.162262,-10.803354,1.029492,-0.010085,-0.144991
5225417440,16.238787,-60.333744,-8.590430,1.251236,0.021878,-0.103890
5225457544,9.462504,-47.060108,-7.072532,1.593573,0.049484,-0.010807
5225477596,1.431613,-40.377575,-8.085589,1.261542,-0.057614,-0.002742
5225497649,-0.205222,-41.853401,-8.072351,1.058540,-0.020700,-0.071772
5225517701,0.259592,-40.295677,-8.327988,0.901533,-0.024394,-0.019766
5225537753,0.279204,-38.364307,-7.864754,0.858336,-0.056990,-0.037145
5225557806,2.066142,-36.353779,-5.121147,0.845350,-0.090300,-0.013585
5225577858,1.661638,-34.126846,-3.105097,0.832329,-0.095908,-0.028972
5225597910,4.627150,-33.642597,-2.827383,0.819022,-0.105586,-0.055765
5225617963,6.940260,-32.167015,-2.378540,0.853775,-0.066815,-0.062875
5225638015,6.367499,-29.226812,-1.441101,0.955778,-0.018262,-0.069712
5225658067,7.766302,-26.446550,-0.223380,1.033526,-0.004652,-0.089403
5225678119,8.270304,-25.341276,-0.037891,1.080819,-0.037232,-0.100506
5225698171,6.334062,-25.425480,-1.742188,1.103523,-0.079710,-0.126574
5225718224,5.114723,-25.275957,-4.440386,1.083182,-0.053425,-0.153378
5225738276,5.371889,-25.993797,-5.370214,1.081033,-0.004586,-0.168773
5225758328,7.860378,-26.231224,-4.673003,1.062537,0.007398,-0.192128
5225778380,8.892561,-25.051189,-2.820586,1.018554,-0.012576,-0.190663
5225798433,7.612808,-25.004635,-2.539877,1.007020,-0.009869,-0.183869
5225818485,7.195238,-23.754030,-2.430356,0.982696,-0.025083,-0.163780
5225838538,7.664682,-21.746548,-2.399543,0.944067,-0.035252,-0.131763
5225858591,6.954190,-18.483019,-1.811802,0.937316,-0.027869,-0.103540
5225878643,6.123185,-13.806045,-4.472683,0.989978,-0.016775,-0.072667
5225898695,5.527378,-7.760816,-9.495418,1.034644,-0.027130,-0.066596
5225918747,5.129814,-2.011507,-11.106669,1.068912,-0.089811,-0.064810
5225938800,2.696208,2.807280,-6.514417,1.104131,-0.113518,-0.089006
5225958852,0.158786,6.996248,-1.768378,1.147738,-0.040471,-0.114990
5225978904,-5.756479,8.898066,3.744621,1.144321,-0.011673,-0.152974
5225998957,-4.318657,10.626020,12.567651,1.116475,0.044675,-0.096384
5226019016,-4.118489,11.716344,15.496879,1.131917,0.009801,-0.084965
5226039061,-6.529142,14.799436,14.524572,1.077479,-0.065219,-0.029952
5226059113,-9.041809,17.878250,11.786417,0.972167,-0.116202,-0.001753
5226079166,-10.484701,19.446613,10.386990,0.951980,-0.100773,0.012922
5226099218,-9.927373,19.843622,8.968163,1.004984,-0.098904,0.021183
5226119270,-5.775609,19.123940,6.127079,1.024861,-0.136849,0.039576
5226139322,-1.597358,18.024139,5.568563,1.001150,-0.158225,0.067103
5226159373,-1.766909,17.128242,8.125817,0.975244,-0.114049,0.078859
5226179425,-2.158851,16.624886,10.560535,0.968476,-0.086368,0.084216
5226199478,-1.700118,14.752044,10.453144,0.958115,-0.109743,0.090412
5226219530,0.240651,12.095857,9.794669,0.946269,-0.133958,0.101696
5226239582,3.092746,9.803151,9.248306,0.961672,-0.141945,0.106260
5226259635,4.697540,8.017267,7.306106,0.986475,-0.146275,0.091853
5226279687,6.475835,6.761282,4.945176,0.994583,-0.130005,0.084724
5226299739,7.994663,5.400252,3.047016,0.997195,-0.113953,0.082194
5226319791,8.973924,3.336169,2.174627,0.998747,-0.107552,0.078496
5226339844,9.563031,1.619276,1.384546,0.998476,-0.100160,0.074409
5226359896,7.450209,-0.430757,1.127086,0.989918,-0.083027,0.079422
5226379948,4.644463,-2.619661,1.234138,0.981289,-0.094578,0.079858
5226400000,3.104863,-5.226618,1.152713,0.959110,-0.108678,0.075683
5226420052,1.937266,-7.558808,0.918631,0.942926,-0.099075,0.063460
5226440105,-0.164891,-10.478631,1.164376,0.935588,-0.086572,0.049358
5226460157,-2.142736,-13.666278,0.948684,0.944583,-0.084533,0.038038
5226480209,-2.858424,-16.369856,0.344355,0.934599,-0.105540,0.025396
5226500262,-3.416062,-19.075525,0.444821,0.937315,-0.102822,0.011660
5226520314,-2.696662,-21.146206,-0.003033,0.971876,-0.104703,-0.004524
5226540366,-1.166628,-22.497355,-0.355124,1.011433,-0.119057,-0.042521
5226560418,0.897067,-20.937735,-0.762905,1.016586,-0.115668,-0.098872
5226580470,5.854108,-17.730522,-1.730641,1.041978,-0.169796,-0.126785
5226600523,8.594096,-15.057724,-0.884388,1.143637,-0.227594,-0.130667
5226620576,7.338961,-11.536408,3.802871,1.148095,-0.168625,-0.111959
5226640629,8.153961,-9.762959,6.077740,1.121657,-0.125792,-0.117823
5226660681,12.633901,-6.253757,6.533976,1.062225,-0.200678,-0.097292
5226680733,18.980331,-3.857306,5.576126,1.071820,-0.213352,-0.063632
5226700786,18.014429,0.063716,3.562108,1.129053,-0.139179,-0.050906
5226720838,14.246750,5.182626,5.379896,1.062273,-0.082811,0.006770
5226740890,8.148449,6.087058,7.038706,1.009663,-0.074902,0.066289
5226760942,4.505270,5.253976,7.520327,1.012312,-0.095208,0.075541
5226780995,4.083936,6.052708,7.009932,1.015455,-0.109675,0.028834
5226801047,5.076601,9.823261,4.389431,1.009429,-0.111871,0.015911
5226821099,-0.098827,12.862531,4.145822,0.911903,-0.071397,-0.023511
5226841151,-2.076762,11.767040,5.825239,0.826744,-0.040162,-0.037291
5226861204,-2.017398,8.340790,4.192391,0.925929,-0.094844,-0.102755
5226881256,2.998899,4.144195,0.476248,1.010759,-0.178788,-0.115360
5226901308,4.559116,1.474365,-3.137840,0.961189,-0.166942,-0.156383
5226921363,6.834838,-0.602293,-4.935273,0.934136,-0.081713,-0.202913
5226941411,8.006286,-1.170246,-3.524040,0.938746,-0.068589,-0.156045
5226961464,6.666343,-0.994732,-0.803330,0.931638,-0.110293,-0.135800
5226981516,4.618979,-1.537397,3.125157,0.933223,-0.132657,-0.130622
5227001568,3.217309,-4.112118,5.590102,0.931796,-0.152996,-0.110311
5227021620,1.728611,-4.714568,5.501751,0.943405,-0.175329,-0.104517
5227041672,3.058691,-7.197978,5.183948,0.945113,-0.214357,-0.127502
5227061725,4.320731,-10.069009,2.472554,0.904972,-0.241017,-0.156015
5227081777,4.702628,-12.210236,-2.764840,0.899241,-0.245777,-0.202352
5227101829,4.367260,-11.607468,-6.730595,0.936019,-0.189201,-0.299356
5227121881,4.120323,-8.766513,-5.019874,1.017749,-0.144244,-0.345103
5227141934,5.713045,-5.941678,0.631315,1.021709,-0.096934,-0.468953
5227161986,8.963491,-3.439188,1.629555,1.178297,-0.104075,-0.490572
5227182038,10.751305,-5.299695,-0.297294,1.151246,-0.058221,-0.424494
5227202091,10.520769,-10.709941,5.147963,0.971339,-0.090818,-0.401672
5227222143,13.715363,-15.055117,8.610243,0.940620,-0.122936,-0.464046
5227242195,20.908619,-17.044193,3.582150,0.948419,-0.133287,-0.451965
5227262247,21.259325,-10.384356,-3.663667,0.951874,-0.087396,-0.317781
5227302352,20.171629,28.954079,-0.456520,0.920940,-0.149348,0.122325
5227322404,17.451263,27.729086,-2.869034,1.504323,-0.195498,-0.044140
5227342456,16.988503,43.266075,1.875071,1.405226,-0.137649,0.020470
5227362508,10.446028,53.112206,4.973543,0.849181,-0.086529,0.155171
5227382561,-4.211265,47.719456,5.307994,0.902308,-0.089156,0.160304
5227402615,-6.409302,40.427322,6.933051,1.237241,-0.199481,0.030083
5227422667,-1.044113,32.595364,7.814584,1.061498,-0.251332,0.020894
5227442719,4.210767,23.396235,3.918542,0.849964,-0.217668,0.024912
5227462771,7.904922,19.646446,1.391219,0.799820,-0.189521,-0.019758
5227482824,8.793061,15.890338,0.759639,0.821603,-0.178080,-0.055544
5227502876,5.260855,12.568907,1.401375,0.798585,-0.111174,-0.081384
5227522928,2.032249,10.380031,3.145629,0.804376,-0.083230,-0.072305
5227542981,-0.935338,8.708467,5.986958,0.858907,-0.081033,-0.060402
5227563033,-3.336262,8.993173,6.668924,0.887535,-0.101234,-0.035063
5227583085,-6.097786,8.202939,4.618716,0.936842,-0.125903,-0.020431
5227603137,-7.779158,7.548966,2.590397,0.979694,-0.136828,-0.015820
5227623189,-9.081443,5.097742,1.682246,0.986285,-0.154327,-0.027113
5227643242,-9.159703,2.868045,0.924482,0.963922,-0.187317,-0.037069
5227663294,-8.503360,0.922214,1.074958,0.961510,-0.202148,-0.038187
5227683346,-7.163841,-2.255520,1.396176,0.989532,-0.208754,-0.040638
5227703397,-7.630979,-4.448599,0.827896,1.022077,-0.194105,-0.063389
5227723449,-7.814520,-5.928617,1.075586,1.015355,-0.159485,-0.100373
5227743501,-8.577242,-6.180862,-0.802859,1.011024,-0.156484,-0.125068
5227763553,-8.249803,-5.665199,-4.821598,1.003249,-0.197835,-0.131098
5227783606,-7.951498,-5.160759,-3.398597,0.989079,-0.151491,-0.147548
5227803658,-9.136083,-3.552348,1.249756,0.989299,-0.093262,-0.167397
5227823710,-10.234205,-2.628225,-2.731997,1.034488,-0.102838,-0.157787
5227843762,-8.628956,-2.667912,-8.249903,1.047467,-0.158192,-0.135787
5227863815,-7.389074,-2.717800,-7.818165,0.990127,-0.170465,-0.114694
5227883867,-8.848123,-1.155097,-2.911874,0.938866,-0.122570,-0.118611
5227903919,-10.936682,0.045852,-4.120336,0.970550,-0.108688,-0.118456
5227923972,-11.298056,0.941159,-7.420140,1.015201,-0.117964,-0.125939
5227944024,-11.134736,1.904721,-7.681202,1.010852,-0.158132,-0.125959
5227964076,-10.940245,3.492731,-6.474110,0.964956,-0.171308,-0.112590
5227984128,-7.755432,3.786944,-5.263605,0.964882,-0.143666,-0.098279
5228004181,-7.000028,4.518368,-4.432705,1.006442,-0.117024,-0.109562
5228024233,-8.474779,6.363528,-2.854544,0.996578,-0.101935,-0.113987
5228044285,-8.389841,8.265585,-1.095231,0.966000,-0.092620,-0.112312
5228064338,-7.005328,7.879155,-0.010593,0.996822,-0.096722,-0.111592
5228084390,-6.407540,8.521621,0.123405,1.023823,-0.098506,-0.113470
5228104442,-6.470486,9.178646,-0.356312,1.024422,-0.099403,-0.106367
5228124494,-6.754526,9.925087,-0.874153,1.009590,-0.116643,-0.102455
5228144547,-7.464842,10.841280,-1.718326,1.007452,-0.113030,-0.097241
5228164600,-7.371863,11.981345,-1.608603,0.994899,-0.125215,-0.096007
5228184653,-5.913443,12.448198,-1.322722,0.993400,-0.137609,-0.098419
5228204705,-5.811604,13.712763,-1.941010,0.990463,-0.141950,-0.077395
5228224757,-6.701818,14.429589,-0.518325,0.981972,-0.125841,-0.067736
5228244810,-7.184246,15.561958,1.365103,0.975230,-0.107873,-0.061811
5228264861,-7.275425,16.989397,1.489058,0.981528,-0.094576,-0.054195
5228284914,-5.808476,17.345497,-1.332055,0.994838,-0.146100,-0.044053
5228304966,-5.011749,16.187263,-4.026452,0.991463,-0.166892,-0.048925
5228325019,-6.306032,13.116285,-0.915623,0.973485,-0.124163,-0.082629
5228345071,-8.783589,8.179079,1.231945,0.959390,-0.046332,-0.127436
5228365123,-10.804533,2.664048,1.577552,0.948699,-0.034258,-0.113747
5228385175,-11.824009,-1.689081,0.948697,0.894648,-0.087550,-0.057801
5228405227,-13.254131,-5.333405,-1.213405,0.837019,-0.112456,-0.043289
5228425280,-16.416969,-7.072380,-5.207995,0.812996,-0.122949,-0.029978
5228445332,-17.668024,-10.612812,-9.128836,0.863683,-0.121640,-0.092707
5228465386,-15.417614,-15.390456,-10.636532,0.864385,-0.123934,-0.164656
5228485435,-12.352571,-19.672199,-10.206007,0.871567,-0.107271,-0.169615
5228505487,-9.792820,-23.612644,-9.306588,0.913076,-0.122534,-0.182322
5228525539,-7.813386,-27.154963,-8.476547,0.979072,-0.098996,-0.224025
5228545592,-7.564265,-29.757677,-8.535876,1.053463,-0.055118,-0.261449
5228565644,-6.538228,-30.395729,-9.648144,1.111735,-0.080409,-0.298370
5228585696,-6.149366,-28.906393,-9.835307,1.140385,-0.119637,-0.313981
5228605749,-7.897508,-25.066200,-9.423506,1.144747,-0.132394,-0.336433
5228625801,-6.926134,-19.151535,-7.920856,1.149477,-0.107187,-0.347143
5228645853,-4.061355,-13.257362,-5.615430,1.124107,-0.123186,-0.350227
5228665905,-1.614914,-8.645102,-3.904178,1.104082,-0.113524,-0.344937
5228685958,2.300143,-5.158136,-2.780720,1.063182,-0.087053,-0.317178
5228706010,6.561775,-2.091249,-2.413833,0.985929,-0.086836,-0.264470
5228726062,8.006662,-0.425160,-2.154816,0.923938,-0.085825,-0.202937
5228746114,8.169936,0.988465,-3.273851,0.885109,-0.080758,-0.160101
5228766167,8.526539,1.102498,-6.010373,0.844932,-0.093322,-0.142973
5228786219,9.438617,-0.950254,-7.420883,0.836516,-0.074505,-0.147340
5228806271,10.767070,-4.513167,-7.969915,0.846216,-0.062433,-0.175222
5228826323,13.770886,-8.502028,-7.979959,0.856102,-0.077741,-0.205421
5228846376,16.771427,-13.731362,-7.265725,0.863221,-0.088019,-0.232880
5228866428,17.769606,-18.980076,-6.346093,0.885971,-0.071258,-0.265268
5228886480,17.930746,-23.904898,-6.162442,0.933463,-0.042854,-0.294161
5228906533,16.377474,-27.318136,-5.278556,0.975166,-0.023103,-0.310907
5228926586,12.703390,-28.660246,-3.628012,0.981264,-0.005423,-0.333608
5228946638,10.039913,-29.912584,-4.426133,0.996123,0.003686,-0.353421
5228966691,7.045986,-30.574459,-5.150384,1.014618,-0.003503,-0.363477
5228986743,3.660229,-29.786592,-4.318228,1.019858,0.005696,-0.375452
5229006795,-0.446011,-27.851395,-3.785353,1.006062,0.009128,-0.387586
5229026847,-4.043707,-25.339420,-3.807907,0.993075,-0.003651,-0.389712
5229046899,-5.831842,-22.360748,-3.931229,0.990151,-0.019518,-0.380551
5229066952,-6.509089,-17.967875,-3.665708,1.002043,-0.015311,-0.374063
5229087004,-8.137414,-12.243710,-3.184651,0.999045,-0.007816,-0.364083
5229107056,-9.944711,-7.647145,-1.956908,0.993037,-0.010917,-0.363998
5229127109,-11.580582,-3.779070,-0.855557,0.978083,-0.024476,-0.356768
5229147161,-11.387327,-0.189681,-0.094940,0.991520,-0.034016,-0.326934
5229187265,-10.444530,3.826854,1.406682,1.003765,-0.046380,-0.310163
5229207318,-11.223207,5.705724,1.597533,0.991302,-0.053108,-0.295813
5229227370,-10.156626,7.236294,1.228095,0.990052,-0.060714,-0.281011
5229247421,-8.702974,8.854631,1.131062,0.990825,-0.067364,-0.269568
5229267473,-6.596345,10.518703,1.586907,0.979182,-0.081797,-0.266848
5229287526,-3.694436,10.023173,1.860441,0.962344,-0.092274,-0.266301
5229307578,-1.754128,9.857504,2.466649,0.954218,-0.092764,-0.248357
5229327630,-0.249347,10.038007,3.041501,0.957838,-0.089445,-0.245553
5229347683,1.913368,11.350637,3.089273,0.968674,-0.089623,-0.227751
5229367735,5.449311,12.267151,2.705929,0.972412,-0.109823,-0.217676
5229387787,8.828598,12.589921,2.233738,0.979773,-0.121028,-0.208133
5229407839,10.833632,12.377824,1.437976,0.982116,-0.116806,-0.205529
5229427891,11.908596,12.418145,0.702302,0.989460,-0.100996,-0.206569
5229447944,11.699748,14.768246,0.391119,0.990561,-0.089645,-0.213509
5229467999,11.157372,15.736851,-0.741293,0.985248,-0.097030,-0.220914
5229488048,12.576851,16.700550,-1.078585,1.002817,-0.133133,-0.245092
5229508100,16.636229,17.478737,-3.462481,0.978463,-0.140734,-0.239178
5229528152,21.237562,16.861893,-3.719651,1.007884,-0.101337,-0.207798
5229548205,22.244392,15.626008,-2.116585,1.009146,-0.066360,-0.176293
5229568257,20.823048,13.095935,-0.970525,1.011134,-0.037315,-0.172253
5229588309,19.345179,10.434845,-1.271575,1.004022,-0.031465,-0.175006
5229608361,17.968307,15.099034,-1.794955,1.054049,-0.049508,-0.084285
5229628414,14.910933,21.330141,-0.110091,0.990216,-0.069284,-0.040339
5229648466,16.290430,22.230783,0.424429,0.943085,-0.037776,-0.040765
5229668518,13.542041,23.661236,3.762782,0.895428,-0.017067,-0.008352
5229688571,11.670487,24.430265,4.852157,0.904697,-0.021124,-0.001150
5229708623,8.649580,24.310774,4.686890,0.924749,-0.033560,-0.009862
5229728676,6.959711,23.073975,4.138479,0.944174,-0.040790,-0.022909
5229748729,5.438622,22.986002,3.805841,0.952413,-0.048962,-0.055748
5229768781,4.641634,22.645370,3.587504,0.963028,-0.070095,-0.067606
5229788833,5.570539,21.657278,2.446161,0.981129,-0.078257,-0.056568
5229808885,7.044116,18.431549,1.047074,1.020158,-0.086895,-0.069461
5229828938,8.015068,14.633220,0.855191,1.039950,-0.076242,-0.045359
5229848990,6.644425,12.777205,1.695752,1.036043,-0.057888,-0.025514
5229869042,4.745852,11.554326,2.359999,1.006893,-0.045428,-0.020139
5229889094,2.522102,10.129153,2.585479,0.990419,-0.052166,-0.005818
5229909147,0.511520,8.615285,2.970347,0.978504,-0.069038,-0.002072
5229929199,-0.308065,6.583026,2.985216,0.978094,-0.082050,-0.003378
5229949251,-0.241033,5.391107,2.913510,0.973454,-0.092948,-0.015100
5229969304,0.851689,4.712940,2.589569,0.963077,-0.104287,-0.012225
5229989356,1.959980,4.094022,2.015313,0.968312,-0.102073,-0.004307
5230009408,2.601939,3.604477,1.971301,0.979941,-0.092660,-0.002243
5230029459,2.642155,3.269509,1.782968,0.978628,-0.086168,0.000854
5230049511,2.335284,2.527371,1.194474,0.981690,-0.088235,0.008352
5230069563,2.359632,1.290389,0.046726,0.984240,-0.096343,0.012826
5230089615,2.571255,-0.788995,-1.249763,0.997030,-0.110222,-0.000373
5230109668,3.097619,-1.924342,-2.451090,1.016649,-0.115046,-0.016810
5230129720,4.205516,-2.257331,-3.428016,1.004437,-0.117195,-0.031868
5230149772,5.353761,-2.314594,-2.867378,0.992086,-0.114090,-0.041625
5230169824,5.775375,-1.970550,-1.724288,1.003933,-0.102775,-0.046398
5230189877,6.086306,-1.613252,-1.968155,1.006633,-0.094023,-0.044753
5230209929,6.244642,-1.278572,-2.029995,0.999164,-0.079944,-0.037426
5230229981,6.247672,-0.562445,-1.638358,1.000767,-0.073805,-0.034032
5230250034,5.785593,-0.087385,-0.472674,1.013337,-0.078624,-0.029888
5230270086,5.337258,0.571357,0.912162,1.006335,-0.089958,-0.027171
5230290138,4.361189,0.456824,1.814795,0.998811,-0.084264,-0.021746
5230310190,3.829926,-0.037889,2.165318,1.000172,-0.076668,-0.024460
5230330242,3.234767,-0.098233,2.840261,1.000186,-0.071287,-0.029430
5230350295,2.128663,0.237889,3.112332,0.988705,-0.078275,-0.027068
5230370347,2.083301,0.394323,2.687388,0.981500,-0.084867,-0.023134
5230390399,2.038626,0.541584,2.012369,0.992394,-0.094335,-0.026129
5230410452,1.764922,0.539026,1.891210,0.992700,-0.093381,-0.016595
5230430504,1.936611,0.042370,1.210755,1.001951,-0.085940,-0.012253
5230450556,1.208282,-0.313189,0.962130,0.995203,-0.087522,-0.026642
5230470608,1.010304,-0.389293,1.136777,0.987194,-0.092082,-0.026646
5230490662,0.852860,-0.883630,1.161273,0.987262,-0.090132,-0.023669
5230510714,0.726961,-1.500428,0.996705,0.995082,-0.088443,-0.021088
5230530766,0.052146,-2.066183,1.067102,0.991266,-0.091009,-0.022085
5230550819,-0.672948,-3.074548,0.828304,0.975520,-0.095615,-0.024052
5230570871,-1.756651,-3.768189,0.308125,0.983205,-0.114016,-0.035054
5230590923,-0.127741,-3.307625,-0.573191,0.991421,-0.115417,-0.051794
5230610975,3.165295,-3.530285,-1.968105,1.001291,-0.085104,-0.055619
5230631028,3.649547,-3.137594,-1.598259,1.023397,-0.076191,-0.052021
5230651080,3.259144,-2.118785,0.240054,1.006842,-0.085790,-0.053572
5230671132,3.963558,-1.940725,1.254774,0.993959,-0.094137,-0.044388
5230691185,3.112266,-1.435727,2.753965,1.013084,-0.117866,-0.029254
